"success","trial_type","trial_index","time_elapsed","internal_node_id","interactions","blur_events","focus_events","fullscreenenter_events","fullscreenexit_events","rt","stimulus","key_press","subject_id","participant_id","age","gender","prompt","phase","condition","lure_bin"
"true","fullscreen","0","8914","0.0-0.0","""event"",""trial"",""time""
""fullscreenenter"",""0"",""7932""
","
","
","""event"",""trial"",""time""
""fullscreenenter"",""0"",""7932""
","
","","","","","","","","","","",""
"","pavlovia","1","8925","0.0-1.0","""event"",""trial"",""time""
""fullscreenenter"",""0"",""7932""
","
","
","""event"",""trial"",""time""
""fullscreenenter"",""0"",""7932""
","
","","","","","","","","","","",""
"","welcome","2","43740","0.0-2.0","""event"",""trial"",""time""
""fullscreenenter"",""0"",""7932""
","
","
","""event"",""trial"",""time""
""fullscreenenter"",""0"",""7932""
","
","null","run_exp/static/audio/clip_1_welcome.m4a","null","581","132","14","Female","<div class='center'><p>Welcome to the third part of the study! First, you'll be shown pictures of items one at a time. For each picture, you have to decide if the item is typically found indoors or outdoors.</p><p>If you think it's usually found indoors, then press <b>v</b> key on your keyboard. If you think it's usually found outdoors, then press the <b>n</b> key.There will be reminders on the screen to help you remember which keys to press. </p><p>If you're not sure whether the item is an indoor item or an outdoor item, go ahead and take a guess but try your best not to skip that choice. </p></div>","","",""
"","html-keyboard-response","3","44345","0.0-3.0","""event"",""trial"",""time""
""fullscreenenter"",""0"",""7932""
","
","
","""event"",""trial"",""time""
""fullscreenenter"",""0"",""7932""
","
","603.2000000476837","<div class='center'><p>Welcome to the third part of the study! First, you'll be shown pictures of items one at a time. For each picture, you have to decide if the item is typically found indoors or outdoors.</p><p>If you think it's usually found indoors, then press <b>v</b> key on your keyboard. If you think it's usually found outdoors, then press the <b>n</b> key.There will be reminders on the screen to help you remember which keys to press. </p><p>If you're not sure whether the item is an indoor item or an outdoor item, go ahead and take a guess but try your best not to skip that choice. </p><div><p><b>[Press the space bar to continue]</b></p></div>","32","","","","","","","",""
"","image","4","46351","0.0-4.0","""event"",""trial"",""time""
""fullscreenenter"",""0"",""7932""
","
","
","""event"",""trial"",""time""
""fullscreenenter"",""0"",""7932""
","
","null","run_exp/static/images/Set 6_rs/121a.jpg","null","","","","","","learn","SR",""
"","show_choice","5","48357","0.0-5.0","""event"",""trial"",""time""
""fullscreenenter"",""0"",""7932""
","
","
","""event"",""trial"",""time""
""fullscreenenter"",""0"",""7932""
","
","null","run_exp/static/images/blank.png","null","","","","","","learn","SR",""
"","html-keyboard-response","6","48862","0.0-6.0","""event"",""trial"",""time""
""fullscreenenter"",""0"",""7932""
","
","
","""event"",""trial"",""time""
""fullscreenenter"",""0"",""7932""
","
","null","<p></p>","null","","","","","","","",""
"","image","7","49750","0.0-7.0","""event"",""trial"",""time""
""fullscreenenter"",""0"",""7932""
","
","
","""event"",""trial"",""time""
""fullscreenenter"",""0"",""7932""
","
","886","run_exp/static/images/Set 6_rs/172a.jpg","78","","","","","","learn","SR",""
"","show_choice","8","50866","0.0-8.0","""event"",""trial"",""time""
""fullscreenenter"",""0"",""7932""
","
","
","""event"",""trial"",""time""
""fullscreenenter"",""0"",""7932""
","
","null","run_exp/static/images/Set 6_rs/172a.jpg","null","","","","","","learn","SR",""
"","html-keyboard-response","9","51372","0.0-9.0","""event"",""trial"",""time""
""fullscreenenter"",""0"",""7932""
","
","
","""event"",""trial"",""time""
""fullscreenenter"",""0"",""7932""
","
","null","<p></p>","null","","","","","","","",""
"","image","10","52452","0.0-10.0","""event"",""trial"",""time""
""fullscreenenter"",""0"",""7932""
","
","
","""event"",""trial"",""time""
""fullscreenenter"",""0"",""7932""
","
","1078.5","run_exp/static/images/Set 6_rs/091a.jpg","86","","","","","","learn","SL",""
"","show_choice","11","53375","0.0-11.0","""event"",""trial"",""time""
""fullscreenenter"",""0"",""7932""
","
","
","""event"",""trial"",""time""
""fullscreenenter"",""0"",""7932""
","
","null","run_exp/static/images/Set 6_rs/091a.jpg","null","","","","","","learn","SL",""
"","html-keyboard-response","12","53880","0.0-12.0","""event"",""trial"",""time""
""fullscreenenter"",""0"",""7932""
","
","
","""event"",""trial"",""time""
""fullscreenenter"",""0"",""7932""
","
","null","<p></p>","null","","","","","","","",""
"","image","13","55109","0.0-13.0","""event"",""trial"",""time""
""fullscreenenter"",""0"",""7932""
","
","
","""event"",""trial"",""time""
""fullscreenenter"",""0"",""7932""
","
","1227","run_exp/static/images/Set 6_rs/085a.jpg","86","","","","","","learn","SL",""
"","show_choice","14","55886","0.0-14.0","""event"",""trial"",""time""
""fullscreenenter"",""0"",""7932""
","
","
","""event"",""trial"",""time""
""fullscreenenter"",""0"",""7932""
","
","null","run_exp/static/images/Set 6_rs/085a.jpg","null","","","","","","learn","SL",""
"","html-keyboard-response","15","56389","0.0-15.0","""event"",""trial"",""time""
""fullscreenenter"",""0"",""7932""
","
","
","""event"",""trial"",""time""
""fullscreenenter"",""0"",""7932""
","
","null","<p></p>","null","","","","","","","",""
"","image","16","57392","0.0-16.0","""event"",""trial"",""time""
""fullscreenenter"",""0"",""7932""
","
","
","""event"",""trial"",""time""
""fullscreenenter"",""0"",""7932""
","
","1001.5","run_exp/static/images/Set 6_rs/108a.jpg","78","","","","","","learn","SR",""
"","show_choice","17","58395","0.0-17.0","""event"",""trial"",""time""
""fullscreenenter"",""0"",""7932""
","
","
","""event"",""trial"",""time""
""fullscreenenter"",""0"",""7932""
","
","null","run_exp/static/images/Set 6_rs/108a.jpg","null","","","","","","learn","SR",""
"","html-keyboard-response","18","58901","0.0-18.0","""event"",""trial"",""time""
""fullscreenenter"",""0"",""7932""
","
","
","""event"",""trial"",""time""
""fullscreenenter"",""0"",""7932""
","
","null","<p></p>","null","","","","","","","",""
"","image","19","59901","0.0-19.0","""event"",""trial"",""time""
""fullscreenenter"",""0"",""7932""
","
","
","""event"",""trial"",""time""
""fullscreenenter"",""0"",""7932""
","
","998.4000000953674","run_exp/static/images/Set 6_rs/144a.jpg","86","","","","","","learn","SL",""
"","show_choice","20","60907","0.0-20.0","""event"",""trial"",""time""
""fullscreenenter"",""0"",""7932""
","
","
","""event"",""trial"",""time""
""fullscreenenter"",""0"",""7932""
","
","null","run_exp/static/images/Set 6_rs/144a.jpg","null","","","","","","learn","SL",""
"","html-keyboard-response","21","61409","0.0-21.0","""event"",""trial"",""time""
""fullscreenenter"",""0"",""7932""
","
","
","""event"",""trial"",""time""
""fullscreenenter"",""0"",""7932""
","
","null","<p></p>","null","","","","","","","",""
"","image","22","62369","0.0-22.0","""event"",""trial"",""time""
""fullscreenenter"",""0"",""7932""
","
","
","""event"",""trial"",""time""
""fullscreenenter"",""0"",""7932""
","
","958.8000000715256","run_exp/static/images/Set 6_rs/025a.jpg","78","","","","","","learn","SL",""
"","show_choice","23","63416","0.0-23.0","""event"",""trial"",""time""
""fullscreenenter"",""0"",""7932""
","
","
","""event"",""trial"",""time""
""fullscreenenter"",""0"",""7932""
","
","null","run_exp/static/images/Set 6_rs/025a.jpg","null","","","","","","learn","SL",""
"","html-keyboard-response","24","63922","0.0-24.0","""event"",""trial"",""time""
""fullscreenenter"",""0"",""7932""
","
","
","""event"",""trial"",""time""
""fullscreenenter"",""0"",""7932""
","
","null","<p></p>","null","","","","","","","",""
"","image","25","64816","0.0-25.0","""event"",""trial"",""time""
""fullscreenenter"",""0"",""7932""
","
","
","""event"",""trial"",""time""
""fullscreenenter"",""0"",""7932""
","
","893.1000000238419","run_exp/static/images/Set 6_rs/168a.jpg","86","","","","","","learn","SL",""
"","show_choice","26","65928","0.0-26.0","""event"",""trial"",""time""
""fullscreenenter"",""0"",""7932""
","
","
","""event"",""trial"",""time""
""fullscreenenter"",""0"",""7932""
","
","null","run_exp/static/images/Set 6_rs/168a.jpg","null","","","","","","learn","SL",""
"","html-keyboard-response","27","66434","0.0-27.0","""event"",""trial"",""time""
""fullscreenenter"",""0"",""7932""
","
","
","""event"",""trial"",""time""
""fullscreenenter"",""0"",""7932""
","
","null","<p></p>","null","","","","","","","",""
"","image","28","67341","0.0-28.0","""event"",""trial"",""time""
""fullscreenenter"",""0"",""7932""
","
","
","""event"",""trial"",""time""
""fullscreenenter"",""0"",""7932""
","
","905.2999999523163","run_exp/static/images/Set 6_rs/169a.jpg","78","","","","","","learn","SR",""
"","show_choice","29","68441","0.0-29.0","""event"",""trial"",""time""
""fullscreenenter"",""0"",""7932""
","
","
","""event"",""trial"",""time""
""fullscreenenter"",""0"",""7932""
","
","null","run_exp/static/images/Set 6_rs/169a.jpg","null","","","","","","learn","SR",""
"","html-keyboard-response","30","68943","0.0-30.0","""event"",""trial"",""time""
""fullscreenenter"",""0"",""7932""
","
","
","""event"",""trial"",""time""
""fullscreenenter"",""0"",""7932""
","
","null","<p></p>","null","","","","","","","",""
"","image","31","69604","0.0-31.0","""event"",""trial"",""time""
""fullscreenenter"",""0"",""7932""
","
","
","""event"",""trial"",""time""
""fullscreenenter"",""0"",""7932""
","
","660","run_exp/static/images/Set 6_rs/014a.jpg","86","","","","","","learn","SL",""
"","show_choice","32","70946","0.0-32.0","""event"",""trial"",""time""
""fullscreenenter"",""0"",""7932""
","
","
","""event"",""trial"",""time""
""fullscreenenter"",""0"",""7932""
","
","null","run_exp/static/images/Set 6_rs/014a.jpg","null","","","","","","learn","SL",""
"","html-keyboard-response","33","71451","0.0-33.0","""event"",""trial"",""time""
""fullscreenenter"",""0"",""7932""
","
","
","""event"",""trial"",""time""
""fullscreenenter"",""0"",""7932""
","
","null","<p></p>","null","","","","","","","",""
"","image","34","72202","0.0-34.0","""event"",""trial"",""time""
""fullscreenenter"",""0"",""7932""
","
","
","""event"",""trial"",""time""
""fullscreenenter"",""0"",""7932""
","
","749.2999999523163","run_exp/static/images/Set 6_rs/129a.jpg","86","","","","","","learn","SL",""
"","show_choice","35","73456","0.0-35.0","""event"",""trial"",""time""
""fullscreenenter"",""0"",""7932""
","
","
","""event"",""trial"",""time""
""fullscreenenter"",""0"",""7932""
","
","null","run_exp/static/images/Set 6_rs/129a.jpg","null","","","","","","learn","SL",""
"","html-keyboard-response","36","73963","0.0-36.0","""event"",""trial"",""time""
""fullscreenenter"",""0"",""7932""
","
","
","""event"",""trial"",""time""
""fullscreenenter"",""0"",""7932""
","
","null","<p></p>","null","","","","","","","",""
"","image","37","75122","0.0-37.0","""event"",""trial"",""time""
""fullscreenenter"",""0"",""7932""
","
","
","""event"",""trial"",""time""
""fullscreenenter"",""0"",""7932""
","
","1157.2999999523163","run_exp/static/images/Set 6_rs/017a.jpg","86","","","","","","learn","SL",""
"","show_choice","38","75966","0.0-38.0","""event"",""trial"",""time""
""fullscreenenter"",""0"",""7932""
","
","
","""event"",""trial"",""time""
""fullscreenenter"",""0"",""7932""
","
","null","run_exp/static/images/Set 6_rs/017a.jpg","null","","","","","","learn","SL",""
"","html-keyboard-response","39","76468","0.0-39.0","""event"",""trial"",""time""
""fullscreenenter"",""0"",""7932""
","
","
","""event"",""trial"",""time""
""fullscreenenter"",""0"",""7932""
","
","null","<p></p>","null","","","","","","","",""
"","image","40","77058","0.0-40.0","""event"",""trial"",""time""
""fullscreenenter"",""0"",""7932""
","
","
","""event"",""trial"",""time""
""fullscreenenter"",""0"",""7932""
","
","588.8999999761581","run_exp/static/images/Set 6_rs/187a.jpg","86","","","","","","learn","SR",""
"","show_choice","41","78474","0.0-41.0","""event"",""trial"",""time""
""fullscreenenter"",""0"",""7932""
","
","
","""event"",""trial"",""time""
""fullscreenenter"",""0"",""7932""
","
","null","run_exp/static/images/Set 6_rs/187a.jpg","null","","","","","","learn","SR",""
"","html-keyboard-response","42","78980","0.0-42.0","""event"",""trial"",""time""
""fullscreenenter"",""0"",""7932""
","
","
","""event"",""trial"",""time""
""fullscreenenter"",""0"",""7932""
","
","null","<p></p>","null","","","","","","","",""
"","image","43","79983","0.0-43.0","""event"",""trial"",""time""
""fullscreenenter"",""0"",""7932""
","
","
","""event"",""trial"",""time""
""fullscreenenter"",""0"",""7932""
","
","1001.8000000715256","run_exp/static/images/Set 6_rs/061a.jpg","86","","","","","","learn","SR",""
"","show_choice","44","80983","0.0-44.0","""event"",""trial"",""time""
""fullscreenenter"",""0"",""7932""
","
","
","""event"",""trial"",""time""
""fullscreenenter"",""0"",""7932""
","
","null","run_exp/static/images/Set 6_rs/061a.jpg","null","","","","","","learn","SR",""
"","html-keyboard-response","45","81485","0.0-45.0","""event"",""trial"",""time""
""fullscreenenter"",""0"",""7932""
","
","
","""event"",""trial"",""time""
""fullscreenenter"",""0"",""7932""
","
","null","<p></p>","null","","","","","","","",""
"","image","46","82284","0.0-46.0","""event"",""trial"",""time""
""fullscreenenter"",""0"",""7932""
","
","
","""event"",""trial"",""time""
""fullscreenenter"",""0"",""7932""
","
","797.6000000238419","run_exp/static/images/Set 6_rs/073a.jpg","86","","","","","","learn","SL",""
"","show_choice","47","83491","0.0-47.0","""event"",""trial"",""time""
""fullscreenenter"",""0"",""7932""
","
","
","""event"",""trial"",""time""
""fullscreenenter"",""0"",""7932""
","
","null","run_exp/static/images/Set 6_rs/073a.jpg","null","","","","","","learn","SL",""
"","html-keyboard-response","48","83997","0.0-48.0","""event"",""trial"",""time""
""fullscreenenter"",""0"",""7932""
","
","
","""event"",""trial"",""time""
""fullscreenenter"",""0"",""7932""
","
","null","<p></p>","null","","","","","","","",""
"","image","49","85172","0.0-49.0","""event"",""trial"",""time""
""fullscreenenter"",""0"",""7932""
","
","
","""event"",""trial"",""time""
""fullscreenenter"",""0"",""7932""
","
","1172.8999999761581","run_exp/static/images/Set 6_rs/138a.jpg","86","","","","","","learn","SL",""
"","show_choice","50","86000","0.0-50.0","""event"",""trial"",""time""
""fullscreenenter"",""0"",""7932""
","
","
","""event"",""trial"",""time""
""fullscreenenter"",""0"",""7932""
","
","null","run_exp/static/images/Set 6_rs/138a.jpg","null","","","","","","learn","SL",""
"","html-keyboard-response","51","86506","0.0-51.0","""event"",""trial"",""time""
""fullscreenenter"",""0"",""7932""
","
","
","""event"",""trial"",""time""
""fullscreenenter"",""0"",""7932""
","
","null","<p></p>","null","","","","","","","",""
"","image","52","87398","0.0-52.0","""event"",""trial"",""time""
""fullscreenenter"",""0"",""7932""
","
","
","""event"",""trial"",""time""
""fullscreenenter"",""0"",""7932""
","
","890.6000000238419","run_exp/static/images/Set 6_rs/177a.jpg","78","","","","","","learn","SR",""
"","show_choice","53","88509","0.0-53.0","""event"",""trial"",""time""
""fullscreenenter"",""0"",""7932""
","
","
","""event"",""trial"",""time""
""fullscreenenter"",""0"",""7932""
","
","null","run_exp/static/images/Set 6_rs/177a.jpg","null","","","","","","learn","SR",""
"","html-keyboard-response","54","89011","0.0-54.0","""event"",""trial"",""time""
""fullscreenenter"",""0"",""7932""
","
","
","""event"",""trial"",""time""
""fullscreenenter"",""0"",""7932""
","
","null","<p></p>","null","","","","","","","",""
"","image","55","89784","0.0-55.0","""event"",""trial"",""time""
""fullscreenenter"",""0"",""7932""
","
","
","""event"",""trial"",""time""
""fullscreenenter"",""0"",""7932""
","
","772.1000000238419","run_exp/static/images/Set 6_rs/055a.jpg","86","","","","","","learn","SL",""
"","show_choice","56","91013","0.0-56.0","""event"",""trial"",""time""
""fullscreenenter"",""0"",""7932""
","
","
","""event"",""trial"",""time""
""fullscreenenter"",""0"",""7932""
","
","null","run_exp/static/images/Set 6_rs/055a.jpg","null","","","","","","learn","SL",""
"","html-keyboard-response","57","91516","0.0-57.0","""event"",""trial"",""time""
""fullscreenenter"",""0"",""7932""
","
","
","""event"",""trial"",""time""
""fullscreenenter"",""0"",""7932""
","
","null","<p></p>","null","","","","","","","",""
"","image","58","92175","0.0-58.0","""event"",""trial"",""time""
""fullscreenenter"",""0"",""7932""
","
","
","""event"",""trial"",""time""
""fullscreenenter"",""0"",""7932""
","
","657","run_exp/static/images/Set 6_rs/116a.jpg","78","","","","","","learn","SL",""
"","show_choice","59","93519","0.0-59.0","""event"",""trial"",""time""
""fullscreenenter"",""0"",""7932""
","
","
","""event"",""trial"",""time""
""fullscreenenter"",""0"",""7932""
","
","null","run_exp/static/images/Set 6_rs/116a.jpg","null","","","","","","learn","SL",""
"","html-keyboard-response","60","94025","0.0-60.0","""event"",""trial"",""time""
""fullscreenenter"",""0"",""7932""
","
","
","""event"",""trial"",""time""
""fullscreenenter"",""0"",""7932""
","
","null","<p></p>","null","","","","","","","",""
"","image","61","94882","0.0-61.0","""event"",""trial"",""time""
""fullscreenenter"",""0"",""7932""
","
","
","""event"",""trial"",""time""
""fullscreenenter"",""0"",""7932""
","
","856.1999999284744","run_exp/static/images/Set 6_rs/111a.jpg","86","","","","","","learn","SL",""
"","show_choice","62","96032","0.0-62.0","""event"",""trial"",""time""
""fullscreenenter"",""0"",""7932""
","
","
","""event"",""trial"",""time""
""fullscreenenter"",""0"",""7932""
","
","null","run_exp/static/images/Set 6_rs/111a.jpg","null","","","","","","learn","SL",""
"","html-keyboard-response","63","96533","0.0-63.0","""event"",""trial"",""time""
""fullscreenenter"",""0"",""7932""
","
","
","""event"",""trial"",""time""
""fullscreenenter"",""0"",""7932""
","
","null","<p></p>","null","","","","","","","",""
"","image","64","97627","0.0-64.0","""event"",""trial"",""time""
""fullscreenenter"",""0"",""7932""
","
","
","""event"",""trial"",""time""
""fullscreenenter"",""0"",""7932""
","
","1093","run_exp/static/images/Set 6_rs/134a.jpg","86","","","","","","learn","SR",""
"","show_choice","65","98539","0.0-65.0","""event"",""trial"",""time""
""fullscreenenter"",""0"",""7932""
","
","
","""event"",""trial"",""time""
""fullscreenenter"",""0"",""7932""
","
","null","run_exp/static/images/Set 6_rs/134a.jpg","null","","","","","","learn","SR",""
"","html-keyboard-response","66","99045","0.0-66.0","""event"",""trial"",""time""
""fullscreenenter"",""0"",""7932""
","
","
","""event"",""trial"",""time""
""fullscreenenter"",""0"",""7932""
","
","null","<p></p>","null","","","","","","","",""
"","image","67","99805","0.0-67.0","""event"",""trial"",""time""
""fullscreenenter"",""0"",""7932""
","
","
","""event"",""trial"",""time""
""fullscreenenter"",""0"",""7932""
","
","758.5","run_exp/static/images/Set 6_rs/131a.jpg","86","","","","","","learn","SR",""
"","show_choice","68","101052","0.0-68.0","""event"",""trial"",""time""
""fullscreenenter"",""0"",""7932""
","
","
","""event"",""trial"",""time""
""fullscreenenter"",""0"",""7932""
","
","null","run_exp/static/images/Set 6_rs/131a.jpg","null","","","","","","learn","SR",""
"","html-keyboard-response","69","101558","0.0-69.0","""event"",""trial"",""time""
""fullscreenenter"",""0"",""7932""
","
","
","""event"",""trial"",""time""
""fullscreenenter"",""0"",""7932""
","
","null","<p></p>","null","","","","","","","",""
"","image","70","102881","0.0-70.0","""event"",""trial"",""time""
""fullscreenenter"",""0"",""7932""
","
","
","""event"",""trial"",""time""
""fullscreenenter"",""0"",""7932""
","
","1322","run_exp/static/images/Set 6_rs/112a.jpg","86","","","","","","learn","SR",""
"","show_choice","71","103561","0.0-71.0","""event"",""trial"",""time""
""fullscreenenter"",""0"",""7932""
","
","
","""event"",""trial"",""time""
""fullscreenenter"",""0"",""7932""
","
","null","run_exp/static/images/Set 6_rs/112a.jpg","null","","","","","","learn","SR",""
"","html-keyboard-response","72","104065","0.0-72.0","""event"",""trial"",""time""
""fullscreenenter"",""0"",""7932""
","
","
","""event"",""trial"",""time""
""fullscreenenter"",""0"",""7932""
","
","null","<p></p>","null","","","","","","","",""
"","image","73","105193","0.0-73.0","""event"",""trial"",""time""
""fullscreenenter"",""0"",""7932""
","
","
","""event"",""trial"",""time""
""fullscreenenter"",""0"",""7932""
","
","1126.2000000476837","run_exp/static/images/Set 6_rs/024a.jpg","78","","","","","","learn","SR",""
"","show_choice","74","106070","0.0-74.0","""event"",""trial"",""time""
""fullscreenenter"",""0"",""7932""
","
","
","""event"",""trial"",""time""
""fullscreenenter"",""0"",""7932""
","
","null","run_exp/static/images/Set 6_rs/024a.jpg","null","","","","","","learn","SR",""
"","html-keyboard-response","75","106575","0.0-75.0","""event"",""trial"",""time""
""fullscreenenter"",""0"",""7932""
","
","
","""event"",""trial"",""time""
""fullscreenenter"",""0"",""7932""
","
","null","<p></p>","null","","","","","","","",""
"","image","76","107289","0.0-76.0","""event"",""trial"",""time""
""fullscreenenter"",""0"",""7932""
","
","
","""event"",""trial"",""time""
""fullscreenenter"",""0"",""7932""
","
","712.3000000715256","run_exp/static/images/Set 6_rs/074a.jpg","78","","","","","","learn","SL",""
"","show_choice","77","108580","0.0-77.0","""event"",""trial"",""time""
""fullscreenenter"",""0"",""7932""
","
","
","""event"",""trial"",""time""
""fullscreenenter"",""0"",""7932""
","
","null","run_exp/static/images/Set 6_rs/074a.jpg","null","","","","","","learn","SL",""
"","html-keyboard-response","78","109085","0.0-78.0","""event"",""trial"",""time""
""fullscreenenter"",""0"",""7932""
","
","
","""event"",""trial"",""time""
""fullscreenenter"",""0"",""7932""
","
","null","<p></p>","null","","","","","","","",""
"","image","79","109896","0.0-79.0","""event"",""trial"",""time""
""fullscreenenter"",""0"",""7932""
","
","
","""event"",""trial"",""time""
""fullscreenenter"",""0"",""7932""
","
","809.2999999523163","run_exp/static/images/Set 6_rs/019a.jpg","86","","","","","","learn","SL",""
"","show_choice","80","111092","0.0-80.0","""event"",""trial"",""time""
""fullscreenenter"",""0"",""7932""
","
","
","""event"",""trial"",""time""
""fullscreenenter"",""0"",""7932""
","
","null","run_exp/static/images/Set 6_rs/019a.jpg","null","","","","","","learn","SL",""
"","html-keyboard-response","81","111597","0.0-81.0","""event"",""trial"",""time""
""fullscreenenter"",""0"",""7932""
","
","
","""event"",""trial"",""time""
""fullscreenenter"",""0"",""7932""
","
","null","<p></p>","null","","","","","","","",""
"","image","82","112471","0.0-82.0","""event"",""trial"",""time""
""fullscreenenter"",""0"",""7932""
","
","
","""event"",""trial"",""time""
""fullscreenenter"",""0"",""7932""
","
","872.2000000476837","run_exp/static/images/Set 6_rs/122a.jpg","86","","","","","","learn","SR",""
"","show_choice","83","113600","0.0-83.0","""event"",""trial"",""time""
""fullscreenenter"",""0"",""7932""
","
","
","""event"",""trial"",""time""
""fullscreenenter"",""0"",""7932""
","
","null","run_exp/static/images/Set 6_rs/122a.jpg","null","","","","","","learn","SR",""
"","html-keyboard-response","84","114105","0.0-84.0","""event"",""trial"",""time""
""fullscreenenter"",""0"",""7932""
","
","
","""event"",""trial"",""time""
""fullscreenenter"",""0"",""7932""
","
","null","<p></p>","null","","","","","","","",""
"","image","85","114847","0.0-85.0","""event"",""trial"",""time""
""fullscreenenter"",""0"",""7932""
","
","
","""event"",""trial"",""time""
""fullscreenenter"",""0"",""7932""
","
","739.8999999761581","run_exp/static/images/Set 6_rs/006a.jpg","86","","","","","","learn","SL",""
"","show_choice","86","116112","0.0-86.0","""event"",""trial"",""time""
""fullscreenenter"",""0"",""7932""
","
","
","""event"",""trial"",""time""
""fullscreenenter"",""0"",""7932""
","
","null","run_exp/static/images/Set 6_rs/006a.jpg","null","","","","","","learn","SL",""
"","html-keyboard-response","87","116618","0.0-87.0","""event"",""trial"",""time""
""fullscreenenter"",""0"",""7932""
","
","
","""event"",""trial"",""time""
""fullscreenenter"",""0"",""7932""
","
","null","<p></p>","null","","","","","","","",""
"","image","88","117187","0.0-88.0","""event"",""trial"",""time""
""fullscreenenter"",""0"",""7932""
","
","
","""event"",""trial"",""time""
""fullscreenenter"",""0"",""7932""
","
","568.5","run_exp/static/images/Set 6_rs/075a.jpg","86","","","","","","learn","SR",""
"","show_choice","89","118624","0.0-89.0","""event"",""trial"",""time""
""fullscreenenter"",""0"",""7932""
","
","
","""event"",""trial"",""time""
""fullscreenenter"",""0"",""7932""
","
","null","run_exp/static/images/Set 6_rs/075a.jpg","null","","","","","","learn","SR",""
"","html-keyboard-response","90","119127","0.0-90.0","""event"",""trial"",""time""
""fullscreenenter"",""0"",""7932""
","
","
","""event"",""trial"",""time""
""fullscreenenter"",""0"",""7932""
","
","null","<p></p>","null","","","","","","","",""
"","image","91","119726","0.0-91.0","""event"",""trial"",""time""
""fullscreenenter"",""0"",""7932""
","
","
","""event"",""trial"",""time""
""fullscreenenter"",""0"",""7932""
","
","598.0999999046326","run_exp/static/images/Set 6_rs/089a.jpg","86","","","","","","learn","SL",""
"","show_choice","92","121129","0.0-92.0","""event"",""trial"",""time""
""fullscreenenter"",""0"",""7932""
","
","
","""event"",""trial"",""time""
""fullscreenenter"",""0"",""7932""
","
","null","run_exp/static/images/Set 6_rs/089a.jpg","null","","","","","","learn","SL",""
"","html-keyboard-response","93","121633","0.0-93.0","""event"",""trial"",""time""
""fullscreenenter"",""0"",""7932""
","
","
","""event"",""trial"",""time""
""fullscreenenter"",""0"",""7932""
","
","null","<p></p>","null","","","","","","","",""
"","image","94","122276","0.0-94.0","""event"",""trial"",""time""
""fullscreenenter"",""0"",""7932""
","
","
","""event"",""trial"",""time""
""fullscreenenter"",""0"",""7932""
","
","641.3999999761581","run_exp/static/images/Set 6_rs/117a.jpg","86","","","","","","learn","SL",""
"","show_choice","95","123636","0.0-95.0","""event"",""trial"",""time""
""fullscreenenter"",""0"",""7932""
","
","
","""event"",""trial"",""time""
""fullscreenenter"",""0"",""7932""
","
","null","run_exp/static/images/Set 6_rs/117a.jpg","null","","","","","","learn","SL",""
"","html-keyboard-response","96","124141","0.0-96.0","""event"",""trial"",""time""
""fullscreenenter"",""0"",""7932""
","
","
","""event"",""trial"",""time""
""fullscreenenter"",""0"",""7932""
","
","null","<p></p>","null","","","","","","","",""
"","image","97","125790","0.0-97.0","""event"",""trial"",""time""
""fullscreenenter"",""0"",""7932""
","
","
","""event"",""trial"",""time""
""fullscreenenter"",""0"",""7932""
","
","1646.8999999761581","run_exp/static/images/Set 6_rs/126a.jpg","86","","","","","","learn","SR",""
"","show_choice","98","126148","0.0-98.0","""event"",""trial"",""time""
""fullscreenenter"",""0"",""7932""
","
","
","""event"",""trial"",""time""
""fullscreenenter"",""0"",""7932""
","
","null","run_exp/static/images/Set 6_rs/126a.jpg","null","","","","","","learn","SR",""
"","html-keyboard-response","99","126651","0.0-99.0","""event"",""trial"",""time""
""fullscreenenter"",""0"",""7932""
","
","
","""event"",""trial"",""time""
""fullscreenenter"",""0"",""7932""
","
","null","<p></p>","null","","","","","","","",""
"","image","100","127483","0.0-100.0","""event"",""trial"",""time""
""fullscreenenter"",""0"",""7932""
","
","
","""event"",""trial"",""time""
""fullscreenenter"",""0"",""7932""
","
","830.5","run_exp/static/images/Set 6_rs/076a.jpg","78","","","","","","learn","SR",""
"","show_choice","101","128658","0.0-101.0","""event"",""trial"",""time""
""fullscreenenter"",""0"",""7932""
","
","
","""event"",""trial"",""time""
""fullscreenenter"",""0"",""7932""
","
","null","run_exp/static/images/Set 6_rs/076a.jpg","null","","","","","","learn","SR",""
"","html-keyboard-response","102","129162","0.0-102.0","""event"",""trial"",""time""
""fullscreenenter"",""0"",""7932""
","
","
","""event"",""trial"",""time""
""fullscreenenter"",""0"",""7932""
","
","null","<p></p>","null","","","","","","","",""
"","image","103","130238","0.0-103.0","""event"",""trial"",""time""
""fullscreenenter"",""0"",""7932""
","
","
","""event"",""trial"",""time""
""fullscreenenter"",""0"",""7932""
","
","1074.5","run_exp/static/images/Set 6_rs/066a.jpg","86","","","","","","learn","SL",""
"","show_choice","104","131169","0.0-104.0","""event"",""trial"",""time""
""fullscreenenter"",""0"",""7932""
","
","
","""event"",""trial"",""time""
""fullscreenenter"",""0"",""7932""
","
","null","run_exp/static/images/Set 6_rs/066a.jpg","null","","","","","","learn","SL",""
"","html-keyboard-response","105","131672","0.0-105.0","""event"",""trial"",""time""
""fullscreenenter"",""0"",""7932""
","
","
","""event"",""trial"",""time""
""fullscreenenter"",""0"",""7932""
","
","null","<p></p>","null","","","","","","","",""
"","image","106","132333","0.0-106.0","""event"",""trial"",""time""
""fullscreenenter"",""0"",""7932""
","
","
","""event"",""trial"",""time""
""fullscreenenter"",""0"",""7932""
","
","660.3999999761581","run_exp/static/images/Set 6_rs/079a.jpg","86","","","","","","learn","SL",""
"","show_choice","107","133675","0.0-107.0","""event"",""trial"",""time""
""fullscreenenter"",""0"",""7932""
","
","
","""event"",""trial"",""time""
""fullscreenenter"",""0"",""7932""
","
","null","run_exp/static/images/Set 6_rs/079a.jpg","null","","","","","","learn","SL",""
"","html-keyboard-response","108","134180","0.0-108.0","""event"",""trial"",""time""
""fullscreenenter"",""0"",""7932""
","
","
","""event"",""trial"",""time""
""fullscreenenter"",""0"",""7932""
","
","null","<p></p>","null","","","","","","","",""
"","image","109","134818","0.0-109.0","""event"",""trial"",""time""
""fullscreenenter"",""0"",""7932""
","
","
","""event"",""trial"",""time""
""fullscreenenter"",""0"",""7932""
","
","636.7999999523163","run_exp/static/images/Set 6_rs/057a.jpg","86","","","","","","learn","SL",""
"","show_choice","110","136185","0.0-110.0","""event"",""trial"",""time""
""fullscreenenter"",""0"",""7932""
","
","
","""event"",""trial"",""time""
""fullscreenenter"",""0"",""7932""
","
","null","run_exp/static/images/Set 6_rs/057a.jpg","null","","","","","","learn","SL",""
"","html-keyboard-response","111","136690","0.0-111.0","""event"",""trial"",""time""
""fullscreenenter"",""0"",""7932""
","
","
","""event"",""trial"",""time""
""fullscreenenter"",""0"",""7932""
","
","null","<p></p>","null","","","","","","","",""
"","image","112","137396","0.0-112.0","""event"",""trial"",""time""
""fullscreenenter"",""0"",""7932""
","
","
","""event"",""trial"",""time""
""fullscreenenter"",""0"",""7932""
","
","705.3999999761581","run_exp/static/images/Set 6_rs/045a.jpg","86","","","","","","learn","SR",""
"","show_choice","113","138692","0.0-113.0","""event"",""trial"",""time""
""fullscreenenter"",""0"",""7932""
","
","
","""event"",""trial"",""time""
""fullscreenenter"",""0"",""7932""
","
","null","run_exp/static/images/Set 6_rs/045a.jpg","null","","","","","","learn","SR",""
"","html-keyboard-response","114","139198","0.0-114.0","""event"",""trial"",""time""
""fullscreenenter"",""0"",""7932""
","
","
","""event"",""trial"",""time""
""fullscreenenter"",""0"",""7932""
","
","null","<p></p>","null","","","","","","","",""
"","image","115","139783","0.0-115.0","""event"",""trial"",""time""
""fullscreenenter"",""0"",""7932""
","
","
","""event"",""trial"",""time""
""fullscreenenter"",""0"",""7932""
","
","583.5","run_exp/static/images/Set 6_rs/150a.jpg","86","","","","","","learn","SR",""
"","show_choice","116","141202","0.0-116.0","""event"",""trial"",""time""
""fullscreenenter"",""0"",""7932""
","
","
","""event"",""trial"",""time""
""fullscreenenter"",""0"",""7932""
","
","null","run_exp/static/images/Set 6_rs/150a.jpg","null","","","","","","learn","SR",""
"","html-keyboard-response","117","141706","0.0-117.0","""event"",""trial"",""time""
""fullscreenenter"",""0"",""7932""
","
","
","""event"",""trial"",""time""
""fullscreenenter"",""0"",""7932""
","
","null","<p></p>","null","","","","","","","",""
"","image","118","142911","0.0-118.0","""event"",""trial"",""time""
""fullscreenenter"",""0"",""7932""
","
","
","""event"",""trial"",""time""
""fullscreenenter"",""0"",""7932""
","
","1203.3999999761581","run_exp/static/images/Set 6_rs/050a.jpg","86","","","","","","learn","SL",""
"","show_choice","119","143710","0.0-119.0","""event"",""trial"",""time""
""fullscreenenter"",""0"",""7932""
","
","
","""event"",""trial"",""time""
""fullscreenenter"",""0"",""7932""
","
","null","run_exp/static/images/Set 6_rs/050a.jpg","null","","","","","","learn","SL",""
"","html-keyboard-response","120","144213","0.0-120.0","""event"",""trial"",""time""
""fullscreenenter"",""0"",""7932""
","
","
","""event"",""trial"",""time""
""fullscreenenter"",""0"",""7932""
","
","null","<p></p>","null","","","","","","","",""
"","image","121","144932","0.0-121.0","""event"",""trial"",""time""
""fullscreenenter"",""0"",""7932""
","
","
","""event"",""trial"",""time""
""fullscreenenter"",""0"",""7932""
","
","717.2000000476837","run_exp/static/images/Set 6_rs/007a.jpg","86","","","","","","learn","SR",""
"","show_choice","122","146218","0.0-122.0","""event"",""trial"",""time""
""fullscreenenter"",""0"",""7932""
","
","
","""event"",""trial"",""time""
""fullscreenenter"",""0"",""7932""
","
","null","run_exp/static/images/Set 6_rs/007a.jpg","null","","","","","","learn","SR",""
"","html-keyboard-response","123","146719","0.0-123.0","""event"",""trial"",""time""
""fullscreenenter"",""0"",""7932""
","
","
","""event"",""trial"",""time""
""fullscreenenter"",""0"",""7932""
","
","null","<p></p>","null","","","","","","","",""
"","image","124","147936","0.0-124.0","""event"",""trial"",""time""
""fullscreenenter"",""0"",""7932""
","
","
","""event"",""trial"",""time""
""fullscreenenter"",""0"",""7932""
","
","1215.5","run_exp/static/images/Set 6_rs/191a.jpg","78","","","","","","learn","SL",""
"","show_choice","125","148723","0.0-125.0","""event"",""trial"",""time""
""fullscreenenter"",""0"",""7932""
","
","
","""event"",""trial"",""time""
""fullscreenenter"",""0"",""7932""
","
","null","run_exp/static/images/Set 6_rs/191a.jpg","null","","","","","","learn","SL",""
"","html-keyboard-response","126","149228","0.0-126.0","""event"",""trial"",""time""
""fullscreenenter"",""0"",""7932""
","
","
","""event"",""trial"",""time""
""fullscreenenter"",""0"",""7932""
","
","null","<p></p>","null","","","","","","","",""
"","image","127","149943","0.0-127.0","""event"",""trial"",""time""
""fullscreenenter"",""0"",""7932""
","
","
","""event"",""trial"",""time""
""fullscreenenter"",""0"",""7932""
","
","713.0999999046326","run_exp/static/images/Set 6_rs/062a.jpg","86","","","","","","learn","SL",""
"","show_choice","128","151233","0.0-128.0","""event"",""trial"",""time""
""fullscreenenter"",""0"",""7932""
","
","
","""event"",""trial"",""time""
""fullscreenenter"",""0"",""7932""
","
","null","run_exp/static/images/Set 6_rs/062a.jpg","null","","","","","","learn","SL",""
"","html-keyboard-response","129","151738","0.0-129.0","""event"",""trial"",""time""
""fullscreenenter"",""0"",""7932""
","
","
","""event"",""trial"",""time""
""fullscreenenter"",""0"",""7932""
","
","null","<p></p>","null","","","","","","","",""
"","image","130","153127","0.0-130.0","""event"",""trial"",""time""
""fullscreenenter"",""0"",""7932""
","
","
","""event"",""trial"",""time""
""fullscreenenter"",""0"",""7932""
","
","1387.8999999761581","run_exp/static/images/Set 6_rs/123a.jpg","78","","","","","","learn","SL",""
"","show_choice","131","153743","0.0-131.0","""event"",""trial"",""time""
""fullscreenenter"",""0"",""7932""
","
","
","""event"",""trial"",""time""
""fullscreenenter"",""0"",""7932""
","
","null","run_exp/static/images/Set 6_rs/123a.jpg","null","","","","","","learn","SL",""
"","html-keyboard-response","132","154247","0.0-132.0","""event"",""trial"",""time""
""fullscreenenter"",""0"",""7932""
","
","
","""event"",""trial"",""time""
""fullscreenenter"",""0"",""7932""
","
","null","<p></p>","null","","","","","","","",""
"","image","133","155253","0.0-133.0","""event"",""trial"",""time""
""fullscreenenter"",""0"",""7932""
","
","
","""event"",""trial"",""time""
""fullscreenenter"",""0"",""7932""
","
","1005","run_exp/static/images/Set 6_rs/070a.jpg","86","","","","","","learn","SR",""
"","show_choice","134","156250","0.0-134.0","""event"",""trial"",""time""
""fullscreenenter"",""0"",""7932""
","
","
","""event"",""trial"",""time""
""fullscreenenter"",""0"",""7932""
","
","null","run_exp/static/images/Set 6_rs/070a.jpg","null","","","","","","learn","SR",""
"","html-keyboard-response","135","156752","0.0-135.0","""event"",""trial"",""time""
""fullscreenenter"",""0"",""7932""
","
","
","""event"",""trial"",""time""
""fullscreenenter"",""0"",""7932""
","
","null","<p></p>","null","","","","","","","",""
"","image","136","157627","0.0-136.0","""event"",""trial"",""time""
""fullscreenenter"",""0"",""7932""
","
","
","""event"",""trial"",""time""
""fullscreenenter"",""0"",""7932""
","
","872.6000000238419","run_exp/static/images/Set 6_rs/178a.jpg","78","","","","","","learn","SR",""
"","show_choice","137","158759","0.0-137.0","""event"",""trial"",""time""
""fullscreenenter"",""0"",""7932""
","
","
","""event"",""trial"",""time""
""fullscreenenter"",""0"",""7932""
","
","null","run_exp/static/images/Set 6_rs/178a.jpg","null","","","","","","learn","SR",""
"","html-keyboard-response","138","159265","0.0-138.0","""event"",""trial"",""time""
""fullscreenenter"",""0"",""7932""
","
","
","""event"",""trial"",""time""
""fullscreenenter"",""0"",""7932""
","
","null","<p></p>","null","","","","","","","",""
"","image","139","159849","0.0-139.0","""event"",""trial"",""time""
""fullscreenenter"",""0"",""7932""
","
","
","""event"",""trial"",""time""
""fullscreenenter"",""0"",""7932""
","
","583.0999999046326","run_exp/static/images/Set 6_rs/088a.jpg","86","","","","","","learn","SR",""
"","show_choice","140","161269","0.0-140.0","""event"",""trial"",""time""
""fullscreenenter"",""0"",""7932""
","
","
","""event"",""trial"",""time""
""fullscreenenter"",""0"",""7932""
","
","null","run_exp/static/images/Set 6_rs/088a.jpg","null","","","","","","learn","SR",""
"","html-keyboard-response","141","161774","0.0-141.0","""event"",""trial"",""time""
""fullscreenenter"",""0"",""7932""
","
","
","""event"",""trial"",""time""
""fullscreenenter"",""0"",""7932""
","
","null","<p></p>","null","","","","","","","",""
"","image","142","162816","0.0-142.0","""event"",""trial"",""time""
""fullscreenenter"",""0"",""7932""
","
","
","""event"",""trial"",""time""
""fullscreenenter"",""0"",""7932""
","
","1040.2999999523163","run_exp/static/images/Set 6_rs/141a.jpg","86","","","","","","learn","SR",""
"","show_choice","143","163781","0.0-143.0","""event"",""trial"",""time""
""fullscreenenter"",""0"",""7932""
","
","
","""event"",""trial"",""time""
""fullscreenenter"",""0"",""7932""
","
","null","run_exp/static/images/Set 6_rs/141a.jpg","null","","","","","","learn","SR",""
"","html-keyboard-response","144","164284","0.0-144.0","""event"",""trial"",""time""
""fullscreenenter"",""0"",""7932""
","
","
","""event"",""trial"",""time""
""fullscreenenter"",""0"",""7932""
","
","null","<p></p>","null","","","","","","","",""
"","image","145","165401","0.0-145.0","""event"",""trial"",""time""
""fullscreenenter"",""0"",""7932""
","
","
","""event"",""trial"",""time""
""fullscreenenter"",""0"",""7932""
","
","1114.6999999284744","run_exp/static/images/Set 6_rs/167a.jpg","78","","","","","","learn","SL",""
"","show_choice","146","166290","0.0-146.0","""event"",""trial"",""time""
""fullscreenenter"",""0"",""7932""
","
","
","""event"",""trial"",""time""
""fullscreenenter"",""0"",""7932""
","
","null","run_exp/static/images/Set 6_rs/167a.jpg","null","","","","","","learn","SL",""
"","html-keyboard-response","147","166792","0.0-147.0","""event"",""trial"",""time""
""fullscreenenter"",""0"",""7932""
","
","
","""event"",""trial"",""time""
""fullscreenenter"",""0"",""7932""
","
","null","<p></p>","null","","","","","","","",""
"","image","148","167923","0.0-148.0","""event"",""trial"",""time""
""fullscreenenter"",""0"",""7932""
","
","
","""event"",""trial"",""time""
""fullscreenenter"",""0"",""7932""
","
","1129.6999999284744","run_exp/static/images/Set 6_rs/152a.jpg","86","","","","","","learn","SR",""
"","show_choice","149","168795","0.0-149.0","""event"",""trial"",""time""
""fullscreenenter"",""0"",""7932""
","
","
","""event"",""trial"",""time""
""fullscreenenter"",""0"",""7932""
","
","null","run_exp/static/images/Set 6_rs/152a.jpg","null","","","","","","learn","SR",""
"","html-keyboard-response","150","169300","0.0-150.0","""event"",""trial"",""time""
""fullscreenenter"",""0"",""7932""
","
","
","""event"",""trial"",""time""
""fullscreenenter"",""0"",""7932""
","
","null","<p></p>","null","","","","","","","",""
"","image","151","170184","0.0-151.0","""event"",""trial"",""time""
""fullscreenenter"",""0"",""7932""
","
","
","""event"",""trial"",""time""
""fullscreenenter"",""0"",""7932""
","
","882.3999999761581","run_exp/static/images/Set 6_rs/010a.jpg","86","","","","","","learn","SR",""
"","show_choice","152","171303","0.0-152.0","""event"",""trial"",""time""
""fullscreenenter"",""0"",""7932""
","
","
","""event"",""trial"",""time""
""fullscreenenter"",""0"",""7932""
","
","null","run_exp/static/images/Set 6_rs/010a.jpg","null","","","","","","learn","SR",""
"","html-keyboard-response","153","171809","0.0-153.0","""event"",""trial"",""time""
""fullscreenenter"",""0"",""7932""
","
","
","""event"",""trial"",""time""
""fullscreenenter"",""0"",""7932""
","
","null","<p></p>","null","","","","","","","",""
"","image","154","172743","0.0-154.0","""event"",""trial"",""time""
""fullscreenenter"",""0"",""7932""
","
","
","""event"",""trial"",""time""
""fullscreenenter"",""0"",""7932""
","
","932.2000000476837","run_exp/static/images/Set 6_rs/186a.jpg","86","","","","","","learn","SR",""
"","show_choice","155","173814","0.0-155.0","""event"",""trial"",""time""
""fullscreenenter"",""0"",""7932""
","
","
","""event"",""trial"",""time""
""fullscreenenter"",""0"",""7932""
","
","null","run_exp/static/images/Set 6_rs/186a.jpg","null","","","","","","learn","SR",""
"","html-keyboard-response","156","174316","0.0-156.0","""event"",""trial"",""time""
""fullscreenenter"",""0"",""7932""
","
","
","""event"",""trial"",""time""
""fullscreenenter"",""0"",""7932""
","
","null","<p></p>","null","","","","","","","",""
"","image","157","174994","0.0-157.0","""event"",""trial"",""time""
""fullscreenenter"",""0"",""7932""
","
","
","""event"",""trial"",""time""
""fullscreenenter"",""0"",""7932""
","
","676.6000000238419","run_exp/static/images/Set 6_rs/095a.jpg","86","","","","","","learn","SL",""
"","show_choice","158","176322","0.0-158.0","""event"",""trial"",""time""
""fullscreenenter"",""0"",""7932""
","
","
","""event"",""trial"",""time""
""fullscreenenter"",""0"",""7932""
","
","null","run_exp/static/images/Set 6_rs/095a.jpg","null","","","","","","learn","SL",""
"","html-keyboard-response","159","176828","0.0-159.0","""event"",""trial"",""time""
""fullscreenenter"",""0"",""7932""
","
","
","""event"",""trial"",""time""
""fullscreenenter"",""0"",""7932""
","
","null","<p></p>","null","","","","","","","",""
"","image","160","178223","0.0-160.0","""event"",""trial"",""time""
""fullscreenenter"",""0"",""7932""
","
","
","""event"",""trial"",""time""
""fullscreenenter"",""0"",""7932""
","
","1393.5","run_exp/static/images/Set 6_rs/023a.jpg","78","","","","","","learn","SR",""
"","show_choice","161","178834","0.0-161.0","""event"",""trial"",""time""
""fullscreenenter"",""0"",""7932""
","
","
","""event"",""trial"",""time""
""fullscreenenter"",""0"",""7932""
","
","null","run_exp/static/images/Set 6_rs/023a.jpg","null","","","","","","learn","SR",""
"","html-keyboard-response","162","179340","0.0-162.0","""event"",""trial"",""time""
""fullscreenenter"",""0"",""7932""
","
","
","""event"",""trial"",""time""
""fullscreenenter"",""0"",""7932""
","
","null","<p></p>","null","","","","","","","",""
"","image","163","180440","0.0-163.0","""event"",""trial"",""time""
""fullscreenenter"",""0"",""7932""
","
","
","""event"",""trial"",""time""
""fullscreenenter"",""0"",""7932""
","
","1097.7999999523163","run_exp/static/images/Set 6_rs/154a.jpg","86","","","","","","learn","SR",""
"","show_choice","164","181347","0.0-164.0","""event"",""trial"",""time""
""fullscreenenter"",""0"",""7932""
","
","
","""event"",""trial"",""time""
""fullscreenenter"",""0"",""7932""
","
","null","run_exp/static/images/Set 6_rs/154a.jpg","null","","","","","","learn","SR",""
"","html-keyboard-response","165","181853","0.0-165.0","""event"",""trial"",""time""
""fullscreenenter"",""0"",""7932""
","
","
","""event"",""trial"",""time""
""fullscreenenter"",""0"",""7932""
","
","null","<p></p>","null","","","","","","","",""
"","image","166","182661","0.0-166.0","""event"",""trial"",""time""
""fullscreenenter"",""0"",""7932""
","
","
","""event"",""trial"",""time""
""fullscreenenter"",""0"",""7932""
","
","806.7000000476837","run_exp/static/images/Set 6_rs/016a.jpg","86","","","","","","learn","SL",""
"","show_choice","167","183860","0.0-167.0","""event"",""trial"",""time""
""fullscreenenter"",""0"",""7932""
","
","
","""event"",""trial"",""time""
""fullscreenenter"",""0"",""7932""
","
","null","run_exp/static/images/Set 6_rs/016a.jpg","null","","","","","","learn","SL",""
"","html-keyboard-response","168","184363","0.0-168.0","""event"",""trial"",""time""
""fullscreenenter"",""0"",""7932""
","
","
","""event"",""trial"",""time""
""fullscreenenter"",""0"",""7932""
","
","null","<p></p>","null","","","","","","","",""
"","image","169","185437","0.0-169.0","""event"",""trial"",""time""
""fullscreenenter"",""0"",""7932""
","
","
","""event"",""trial"",""time""
""fullscreenenter"",""0"",""7932""
","
","1072.6000000238419","run_exp/static/images/Set 6_rs/036a.jpg","78","","","","","","learn","SL",""
"","show_choice","170","186370","0.0-170.0","""event"",""trial"",""time""
""fullscreenenter"",""0"",""7932""
","
","
","""event"",""trial"",""time""
""fullscreenenter"",""0"",""7932""
","
","null","run_exp/static/images/Set 6_rs/036a.jpg","null","","","","","","learn","SL",""
"","html-keyboard-response","171","186876","0.0-171.0","""event"",""trial"",""time""
""fullscreenenter"",""0"",""7932""
","
","
","""event"",""trial"",""time""
""fullscreenenter"",""0"",""7932""
","
","null","<p></p>","null","","","","","","","",""
"","image","172","187795","0.0-172.0","""event"",""trial"",""time""
""fullscreenenter"",""0"",""7932""
","
","
","""event"",""trial"",""time""
""fullscreenenter"",""0"",""7932""
","
","918.2999999523163","run_exp/static/images/Set 6_rs/166a.jpg","78","","","","","","learn","SR",""
"","show_choice","173","188882","0.0-173.0","""event"",""trial"",""time""
""fullscreenenter"",""0"",""7932""
","
","
","""event"",""trial"",""time""
""fullscreenenter"",""0"",""7932""
","
","null","run_exp/static/images/Set 6_rs/166a.jpg","null","","","","","","learn","SR",""
"","html-keyboard-response","174","189384","0.0-174.0","""event"",""trial"",""time""
""fullscreenenter"",""0"",""7932""
","
","
","""event"",""trial"",""time""
""fullscreenenter"",""0"",""7932""
","
","null","<p></p>","null","","","","","","","",""
"","image","175","190974","0.0-175.0","""event"",""trial"",""time""
""fullscreenenter"",""0"",""7932""
","
","
","""event"",""trial"",""time""
""fullscreenenter"",""0"",""7932""
","
","1588.2000000476837","run_exp/static/images/Set 6_rs/008a.jpg","78","","","","","","learn","SL",""
"","show_choice","176","191387","0.0-176.0","""event"",""trial"",""time""
""fullscreenenter"",""0"",""7932""
","
","
","""event"",""trial"",""time""
""fullscreenenter"",""0"",""7932""
","
","null","run_exp/static/images/Set 6_rs/008a.jpg","null","","","","","","learn","SL",""
"","html-keyboard-response","177","191891","0.0-177.0","""event"",""trial"",""time""
""fullscreenenter"",""0"",""7932""
","
","
","""event"",""trial"",""time""
""fullscreenenter"",""0"",""7932""
","
","null","<p></p>","null","","","","","","","",""
"","image","178","192756","0.0-178.0","""event"",""trial"",""time""
""fullscreenenter"",""0"",""7932""
","
","
","""event"",""trial"",""time""
""fullscreenenter"",""0"",""7932""
","
","863","run_exp/static/images/Set 6_rs/063a.jpg","86","","","","","","learn","SR",""
"","show_choice","179","193894","0.0-179.0","""event"",""trial"",""time""
""fullscreenenter"",""0"",""7932""
","
","
","""event"",""trial"",""time""
""fullscreenenter"",""0"",""7932""
","
","null","run_exp/static/images/Set 6_rs/063a.jpg","null","","","","","","learn","SR",""
"","html-keyboard-response","180","194400","0.0-180.0","""event"",""trial"",""time""
""fullscreenenter"",""0"",""7932""
","
","
","""event"",""trial"",""time""
""fullscreenenter"",""0"",""7932""
","
","null","<p></p>","null","","","","","","","",""
"","image","181","195068","0.0-181.0","""event"",""trial"",""time""
""fullscreenenter"",""0"",""7932""
","
","
","""event"",""trial"",""time""
""fullscreenenter"",""0"",""7932""
","
","666.2999999523163","run_exp/static/images/Set 6_rs/071a.jpg","86","","","","","","learn","SL",""
"","show_choice","182","196407","0.0-182.0","""event"",""trial"",""time""
""fullscreenenter"",""0"",""7932""
","
","
","""event"",""trial"",""time""
""fullscreenenter"",""0"",""7932""
","
","null","run_exp/static/images/Set 6_rs/071a.jpg","null","","","","","","learn","SL",""
"","html-keyboard-response","183","196911","0.0-183.0","""event"",""trial"",""time""
""fullscreenenter"",""0"",""7932""
","
","
","""event"",""trial"",""time""
""fullscreenenter"",""0"",""7932""
","
","null","<p></p>","null","","","","","","","",""
"","image","184","197738","0.0-184.0","""event"",""trial"",""time""
""fullscreenenter"",""0"",""7932""
","
","
","""event"",""trial"",""time""
""fullscreenenter"",""0"",""7932""
","
","825.5","run_exp/static/images/Set 6_rs/064a.jpg","86","","","","","","learn","SR",""
"","show_choice","185","198916","0.0-185.0","""event"",""trial"",""time""
""fullscreenenter"",""0"",""7932""
","
","
","""event"",""trial"",""time""
""fullscreenenter"",""0"",""7932""
","
","null","run_exp/static/images/Set 6_rs/064a.jpg","null","","","","","","learn","SR",""
"","html-keyboard-response","186","199422","0.0-186.0","""event"",""trial"",""time""
""fullscreenenter"",""0"",""7932""
","
","
","""event"",""trial"",""time""
""fullscreenenter"",""0"",""7932""
","
","null","<p></p>","null","","","","","","","",""
"","image","187","200354","0.0-187.0","""event"",""trial"",""time""
""fullscreenenter"",""0"",""7932""
","
","
","""event"",""trial"",""time""
""fullscreenenter"",""0"",""7932""
","
","930.6000000238419","run_exp/static/images/Set 6_rs/132a.jpg","78","","","","","","learn","SR",""
"","show_choice","188","201427","0.0-188.0","""event"",""trial"",""time""
""fullscreenenter"",""0"",""7932""
","
","
","""event"",""trial"",""time""
""fullscreenenter"",""0"",""7932""
","
","null","run_exp/static/images/Set 6_rs/132a.jpg","null","","","","","","learn","SR",""
"","html-keyboard-response","189","201932","0.0-189.0","""event"",""trial"",""time""
""fullscreenenter"",""0"",""7932""
","
","
","""event"",""trial"",""time""
""fullscreenenter"",""0"",""7932""
","
","null","<p></p>","null","","","","","","","",""
"","image","190","202992","0.0-190.0","""event"",""trial"",""time""
""fullscreenenter"",""0"",""7932""
","
","
","""event"",""trial"",""time""
""fullscreenenter"",""0"",""7932""
","
","1058.8999999761581","run_exp/static/images/Set 6_rs/181a.jpg","86","","","","","","learn","SL",""
"","show_choice","191","203939","0.0-191.0","""event"",""trial"",""time""
""fullscreenenter"",""0"",""7932""
","
","
","""event"",""trial"",""time""
""fullscreenenter"",""0"",""7932""
","
","null","run_exp/static/images/Set 6_rs/181a.jpg","null","","","","","","learn","SL",""
"","html-keyboard-response","192","204445","0.0-192.0","""event"",""trial"",""time""
""fullscreenenter"",""0"",""7932""
","
","
","""event"",""trial"",""time""
""fullscreenenter"",""0"",""7932""
","
","null","<p></p>","null","","","","","","","",""
"","image","193","205830","0.0-193.0","""event"",""trial"",""time""
""fullscreenenter"",""0"",""7932""
","
","
","""event"",""trial"",""time""
""fullscreenenter"",""0"",""7932""
","
","1383.8000000715256","run_exp/static/images/Set 6_rs/012a.jpg","86","","","","","","learn","SR",""
"","show_choice","194","206451","0.0-194.0","""event"",""trial"",""time""
""fullscreenenter"",""0"",""7932""
","
","
","""event"",""trial"",""time""
""fullscreenenter"",""0"",""7932""
","
","null","run_exp/static/images/Set 6_rs/012a.jpg","null","","","","","","learn","SR",""
"","html-keyboard-response","195","206955","0.0-195.0","""event"",""trial"",""time""
""fullscreenenter"",""0"",""7932""
","
","
","""event"",""trial"",""time""
""fullscreenenter"",""0"",""7932""
","
","null","<p></p>","null","","","","","","","",""
"","test_intro","196","243870","0.0-196.0","""event"",""trial"",""time""
""fullscreenenter"",""0"",""7932""
","
","
","""event"",""trial"",""time""
""fullscreenenter"",""0"",""7932""
","
","null","run_exp/static/audio/clip_2_memory.m4a","null","","","","","<div class='center'><p>Now, lets see how much you remember about the items you just saw.  For each item, you need to indicate if it was <b>old</b> by pressing the <b>v</b> key, <b>similar</b> by pressing the <b>b</b> key, or <b>new</b> by pressing the <b>n</b> key.</p><p>Old refers to an item that you saw before in the indoor/outdoor game that you just played, new refers to an item you have <b>not</b> seen before within the indoor/outdoor game, and similar refers to an item that is similar to an item youve seen before but is not exactly the same. </p><p>Before we begin, lets go over some brief demonstrations to make sure you understand.</p></div>","","",""
"","html-keyboard-response","197","258927","0.0-197.0","""event"",""trial"",""time""
""fullscreenenter"",""0"",""7932""
","
","
","""event"",""trial"",""time""
""fullscreenenter"",""0"",""7932""
","
","15055.5","<div class='center'><p>Now, lets see how much you remember about the items you just saw.  For each item, you need to indicate if it was <b>old</b> by pressing the <b>v</b> key, <b>similar</b> by pressing the <b>b</b> key, or <b>new</b> by pressing the <b>n</b> key.</p><p>Old refers to an item that you saw before in the indoor/outdoor game that you just played, new refers to an item you have <b>not</b> seen before within the indoor/outdoor game, and similar refers to an item that is similar to an item youve seen before but is not exactly the same. </p><p>Before we begin, lets go over some brief demonstrations to make sure you understand.</p><div><p><b>[Press the space bar to continue]</b></p></div>","32","","","","","","","",""
"","items","198","266434","0.0-198.0","""event"",""trial"",""time""
""fullscreenenter"",""0"",""7932""
","
","
","""event"",""trial"",""time""
""fullscreenenter"",""0"",""7932""
","
","null","run_exp/static/audio/clip_3_items.m4a","null","","","","","","","",""
"","mop","199","270942","0.0-199.0","""event"",""trial"",""time""
""fullscreenenter"",""0"",""7932""
","
","
","""event"",""trial"",""time""
""fullscreenenter"",""0"",""7932""
","
","null","run_exp/static/audio/clip_4_mop.m4a","null","","","","","","","",""
"","baseball","200","274449","0.0-200.0","""event"",""trial"",""time""
""fullscreenenter"",""0"",""7932""
","
","
","""event"",""trial"",""time""
""fullscreenenter"",""0"",""7932""
","
","null","run_exp/static/audio/clip_5_baseball.m4a","null","","","","","","","",""
"","trumpet","201","277957","0.0-201.0","""event"",""trial"",""time""
""fullscreenenter"",""0"",""7932""
","
","
","""event"",""trial"",""time""
""fullscreenenter"",""0"",""7932""
","
","null","run_exp/static/audio/clip_6_trumpet.m4a","null","","","","","","","",""
"","gummies","202","281460","0.0-202.0","""event"",""trial"",""time""
""fullscreenenter"",""0"",""7932""
","
","
","""event"",""trial"",""time""
""fullscreenenter"",""0"",""7932""
","
","null","run_exp/static/audio/clip_7_gummies.m4a","null","","","","","","","",""
"","osn","203","285967","0.0-203.0","""event"",""trial"",""time""
""fullscreenenter"",""0"",""7932""
","
","
","""event"",""trial"",""time""
""fullscreenenter"",""0"",""7932""
","
","null","run_exp/static/audio/clip_8_osn.m4a","null","","","","","","","",""
"","old_1","204","292474","0.0-204.0","""event"",""trial"",""time""
""fullscreenenter"",""0"",""7932""
","
","
","""event"",""trial"",""time""
""fullscreenenter"",""0"",""7932""
","
","null","run_exp/static/audio/clip_9_old_trumpet.m4a","null","","","","","","","",""
"","new_1","205","299979","0.0-205.0","""event"",""trial"",""time""
""fullscreenenter"",""0"",""7932""
","
","
","""event"",""trial"",""time""
""fullscreenenter"",""0"",""7932""
","
","null","run_exp/static/audio/clip_10_new_balloon.m4a","null","","","","","","","",""
"","similar_1a","206","304482","0.0-206.0","""event"",""trial"",""time""
""fullscreenenter"",""0"",""7932""
","
","
","""event"",""trial"",""time""
""fullscreenenter"",""0"",""7932""
","
","null","run_exp/static/audio/clip_11a_similar_mop.m4a","null","","","","","","","",""
"","similar_1b","207","310990","0.0-207.0","""event"",""trial"",""time""
""fullscreenenter"",""0"",""7932""
","
","
","""event"",""trial"",""time""
""fullscreenenter"",""0"",""7932""
","
","null","run_exp/static/audio/clip_11b_similar_mop.m4a","null","","","","","","","",""
"","new_2","208","314497","0.0-208.0","""event"",""trial"",""time""
""fullscreenenter"",""0"",""7932""
","
","
","""event"",""trial"",""time""
""fullscreenenter"",""0"",""7932""
","
","null","run_exp/static/audio/clip_12_new_stoplight.m4a","null","","","","","","","",""
"","old_2","209","318005","0.0-209.0","""event"",""trial"",""time""
""fullscreenenter"",""0"",""7932""
","
","
","""event"",""trial"",""time""
""fullscreenenter"",""0"",""7932""
","
","null","run_exp/static/audio/clip_13_old_baseball.m4a","null","","","","","","","",""
"","similar_2a","210","321511","0.0-210.0","""event"",""trial"",""time""
""fullscreenenter"",""0"",""7932""
","
","
","""event"",""trial"",""time""
""fullscreenenter"",""0"",""7932""
","
","null","run_exp/static/audio/clip_14a_similar_gummies.m4a","null","","","","","","","",""
"","similar_2b","211","329019","0.0-211.0","""event"",""trial"",""time""
""fullscreenenter"",""0"",""7932""
","
","
","""event"",""trial"",""time""
""fullscreenenter"",""0"",""7932""
","
","null","run_exp/static/audio/clip_14b_similar_gummies.m4a","null","","","","","","","",""
"","practice","212","371124","0.0-212.0","""event"",""trial"",""time""
""fullscreenenter"",""0"",""7932""
","
","
","""event"",""trial"",""time""
""fullscreenenter"",""0"",""7932""
","
","null","run_exp/static/audio/clip_15_practice.m4a","null","","","","","<div class='center'><p>Lets practice a little to make sure you understand the difference between new, similar, and old. Lets say you saw these three items in the indoor/outdoor game.</p><p> Try your best to remember these images because youll soon be tested on them in a practice game. In the practice game, youll be shown images and youll have to say if they are old (one of the three images belows), similar (similar to one of the images below but not exactly the same), or new (are not one of the images below nor similar to them).</p><p>Once you press the space bar youll be shown these images again but one at time. Then youll begin the practice game.</p><p><img src='run_exp/static/images/tutorial/test/three_indoor_outdoor.png' height='300'></p></div>","","",""
"","html-keyboard-response","213","372802","0.0-213.0","""event"",""trial"",""time""
""fullscreenenter"",""0"",""7932""
","
","
","""event"",""trial"",""time""
""fullscreenenter"",""0"",""7932""
","
","1676.3999999761581","<div class='center'><p>Lets practice a little to make sure you understand the difference between new, similar, and old. Lets say you saw these three items in the indoor/outdoor game.</p><p> Try your best to remember these images because youll soon be tested on them in a practice game. In the practice game, youll be shown images and youll have to say if they are old (one of the three images belows), similar (similar to one of the images below but not exactly the same), or new (are not one of the images below nor similar to them).</p><p>Once you press the space bar youll be shown these images again but one at time. Then youll begin the practice game.</p><p><img src='run_exp/static/images/tutorial/test/three_indoor_outdoor.png' height='300'></p><div><p><b>[Press the space bar to continue]</b></p></div>","32","","","","","","","",""
"","planet","214","374806","0.0-214.0","""event"",""trial"",""time""
""fullscreenenter"",""0"",""7932""
","
","
","""event"",""trial"",""time""
""fullscreenenter"",""0"",""7932""
","
","null","run_exp/static/images/tutorial/test/008a.jpg","null","","","","","","","",""
"","boot","215","376813","0.0-215.0","""event"",""trial"",""time""
""fullscreenenter"",""0"",""7932""
","
","
","""event"",""trial"",""time""
""fullscreenenter"",""0"",""7932""
","
","null","run_exp/static/images/tutorial/test/011a.jpg","null","","","","","","","",""
"","lemon","216","378814","0.0-216.0","""event"",""trial"",""time""
""fullscreenenter"",""0"",""7932""
","
","
","""event"",""trial"",""time""
""fullscreenenter"",""0"",""7932""
","
","null","run_exp/static/images/tutorial/test/018a.jpg","null","","","","","","","",""
"","practice_q1","217","383022","0.0-217.0","""event"",""trial"",""time""
""fullscreenenter"",""0"",""7932""
","
","
","""event"",""trial"",""time""
""fullscreenenter"",""0"",""7932""
","
","4205.800000071526","run_exp/static/audio/clip_16_practice_question.m4a","78","","","","","","","",""
"","correct","218","384917","0.0-218.0-0.0","""event"",""trial"",""time""
""fullscreenenter"",""0"",""7932""
","
","
","""event"",""trial"",""time""
""fullscreenenter"",""0"",""7932""
","
","null","run_exp/static/audio/clip_17_correct.m4a","null","","","","","<div class='center'><p>That's correct!</p></div>","","",""
"","html-keyboard-response","219","385786","0.0-218.0-1.0","""event"",""trial"",""time""
""fullscreenenter"",""0"",""7932""
","
","
","""event"",""trial"",""time""
""fullscreenenter"",""0"",""7932""
","
","866.8999999761581","<div class='center'><p>That's correct!</p><div><p><b>[Press the space bar to continue]</b></p></div>","32","","","","","","","",""
"","practice_q2","220","387189","0.0-218.0-2.0","""event"",""trial"",""time""
""fullscreenenter"",""0"",""7932""
","
","
","""event"",""trial"",""time""
""fullscreenenter"",""0"",""7932""
","
","1400.7999999523163","run_exp/static/audio/clip_16_practice_question.m4a","86","","","","","","","",""
"","correct","221","389074","0.0-219.0-0.0","""event"",""trial"",""time""
""fullscreenenter"",""0"",""7932""
","
","
","""event"",""trial"",""time""
""fullscreenenter"",""0"",""7932""
","
","null","run_exp/static/audio/clip_17_correct.m4a","null","","","","","<div class='center'><p>That's correct!</p></div>","","",""
"","html-keyboard-response","222","389625","0.0-219.0-1.0","""event"",""trial"",""time""
""fullscreenenter"",""0"",""7932""
","
","
","""event"",""trial"",""time""
""fullscreenenter"",""0"",""7932""
","
","550.3999999761581","<div class='center'><p>That's correct!</p><div><p><b>[Press the space bar to continue]</b></p></div>","32","","","","","","","",""
"","practice_q3","223","390718","0.0-219.0-2.0","""event"",""trial"",""time""
""fullscreenenter"",""0"",""7932""
","
","
","""event"",""trial"",""time""
""fullscreenenter"",""0"",""7932""
","
","1089.8999999761581","run_exp/static/audio/clip_16_practice_question.m4a","66","","","","","","","",""
"","correct","224","392789","0.0-220.0-0.0","""event"",""trial"",""time""
""fullscreenenter"",""0"",""7932""
","
","
","""event"",""trial"",""time""
""fullscreenenter"",""0"",""7932""
","
","null","run_exp/static/audio/clip_17_correct.m4a","null","","","","","<div class='center'><p>That's correct!</p></div>","","",""
"","html-keyboard-response","225","393322","0.0-220.0-1.0","""event"",""trial"",""time""
""fullscreenenter"",""0"",""7932""
","
","
","""event"",""trial"",""time""
""fullscreenenter"",""0"",""7932""
","
","531.2000000476837","<div class='center'><p>That's correct!</p><div><p><b>[Press the space bar to continue]</b></p></div>","32","","","","","","","",""
"","begin_text","226","411784","0.0-221.0-0.0","""event"",""trial"",""time""
""fullscreenenter"",""0"",""7932""
","
","
","""event"",""trial"",""time""
""fullscreenenter"",""0"",""7932""
","
","null","run_exp/static/audio/clip_22_begin_test.m4a","null","","","","","<div class='center'><p>On to the real game where well test your memory of items from the indoor/outdoor game. For each item, you need to indicate if the item is <b>old</b> by pressing the <b>v</b> key, <b>similar</b> by pressing the <b>b</b> key, or <b>new</b> by pressing the <b>n</b> key. </p></div>","","",""
"","html-keyboard-response","227","414489","0.0-221.0-1.0","""event"",""trial"",""time""
""fullscreenenter"",""0"",""7932""
","
","
","""event"",""trial"",""time""
""fullscreenenter"",""0"",""7932""
","
","2704.2000000476837","<div class='center'><p>On to the real game where well test your memory of items from the indoor/outdoor game. For each item, you need to indicate if the item is <b>old</b> by pressing the <b>v</b> key, <b>similar</b> by pressing the <b>b</b> key, or <b>new</b> by pressing the <b>n</b> key. </p><div><p><b>[Press the space bar to continue]</b></p></div>","32","","","","","","","",""
"","image","228","415651","0.0-222.0-0.0","""event"",""trial"",""time""
""fullscreenenter"",""0"",""7932""
","
","
","""event"",""trial"",""time""
""fullscreenenter"",""0"",""7932""
","
","1159.8999999761581","run_exp/static/images/Set 6_rs/181b.jpg","86","","","","","","test","TL","1"
"","show_choice","229","416154","0.0-222.0-1.0","""event"",""trial"",""time""
""fullscreenenter"",""0"",""7932""
","
","
","""event"",""trial"",""time""
""fullscreenenter"",""0"",""7932""
","
","null","run_exp/static/images/Set 6_rs/181b.jpg","null","","","","","","test","TL",""
"","html-keyboard-response","230","416657","0.0-222.0-2.0","""event"",""trial"",""time""
""fullscreenenter"",""0"",""7932""
","
","
","""event"",""trial"",""time""
""fullscreenenter"",""0"",""7932""
","
","null","<p></p>","null","","","","","","","",""
"","image","231","417509","0.0-223.0-0.0","""event"",""trial"",""time""
""fullscreenenter"",""0"",""7932""
","
","
","""event"",""trial"",""time""
""fullscreenenter"",""0"",""7932""
","
","850.2000000476837","run_exp/static/images/Set 6_rs/057b.jpg","86","","","","","","test","TL","1"
"","show_choice","232","418014","0.0-223.0-1.0","""event"",""trial"",""time""
""fullscreenenter"",""0"",""7932""
","
","
","""event"",""trial"",""time""
""fullscreenenter"",""0"",""7932""
","
","null","run_exp/static/images/Set 6_rs/057b.jpg","null","","","","","","test","TL",""
"","html-keyboard-response","233","418517","0.0-223.0-2.0","""event"",""trial"",""time""
""fullscreenenter"",""0"",""7932""
","
","
","""event"",""trial"",""time""
""fullscreenenter"",""0"",""7932""
","
","null","<p></p>","null","","","","","","","",""
"","image","234","419179","0.0-224.0-0.0","""event"",""trial"",""time""
""fullscreenenter"",""0"",""7932""
","
","
","""event"",""trial"",""time""
""fullscreenenter"",""0"",""7932""
","
","660.1999999284744","run_exp/static/images/Set 6_rs/063a.jpg","86","","","","","","test","TR","2"
"","show_choice","235","419680","0.0-224.0-1.0","""event"",""trial"",""time""
""fullscreenenter"",""0"",""7932""
","
","
","""event"",""trial"",""time""
""fullscreenenter"",""0"",""7932""
","
","null","run_exp/static/images/Set 6_rs/063a.jpg","null","","","","","","test","TR",""
"","html-keyboard-response","236","420183","0.0-224.0-2.0","""event"",""trial"",""time""
""fullscreenenter"",""0"",""7932""
","
","
","""event"",""trial"",""time""
""fullscreenenter"",""0"",""7932""
","
","null","<p></p>","null","","","","","","","",""
"","image","237","420943","0.0-225.0-0.0","""event"",""trial"",""time""
""fullscreenenter"",""0"",""7932""
","
","
","""event"",""trial"",""time""
""fullscreenenter"",""0"",""7932""
","
","758","run_exp/static/images/Set 6_rs/085b.jpg","86","","","","","","test","TL","1"
"","show_choice","238","421445","0.0-225.0-1.0","""event"",""trial"",""time""
""fullscreenenter"",""0"",""7932""
","
","
","""event"",""trial"",""time""
""fullscreenenter"",""0"",""7932""
","
","null","run_exp/static/images/Set 6_rs/085b.jpg","null","","","","","","test","TL",""
"","html-keyboard-response","239","421946","0.0-225.0-2.0","""event"",""trial"",""time""
""fullscreenenter"",""0"",""7932""
","
","
","""event"",""trial"",""time""
""fullscreenenter"",""0"",""7932""
","
","null","<p></p>","null","","","","","","","",""
"","image","240","422735","0.0-226.0-0.0","""event"",""trial"",""time""
""fullscreenenter"",""0"",""7932""
","
","
","""event"",""trial"",""time""
""fullscreenenter"",""0"",""7932""
","
","786.7999999523163","run_exp/static/images/Set 6_rs/076a.jpg","86","","","","","","test","TR","4"
"","show_choice","241","423236","0.0-226.0-1.0","""event"",""trial"",""time""
""fullscreenenter"",""0"",""7932""
","
","
","""event"",""trial"",""time""
""fullscreenenter"",""0"",""7932""
","
","null","run_exp/static/images/Set 6_rs/076a.jpg","null","","","","","","test","TR",""
"","html-keyboard-response","242","423740","0.0-226.0-2.0","""event"",""trial"",""time""
""fullscreenenter"",""0"",""7932""
","
","
","""event"",""trial"",""time""
""fullscreenenter"",""0"",""7932""
","
","null","<p></p>","null","","","","","","","",""
"","image","243","424673","0.0-227.0-0.0","""event"",""trial"",""time""
""fullscreenenter"",""0"",""7932""
","
","
","""event"",""trial"",""time""
""fullscreenenter"",""0"",""7932""
","
","932","run_exp/static/images/Set 6_rs/190a.jpg","78","","","","","","test","TF","3"
"","show_choice","244","425176","0.0-227.0-1.0","""event"",""trial"",""time""
""fullscreenenter"",""0"",""7932""
","
","
","""event"",""trial"",""time""
""fullscreenenter"",""0"",""7932""
","
","null","run_exp/static/images/Set 6_rs/190a.jpg","null","","","","","","test","TF",""
"","html-keyboard-response","245","425680","0.0-227.0-2.0","""event"",""trial"",""time""
""fullscreenenter"",""0"",""7932""
","
","
","""event"",""trial"",""time""
""fullscreenenter"",""0"",""7932""
","
","null","<p></p>","null","","","","","","","",""
"","image","246","426632","0.0-228.0-0.0","""event"",""trial"",""time""
""fullscreenenter"",""0"",""7932""
","
","
","""event"",""trial"",""time""
""fullscreenenter"",""0"",""7932""
","
","949.6000000238419","run_exp/static/images/Set 6_rs/050b.jpg","86","","","","","","test","TL","3"
"","show_choice","247","427133","0.0-228.0-1.0","""event"",""trial"",""time""
""fullscreenenter"",""0"",""7932""
","
","
","""event"",""trial"",""time""
""fullscreenenter"",""0"",""7932""
","
","null","run_exp/static/images/Set 6_rs/050b.jpg","null","","","","","","test","TL",""
"","html-keyboard-response","248","427637","0.0-228.0-2.0","""event"",""trial"",""time""
""fullscreenenter"",""0"",""7932""
","
","
","""event"",""trial"",""time""
""fullscreenenter"",""0"",""7932""
","
","null","<p></p>","null","","","","","","","",""
"","image","249","428367","0.0-229.0-0.0","""event"",""trial"",""time""
""fullscreenenter"",""0"",""7932""
","
","
","""event"",""trial"",""time""
""fullscreenenter"",""0"",""7932""
","
","728.3000000715256","run_exp/static/images/Set 6_rs/008b.jpg","86","","","","","","test","TL","2"
"","show_choice","250","428872","0.0-229.0-1.0","""event"",""trial"",""time""
""fullscreenenter"",""0"",""7932""
","
","
","""event"",""trial"",""time""
""fullscreenenter"",""0"",""7932""
","
","null","run_exp/static/images/Set 6_rs/008b.jpg","null","","","","","","test","TL",""
"","html-keyboard-response","251","429378","0.0-229.0-2.0","""event"",""trial"",""time""
""fullscreenenter"",""0"",""7932""
","
","
","""event"",""trial"",""time""
""fullscreenenter"",""0"",""7932""
","
","null","<p></p>","null","","","","","","","",""
"","image","252","430119","0.0-230.0-0.0","""event"",""trial"",""time""
""fullscreenenter"",""0"",""7932""
","
","
","""event"",""trial"",""time""
""fullscreenenter"",""0"",""7932""
","
","739.3999999761581","run_exp/static/images/Set 6_rs/131a.jpg","86","","","","","","test","TR","5"
"","show_choice","253","430624","0.0-230.0-1.0","""event"",""trial"",""time""
""fullscreenenter"",""0"",""7932""
","
","
","""event"",""trial"",""time""
""fullscreenenter"",""0"",""7932""
","
","null","run_exp/static/images/Set 6_rs/131a.jpg","null","","","","","","test","TR",""
"","html-keyboard-response","254","431129","0.0-230.0-2.0","""event"",""trial"",""time""
""fullscreenenter"",""0"",""7932""
","
","
","""event"",""trial"",""time""
""fullscreenenter"",""0"",""7932""
","
","null","<p></p>","null","","","","","","","",""
"","image","255","431843","0.0-231.0-0.0","""event"",""trial"",""time""
""fullscreenenter"",""0"",""7932""
","
","
","""event"",""trial"",""time""
""fullscreenenter"",""0"",""7932""
","
","712.4000000953674","run_exp/static/images/Set 6_rs/064a.jpg","86","","","","","","test","TR","5"
"","show_choice","256","432348","0.0-231.0-1.0","""event"",""trial"",""time""
""fullscreenenter"",""0"",""7932""
","
","
","""event"",""trial"",""time""
""fullscreenenter"",""0"",""7932""
","
","null","run_exp/static/images/Set 6_rs/064a.jpg","null","","","","","","test","TR",""
"","html-keyboard-response","257","432854","0.0-231.0-2.0","""event"",""trial"",""time""
""fullscreenenter"",""0"",""7932""
","
","
","""event"",""trial"",""time""
""fullscreenenter"",""0"",""7932""
","
","null","<p></p>","null","","","","","","","",""
"","image","258","433797","0.0-232.0-0.0","""event"",""trial"",""time""
""fullscreenenter"",""0"",""7932""
","
","
","""event"",""trial"",""time""
""fullscreenenter"",""0"",""7932""
","
","941.5","run_exp/static/images/Set 6_rs/141a.jpg","86","","","","","","test","TR","2"
"","show_choice","259","434300","0.0-232.0-1.0","""event"",""trial"",""time""
""fullscreenenter"",""0"",""7932""
","
","
","""event"",""trial"",""time""
""fullscreenenter"",""0"",""7932""
","
","null","run_exp/static/images/Set 6_rs/141a.jpg","null","","","","","","test","TR",""
"","html-keyboard-response","260","434802","0.0-232.0-2.0","""event"",""trial"",""time""
""fullscreenenter"",""0"",""7932""
","
","
","""event"",""trial"",""time""
""fullscreenenter"",""0"",""7932""
","
","null","<p></p>","null","","","","","","","",""
"","image","261","435713","0.0-233.0-0.0","""event"",""trial"",""time""
""fullscreenenter"",""0"",""7932""
","
","
","""event"",""trial"",""time""
""fullscreenenter"",""0"",""7932""
","
","909.5","run_exp/static/images/Set 6_rs/019b.jpg","66","","","","","","test","TL","2"
"","show_choice","262","436217","0.0-233.0-1.0","""event"",""trial"",""time""
""fullscreenenter"",""0"",""7932""
","
","
","""event"",""trial"",""time""
""fullscreenenter"",""0"",""7932""
","
","null","run_exp/static/images/Set 6_rs/019b.jpg","null","","","","","","test","TL",""
"","html-keyboard-response","263","436719","0.0-233.0-2.0","""event"",""trial"",""time""
""fullscreenenter"",""0"",""7932""
","
","
","""event"",""trial"",""time""
""fullscreenenter"",""0"",""7932""
","
","null","<p></p>","null","","","","","","","",""
"","image","264","437463","0.0-234.0-0.0","""event"",""trial"",""time""
""fullscreenenter"",""0"",""7932""
","
","
","""event"",""trial"",""time""
""fullscreenenter"",""0"",""7932""
","
","742.3999999761581","run_exp/static/images/Set 6_rs/109a.jpg","66","","","","","","test","TF","5"
"","show_choice","265","437968","0.0-234.0-1.0","""event"",""trial"",""time""
""fullscreenenter"",""0"",""7932""
","
","
","""event"",""trial"",""time""
""fullscreenenter"",""0"",""7932""
","
","null","run_exp/static/images/Set 6_rs/109a.jpg","null","","","","","","test","TF",""
"","html-keyboard-response","266","438474","0.0-234.0-2.0","""event"",""trial"",""time""
""fullscreenenter"",""0"",""7932""
","
","
","""event"",""trial"",""time""
""fullscreenenter"",""0"",""7932""
","
","null","<p></p>","null","","","","","","","",""
"","image","267","439233","0.0-235.0-0.0","""event"",""trial"",""time""
""fullscreenenter"",""0"",""7932""
","
","
","""event"",""trial"",""time""
""fullscreenenter"",""0"",""7932""
","
","757.1000000238419","run_exp/static/images/Set 6_rs/021a.jpg","78","","","","","","test","TF","2"
"","show_choice","268","439738","0.0-235.0-1.0","""event"",""trial"",""time""
""fullscreenenter"",""0"",""7932""
","
","
","""event"",""trial"",""time""
""fullscreenenter"",""0"",""7932""
","
","null","run_exp/static/images/Set 6_rs/021a.jpg","null","","","","","","test","TF",""
"","html-keyboard-response","269","440244","0.0-235.0-2.0","""event"",""trial"",""time""
""fullscreenenter"",""0"",""7932""
","
","
","""event"",""trial"",""time""
""fullscreenenter"",""0"",""7932""
","
","null","<p></p>","null","","","","","","","",""
"","image","270","441456","0.0-236.0-0.0","""event"",""trial"",""time""
""fullscreenenter"",""0"",""7932""
","
","
","""event"",""trial"",""time""
""fullscreenenter"",""0"",""7932""
","
","1210.6000000238419","run_exp/static/images/Set 6_rs/071b.jpg","66","","","","","","test","TL","4"
"","show_choice","271","441961","0.0-236.0-1.0","""event"",""trial"",""time""
""fullscreenenter"",""0"",""7932""
","
","
","""event"",""trial"",""time""
""fullscreenenter"",""0"",""7932""
","
","null","run_exp/static/images/Set 6_rs/071b.jpg","null","","","","","","test","TL",""
"","html-keyboard-response","272","442465","0.0-236.0-2.0","""event"",""trial"",""time""
""fullscreenenter"",""0"",""7932""
","
","
","""event"",""trial"",""time""
""fullscreenenter"",""0"",""7932""
","
","null","<p></p>","null","","","","","","","",""
"","image","273","443679","0.0-237.0-0.0","""event"",""trial"",""time""
""fullscreenenter"",""0"",""7932""
","
","
","""event"",""trial"",""time""
""fullscreenenter"",""0"",""7932""
","
","1212.7000000476837","run_exp/static/images/Set 6_rs/065a.jpg","78","","","","","","test","TF","3"
"","show_choice","274","444183","0.0-237.0-1.0","""event"",""trial"",""time""
""fullscreenenter"",""0"",""7932""
","
","
","""event"",""trial"",""time""
""fullscreenenter"",""0"",""7932""
","
","null","run_exp/static/images/Set 6_rs/065a.jpg","null","","","","","","test","TF",""
"","html-keyboard-response","275","444687","0.0-237.0-2.0","""event"",""trial"",""time""
""fullscreenenter"",""0"",""7932""
","
","
","""event"",""trial"",""time""
""fullscreenenter"",""0"",""7932""
","
","null","<p></p>","null","","","","","","","",""
"","image","276","445843","0.0-238.0-0.0","""event"",""trial"",""time""
""fullscreenenter"",""0"",""7932""
","
","
","""event"",""trial"",""time""
""fullscreenenter"",""0"",""7932""
","
","1154.5","run_exp/static/images/Set 6_rs/170a.jpg","78","","","","","","test","TF","2"
"","show_choice","277","446345","0.0-238.0-1.0","""event"",""trial"",""time""
""fullscreenenter"",""0"",""7932""
","
","
","""event"",""trial"",""time""
""fullscreenenter"",""0"",""7932""
","
","null","run_exp/static/images/Set 6_rs/170a.jpg","null","","","","","","test","TF",""
"","html-keyboard-response","278","446849","0.0-238.0-2.0","""event"",""trial"",""time""
""fullscreenenter"",""0"",""7932""
","
","
","""event"",""trial"",""time""
""fullscreenenter"",""0"",""7932""
","
","null","<p></p>","null","","","","","","","",""
"","image","279","447828","0.0-239.0-0.0","""event"",""trial"",""time""
""fullscreenenter"",""0"",""7932""
","
","
","""event"",""trial"",""time""
""fullscreenenter"",""0"",""7932""
","
","977.6999999284744","run_exp/static/images/Set 6_rs/121a.jpg","86","","","","","","test","TR","4"
"","show_choice","280","448330","0.0-239.0-1.0","""event"",""trial"",""time""
""fullscreenenter"",""0"",""7932""
","
","
","""event"",""trial"",""time""
""fullscreenenter"",""0"",""7932""
","
","null","run_exp/static/images/Set 6_rs/121a.jpg","null","","","","","","test","TR",""
"","html-keyboard-response","281","448834","0.0-239.0-2.0","""event"",""trial"",""time""
""fullscreenenter"",""0"",""7932""
","
","
","""event"",""trial"",""time""
""fullscreenenter"",""0"",""7932""
","
","null","<p></p>","null","","","","","","","",""
"","image","282","449878","0.0-240.0-0.0","""event"",""trial"",""time""
""fullscreenenter"",""0"",""7932""
","
","
","""event"",""trial"",""time""
""fullscreenenter"",""0"",""7932""
","
","1041.8999999761581","run_exp/static/images/Set 6_rs/155a.jpg","78","","","","","","test","TF","4"
"","show_choice","283","450382","0.0-240.0-1.0","""event"",""trial"",""time""
""fullscreenenter"",""0"",""7932""
","
","
","""event"",""trial"",""time""
""fullscreenenter"",""0"",""7932""
","
","null","run_exp/static/images/Set 6_rs/155a.jpg","null","","","","","","test","TF",""
"","html-keyboard-response","284","450887","0.0-240.0-2.0","""event"",""trial"",""time""
""fullscreenenter"",""0"",""7932""
","
","
","""event"",""trial"",""time""
""fullscreenenter"",""0"",""7932""
","
","null","<p></p>","null","","","","","","","",""
"","image","285","452129","0.0-241.0-0.0","""event"",""trial"",""time""
""fullscreenenter"",""0"",""7932""
","
","
","""event"",""trial"",""time""
""fullscreenenter"",""0"",""7932""
","
","1239.5","run_exp/static/images/Set 6_rs/154a.jpg","66","","","","","","test","TR","3"
"","show_choice","286","452631","0.0-241.0-1.0","""event"",""trial"",""time""
""fullscreenenter"",""0"",""7932""
","
","
","""event"",""trial"",""time""
""fullscreenenter"",""0"",""7932""
","
","null","run_exp/static/images/Set 6_rs/154a.jpg","null","","","","","","test","TR",""
"","html-keyboard-response","287","453135","0.0-241.0-2.0","""event"",""trial"",""time""
""fullscreenenter"",""0"",""7932""
","
","
","""event"",""trial"",""time""
""fullscreenenter"",""0"",""7932""
","
","null","<p></p>","null","","","","","","","",""
"","image","288","454210","0.0-242.0-0.0","""event"",""trial"",""time""
""fullscreenenter"",""0"",""7932""
","
","
","""event"",""trial"",""time""
""fullscreenenter"",""0"",""7932""
","
","1073.1999999284744","run_exp/static/images/Set 6_rs/097a.jpg","86","","","","","","test","TF","5"
"","show_choice","289","454711","0.0-242.0-1.0","""event"",""trial"",""time""
""fullscreenenter"",""0"",""7932""
","
","
","""event"",""trial"",""time""
""fullscreenenter"",""0"",""7932""
","
","null","run_exp/static/images/Set 6_rs/097a.jpg","null","","","","","","test","TF",""
"","html-keyboard-response","290","455215","0.0-242.0-2.0","""event"",""trial"",""time""
""fullscreenenter"",""0"",""7932""
","
","
","""event"",""trial"",""time""
""fullscreenenter"",""0"",""7932""
","
","null","<p></p>","null","","","","","","","",""
"","image","291","455906","0.0-243.0-0.0","""event"",""trial"",""time""
""fullscreenenter"",""0"",""7932""
","
","
","""event"",""trial"",""time""
""fullscreenenter"",""0"",""7932""
","
","689.8999999761581","run_exp/static/images/Set 6_rs/117b.jpg","86","","","","","","test","TL","5"
"","show_choice","292","456409","0.0-243.0-1.0","""event"",""trial"",""time""
""fullscreenenter"",""0"",""7932""
","
","
","""event"",""trial"",""time""
""fullscreenenter"",""0"",""7932""
","
","null","run_exp/static/images/Set 6_rs/117b.jpg","null","","","","","","test","TL",""
"","html-keyboard-response","293","456914","0.0-243.0-2.0","""event"",""trial"",""time""
""fullscreenenter"",""0"",""7932""
","
","
","""event"",""trial"",""time""
""fullscreenenter"",""0"",""7932""
","
","null","<p></p>","null","","","","","","","",""
"","image","294","458014","0.0-244.0-0.0","""event"",""trial"",""time""
""fullscreenenter"",""0"",""7932""
","
","
","""event"",""trial"",""time""
""fullscreenenter"",""0"",""7932""
","
","1097.6999999284744","run_exp/static/images/Set 6_rs/006b.jpg","86","","","","","","test","TL","2"
"","show_choice","295","458519","0.0-244.0-1.0","""event"",""trial"",""time""
""fullscreenenter"",""0"",""7932""
","
","
","""event"",""trial"",""time""
""fullscreenenter"",""0"",""7932""
","
","null","run_exp/static/images/Set 6_rs/006b.jpg","null","","","","","","test","TL",""
"","html-keyboard-response","296","459025","0.0-244.0-2.0","""event"",""trial"",""time""
""fullscreenenter"",""0"",""7932""
","
","
","""event"",""trial"",""time""
""fullscreenenter"",""0"",""7932""
","
","null","<p></p>","null","","","","","","","",""
"","image","297","462029","0.0-245.0-0.0","""event"",""trial"",""time""
""fullscreenenter"",""0"",""7932""
","
","
","""event"",""trial"",""time""
""fullscreenenter"",""0"",""7932""
","
","null","run_exp/static/images/Set 6_rs/108a.jpg","null","","","","","","test","TR","5"
"","show_choice","298","462536","0.0-245.0-1.0","""event"",""trial"",""time""
""fullscreenenter"",""0"",""7932""
","
","
","""event"",""trial"",""time""
""fullscreenenter"",""0"",""7932""
","
","null","run_exp/static/images/Set 6_rs/108a.jpg","null","","","","","","test","TR",""
"","html-keyboard-response","299","463037","0.0-245.0-2.0","""event"",""trial"",""time""
""fullscreenenter"",""0"",""7932""
","
","
","""event"",""trial"",""time""
""fullscreenenter"",""0"",""7932""
","
","null","<p></p>","null","","","","","","","",""
"","image","300","464269","0.0-246.0-0.0","""event"",""trial"",""time""
""fullscreenenter"",""0"",""7932""
","
","
","""event"",""trial"",""time""
""fullscreenenter"",""0"",""7932""
","
","1229.7000000476837","run_exp/static/images/Set 6_rs/048a.jpg","66","","","","","","test","TF","4"
"","show_choice","301","464770","0.0-246.0-1.0","""event"",""trial"",""time""
""fullscreenenter"",""0"",""7932""
","
","
","""event"",""trial"",""time""
""fullscreenenter"",""0"",""7932""
","
","null","run_exp/static/images/Set 6_rs/048a.jpg","null","","","","","","test","TF",""
"","html-keyboard-response","302","465274","0.0-246.0-2.0","""event"",""trial"",""time""
""fullscreenenter"",""0"",""7932""
","
","
","""event"",""trial"",""time""
""fullscreenenter"",""0"",""7932""
","
","null","<p></p>","null","","","","","","","",""
"","image","303","466472","0.0-247.0-0.0","""event"",""trial"",""time""
""fullscreenenter"",""0"",""7932""
","
","
","""event"",""trial"",""time""
""fullscreenenter"",""0"",""7932""
","
","1196.3000000715256","run_exp/static/images/Set 6_rs/134a.jpg","86","","","","","","test","TR","3"
"","show_choice","304","466975","0.0-247.0-1.0","""event"",""trial"",""time""
""fullscreenenter"",""0"",""7932""
","
","
","""event"",""trial"",""time""
""fullscreenenter"",""0"",""7932""
","
","null","run_exp/static/images/Set 6_rs/134a.jpg","null","","","","","","test","TR",""
"","html-keyboard-response","305","467477","0.0-247.0-2.0","""event"",""trial"",""time""
""fullscreenenter"",""0"",""7932""
","
","
","""event"",""trial"",""time""
""fullscreenenter"",""0"",""7932""
","
","null","<p></p>","null","","","","","","","",""
"","image","306","469353","0.0-248.0-0.0","""event"",""trial"",""time""
""fullscreenenter"",""0"",""7932""
","
","
","""event"",""trial"",""time""
""fullscreenenter"",""0"",""7932""
","
","1875.1000000238419","run_exp/static/images/Set 6_rs/077a.jpg","78","","","","","","test","TF","3"
"","show_choice","307","469858","0.0-248.0-1.0","""event"",""trial"",""time""
""fullscreenenter"",""0"",""7932""
","
","
","""event"",""trial"",""time""
""fullscreenenter"",""0"",""7932""
","
","null","run_exp/static/images/Set 6_rs/077a.jpg","null","","","","","","test","TF",""
"","html-keyboard-response","308","470362","0.0-248.0-2.0","""event"",""trial"",""time""
""fullscreenenter"",""0"",""7932""
","
","
","""event"",""trial"",""time""
""fullscreenenter"",""0"",""7932""
","
","null","<p></p>","null","","","","","","","",""
"","image","309","471334","0.0-249.0-0.0","""event"",""trial"",""time""
""fullscreenenter"",""0"",""7932""
","
","
","""event"",""trial"",""time""
""fullscreenenter"",""0"",""7932""
","
","971","run_exp/static/images/Set 6_rs/129b.jpg","66","","","","","","test","TL","1"
"","show_choice","310","471837","0.0-249.0-1.0","""event"",""trial"",""time""
""fullscreenenter"",""0"",""7932""
","
","
","""event"",""trial"",""time""
""fullscreenenter"",""0"",""7932""
","
","null","run_exp/static/images/Set 6_rs/129b.jpg","null","","","","","","test","TL",""
"","html-keyboard-response","311","472339","0.0-249.0-2.0","""event"",""trial"",""time""
""fullscreenenter"",""0"",""7932""
","
","
","""event"",""trial"",""time""
""fullscreenenter"",""0"",""7932""
","
","null","<p></p>","null","","","","","","","",""
"","image","312","473349","0.0-250.0-0.0","""event"",""trial"",""time""
""fullscreenenter"",""0"",""7932""
","
","
","""event"",""trial"",""time""
""fullscreenenter"",""0"",""7932""
","
","1008.1000000238419","run_exp/static/images/Set 6_rs/123b.jpg","66","","","","","","test","TL","2"
"","show_choice","313","473854","0.0-250.0-1.0","""event"",""trial"",""time""
""fullscreenenter"",""0"",""7932""
","
","
","""event"",""trial"",""time""
""fullscreenenter"",""0"",""7932""
","
","null","run_exp/static/images/Set 6_rs/123b.jpg","null","","","","","","test","TL",""
"","html-keyboard-response","314","474360","0.0-250.0-2.0","""event"",""trial"",""time""
""fullscreenenter"",""0"",""7932""
","
","
","""event"",""trial"",""time""
""fullscreenenter"",""0"",""7932""
","
","null","<p></p>","null","","","","","","","",""
"","image","315","475452","0.0-251.0-0.0","""event"",""trial"",""time""
""fullscreenenter"",""0"",""7932""
","
","
","""event"",""trial"",""time""
""fullscreenenter"",""0"",""7932""
","
","1090.3000000715256","run_exp/static/images/Set 6_rs/025b.jpg","66","","","","","","test","TL","5"
"","show_choice","316","475958","0.0-251.0-1.0","""event"",""trial"",""time""
""fullscreenenter"",""0"",""7932""
","
","
","""event"",""trial"",""time""
""fullscreenenter"",""0"",""7932""
","
","null","run_exp/static/images/Set 6_rs/025b.jpg","null","","","","","","test","TL",""
"","html-keyboard-response","317","476459","0.0-251.0-2.0","""event"",""trial"",""time""
""fullscreenenter"",""0"",""7932""
","
","
","""event"",""trial"",""time""
""fullscreenenter"",""0"",""7932""
","
","null","<p></p>","null","","","","","","","",""
"","image","318","477764","0.0-252.0-0.0","""event"",""trial"",""time""
""fullscreenenter"",""0"",""7932""
","
","
","""event"",""trial"",""time""
""fullscreenenter"",""0"",""7932""
","
","1303.3999999761581","run_exp/static/images/Set 6_rs/073b.jpg","78","","","","","","test","TL","3"
"","show_choice","319","478269","0.0-252.0-1.0","""event"",""trial"",""time""
""fullscreenenter"",""0"",""7932""
","
","
","""event"",""trial"",""time""
""fullscreenenter"",""0"",""7932""
","
","null","run_exp/static/images/Set 6_rs/073b.jpg","null","","","","","","test","TL",""
"","html-keyboard-response","320","478775","0.0-252.0-2.0","""event"",""trial"",""time""
""fullscreenenter"",""0"",""7932""
","
","
","""event"",""trial"",""time""
""fullscreenenter"",""0"",""7932""
","
","null","<p></p>","null","","","","","","","",""
"","image","321","479802","0.0-253.0-0.0","""event"",""trial"",""time""
""fullscreenenter"",""0"",""7932""
","
","
","""event"",""trial"",""time""
""fullscreenenter"",""0"",""7932""
","
","1024.5","run_exp/static/images/Set 6_rs/122a.jpg","86","","","","","","test","TR","5"
"","show_choice","322","480306","0.0-253.0-1.0","""event"",""trial"",""time""
""fullscreenenter"",""0"",""7932""
","
","
","""event"",""trial"",""time""
""fullscreenenter"",""0"",""7932""
","
","null","run_exp/static/images/Set 6_rs/122a.jpg","null","","","","","","test","TR",""
"","html-keyboard-response","323","480807","0.0-253.0-2.0","""event"",""trial"",""time""
""fullscreenenter"",""0"",""7932""
","
","
","""event"",""trial"",""time""
""fullscreenenter"",""0"",""7932""
","
","null","<p></p>","null","","","","","","","",""
"","image","324","481907","0.0-254.0-0.0","""event"",""trial"",""time""
""fullscreenenter"",""0"",""7932""
","
","
","""event"",""trial"",""time""
""fullscreenenter"",""0"",""7932""
","
","1098.1999999284744","run_exp/static/images/Set 6_rs/001a.jpg","78","","","","","","test","TF","1"
"","show_choice","325","482412","0.0-254.0-1.0","""event"",""trial"",""time""
""fullscreenenter"",""0"",""7932""
","
","
","""event"",""trial"",""time""
""fullscreenenter"",""0"",""7932""
","
","null","run_exp/static/images/Set 6_rs/001a.jpg","null","","","","","","test","TF",""
"","html-keyboard-response","326","482918","0.0-254.0-2.0","""event"",""trial"",""time""
""fullscreenenter"",""0"",""7932""
","
","
","""event"",""trial"",""time""
""fullscreenenter"",""0"",""7932""
","
","null","<p></p>","null","","","","","","","",""
"","image","327","485036","0.0-255.0-0.0","""event"",""trial"",""time""
""fullscreenenter"",""0"",""7932""
","
","
","""event"",""trial"",""time""
""fullscreenenter"",""0"",""7932""
","
","2116.2000000476837","run_exp/static/images/Set 6_rs/089b.jpg","66","","","","","","test","TL","4"
"","show_choice","328","485538","0.0-255.0-1.0","""event"",""trial"",""time""
""fullscreenenter"",""0"",""7932""
","
","
","""event"",""trial"",""time""
""fullscreenenter"",""0"",""7932""
","
","null","run_exp/static/images/Set 6_rs/089b.jpg","null","","","","","","test","TL",""
"","html-keyboard-response","329","486043","0.0-255.0-2.0","""event"",""trial"",""time""
""fullscreenenter"",""0"",""7932""
","
","
","""event"",""trial"",""time""
""fullscreenenter"",""0"",""7932""
","
","null","<p></p>","null","","","","","","","",""
"","image","330","487376","0.0-256.0-0.0","""event"",""trial"",""time""
""fullscreenenter"",""0"",""7932""
","
","
","""event"",""trial"",""time""
""fullscreenenter"",""0"",""7932""
","
","1331","run_exp/static/images/Set 6_rs/138b.jpg","66","","","","","","test","TL","1"
"","show_choice","331","487878","0.0-256.0-1.0","""event"",""trial"",""time""
""fullscreenenter"",""0"",""7932""
","
","
","""event"",""trial"",""time""
""fullscreenenter"",""0"",""7932""
","
","null","run_exp/static/images/Set 6_rs/138b.jpg","null","","","","","","test","TL",""
"","html-keyboard-response","332","488381","0.0-256.0-2.0","""event"",""trial"",""time""
""fullscreenenter"",""0"",""7932""
","
","
","""event"",""trial"",""time""
""fullscreenenter"",""0"",""7932""
","
","null","<p></p>","null","","","","","","","",""
"","image","333","489414","0.0-257.0-0.0","""event"",""trial"",""time""
""fullscreenenter"",""0"",""7932""
","
","
","""event"",""trial"",""time""
""fullscreenenter"",""0"",""7932""
","
","1031.6000000238419","run_exp/static/images/Set 6_rs/091b.jpg","86","","","","","","test","TL","3"
"","show_choice","334","489918","0.0-257.0-1.0","""event"",""trial"",""time""
""fullscreenenter"",""0"",""7932""
","
","
","""event"",""trial"",""time""
""fullscreenenter"",""0"",""7932""
","
","null","run_exp/static/images/Set 6_rs/091b.jpg","null","","","","","","test","TL",""
"","html-keyboard-response","335","490419","0.0-257.0-2.0","""event"",""trial"",""time""
""fullscreenenter"",""0"",""7932""
","
","
","""event"",""trial"",""time""
""fullscreenenter"",""0"",""7932""
","
","null","<p></p>","null","","","","","","","",""
"","image","336","491430","0.0-258.0-0.0","""event"",""trial"",""time""
""fullscreenenter"",""0"",""7932""
","
","
","""event"",""trial"",""time""
""fullscreenenter"",""0"",""7932""
","
","1008.7000000476837","run_exp/static/images/Set 6_rs/079b.jpg","86","","","","","","test","TL","5"
"","show_choice","337","491932","0.0-258.0-1.0","""event"",""trial"",""time""
""fullscreenenter"",""0"",""7932""
","
","
","""event"",""trial"",""time""
""fullscreenenter"",""0"",""7932""
","
","null","run_exp/static/images/Set 6_rs/079b.jpg","null","","","","","","test","TL",""
"","html-keyboard-response","338","492435","0.0-258.0-2.0","""event"",""trial"",""time""
""fullscreenenter"",""0"",""7932""
","
","
","""event"",""trial"",""time""
""fullscreenenter"",""0"",""7932""
","
","null","<p></p>","null","","","","","","","",""
"","image","339","493647","0.0-259.0-0.0","""event"",""trial"",""time""
""fullscreenenter"",""0"",""7932""
","
","
","""event"",""trial"",""time""
""fullscreenenter"",""0"",""7932""
","
","1210.9000000953674","run_exp/static/images/Set 6_rs/186a.jpg","86","","","","","","test","TR","5"
"","show_choice","340","494151","0.0-259.0-1.0","""event"",""trial"",""time""
""fullscreenenter"",""0"",""7932""
","
","
","""event"",""trial"",""time""
""fullscreenenter"",""0"",""7932""
","
","null","run_exp/static/images/Set 6_rs/186a.jpg","null","","","","","","test","TR",""
"","html-keyboard-response","341","494656","0.0-259.0-2.0","""event"",""trial"",""time""
""fullscreenenter"",""0"",""7932""
","
","
