"success","trial_type","trial_index","time_elapsed","internal_node_id","interactions","blur_events","focus_events","fullscreenenter_events","fullscreenexit_events","rt","stimulus","key_press","subject_id","participant_id","age","gender","prompt","phase","condition","lure_bin"
"true","fullscreen","0","6262","0.0-0.0","""event"",""trial"",""time""
""fullscreenenter"",""0"",""5272""
","
","
","""event"",""trial"",""time""
""fullscreenenter"",""0"",""5272""
","
","","","","","","","","","","",""
"","pavlovia","1","6268","0.0-1.0","""event"",""trial"",""time""
""fullscreenenter"",""0"",""5272""
","
","
","""event"",""trial"",""time""
""fullscreenenter"",""0"",""5272""
","
","","","","","","","","","","",""
"","welcome","2","41116","0.0-2.0","""event"",""trial"",""time""
""fullscreenenter"",""0"",""5272""
","
","
","""event"",""trial"",""time""
""fullscreenenter"",""0"",""5272""
","
","null","run_exp/static/audio/clip_1_welcome.m4a","null","1120","139","12","Female","<div class='center'><p>Welcome to the third part of the study! First, you'll be shown pictures of items one at a time. For each picture, you have to decide if the item is typically found indoors or outdoors.</p><p>If you think it's usually found indoors, then press <b>v</b> key on your keyboard. If you think it's usually found outdoors, then press the <b>n</b> key.There will be reminders on the screen to help you remember which keys to press. </p><p>If you're not sure whether the item is an indoor item or an outdoor item, go ahead and take a guess but try your best not to skip that choice. </p></div>","","",""
"","html-keyboard-response","3","42818","0.0-3.0","""event"",""trial"",""time""
""fullscreenenter"",""0"",""5272""
","
","
","""event"",""trial"",""time""
""fullscreenenter"",""0"",""5272""
","
","1696.6999999955297","<div class='center'><p>Welcome to the third part of the study! First, you'll be shown pictures of items one at a time. For each picture, you have to decide if the item is typically found indoors or outdoors.</p><p>If you think it's usually found indoors, then press <b>v</b> key on your keyboard. If you think it's usually found outdoors, then press the <b>n</b> key.There will be reminders on the screen to help you remember which keys to press. </p><p>If you're not sure whether the item is an indoor item or an outdoor item, go ahead and take a guess but try your best not to skip that choice. </p><div><p><b>[Press the space bar to continue]</b></p></div>","32","","","","","","","",""
"","image","4","44436","0.0-4.0","""event"",""trial"",""time""
""fullscreenenter"",""0"",""5272""
","
","
","""event"",""trial"",""time""
""fullscreenenter"",""0"",""5272""
","
","1615.6999999955297","run_exp/static/images/Set 6_rs/169a.jpg","78","","","","","","learn","SR",""
"","show_choice","5","44826","0.0-5.0","""event"",""trial"",""time""
""fullscreenenter"",""0"",""5272""
","
","
","""event"",""trial"",""time""
""fullscreenenter"",""0"",""5272""
","
","null","run_exp/static/images/Set 6_rs/169a.jpg","null","","","","","","learn","SR",""
"","html-keyboard-response","6","45331","0.0-6.0","""event"",""trial"",""time""
""fullscreenenter"",""0"",""5272""
","
","
","""event"",""trial"",""time""
""fullscreenenter"",""0"",""5272""
","
","null","<p></p>","null","","","","","","","",""
"","image","7","46437","0.0-7.0","""event"",""trial"",""time""
""fullscreenenter"",""0"",""5272""
","
","
","""event"",""trial"",""time""
""fullscreenenter"",""0"",""5272""
","
","1103","run_exp/static/images/Set 6_rs/010a.jpg","86","","","","","","learn","SR",""
"","show_choice","8","47339","0.0-8.0","""event"",""trial"",""time""
""fullscreenenter"",""0"",""5272""
","
","
","""event"",""trial"",""time""
""fullscreenenter"",""0"",""5272""
","
","null","run_exp/static/images/Set 6_rs/010a.jpg","null","","","","","","learn","SR",""
"","html-keyboard-response","9","47845","0.0-9.0","""event"",""trial"",""time""
""fullscreenenter"",""0"",""5272""
","
","
","""event"",""trial"",""time""
""fullscreenenter"",""0"",""5272""
","
","null","<p></p>","null","","","","","","","",""
"","image","10","49410","0.0-10.0","""event"",""trial"",""time""
""fullscreenenter"",""0"",""5272""
","
","
","""event"",""trial"",""time""
""fullscreenenter"",""0"",""5272""
","
","1562.3999999985099","run_exp/static/images/Set 6_rs/007a.jpg","86","","","","","","learn","SR",""
"","show_choice","11","49849","0.0-11.0","""event"",""trial"",""time""
""fullscreenenter"",""0"",""5272""
","
","
","""event"",""trial"",""time""
""fullscreenenter"",""0"",""5272""
","
","null","run_exp/static/images/Set 6_rs/007a.jpg","null","","","","","","learn","SR",""
"","html-keyboard-response","12","50351","0.0-12.0","""event"",""trial"",""time""
""fullscreenenter"",""0"",""5272""
","
","
","""event"",""trial"",""time""
""fullscreenenter"",""0"",""5272""
","
","null","<p></p>","null","","","","","","","",""
"","image","13","52285","0.0-13.0","""event"",""trial"",""time""
""fullscreenenter"",""0"",""5272""
","
","
","""event"",""trial"",""time""
""fullscreenenter"",""0"",""5272""
","
","1931.3999999985099","run_exp/static/images/Set 6_rs/012a.jpg","86","","","","","","learn","SR",""
"","show_choice","14","52355","0.0-14.0","""event"",""trial"",""time""
""fullscreenenter"",""0"",""5272""
","
","
","""event"",""trial"",""time""
""fullscreenenter"",""0"",""5272""
","
","null","run_exp/static/images/Set 6_rs/012a.jpg","null","","","","","","learn","SR",""
"","html-keyboard-response","15","52858","0.0-15.0","""event"",""trial"",""time""
""fullscreenenter"",""0"",""5272""
","
","
","""event"",""trial"",""time""
""fullscreenenter"",""0"",""5272""
","
","null","<p></p>","null","","","","","","","",""
"","image","16","54289","0.0-16.0","""event"",""trial"",""time""
""fullscreenenter"",""0"",""5272""
","
","
","""event"",""trial"",""time""
""fullscreenenter"",""0"",""5272""
","
","1428.8999999985099","run_exp/static/images/Set 6_rs/132a.jpg","78","","","","","","learn","SR",""
"","show_choice","17","54865","0.0-17.0","""event"",""trial"",""time""
""fullscreenenter"",""0"",""5272""
","
","
","""event"",""trial"",""time""
""fullscreenenter"",""0"",""5272""
","
","null","run_exp/static/images/Set 6_rs/132a.jpg","null","","","","","","learn","SR",""
"","html-keyboard-response","18","55371","0.0-18.0","""event"",""trial"",""time""
""fullscreenenter"",""0"",""5272""
","
","
","""event"",""trial"",""time""
""fullscreenenter"",""0"",""5272""
","
","null","<p></p>","null","","","","","","","",""
"","image","19","56710","0.0-19.0","""event"",""trial"",""time""
""fullscreenenter"",""0"",""5272""
","
","
","""event"",""trial"",""time""
""fullscreenenter"",""0"",""5272""
","
","1337.5","run_exp/static/images/Set 6_rs/071a.jpg","78","","","","","","learn","SL",""
"","show_choice","20","57378","0.0-20.0","""event"",""trial"",""time""
""fullscreenenter"",""0"",""5272""
","
","
","""event"",""trial"",""time""
""fullscreenenter"",""0"",""5272""
","
","null","run_exp/static/images/Set 6_rs/071a.jpg","null","","","","","","learn","SL",""
"","html-keyboard-response","21","57881","0.0-21.0","""event"",""trial"",""time""
""fullscreenenter"",""0"",""5272""
","
","
","""event"",""trial"",""time""
""fullscreenenter"",""0"",""5272""
","
","null","<p></p>","null","","","","","","","",""
"","image","22","59235","0.0-22.0","""event"",""trial"",""time""
""fullscreenenter"",""0"",""5272""
","
","
","""event"",""trial"",""time""
""fullscreenenter"",""0"",""5272""
","
","1352.5","run_exp/static/images/Set 6_rs/070a.jpg","86","","","","","","learn","SR",""
"","show_choice","23","59884","0.0-23.0","""event"",""trial"",""time""
""fullscreenenter"",""0"",""5272""
","
","
","""event"",""trial"",""time""
""fullscreenenter"",""0"",""5272""
","
","null","run_exp/static/images/Set 6_rs/070a.jpg","null","","","","","","learn","SR",""
"","html-keyboard-response","24","60391","0.0-24.0","""event"",""trial"",""time""
""fullscreenenter"",""0"",""5272""
","
","
","""event"",""trial"",""time""
""fullscreenenter"",""0"",""5272""
","
","null","<p></p>","null","","","","","","","",""
"","image","25","62111","0.0-25.0","""event"",""trial"",""time""
""fullscreenenter"",""0"",""5272""
","
","
","""event"",""trial"",""time""
""fullscreenenter"",""0"",""5272""
","
","1718.2000000029802","run_exp/static/images/Set 6_rs/089a.jpg","86","","","","","","learn","SL",""
"","show_choice","26","62398","0.0-26.0","""event"",""trial"",""time""
""fullscreenenter"",""0"",""5272""
","
","
","""event"",""trial"",""time""
""fullscreenenter"",""0"",""5272""
","
","null","run_exp/static/images/Set 6_rs/089a.jpg","null","","","","","","learn","SL",""
"","html-keyboard-response","27","62904","0.0-27.0","""event"",""trial"",""time""
""fullscreenenter"",""0"",""5272""
","
","
","""event"",""trial"",""time""
""fullscreenenter"",""0"",""5272""
","
","null","<p></p>","null","","","","","","","",""
"","image","28","64311","0.0-28.0","""event"",""trial"",""time""
""fullscreenenter"",""0"",""5272""
","
","
","""event"",""trial"",""time""
""fullscreenenter"",""0"",""5272""
","
","1404.1000000014901","run_exp/static/images/Set 6_rs/088a.jpg","86","","","","","","learn","SR",""
"","show_choice","29","64912","0.0-29.0","""event"",""trial"",""time""
""fullscreenenter"",""0"",""5272""
","
","
","""event"",""trial"",""time""
""fullscreenenter"",""0"",""5272""
","
","null","run_exp/static/images/Set 6_rs/088a.jpg","null","","","","","","learn","SR",""
"","html-keyboard-response","30","65414","0.0-30.0","""event"",""trial"",""time""
""fullscreenenter"",""0"",""5272""
","
","
","""event"",""trial"",""time""
""fullscreenenter"",""0"",""5272""
","
","null","<p></p>","null","","","","","","","",""
"","image","31","66376","0.0-31.0","""event"",""trial"",""time""
""fullscreenenter"",""0"",""5272""
","
","
","""event"",""trial"",""time""
""fullscreenenter"",""0"",""5272""
","
","960.3999999985099","run_exp/static/images/Set 6_rs/024a.jpg","86","","","","","","learn","SR",""
"","show_choice","32","67417","0.0-32.0","""event"",""trial"",""time""
""fullscreenenter"",""0"",""5272""
","
","
","""event"",""trial"",""time""
""fullscreenenter"",""0"",""5272""
","
","null","run_exp/static/images/Set 6_rs/024a.jpg","null","","","","","","learn","SR",""
"","html-keyboard-response","33","67923","0.0-33.0","""event"",""trial"",""time""
""fullscreenenter"",""0"",""5272""
","
","
","""event"",""trial"",""time""
""fullscreenenter"",""0"",""5272""
","
","null","<p></p>","null","","","","","","","",""
"","image","34","69045","0.0-34.0","""event"",""trial"",""time""
""fullscreenenter"",""0"",""5272""
","
","
","""event"",""trial"",""time""
""fullscreenenter"",""0"",""5272""
","
","1119.4000000059605","run_exp/static/images/Set 6_rs/055a.jpg","86","","","","","","learn","SL",""
"","show_choice","35","69931","0.0-35.0","""event"",""trial"",""time""
""fullscreenenter"",""0"",""5272""
","
","
","""event"",""trial"",""time""
""fullscreenenter"",""0"",""5272""
","
","null","run_exp/static/images/Set 6_rs/055a.jpg","null","","","","","","learn","SL",""
"","html-keyboard-response","36","70437","0.0-36.0","""event"",""trial"",""time""
""fullscreenenter"",""0"",""5272""
","
","
","""event"",""trial"",""time""
""fullscreenenter"",""0"",""5272""
","
","null","<p></p>","null","","","","","","","",""
"","image","37","72444","0.0-37.0","""event"",""trial"",""time""
""fullscreenenter"",""0"",""5272""
","
","
","""event"",""trial"",""time""
""fullscreenenter"",""0"",""5272""
","
","null","run_exp/static/images/Set 6_rs/131a.jpg","null","","","","","","learn","SR",""
"","show_choice","38","74447","0.0-38.0","""event"",""trial"",""time""
""fullscreenenter"",""0"",""5272""
","
","
","""event"",""trial"",""time""
""fullscreenenter"",""0"",""5272""
","
","null","run_exp/static/images/blank.png","null","","","","","","learn","SR",""
"","html-keyboard-response","39","74954","0.0-39.0","""event"",""trial"",""time""
""fullscreenenter"",""0"",""5272""
","
","
","""event"",""trial"",""time""
""fullscreenenter"",""0"",""5272""
","
","null","<p></p>","null","","","","","","","",""
"","image","40","76047","0.0-40.0","""event"",""trial"",""time""
""fullscreenenter"",""0"",""5272""
","
","
","""event"",""trial"",""time""
""fullscreenenter"",""0"",""5272""
","
","1091.3000000044703","run_exp/static/images/Set 6_rs/074a.jpg","78","","","","","","learn","SL",""
"","show_choice","41","76961","0.0-41.0","""event"",""trial"",""time""
""fullscreenenter"",""0"",""5272""
","
","
","""event"",""trial"",""time""
""fullscreenenter"",""0"",""5272""
","
","null","run_exp/static/images/Set 6_rs/074a.jpg","null","","","","","","learn","SL",""
"","html-keyboard-response","42","77466","0.0-42.0","""event"",""trial"",""time""
""fullscreenenter"",""0"",""5272""
","
","
","""event"",""trial"",""time""
""fullscreenenter"",""0"",""5272""
","
","null","<p></p>","null","","","","","","","",""
"","image","43","78869","0.0-43.0","""event"",""trial"",""time""
""fullscreenenter"",""0"",""5272""
","
","
","""event"",""trial"",""time""
""fullscreenenter"",""0"",""5272""
","
","1401.2999999970198","run_exp/static/images/Set 6_rs/075a.jpg","86","","","","","","learn","SR",""
"","show_choice","44","79472","0.0-44.0","""event"",""trial"",""time""
""fullscreenenter"",""0"",""5272""
","
","
","""event"",""trial"",""time""
""fullscreenenter"",""0"",""5272""
","
","null","run_exp/static/images/Set 6_rs/075a.jpg","null","","","","","","learn","SR",""
"","html-keyboard-response","45","79975","0.0-45.0","""event"",""trial"",""time""
""fullscreenenter"",""0"",""5272""
","
","
","""event"",""trial"",""time""
""fullscreenenter"",""0"",""5272""
","
","null","<p></p>","null","","","","","","","",""
"","image","46","81687","0.0-46.0","""event"",""trial"",""time""
""fullscreenenter"",""0"",""5272""
","
","
","""event"",""trial"",""time""
""fullscreenenter"",""0"",""5272""
","
","1710.5","run_exp/static/images/Set 6_rs/117a.jpg","86","","","","","","learn","SL",""
"","show_choice","47","81981","0.0-47.0","""event"",""trial"",""time""
""fullscreenenter"",""0"",""5272""
","
","
","""event"",""trial"",""time""
""fullscreenenter"",""0"",""5272""
","
","null","run_exp/static/images/Set 6_rs/117a.jpg","null","","","","","","learn","SL",""
"","html-keyboard-response","48","82487","0.0-48.0","""event"",""trial"",""time""
""fullscreenenter"",""0"",""5272""
","
","
","""event"",""trial"",""time""
""fullscreenenter"",""0"",""5272""
","
","null","<p></p>","null","","","","","","","",""
"","image","49","84494","0.0-49.0","""event"",""trial"",""time""
""fullscreenenter"",""0"",""5272""
","
","
","""event"",""trial"",""time""
""fullscreenenter"",""0"",""5272""
","
","null","run_exp/static/images/Set 6_rs/166a.jpg","null","","","","","","learn","SR",""
"","show_choice","50","86498","0.0-50.0","""event"",""trial"",""time""
""fullscreenenter"",""0"",""5272""
","
","
","""event"",""trial"",""time""
""fullscreenenter"",""0"",""5272""
","
","null","run_exp/static/images/blank.png","null","","","","","","learn","SR",""
"","html-keyboard-response","51","87004","0.0-51.0","""event"",""trial"",""time""
""fullscreenenter"",""0"",""5272""
","
","
","""event"",""trial"",""time""
""fullscreenenter"",""0"",""5272""
","
","null","<p></p>","null","","","","","","","",""
"","image","52","88308","0.0-52.0","""event"",""trial"",""time""
""fullscreenenter"",""0"",""5272""
","
","
","""event"",""trial"",""time""
""fullscreenenter"",""0"",""5272""
","
","1301.8999999985099","run_exp/static/images/Set 6_rs/045a.jpg","86","","","","","","learn","SR",""
"","show_choice","53","89009","0.0-53.0","""event"",""trial"",""time""
""fullscreenenter"",""0"",""5272""
","
","
","""event"",""trial"",""time""
""fullscreenenter"",""0"",""5272""
","
","null","run_exp/static/images/Set 6_rs/045a.jpg","null","","","","","","learn","SR",""
"","html-keyboard-response","54","89514","0.0-54.0","""event"",""trial"",""time""
""fullscreenenter"",""0"",""5272""
","
","
","""event"",""trial"",""time""
""fullscreenenter"",""0"",""5272""
","
","null","<p></p>","null","","","","","","","",""
"","image","55","91196","0.0-55.0","""event"",""trial"",""time""
""fullscreenenter"",""0"",""5272""
","
","
","""event"",""trial"",""time""
""fullscreenenter"",""0"",""5272""
","
","1680","run_exp/static/images/Set 6_rs/129a.jpg","86","","","","","","learn","SL",""
"","show_choice","56","91519","0.0-56.0","""event"",""trial"",""time""
""fullscreenenter"",""0"",""5272""
","
","
","""event"",""trial"",""time""
""fullscreenenter"",""0"",""5272""
","
","null","run_exp/static/images/Set 6_rs/129a.jpg","null","","","","","","learn","SL",""
"","html-keyboard-response","57","92025","0.0-57.0","""event"",""trial"",""time""
""fullscreenenter"",""0"",""5272""
","
","
","""event"",""trial"",""time""
""fullscreenenter"",""0"",""5272""
","
","null","<p></p>","null","","","","","","","",""
"","image","58","93059","0.0-58.0","""event"",""trial"",""time""
""fullscreenenter"",""0"",""5272""
","
","
","""event"",""trial"",""time""
""fullscreenenter"",""0"",""5272""
","
","1031.7000000029802","run_exp/static/images/Set 6_rs/134a.jpg","86","","","","","","learn","SR",""
"","show_choice","59","94031","0.0-59.0","""event"",""trial"",""time""
""fullscreenenter"",""0"",""5272""
","
","
","""event"",""trial"",""time""
""fullscreenenter"",""0"",""5272""
","
","null","run_exp/static/images/Set 6_rs/134a.jpg","null","","","","","","learn","SR",""
"","html-keyboard-response","60","94537","0.0-60.0","""event"",""trial"",""time""
""fullscreenenter"",""0"",""5272""
","
","
","""event"",""trial"",""time""
""fullscreenenter"",""0"",""5272""
","
","null","<p></p>","null","","","","","","","",""
"","image","61","95556","0.0-61.0","""event"",""trial"",""time""
""fullscreenenter"",""0"",""5272""
","
","
","""event"",""trial"",""time""
""fullscreenenter"",""0"",""5272""
","
","1016.8000000044703","run_exp/static/images/Set 6_rs/008a.jpg","78","","","","","","learn","SL",""
"","show_choice","62","96541","0.0-62.0","""event"",""trial"",""time""
""fullscreenenter"",""0"",""5272""
","
","
","""event"",""trial"",""time""
""fullscreenenter"",""0"",""5272""
","
","null","run_exp/static/images/Set 6_rs/008a.jpg","null","","","","","","learn","SL",""
"","html-keyboard-response","63","97043","0.0-63.0","""event"",""trial"",""time""
""fullscreenenter"",""0"",""5272""
","
","
","""event"",""trial"",""time""
""fullscreenenter"",""0"",""5272""
","
","null","<p></p>","null","","","","","","","",""
"","image","64","98050","0.0-64.0","""event"",""trial"",""time""
""fullscreenenter"",""0"",""5272""
","
","
","""event"",""trial"",""time""
""fullscreenenter"",""0"",""5272""
","
","1005.2000000029802","run_exp/static/images/Set 6_rs/187a.jpg","78","","","","","","learn","SR",""
"","show_choice","65","99050","0.0-65.0","""event"",""trial"",""time""
""fullscreenenter"",""0"",""5272""
","
","
","""event"",""trial"",""time""
""fullscreenenter"",""0"",""5272""
","
","null","run_exp/static/images/Set 6_rs/187a.jpg","null","","","","","","learn","SR",""
"","html-keyboard-response","66","99556","0.0-66.0","""event"",""trial"",""time""
""fullscreenenter"",""0"",""5272""
","
","
","""event"",""trial"",""time""
""fullscreenenter"",""0"",""5272""
","
","null","<p></p>","null","","","","","","","",""
"","image","67","100575","0.0-67.0","""event"",""trial"",""time""
""fullscreenenter"",""0"",""5272""
","
","
","""event"",""trial"",""time""
""fullscreenenter"",""0"",""5272""
","
","1016.6999999955297","run_exp/static/images/Set 6_rs/016a.jpg","86","","","","","","learn","SL",""
"","show_choice","68","101563","0.0-68.0","""event"",""trial"",""time""
""fullscreenenter"",""0"",""5272""
","
","
","""event"",""trial"",""time""
""fullscreenenter"",""0"",""5272""
","
","null","run_exp/static/images/Set 6_rs/016a.jpg","null","","","","","","learn","SL",""
"","html-keyboard-response","69","102066","0.0-69.0","""event"",""trial"",""time""
""fullscreenenter"",""0"",""5272""
","
","
","""event"",""trial"",""time""
""fullscreenenter"",""0"",""5272""
","
","null","<p></p>","null","","","","","","","",""
"","image","70","102963","0.0-70.0","""event"",""trial"",""time""
""fullscreenenter"",""0"",""5272""
","
","
","""event"",""trial"",""time""
""fullscreenenter"",""0"",""5272""
","
","896.3999999985099","run_exp/static/images/Set 6_rs/191a.jpg","78","","","","","","learn","SL",""
"","show_choice","71","104071","0.0-71.0","""event"",""trial"",""time""
""fullscreenenter"",""0"",""5272""
","
","
","""event"",""trial"",""time""
""fullscreenenter"",""0"",""5272""
","
","null","run_exp/static/images/Set 6_rs/191a.jpg","null","","","","","","learn","SL",""
"","html-keyboard-response","72","104576","0.0-72.0","""event"",""trial"",""time""
""fullscreenenter"",""0"",""5272""
","
","
","""event"",""trial"",""time""
""fullscreenenter"",""0"",""5272""
","
","null","<p></p>","null","","","","","","","",""
"","image","73","105570","0.0-73.0","""event"",""trial"",""time""
""fullscreenenter"",""0"",""5272""
","
","
","""event"",""trial"",""time""
""fullscreenenter"",""0"",""5272""
","
","992.7000000029802","run_exp/static/images/Set 6_rs/116a.jpg","86","","","","","","learn","SL",""
"","show_choice","74","106580","0.0-74.0","""event"",""trial"",""time""
""fullscreenenter"",""0"",""5272""
","
","
","""event"",""trial"",""time""
""fullscreenenter"",""0"",""5272""
","
","null","run_exp/static/images/Set 6_rs/116a.jpg","null","","","","","","learn","SL",""
"","html-keyboard-response","75","107087","0.0-75.0","""event"",""trial"",""time""
""fullscreenenter"",""0"",""5272""
","
","
","""event"",""trial"",""time""
""fullscreenenter"",""0"",""5272""
","
","null","<p></p>","null","","","","","","","",""
"","image","76","108438","0.0-76.0","""event"",""trial"",""time""
""fullscreenenter"",""0"",""5272""
","
","
","""event"",""trial"",""time""
""fullscreenenter"",""0"",""5272""
","
","1349.1999999955297","run_exp/static/images/Set 6_rs/126a.jpg","78","","","","","","learn","SR",""
"","show_choice","77","109089","0.0-77.0","""event"",""trial"",""time""
""fullscreenenter"",""0"",""5272""
","
","
","""event"",""trial"",""time""
""fullscreenenter"",""0"",""5272""
","
","null","run_exp/static/images/Set 6_rs/126a.jpg","null","","","","","","learn","SR",""
"","html-keyboard-response","78","109594","0.0-78.0","""event"",""trial"",""time""
""fullscreenenter"",""0"",""5272""
","
","
","""event"",""trial"",""time""
""fullscreenenter"",""0"",""5272""
","
","null","<p></p>","null","","","","","","","",""
"","image","79","110500","0.0-79.0","""event"",""trial"",""time""
""fullscreenenter"",""0"",""5272""
","
","
","""event"",""trial"",""time""
""fullscreenenter"",""0"",""5272""
","
","904.5","run_exp/static/images/Set 6_rs/154a.jpg","86","","","","","","learn","SR",""
"","show_choice","80","111598","0.0-80.0","""event"",""trial"",""time""
""fullscreenenter"",""0"",""5272""
","
","
","""event"",""trial"",""time""
""fullscreenenter"",""0"",""5272""
","
","null","run_exp/static/images/Set 6_rs/154a.jpg","null","","","","","","learn","SR",""
"","html-keyboard-response","81","112104","0.0-81.0","""event"",""trial"",""time""
""fullscreenenter"",""0"",""5272""
","
","
","""event"",""trial"",""time""
""fullscreenenter"",""0"",""5272""
","
","null","<p></p>","null","","","","","","","",""
"","image","82","113091","0.0-82.0","""event"",""trial"",""time""
""fullscreenenter"",""0"",""5272""
","
","
","""event"",""trial"",""time""
""fullscreenenter"",""0"",""5272""
","
","984.7999999970198","run_exp/static/images/Set 6_rs/178a.jpg","78","","","","","","learn","SR",""
"","show_choice","83","114108","0.0-83.0","""event"",""trial"",""time""
""fullscreenenter"",""0"",""5272""
","
","
","""event"",""trial"",""time""
""fullscreenenter"",""0"",""5272""
","
","null","run_exp/static/images/Set 6_rs/178a.jpg","null","","","","","","learn","SR",""
"","html-keyboard-response","84","114614","0.0-84.0","""event"",""trial"",""time""
""fullscreenenter"",""0"",""5272""
","
","
","""event"",""trial"",""time""
""fullscreenenter"",""0"",""5272""
","
","null","<p></p>","null","","","","","","","",""
"","image","85","115489","0.0-85.0","""event"",""trial"",""time""
""fullscreenenter"",""0"",""5272""
","
","
","""event"",""trial"",""time""
""fullscreenenter"",""0"",""5272""
","
","872.8999999985099","run_exp/static/images/Set 6_rs/014a.jpg","86","","","","","","learn","SL",""
"","show_choice","86","116617","0.0-86.0","""event"",""trial"",""time""
""fullscreenenter"",""0"",""5272""
","
","
","""event"",""trial"",""time""
""fullscreenenter"",""0"",""5272""
","
","null","run_exp/static/images/Set 6_rs/014a.jpg","null","","","","","","learn","SL",""
"","html-keyboard-response","87","117123","0.0-87.0","""event"",""trial"",""time""
""fullscreenenter"",""0"",""5272""
","
","
","""event"",""trial"",""time""
""fullscreenenter"",""0"",""5272""
","
","null","<p></p>","null","","","","","","","",""
"","image","88","118509","0.0-88.0","""event"",""trial"",""time""
""fullscreenenter"",""0"",""5272""
","
","
","""event"",""trial"",""time""
""fullscreenenter"",""0"",""5272""
","
","1384.8999999985099","run_exp/static/images/Set 6_rs/066a.jpg","86","","","","","","learn","SL",""
"","show_choice","89","119130","0.0-89.0","""event"",""trial"",""time""
""fullscreenenter"",""0"",""5272""
","
","
","""event"",""trial"",""time""
""fullscreenenter"",""0"",""5272""
","
","null","run_exp/static/images/Set 6_rs/066a.jpg","null","","","","","","learn","SL",""
"","html-keyboard-response","90","119631","0.0-90.0","""event"",""trial"",""time""
""fullscreenenter"",""0"",""5272""
","
","
","""event"",""trial"",""time""
""fullscreenenter"",""0"",""5272""
","
","null","<p></p>","null","","","","","","","",""
"","image","91","120614","0.0-91.0","""event"",""trial"",""time""
""fullscreenenter"",""0"",""5272""
","
","
","""event"",""trial"",""time""
""fullscreenenter"",""0"",""5272""
","
","981.4000000059605","run_exp/static/images/Set 6_rs/095a.jpg","86","","","","","","learn","SL",""
"","show_choice","92","121638","0.0-92.0","""event"",""trial"",""time""
""fullscreenenter"",""0"",""5272""
","
","
","""event"",""trial"",""time""
""fullscreenenter"",""0"",""5272""
","
","null","run_exp/static/images/Set 6_rs/095a.jpg","null","","","","","","learn","SL",""
"","html-keyboard-response","93","122143","0.0-93.0","""event"",""trial"",""time""
""fullscreenenter"",""0"",""5272""
","
","
","""event"",""trial"",""time""
""fullscreenenter"",""0"",""5272""
","
","null","<p></p>","null","","","","","","","",""
"","image","94","123138","0.0-94.0","""event"",""trial"",""time""
""fullscreenenter"",""0"",""5272""
","
","
","""event"",""trial"",""time""
""fullscreenenter"",""0"",""5272""
","
","993.5","run_exp/static/images/Set 6_rs/181a.jpg","78","","","","","","learn","SL",""
"","show_choice","95","124148","0.0-95.0","""event"",""trial"",""time""
""fullscreenenter"",""0"",""5272""
","
","
","""event"",""trial"",""time""
""fullscreenenter"",""0"",""5272""
","
","null","run_exp/static/images/Set 6_rs/181a.jpg","null","","","","","","learn","SL",""
"","html-keyboard-response","96","124649","0.0-96.0","""event"",""trial"",""time""
""fullscreenenter"",""0"",""5272""
","
","
","""event"",""trial"",""time""
""fullscreenenter"",""0"",""5272""
","
","null","<p></p>","null","","","","","","","",""
"","image","97","125681","0.0-97.0","""event"",""trial"",""time""
""fullscreenenter"",""0"",""5272""
","
","
","""event"",""trial"",""time""
""fullscreenenter"",""0"",""5272""
","
","1031","run_exp/static/images/Set 6_rs/177a.jpg","78","","","","","","learn","SR",""
"","show_choice","98","126652","0.0-98.0","""event"",""trial"",""time""
""fullscreenenter"",""0"",""5272""
","
","
","""event"",""trial"",""time""
""fullscreenenter"",""0"",""5272""
","
","null","run_exp/static/images/Set 6_rs/177a.jpg","null","","","","","","learn","SR",""
"","html-keyboard-response","99","127155","0.0-99.0","""event"",""trial"",""time""
""fullscreenenter"",""0"",""5272""
","
","
","""event"",""trial"",""time""
""fullscreenenter"",""0"",""5272""
","
","null","<p></p>","null","","","","","","","",""
"","image","100","128569","0.0-100.0","""event"",""trial"",""time""
""fullscreenenter"",""0"",""5272""
","
","
","""event"",""trial"",""time""
""fullscreenenter"",""0"",""5272""
","
","1411.7000000029802","run_exp/static/images/Set 6_rs/085a.jpg","86","","","","","","learn","SL",""
"","show_choice","101","129162","0.0-101.0","""event"",""trial"",""time""
""fullscreenenter"",""0"",""5272""
","
","
","""event"",""trial"",""time""
""fullscreenenter"",""0"",""5272""
","
","null","run_exp/static/images/Set 6_rs/085a.jpg","null","","","","","","learn","SL",""
"","html-keyboard-response","102","129664","0.0-102.0","""event"",""trial"",""time""
""fullscreenenter"",""0"",""5272""
","
","
","""event"",""trial"",""time""
""fullscreenenter"",""0"",""5272""
","
","null","<p></p>","null","","","","","","","",""
"","image","103","130941","0.0-103.0","""event"",""trial"",""time""
""fullscreenenter"",""0"",""5272""
","
","
","""event"",""trial"",""time""
""fullscreenenter"",""0"",""5272""
","
","1275.2999999970198","run_exp/static/images/Set 6_rs/186a.jpg","86","","","","","","learn","SR",""
"","show_choice","104","131671","0.0-104.0","""event"",""trial"",""time""
""fullscreenenter"",""0"",""5272""
","
","
","""event"",""trial"",""time""
""fullscreenenter"",""0"",""5272""
","
","null","run_exp/static/images/Set 6_rs/186a.jpg","null","","","","","","learn","SR",""
"","html-keyboard-response","105","132177","0.0-105.0","""event"",""trial"",""time""
""fullscreenenter"",""0"",""5272""
","
","
","""event"",""trial"",""time""
""fullscreenenter"",""0"",""5272""
","
","null","<p></p>","null","","","","","","","",""
"","image","106","133180","0.0-106.0","""event"",""trial"",""time""
""fullscreenenter"",""0"",""5272""
","
","
","""event"",""trial"",""time""
""fullscreenenter"",""0"",""5272""
","
","1000.5","run_exp/static/images/Set 6_rs/025a.jpg","78","","","","","","learn","SL",""
"","show_choice","107","134183","0.0-107.0","""event"",""trial"",""time""
""fullscreenenter"",""0"",""5272""
","
","
","""event"",""trial"",""time""
""fullscreenenter"",""0"",""5272""
","
","null","run_exp/static/images/Set 6_rs/025a.jpg","null","","","","","","learn","SL",""
"","html-keyboard-response","108","134689","0.0-108.0","""event"",""trial"",""time""
""fullscreenenter"",""0"",""5272""
","
","
","""event"",""trial"",""time""
""fullscreenenter"",""0"",""5272""
","
","null","<p></p>","null","","","","","","","",""
"","image","109","135709","0.0-109.0","""event"",""trial"",""time""
""fullscreenenter"",""0"",""5272""
","
","
","""event"",""trial"",""time""
""fullscreenenter"",""0"",""5272""
","
","1018.6000000014901","run_exp/static/images/Set 6_rs/152a.jpg","78","","","","","","learn","SR",""
"","show_choice","110","136696","0.0-110.0","""event"",""trial"",""time""
""fullscreenenter"",""0"",""5272""
","
","
","""event"",""trial"",""time""
""fullscreenenter"",""0"",""5272""
","
","null","run_exp/static/images/Set 6_rs/152a.jpg","null","","","","","","learn","SR",""
"","html-keyboard-response","111","137197","0.0-111.0","""event"",""trial"",""time""
""fullscreenenter"",""0"",""5272""
","
","
","""event"",""trial"",""time""
""fullscreenenter"",""0"",""5272""
","
","null","<p></p>","null","","","","","","","",""
"","image","112","138161","0.0-112.0","""event"",""trial"",""time""
""fullscreenenter"",""0"",""5272""
","
","
","""event"",""trial"",""time""
""fullscreenenter"",""0"",""5272""
","
","962.1999999955297","run_exp/static/images/Set 6_rs/123a.jpg","86","","","","","","learn","SL",""
"","show_choice","113","139205","0.0-113.0","""event"",""trial"",""time""
""fullscreenenter"",""0"",""5272""
","
","
","""event"",""trial"",""time""
""fullscreenenter"",""0"",""5272""
","
","null","run_exp/static/images/Set 6_rs/123a.jpg","null","","","","","","learn","SL",""
"","html-keyboard-response","114","139706","0.0-114.0","""event"",""trial"",""time""
""fullscreenenter"",""0"",""5272""
","
","
","""event"",""trial"",""time""
""fullscreenenter"",""0"",""5272""
","
","null","<p></p>","null","","","","","","","",""
"","image","115","141197","0.0-115.0","""event"",""trial"",""time""
""fullscreenenter"",""0"",""5272""
","
","
","""event"",""trial"",""time""
""fullscreenenter"",""0"",""5272""
","
","1489.5","run_exp/static/images/Set 6_rs/111a.jpg","86","","","","","","learn","SL",""
"","show_choice","116","141710","0.0-116.0","""event"",""trial"",""time""
""fullscreenenter"",""0"",""5272""
","
","
","""event"",""trial"",""time""
""fullscreenenter"",""0"",""5272""
","
","null","run_exp/static/images/Set 6_rs/111a.jpg","null","","","","","","learn","SL",""
"","html-keyboard-response","117","142215","0.0-117.0","""event"",""trial"",""time""
""fullscreenenter"",""0"",""5272""
","
","
","""event"",""trial"",""time""
""fullscreenenter"",""0"",""5272""
","
","null","<p></p>","null","","","","","","","",""
"","image","118","143040","0.0-118.0","""event"",""trial"",""time""
""fullscreenenter"",""0"",""5272""
","
","
","""event"",""trial"",""time""
""fullscreenenter"",""0"",""5272""
","
","823.3999999985099","run_exp/static/images/Set 6_rs/062a.jpg","86","","","","","","learn","SL",""
"","show_choice","119","144221","0.0-119.0","""event"",""trial"",""time""
""fullscreenenter"",""0"",""5272""
","
","
","""event"",""trial"",""time""
""fullscreenenter"",""0"",""5272""
","
","null","run_exp/static/images/Set 6_rs/062a.jpg","null","","","","","","learn","SL",""
"","html-keyboard-response","120","144728","0.0-120.0","""event"",""trial"",""time""
""fullscreenenter"",""0"",""5272""
","
","
","""event"",""trial"",""time""
""fullscreenenter"",""0"",""5272""
","
","null","<p></p>","null","","","","","","","",""
"","image","121","145950","0.0-121.0","""event"",""trial"",""time""
""fullscreenenter"",""0"",""5272""
","
","
","""event"",""trial"",""time""
""fullscreenenter"",""0"",""5272""
","
","1220.7000000029802","run_exp/static/images/Set 6_rs/064a.jpg","78","","","","","","learn","SR",""
"","show_choice","122","146731","0.0-122.0","""event"",""trial"",""time""
""fullscreenenter"",""0"",""5272""
","
","
","""event"",""trial"",""time""
""fullscreenenter"",""0"",""5272""
","
","null","run_exp/static/images/Set 6_rs/064a.jpg","null","","","","","","learn","SR",""
"","html-keyboard-response","123","147235","0.0-123.0","""event"",""trial"",""time""
""fullscreenenter"",""0"",""5272""
","
","
","""event"",""trial"",""time""
""fullscreenenter"",""0"",""5272""
","
","null","<p></p>","null","","","","","","","",""
"","image","124","148844","0.0-124.0","""event"",""trial"",""time""
""fullscreenenter"",""0"",""5272""
","
","
","""event"",""trial"",""time""
""fullscreenenter"",""0"",""5272""
","
","1607.7999999970198","run_exp/static/images/Set 6_rs/150a.jpg","86","","","","","","learn","SR",""
"","show_choice","125","149238","0.0-125.0","""event"",""trial"",""time""
""fullscreenenter"",""0"",""5272""
","
","
","""event"",""trial"",""time""
""fullscreenenter"",""0"",""5272""
","
","null","run_exp/static/images/Set 6_rs/150a.jpg","null","","","","","","learn","SR",""
"","html-keyboard-response","126","149744","0.0-126.0","""event"",""trial"",""time""
""fullscreenenter"",""0"",""5272""
","
","
","""event"",""trial"",""time""
""fullscreenenter"",""0"",""5272""
","
","null","<p></p>","null","","","","","","","",""
"","image","127","151103","0.0-127.0","""event"",""trial"",""time""
""fullscreenenter"",""0"",""5272""
","
","
","""event"",""trial"",""time""
""fullscreenenter"",""0"",""5272""
","
","1357","run_exp/static/images/Set 6_rs/138a.jpg","78","","","","","","learn","SL",""
"","show_choice","128","151750","0.0-128.0","""event"",""trial"",""time""
""fullscreenenter"",""0"",""5272""
","
","
","""event"",""trial"",""time""
""fullscreenenter"",""0"",""5272""
","
","null","run_exp/static/images/Set 6_rs/138a.jpg","null","","","","","","learn","SL",""
"","html-keyboard-response","129","152256","0.0-129.0","""event"",""trial"",""time""
""fullscreenenter"",""0"",""5272""
","
","
","""event"",""trial"",""time""
""fullscreenenter"",""0"",""5272""
","
","null","<p></p>","null","","","","","","","",""
"","image","130","153532","0.0-130.0","""event"",""trial"",""time""
""fullscreenenter"",""0"",""5272""
","
","
","""event"",""trial"",""time""
""fullscreenenter"",""0"",""5272""
","
","1274","run_exp/static/images/Set 6_rs/108a.jpg","78","","","","","","learn","SR",""
"","show_choice","131","154260","0.0-131.0","""event"",""trial"",""time""
""fullscreenenter"",""0"",""5272""
","
","
","""event"",""trial"",""time""
""fullscreenenter"",""0"",""5272""
","
","null","run_exp/static/images/Set 6_rs/108a.jpg","null","","","","","","learn","SR",""
"","html-keyboard-response","132","154764","0.0-132.0","""event"",""trial"",""time""
""fullscreenenter"",""0"",""5272""
","
","
","""event"",""trial"",""time""
""fullscreenenter"",""0"",""5272""
","
","null","<p></p>","null","","","","","","","",""
"","image","133","155821","0.0-133.0","""event"",""trial"",""time""
""fullscreenenter"",""0"",""5272""
","
","
","""event"",""trial"",""time""
""fullscreenenter"",""0"",""5272""
","
","1055.5","run_exp/static/images/Set 6_rs/172a.jpg","78","","","","","","learn","SR",""
"","show_choice","134","156769","0.0-134.0","""event"",""trial"",""time""
""fullscreenenter"",""0"",""5272""
","
","
","""event"",""trial"",""time""
""fullscreenenter"",""0"",""5272""
","
","null","run_exp/static/images/Set 6_rs/172a.jpg","null","","","","","","learn","SR",""
"","html-keyboard-response","135","157273","0.0-135.0","""event"",""trial"",""time""
""fullscreenenter"",""0"",""5272""
","
","
","""event"",""trial"",""time""
""fullscreenenter"",""0"",""5272""
","
","null","<p></p>","null","","","","","","","",""
"","image","136","158739","0.0-136.0","""event"",""trial"",""time""
""fullscreenenter"",""0"",""5272""
","
","
","""event"",""trial"",""time""
""fullscreenenter"",""0"",""5272""
","
","1464","run_exp/static/images/Set 6_rs/073a.jpg","86","","","","","","learn","SL",""
"","show_choice","137","159277","0.0-137.0","""event"",""trial"",""time""
""fullscreenenter"",""0"",""5272""
","
","
","""event"",""trial"",""time""
""fullscreenenter"",""0"",""5272""
","
","null","run_exp/static/images/Set 6_rs/073a.jpg","null","","","","","","learn","SL",""
"","html-keyboard-response","138","159780","0.0-138.0","""event"",""trial"",""time""
""fullscreenenter"",""0"",""5272""
","
","
","""event"",""trial"",""time""
""fullscreenenter"",""0"",""5272""
","
","null","<p></p>","null","","","","","","","",""
"","image","139","161619","0.0-139.0","""event"",""trial"",""time""
""fullscreenenter"",""0"",""5272""
","
","
","""event"",""trial"",""time""
""fullscreenenter"",""0"",""5272""
","
","1836.7000000029802","run_exp/static/images/Set 6_rs/168a.jpg","86","","","","","","learn","SL",""
"","show_choice","140","161787","0.0-140.0","""event"",""trial"",""time""
""fullscreenenter"",""0"",""5272""
","
","
","""event"",""trial"",""time""
""fullscreenenter"",""0"",""5272""
","
","null","run_exp/static/images/Set 6_rs/168a.jpg","null","","","","","","learn","SL",""
"","html-keyboard-response","141","162294","0.0-141.0","""event"",""trial"",""time""
""fullscreenenter"",""0"",""5272""
","
","
","""event"",""trial"",""time""
""fullscreenenter"",""0"",""5272""
","
","null","<p></p>","null","","","","","","","",""
"","image","142","163305","0.0-142.0","""event"",""trial"",""time""
""fullscreenenter"",""0"",""5272""
","
","
","""event"",""trial"",""time""
""fullscreenenter"",""0"",""5272""
","
","1009.5","run_exp/static/images/Set 6_rs/122a.jpg","86","","","","","","learn","SR",""
"","show_choice","143","164297","0.0-143.0","""event"",""trial"",""time""
""fullscreenenter"",""0"",""5272""
","
","
","""event"",""trial"",""time""
""fullscreenenter"",""0"",""5272""
","
","null","run_exp/static/images/Set 6_rs/122a.jpg","null","","","","","","learn","SR",""
"","html-keyboard-response","144","164803","0.0-144.0","""event"",""trial"",""time""
""fullscreenenter"",""0"",""5272""
","
","
","""event"",""trial"",""time""
""fullscreenenter"",""0"",""5272""
","
","null","<p></p>","null","","","","","","","",""
"","image","145","165668","0.0-145.0","""event"",""trial"",""time""
""fullscreenenter"",""0"",""5272""
","
","
","""event"",""trial"",""time""
""fullscreenenter"",""0"",""5272""
","
","862.8999999985099","run_exp/static/images/Set 6_rs/112a.jpg","86","","","","","","learn","SR",""
"","show_choice","146","166806","0.0-146.0","""event"",""trial"",""time""
""fullscreenenter"",""0"",""5272""
","
","
","""event"",""trial"",""time""
""fullscreenenter"",""0"",""5272""
","
","null","run_exp/static/images/Set 6_rs/112a.jpg","null","","","","","","learn","SR",""
"","html-keyboard-response","147","167312","0.0-147.0","""event"",""trial"",""time""
""fullscreenenter"",""0"",""5272""
","
","
","""event"",""trial"",""time""
""fullscreenenter"",""0"",""5272""
","
","null","<p></p>","null","","","","","","","",""
"","image","148","168363","0.0-148.0","""event"",""trial"",""time""
""fullscreenenter"",""0"",""5272""
","
","
","""event"",""trial"",""time""
""fullscreenenter"",""0"",""5272""
","
","1048.6000000014901","run_exp/static/images/Set 6_rs/061a.jpg","78","","","","","","learn","SR",""
"","show_choice","149","169319","0.0-149.0","""event"",""trial"",""time""
""fullscreenenter"",""0"",""5272""
","
","
","""event"",""trial"",""time""
""fullscreenenter"",""0"",""5272""
","
","null","run_exp/static/images/Set 6_rs/061a.jpg","null","","","","","","learn","SR",""
"","html-keyboard-response","150","169822","0.0-150.0","""event"",""trial"",""time""
""fullscreenenter"",""0"",""5272""
","
","
","""event"",""trial"",""time""
""fullscreenenter"",""0"",""5272""
","
","null","<p></p>","null","","","","","","","",""
"","image","151","170653","0.0-151.0","""event"",""trial"",""time""
""fullscreenenter"",""0"",""5272""
","
","
","""event"",""trial"",""time""
""fullscreenenter"",""0"",""5272""
","
","829.7000000029802","run_exp/static/images/Set 6_rs/141a.jpg","78","","","","","","learn","SR",""
"","show_choice","152","171829","0.0-152.0","""event"",""trial"",""time""
""fullscreenenter"",""0"",""5272""
","
","
","""event"",""trial"",""time""
""fullscreenenter"",""0"",""5272""
","
","null","run_exp/static/images/Set 6_rs/141a.jpg","null","","","","","","learn","SR",""
"","html-keyboard-response","153","172331","0.0-153.0","""event"",""trial"",""time""
""fullscreenenter"",""0"",""5272""
","
","
","""event"",""trial"",""time""
""fullscreenenter"",""0"",""5272""
","
","null","<p></p>","null","","","","","","","",""
"","image","154","173702","0.0-154.0","""event"",""trial"",""time""
""fullscreenenter"",""0"",""5272""
","
","
","""event"",""trial"",""time""
""fullscreenenter"",""0"",""5272""
","
","1369.6000000014901","run_exp/static/images/Set 6_rs/017a.jpg","78","","","","","","learn","SL",""
"","show_choice","155","174337","0.0-155.0","""event"",""trial"",""time""
""fullscreenenter"",""0"",""5272""
","
","
","""event"",""trial"",""time""
""fullscreenenter"",""0"",""5272""
","
","null","run_exp/static/images/Set 6_rs/017a.jpg","null","","","","","","learn","SL",""
"","html-keyboard-response","156","174843","0.0-156.0","""event"",""trial"",""time""
""fullscreenenter"",""0"",""5272""
","
","
","""event"",""trial"",""time""
""fullscreenenter"",""0"",""5272""
","
","null","<p></p>","null","","","","","","","",""
"","image","157","176445","0.0-157.0","""event"",""trial"",""time""
""fullscreenenter"",""0"",""5272""
","
","
","""event"",""trial"",""time""
""fullscreenenter"",""0"",""5272""
","
","1600.2000000029802","run_exp/static/images/Set 6_rs/167a.jpg","86","","","","","","learn","SL",""
"","show_choice","158","176847","0.0-158.0","""event"",""trial"",""time""
""fullscreenenter"",""0"",""5272""
","
","
","""event"",""trial"",""time""
""fullscreenenter"",""0"",""5272""
","
","null","run_exp/static/images/Set 6_rs/167a.jpg","null","","","","","","learn","SL",""
"","html-keyboard-response","159","177354","0.0-159.0","""event"",""trial"",""time""
""fullscreenenter"",""0"",""5272""
","
","
","""event"",""trial"",""time""
""fullscreenenter"",""0"",""5272""
","
","null","<p></p>","null","","","","","","","",""
"","image","160","179038","0.0-160.0","""event"",""trial"",""time""
""fullscreenenter"",""0"",""5272""
","
","
","""event"",""trial"",""time""
""fullscreenenter"",""0"",""5272""
","
","1682.8999999985099","run_exp/static/images/Set 6_rs/036a.jpg","86","","","","","","learn","SL",""
"","show_choice","161","179357","0.0-161.0","""event"",""trial"",""time""
""fullscreenenter"",""0"",""5272""
","
","
","""event"",""trial"",""time""
""fullscreenenter"",""0"",""5272""
","
","null","run_exp/static/images/Set 6_rs/036a.jpg","null","","","","","","learn","SL",""
"","html-keyboard-response","162","179863","0.0-162.0","""event"",""trial"",""time""
""fullscreenenter"",""0"",""5272""
","
","
","""event"",""trial"",""time""
""fullscreenenter"",""0"",""5272""
","
","null","<p></p>","null","","","","","","","",""
"","image","163","181352","0.0-163.0","""event"",""trial"",""time""
""fullscreenenter"",""0"",""5272""
","
","
","""event"",""trial"",""time""
""fullscreenenter"",""0"",""5272""
","
","1487","run_exp/static/images/Set 6_rs/063a.jpg","86","","","","","","learn","SR",""
"","show_choice","164","181866","0.0-164.0","""event"",""trial"",""time""
""fullscreenenter"",""0"",""5272""
","
","
","""event"",""trial"",""time""
""fullscreenenter"",""0"",""5272""
","
","null","run_exp/static/images/Set 6_rs/063a.jpg","null","","","","","","learn","SR",""
"","html-keyboard-response","165","182369","0.0-165.0","""event"",""trial"",""time""
""fullscreenenter"",""0"",""5272""
","
","
","""event"",""trial"",""time""
""fullscreenenter"",""0"",""5272""
","
","null","<p></p>","null","","","","","","","",""
"","image","166","183431","0.0-166.0","""event"",""trial"",""time""
""fullscreenenter"",""0"",""5272""
","
","
","""event"",""trial"",""time""
""fullscreenenter"",""0"",""5272""
","
","1060.0999999940395","run_exp/static/images/Set 6_rs/023a.jpg","86","","","","","","learn","SR",""
"","show_choice","167","184373","0.0-167.0","""event"",""trial"",""time""
""fullscreenenter"",""0"",""5272""
","
","
","""event"",""trial"",""time""
""fullscreenenter"",""0"",""5272""
","
","null","run_exp/static/images/Set 6_rs/023a.jpg","null","","","","","","learn","SR",""
"","html-keyboard-response","168","184880","0.0-168.0","""event"",""trial"",""time""
""fullscreenenter"",""0"",""5272""
","
","
","""event"",""trial"",""time""
""fullscreenenter"",""0"",""5272""
","
","null","<p></p>","null","","","","","","","",""
"","image","169","185935","0.0-169.0","""event"",""trial"",""time""
""fullscreenenter"",""0"",""5272""
","
","
","""event"",""trial"",""time""
""fullscreenenter"",""0"",""5272""
","
","1053.1000000014901","run_exp/static/images/Set 6_rs/144a.jpg","86","","","","","","learn","SL",""
"","show_choice","170","186885","0.0-170.0","""event"",""trial"",""time""
""fullscreenenter"",""0"",""5272""
","
","
","""event"",""trial"",""time""
""fullscreenenter"",""0"",""5272""
","
","null","run_exp/static/images/Set 6_rs/144a.jpg","null","","","","","","learn","SL",""
"","html-keyboard-response","171","187391","0.0-171.0","""event"",""trial"",""time""
""fullscreenenter"",""0"",""5272""
","
","
","""event"",""trial"",""time""
""fullscreenenter"",""0"",""5272""
","
","null","<p></p>","null","","","","","","","",""
"","image","172","188326","0.0-172.0","""event"",""trial"",""time""
""fullscreenenter"",""0"",""5272""
","
","
","""event"",""trial"",""time""
""fullscreenenter"",""0"",""5272""
","
","933.7000000029802","run_exp/static/images/Set 6_rs/057a.jpg","86","","","","","","learn","SL",""
"","show_choice","173","189397","0.0-173.0","""event"",""trial"",""time""
""fullscreenenter"",""0"",""5272""
","
","
","""event"",""trial"",""time""
""fullscreenenter"",""0"",""5272""
","
","null","run_exp/static/images/Set 6_rs/057a.jpg","null","","","","","","learn","SL",""
"","html-keyboard-response","174","189901","0.0-174.0","""event"",""trial"",""time""
""fullscreenenter"",""0"",""5272""
","
","
","""event"",""trial"",""time""
""fullscreenenter"",""0"",""5272""
","
","null","<p></p>","null","","","","","","","",""
"","image","175","191177","0.0-175.0","""event"",""trial"",""time""
""fullscreenenter"",""0"",""5272""
","
","
","""event"",""trial"",""time""
""fullscreenenter"",""0"",""5272""
","
","1273.8999999985099","run_exp/static/images/Set 6_rs/006a.jpg","78","","","","","","learn","SL",""
"","show_choice","176","191904","0.0-176.0","""event"",""trial"",""time""
""fullscreenenter"",""0"",""5272""
","
","
","""event"",""trial"",""time""
""fullscreenenter"",""0"",""5272""
","
","null","run_exp/static/images/Set 6_rs/006a.jpg","null","","","","","","learn","SL",""
"","html-keyboard-response","177","192410","0.0-177.0","""event"",""trial"",""time""
""fullscreenenter"",""0"",""5272""
","
","
","""event"",""trial"",""time""
""fullscreenenter"",""0"",""5272""
","
","null","<p></p>","null","","","","","","","",""
"","image","178","193231","0.0-178.0","""event"",""trial"",""time""
""fullscreenenter"",""0"",""5272""
","
","
","""event"",""trial"",""time""
""fullscreenenter"",""0"",""5272""
","
","820","run_exp/static/images/Set 6_rs/079a.jpg","78","","","","","","learn","SL",""
"","show_choice","179","194414","0.0-179.0","""event"",""trial"",""time""
""fullscreenenter"",""0"",""5272""
","
","
","""event"",""trial"",""time""
""fullscreenenter"",""0"",""5272""
","
","null","run_exp/static/images/Set 6_rs/079a.jpg","null","","","","","","learn","SL",""
"","html-keyboard-response","180","194915","0.0-180.0","""event"",""trial"",""time""
""fullscreenenter"",""0"",""5272""
","
","
","""event"",""trial"",""time""
""fullscreenenter"",""0"",""5272""
","
","null","<p></p>","null","","","","","","","",""
"","image","181","196252","0.0-181.0","""event"",""trial"",""time""
""fullscreenenter"",""0"",""5272""
","
","
","""event"",""trial"",""time""
""fullscreenenter"",""0"",""5272""
","
","1335.2000000029802","run_exp/static/images/Set 6_rs/091a.jpg","78","","","","","","learn","SL",""
"","show_choice","182","196922","0.0-182.0","""event"",""trial"",""time""
""fullscreenenter"",""0"",""5272""
","
","
","""event"",""trial"",""time""
""fullscreenenter"",""0"",""5272""
","
","null","run_exp/static/images/Set 6_rs/091a.jpg","null","","","","","","learn","SL",""
"","html-keyboard-response","183","197426","0.0-183.0","""event"",""trial"",""time""
""fullscreenenter"",""0"",""5272""
","
","
","""event"",""trial"",""time""
""fullscreenenter"",""0"",""5272""
","
","null","<p></p>","null","","","","","","","",""
"","image","184","198541","0.0-184.0","""event"",""trial"",""time""
""fullscreenenter"",""0"",""5272""
","
","
","""event"",""trial"",""time""
""fullscreenenter"",""0"",""5272""
","
","1112.5999999940395","run_exp/static/images/Set 6_rs/076a.jpg","78","","","","","","learn","SR",""
"","show_choice","185","199431","0.0-185.0","""event"",""trial"",""time""
""fullscreenenter"",""0"",""5272""
","
","
","""event"",""trial"",""time""
""fullscreenenter"",""0"",""5272""
","
","null","run_exp/static/images/Set 6_rs/076a.jpg","null","","","","","","learn","SR",""
"","html-keyboard-response","186","199936","0.0-186.0","""event"",""trial"",""time""
""fullscreenenter"",""0"",""5272""
","
","
","""event"",""trial"",""time""
""fullscreenenter"",""0"",""5272""
","
","null","<p></p>","null","","","","","","","",""
"","image","187","201543","0.0-187.0","""event"",""trial"",""time""
""fullscreenenter"",""0"",""5272""
","
","
","""event"",""trial"",""time""
""fullscreenenter"",""0"",""5272""
","
","1605.7000000029802","run_exp/static/images/Set 6_rs/121a.jpg","86","","","","","","learn","SR",""
"","show_choice","188","201943","0.0-188.0","""event"",""trial"",""time""
""fullscreenenter"",""0"",""5272""
","
","
","""event"",""trial"",""time""
""fullscreenenter"",""0"",""5272""
","
","null","run_exp/static/images/Set 6_rs/121a.jpg","null","","","","","","learn","SR",""
"","html-keyboard-response","189","202444","0.0-189.0","""event"",""trial"",""time""
""fullscreenenter"",""0"",""5272""
","
","
","""event"",""trial"",""time""
""fullscreenenter"",""0"",""5272""
","
","null","<p></p>","null","","","","","","","",""
"","image","190","203647","0.0-190.0","""event"",""trial"",""time""
""fullscreenenter"",""0"",""5272""
","
","
","""event"",""trial"",""time""
""fullscreenenter"",""0"",""5272""
","
","1200.7999999970198","run_exp/static/images/Set 6_rs/019a.jpg","86","","","","","","learn","SL",""
"","show_choice","191","204451","0.0-191.0","""event"",""trial"",""time""
""fullscreenenter"",""0"",""5272""
","
","
","""event"",""trial"",""time""
""fullscreenenter"",""0"",""5272""
","
","null","run_exp/static/images/Set 6_rs/019a.jpg","null","","","","","","learn","SL",""
"","html-keyboard-response","192","204957","0.0-192.0","""event"",""trial"",""time""
""fullscreenenter"",""0"",""5272""
","
","
","""event"",""trial"",""time""
""fullscreenenter"",""0"",""5272""
","
","null","<p></p>","null","","","","","","","",""
"","image","193","206081","0.0-193.0","""event"",""trial"",""time""
""fullscreenenter"",""0"",""5272""
","
","
","""event"",""trial"",""time""
""fullscreenenter"",""0"",""5272""
","
","1122.1000000014901","run_exp/static/images/Set 6_rs/050a.jpg","86","","","","","","learn","SL",""
"","show_choice","194","206964","0.0-194.0","""event"",""trial"",""time""
""fullscreenenter"",""0"",""5272""
","
","
","""event"",""trial"",""time""
""fullscreenenter"",""0"",""5272""
","
","null","run_exp/static/images/Set 6_rs/050a.jpg","null","","","","","","learn","SL",""
"","html-keyboard-response","195","207467","0.0-195.0","""event"",""trial"",""time""
""fullscreenenter"",""0"",""5272""
","
","
","""event"",""trial"",""time""
""fullscreenenter"",""0"",""5272""
","
","null","<p></p>","null","","","","","","","",""
"","test_intro","196","244311","0.0-196.0","""event"",""trial"",""time""
""fullscreenenter"",""0"",""5272""
","
","
","""event"",""trial"",""time""
""fullscreenenter"",""0"",""5272""
","
","null","run_exp/static/audio/clip_2_memory.m4a","null","","","","","<div class='center'><p>Now, lets see how much you remember about the items you just saw.  For each item, you need to indicate if it was <b>old</b> by pressing the <b>v</b> key, <b>similar</b> by pressing the <b>b</b> key, or <b>new</b> by pressing the <b>n</b> key.</p><p>Old refers to an item that you saw before in the indoor/outdoor game that you just played, new refers to an item you have <b>not</b> seen before within the indoor/outdoor game, and similar refers to an item that is similar to an item youve seen before but is not exactly the same. </p><p>Before we begin, lets go over some brief demonstrations to make sure you understand.</p></div>","","",""
"","html-keyboard-response","197","262131","0.0-197.0","""event"",""trial"",""time""
""fullscreenenter"",""0"",""5272""
","
","
","""event"",""trial"",""time""
""fullscreenenter"",""0"",""5272""
","
","17817.90000000596","<div class='center'><p>Now, lets see how much you remember about the items you just saw.  For each item, you need to indicate if it was <b>old</b> by pressing the <b>v</b> key, <b>similar</b> by pressing the <b>b</b> key, or <b>new</b> by pressing the <b>n</b> key.</p><p>Old refers to an item that you saw before in the indoor/outdoor game that you just played, new refers to an item you have <b>not</b> seen before within the indoor/outdoor game, and similar refers to an item that is similar to an item youve seen before but is not exactly the same. </p><p>Before we begin, lets go over some brief demonstrations to make sure you understand.</p><div><p><b>[Press the space bar to continue]</b></p></div>","32","","","","","","","",""
"","items","198","269637","0.0-198.0","""event"",""trial"",""time""
""fullscreenenter"",""0"",""5272""
","
","
","""event"",""trial"",""time""
""fullscreenenter"",""0"",""5272""
","
","null","run_exp/static/audio/clip_3_items.m4a","null","","","","","","","",""
"","mop","199","274145","0.0-199.0","""event"",""trial"",""time""
""fullscreenenter"",""0"",""5272""
","
","
","""event"",""trial"",""time""
""fullscreenenter"",""0"",""5272""
","
","null","run_exp/static/audio/clip_4_mop.m4a","null","","","","","","","",""
"","baseball","200","277652","0.0-200.0","""event"",""trial"",""time""
""fullscreenenter"",""0"",""5272""
","
","
","""event"",""trial"",""time""
""fullscreenenter"",""0"",""5272""
","
","null","run_exp/static/audio/clip_5_baseball.m4a","null","","","","","","","",""
"","trumpet","201","281160","0.0-201.0","""event"",""trial"",""time""
""fullscreenenter"",""0"",""5272""
","
","
","""event"",""trial"",""time""
""fullscreenenter"",""0"",""5272""
","
","null","run_exp/static/audio/clip_6_trumpet.m4a","null","","","","","","","",""
"","gummies","202","284665","0.0-202.0","""event"",""trial"",""time""
""fullscreenenter"",""0"",""5272""
","
","
","""event"",""trial"",""time""
""fullscreenenter"",""0"",""5272""
","
","null","run_exp/static/audio/clip_7_gummies.m4a","null","","","","","","","",""
"","osn","203","289170","0.0-203.0","""event"",""trial"",""time""
""fullscreenenter"",""0"",""5272""
","
","
","""event"",""trial"",""time""
""fullscreenenter"",""0"",""5272""
","
","null","run_exp/static/audio/clip_8_osn.m4a","null","","","","","","","",""
"","old_1","204","295678","0.0-204.0","""event"",""trial"",""time""
""fullscreenenter"",""0"",""5272""
","
","
","""event"",""trial"",""time""
""fullscreenenter"",""0"",""5272""
","
","null","run_exp/static/audio/clip_9_old_trumpet.m4a","null","","","","","","","",""
"","new_1","205","303183","0.0-205.0","""event"",""trial"",""time""
""fullscreenenter"",""0"",""5272""
","
","
","""event"",""trial"",""time""
""fullscreenenter"",""0"",""5272""
","
","null","run_exp/static/audio/clip_10_new_balloon.m4a","null","","","","","","","",""
"","similar_1a","206","307691","0.0-206.0","""event"",""trial"",""time""
""fullscreenenter"",""0"",""5272""
","
","
","""event"",""trial"",""time""
""fullscreenenter"",""0"",""5272""
","
","null","run_exp/static/audio/clip_11a_similar_mop.m4a","null","","","","","","","",""
"","similar_1b","207","314197","0.0-207.0","""event"",""trial"",""time""
""fullscreenenter"",""0"",""5272""
","
","
","""event"",""trial"",""time""
""fullscreenenter"",""0"",""5272""
","
","null","run_exp/static/audio/clip_11b_similar_mop.m4a","null","","","","","","","",""
"","new_2","208","317704","0.0-208.0","""event"",""trial"",""time""
""fullscreenenter"",""0"",""5272""
","
","
","""event"",""trial"",""time""
""fullscreenenter"",""0"",""5272""
","
","null","run_exp/static/audio/clip_12_new_stoplight.m4a","null","","","","","","","",""
"","old_2","209","321211","0.0-209.0","""event"",""trial"",""time""
""fullscreenenter"",""0"",""5272""
","
","
","""event"",""trial"",""time""
""fullscreenenter"",""0"",""5272""
","
","null","run_exp/static/audio/clip_13_old_baseball.m4a","null","","","","","","","",""
"","similar_2a","210","324719","0.0-210.0","""event"",""trial"",""time""
""fullscreenenter"",""0"",""5272""
","
","
","""event"",""trial"",""time""
""fullscreenenter"",""0"",""5272""
","
","null","run_exp/static/audio/clip_14a_similar_gummies.m4a","null","","","","","","","",""
"","similar_2b","211","332226","0.0-211.0","""event"",""trial"",""time""
""fullscreenenter"",""0"",""5272""
","
","
","""event"",""trial"",""time""
""fullscreenenter"",""0"",""5272""
","
","null","run_exp/static/audio/clip_14b_similar_gummies.m4a","null","","","","","","","",""
"","practice","212","374342","0.0-212.0","""event"",""trial"",""time""
""fullscreenenter"",""0"",""5272""
","
","
","""event"",""trial"",""time""
""fullscreenenter"",""0"",""5272""
","
","null","run_exp/static/audio/clip_15_practice.m4a","null","","","","","<div class='center'><p>Lets practice a little to make sure you understand the difference between new, similar, and old. Lets say you saw these three items in the indoor/outdoor game.</p><p> Try your best to remember these images because youll soon be tested on them in a practice game. In the practice game, youll be shown images and youll have to say if they are old (one of the three images belows), similar (similar to one of the images below but not exactly the same), or new (are not one of the images below nor similar to them).</p><p>Once you press the space bar youll be shown these images again but one at time. Then youll begin the practice game.</p><p><img src='run_exp/static/images/tutorial/test/three_indoor_outdoor.png' height='300'></p></div>","","",""
"","html-keyboard-response","213","375054","0.0-213.0","""event"",""trial"",""time""
""fullscreenenter"",""0"",""5272""
","
","
","""event"",""trial"",""time""
""fullscreenenter"",""0"",""5272""
","
","705.5","<div class='center'><p>Lets practice a little to make sure you understand the difference between new, similar, and old. Lets say you saw these three items in the indoor/outdoor game.</p><p> Try your best to remember these images because youll soon be tested on them in a practice game. In the practice game, youll be shown images and youll have to say if they are old (one of the three images belows), similar (similar to one of the images below but not exactly the same), or new (are not one of the images below nor similar to them).</p><p>Once you press the space bar youll be shown these images again but one at time. Then youll begin the practice game.</p><p><img src='run_exp/static/images/tutorial/test/three_indoor_outdoor.png' height='300'></p><div><p><b>[Press the space bar to continue]</b></p></div>","32","","","","","","","",""
"","planet","214","377056","0.0-214.0","""event"",""trial"",""time""
""fullscreenenter"",""0"",""5272""
","
","
","""event"",""trial"",""time""
""fullscreenenter"",""0"",""5272""
","
","null","run_exp/static/images/tutorial/test/008a.jpg","null","","","","","","","",""
"","boot","215","379063","0.0-215.0","""event"",""trial"",""time""
""fullscreenenter"",""0"",""5272""
","
","
","""event"",""trial"",""time""
""fullscreenenter"",""0"",""5272""
","
","null","run_exp/static/images/tutorial/test/011a.jpg","null","","","","","","","",""
"","lemon","216","381070","0.0-216.0","""event"",""trial"",""time""
""fullscreenenter"",""0"",""5272""
","
","
","""event"",""trial"",""time""
""fullscreenenter"",""0"",""5272""
","
","null","run_exp/static/images/tutorial/test/018a.jpg","null","","","","","","","",""
"","practice_q1","217","385362","0.0-217.0","""event"",""trial"",""time""
""fullscreenenter"",""0"",""5272""
","
","
","""event"",""trial"",""time""
""fullscreenenter"",""0"",""5272""
","
","4289.20000000298","run_exp/static/audio/clip_16_practice_question.m4a","78","","","","","","","",""
"","correct","218","387270","0.0-218.0-0.0","""event"",""trial"",""time""
""fullscreenenter"",""0"",""5272""
","
","
","""event"",""trial"",""time""
""fullscreenenter"",""0"",""5272""
","
","null","run_exp/static/audio/clip_17_correct.m4a","null","","","","","<div class='center'><p>That's correct!</p></div>","","",""
"","html-keyboard-response","219","388135","0.0-218.0-1.0","""event"",""trial"",""time""
""fullscreenenter"",""0"",""5272""
","
","
","""event"",""trial"",""time""
""fullscreenenter"",""0"",""5272""
","
","863.3999999985099","<div class='center'><p>That's correct!</p><div><p><b>[Press the space bar to continue]</b></p></div>","32","","","","","","","",""
"","practice_q2","220","390516","0.0-218.0-2.0","""event"",""trial"",""time""
""fullscreenenter"",""0"",""5272""
","
","
","""event"",""trial"",""time""
""fullscreenenter"",""0"",""5272""
","
","2378.8000000044703","run_exp/static/audio/clip_16_practice_question.m4a","86","","","","","","","",""
"","correct","221","392411","0.0-219.0-0.0","""event"",""trial"",""time""
""fullscreenenter"",""0"",""5272""
","
","
","""event"",""trial"",""time""
""fullscreenenter"",""0"",""5272""
","
","null","run_exp/static/audio/clip_17_correct.m4a","null","","","","","<div class='center'><p>That's correct!</p></div>","","",""
"","html-keyboard-response","222","393107","0.0-219.0-1.0","""event"",""trial"",""time""
""fullscreenenter"",""0"",""5272""
","
","
","""event"",""trial"",""time""
""fullscreenenter"",""0"",""5272""
","
","694.1999999955297","<div class='center'><p>That's correct!</p><div><p><b>[Press the space bar to continue]</b></p></div>","32","","","","","","","",""
"","practice_q3","223","395576","0.0-219.0-2.0","""event"",""trial"",""time""
""fullscreenenter"",""0"",""5272""
","
","
","""event"",""trial"",""time""
""fullscreenenter"",""0"",""5272""
","
","2467.1999999955297","run_exp/static/audio/clip_16_practice_question.m4a","66","","","","","","","",""
"","correct","224","397553","0.0-220.0-0.0","""event"",""trial"",""time""
""fullscreenenter"",""0"",""5272""
","
","
","""event"",""trial"",""time""
""fullscreenenter"",""0"",""5272""
","
","null","run_exp/static/audio/clip_17_correct.m4a","null","","","","","<div class='center'><p>That's correct!</p></div>","","",""
"","html-keyboard-response","225","398164","0.0-220.0-1.0","""event"",""trial"",""time""
""fullscreenenter"",""0"",""5272""
","
","
","""event"",""trial"",""time""
""fullscreenenter"",""0"",""5272""
","
","608.8999999985099","<div class='center'><p>That's correct!</p><div><p><b>[Press the space bar to continue]</b></p></div>","32","","","","","","","",""
"","begin_text","226","416646","0.0-221.0-0.0","""event"",""trial"",""time""
""fullscreenenter"",""0"",""5272""
","
","
","""event"",""trial"",""time""
""fullscreenenter"",""0"",""5272""
","
","null","run_exp/static/audio/clip_22_begin_test.m4a","null","","","","","<div class='center'><p>On to the real game where well test your memory of items from the indoor/outdoor game. For each item, you need to indicate if the item is <b>old</b> by pressing the <b>v</b> key, <b>similar</b> by pressing the <b>b</b> key, or <b>new</b> by pressing the <b>n</b> key. </p></div>","","",""
"","html-keyboard-response","227","417358","0.0-221.0-1.0","""event"",""trial"",""time""
""fullscreenenter"",""0"",""5272""
","
","
","""event"",""trial"",""time""
""fullscreenenter"",""0"",""5272""
","
","703.3999999985099","<div class='center'><p>On to the real game where well test your memory of items from the indoor/outdoor game. For each item, you need to indicate if the item is <b>old</b> by pressing the <b>v</b> key, <b>similar</b> by pressing the <b>b</b> key, or <b>new</b> by pressing the <b>n</b> key. </p><div><p><b>[Press the space bar to continue]</b></p></div>","32","","","","","","","",""
"","image","228","419630","0.0-222.0-0.0","""event"",""trial"",""time""
""fullscreenenter"",""0"",""5272""
","
","
","""event"",""trial"",""time""
""fullscreenenter"",""0"",""5272""
","
","2269.8000000044703","run_exp/static/images/Set 6_rs/190a.jpg","78","","","","","","test","TF","3"
"","show_choice","229","420132","0.0-222.0-1.0","""event"",""trial"",""time""
""fullscreenenter"",""0"",""5272""
","
","
","""event"",""trial"",""time""
""fullscreenenter"",""0"",""5272""
","
","null","run_exp/static/images/Set 6_rs/190a.jpg","null","","","","","","test","TF",""
"","html-keyboard-response","230","420634","0.0-222.0-2.0","""event"",""trial"",""time""
""fullscreenenter"",""0"",""5272""
","
","
","""event"",""trial"",""time""
""fullscreenenter"",""0"",""5272""
","
","null","<p></p>","null","","","","","","","",""
"","image","231","421907","0.0-223.0-0.0","""event"",""trial"",""time""
""fullscreenenter"",""0"",""5272""
","
","
","""event"",""trial"",""time""
""fullscreenenter"",""0"",""5272""
","
","1270.6999999955297","run_exp/static/images/Set 6_rs/141a.jpg","86","","","","","","test","TR","2"
"","show_choice","232","422411","0.0-223.0-1.0","""event"",""trial"",""time""
""fullscreenenter"",""0"",""5272""
","
","
","""event"",""trial"",""time""
""fullscreenenter"",""0"",""5272""
","
","null","run_exp/static/images/Set 6_rs/141a.jpg","null","","","","","","test","TR",""
"","html-keyboard-response","233","422913","0.0-223.0-2.0","""event"",""trial"",""time""
""fullscreenenter"",""0"",""5272""
","
","
","""event"",""trial"",""time""
""fullscreenenter"",""0"",""5272""
","
","null","<p></p>","null","","","","","","","",""
"","image","234","424143","0.0-224.0-0.0","""event"",""trial"",""time""
""fullscreenenter"",""0"",""5272""
","
","
","""event"",""trial"",""time""
""fullscreenenter"",""0"",""5272""
","
","1228.1000000014901","run_exp/static/images/Set 6_rs/071b.jpg","66","","","","","","test","TL","4"
"","show_choice","235","424646","0.0-224.0-1.0","""event"",""trial"",""time""
""fullscreenenter"",""0"",""5272""
","
","
","""event"",""trial"",""time""
""fullscreenenter"",""0"",""5272""
","
","null","run_exp/static/images/Set 6_rs/071b.jpg","null","","","","","","test","TL",""
"","html-keyboard-response","236","425148","0.0-224.0-2.0","""event"",""trial"",""time""
""fullscreenenter"",""0"",""5272""
","
","
","""event"",""trial"",""time""
""fullscreenenter"",""0"",""5272""
","
","null","<p></p>","null","","","","","","","",""
"","image","237","426744","0.0-225.0-0.0","""event"",""trial"",""time""
""fullscreenenter"",""0"",""5272""
","
","
","""event"",""trial"",""time""
""fullscreenenter"",""0"",""5272""
","
","1594","run_exp/static/images/Set 6_rs/166a.jpg","66","","","","","","test","TR","1"
"","show_choice","238","427247","0.0-225.0-1.0","""event"",""trial"",""time""
""fullscreenenter"",""0"",""5272""
","
","
","""event"",""trial"",""time""
""fullscreenenter"",""0"",""5272""
","
","null","run_exp/static/images/Set 6_rs/166a.jpg","null","","","","","","test","TR",""
"","html-keyboard-response","239","427749","0.0-225.0-2.0","""event"",""trial"",""time""
""fullscreenenter"",""0"",""5272""
","
","
","""event"",""trial"",""time""
""fullscreenenter"",""0"",""5272""
","
","null","<p></p>","null","","","","","","","",""
"","image","240","429630","0.0-226.0-0.0","""event"",""trial"",""time""
""fullscreenenter"",""0"",""5272""
","
","
","""event"",""trial"",""time""
""fullscreenenter"",""0"",""5272""
","
","1878.7000000029802","run_exp/static/images/Set 6_rs/008b.jpg","66","","","","","","test","TL","2"
"","show_choice","241","430132","0.0-226.0-1.0","""event"",""trial"",""time""
""fullscreenenter"",""0"",""5272""
","
","
","""event"",""trial"",""time""
""fullscreenenter"",""0"",""5272""
","
","null","run_exp/static/images/Set 6_rs/008b.jpg","null","","","","","","test","TL",""
"","html-keyboard-response","242","430634","0.0-226.0-2.0","""event"",""trial"",""time""
""fullscreenenter"",""0"",""5272""
","
","
","""event"",""trial"",""time""
""fullscreenenter"",""0"",""5272""
","
","null","<p></p>","null","","","","","","","",""
"","image","243","431940","0.0-227.0-0.0","""event"",""trial"",""time""
""fullscreenenter"",""0"",""5272""
","
","
","""event"",""trial"",""time""
""fullscreenenter"",""0"",""5272""
","
","1303.7000000029802","run_exp/static/images/Set 6_rs/100a.jpg","78","","","","","","test","TF","2"
"","show_choice","244","432444","0.0-227.0-1.0","""event"",""trial"",""time""
""fullscreenenter"",""0"",""5272""
","
","
","""event"",""trial"",""time""
""fullscreenenter"",""0"",""5272""
","
","null","run_exp/static/images/Set 6_rs/100a.jpg","null","","","","","","test","TF",""
"","html-keyboard-response","245","432945","0.0-227.0-2.0","""event"",""trial"",""time""
""fullscreenenter"",""0"",""5272""
","
","
","""event"",""trial"",""time""
""fullscreenenter"",""0"",""5272""
","
","null","<p></p>","null","","","","","","","",""
"","image","246","434345","0.0-228.0-0.0","""event"",""trial"",""time""
""fullscreenenter"",""0"",""5272""
","
","
","""event"",""trial"",""time""
""fullscreenenter"",""0"",""5272""
","
","1398.3000000044703","run_exp/static/images/Set 6_rs/140a.jpg","86","","","","","","test","TF","1"
"","show_choice","247","434847","0.0-228.0-1.0","""event"",""trial"",""time""
""fullscreenenter"",""0"",""5272""
","
","
","""event"",""trial"",""time""
""fullscreenenter"",""0"",""5272""
","
","null","run_exp/static/images/Set 6_rs/140a.jpg","null","","","","","","test","TF",""
"","html-keyboard-response","248","435349","0.0-228.0-2.0","""event"",""trial"",""time""
""fullscreenenter"",""0"",""5272""
","
","
","""event"",""trial"",""time""
""fullscreenenter"",""0"",""5272""
","
","null","<p></p>","null","","","","","","","",""
"","image","249","436691","0.0-229.0-0.0","""event"",""trial"",""time""
""fullscreenenter"",""0"",""5272""
","
","
","""event"",""trial"",""time""
""fullscreenenter"",""0"",""5272""
","
","1339.1999999955297","run_exp/static/images/Set 6_rs/016b.jpg","86","","","","","","test","TL","1"
"","show_choice","250","437194","0.0-229.0-1.0","""event"",""trial"",""time""
""fullscreenenter"",""0"",""5272""
","
","
","""event"",""trial"",""time""
""fullscreenenter"",""0"",""5272""
","
","null","run_exp/static/images/Set 6_rs/016b.jpg","null","","","","","","test","TL",""
"","html-keyboard-response","251","437696","0.0-229.0-2.0","""event"",""trial"",""time""
""fullscreenenter"",""0"",""5272""
","
","
","""event"",""trial"",""time""
""fullscreenenter"",""0"",""5272""
","
","null","<p></p>","null","","","","","","","",""
"","image","252","438646","0.0-230.0-0.0","""event"",""trial"",""time""
""fullscreenenter"",""0"",""5272""
","
","
","""event"",""trial"",""time""
""fullscreenenter"",""0"",""5272""
","
","947.6000000014901","run_exp/static/images/Set 6_rs/062b.jpg","86","","","","","","test","TL","1"
"","show_choice","253","439148","0.0-230.0-1.0","""event"",""trial"",""time""
""fullscreenenter"",""0"",""5272""
","
","
","""event"",""trial"",""time""
""fullscreenenter"",""0"",""5272""
","
","null","run_exp/static/images/Set 6_rs/062b.jpg","null","","","","","","test","TL",""
"","html-keyboard-response","254","439651","0.0-230.0-2.0","""event"",""trial"",""time""
""fullscreenenter"",""0"",""5272""
","
","
","""event"",""trial"",""time""
""fullscreenenter"",""0"",""5272""
","
","null","<p></p>","null","","","","","","","",""
"","image","255","440827","0.0-231.0-0.0","""event"",""trial"",""time""
""fullscreenenter"",""0"",""5272""
","
","
","""event"",""trial"",""time""
""fullscreenenter"",""0"",""5272""
","
","1174.2999999970198","run_exp/static/images/Set 6_rs/025b.jpg","66","","","","","","test","TL","5"
"","show_choice","256","441330","0.0-231.0-1.0","""event"",""trial"",""time""
""fullscreenenter"",""0"",""5272""
","
","
","""event"",""trial"",""time""
""fullscreenenter"",""0"",""5272""
","
","null","run_exp/static/images/Set 6_rs/025b.jpg","null","","","","","","test","TL",""
"","html-keyboard-response","257","441832","0.0-231.0-2.0","""event"",""trial"",""time""
""fullscreenenter"",""0"",""5272""
","
","
","""event"",""trial"",""time""
""fullscreenenter"",""0"",""5272""
","
","null","<p></p>","null","","","","","","","",""
"","image","258","442871","0.0-232.0-0.0","""event"",""trial"",""time""
""fullscreenenter"",""0"",""5272""
","
","
","""event"",""trial"",""time""
""fullscreenenter"",""0"",""5272""
","
","1036.7999999970198","run_exp/static/images/Set 6_rs/155a.jpg","78","","","","","","test","TF","4"
"","show_choice","259","443374","0.0-232.0-1.0","""event"",""trial"",""time""
""fullscreenenter"",""0"",""5272""
","
","
","""event"",""trial"",""time""
""fullscreenenter"",""0"",""5272""
","
","null","run_exp/static/images/Set 6_rs/155a.jpg","null","","","","","","test","TF",""
"","html-keyboard-response","260","443876","0.0-232.0-2.0","""event"",""trial"",""time""
""fullscreenenter"",""0"",""5272""
","
","
","""event"",""trial"",""time""
""fullscreenenter"",""0"",""5272""
","
","null","<p></p>","null","","","","","","","",""
"","image","261","445158","0.0-233.0-0.0","""event"",""trial"",""time""
""fullscreenenter"",""0"",""5272""
","
","
","""event"",""trial"",""time""
""fullscreenenter"",""0"",""5272""
","
","1279.5999999940395","run_exp/static/images/Set 6_rs/036b.jpg","66","","","","","","test","TL","4"
"","show_choice","262","445661","0.0-233.0-1.0","""event"",""trial"",""time""
""fullscreenenter"",""0"",""5272""
","
","
","""event"",""trial"",""time""
""fullscreenenter"",""0"",""5272""
","
","null","run_exp/static/images/Set 6_rs/036b.jpg","null","","","","","","test","TL",""
"","html-keyboard-response","263","446163","0.0-233.0-2.0","""event"",""trial"",""time""
""fullscreenenter"",""0"",""5272""
","
","
","""event"",""trial"",""time""
""fullscreenenter"",""0"",""5272""
","
","null","<p></p>","null","","","","","","","",""
"","image","264","447126","0.0-234.0-0.0","""event"",""trial"",""time""
""fullscreenenter"",""0"",""5272""
","
","
","""event"",""trial"",""time""
""fullscreenenter"",""0"",""5272""
","
","961.2000000029802","run_exp/static/images/Set 6_rs/005a.jpg","78","","","","","","test","TF","5"
"","show_choice","265","447630","0.0-234.0-1.0","""event"",""trial"",""time""
""fullscreenenter"",""0"",""5272""
","
","
","""event"",""trial"",""time""
""fullscreenenter"",""0"",""5272""
","
","null","run_exp/static/images/Set 6_rs/005a.jpg","null","","","","","","test","TF",""
"","html-keyboard-response","266","448133","0.0-234.0-2.0","""event"",""trial"",""time""
""fullscreenenter"",""0"",""5272""
","
","
","""event"",""trial"",""time""
""fullscreenenter"",""0"",""5272""
","
","null","<p></p>","null","","","","","","","",""
"","image","267","449836","0.0-235.0-0.0","""event"",""trial"",""time""
""fullscreenenter"",""0"",""5272""
","
","
","""event"",""trial"",""time""
""fullscreenenter"",""0"",""5272""
","
","1700.7999999970198","run_exp/static/images/Set 6_rs/007a.jpg","86","","","","","","test","TR","3"
"","show_choice","268","450338","0.0-235.0-1.0","""event"",""trial"",""time""
""fullscreenenter"",""0"",""5272""
","
","
","""event"",""trial"",""time""
""fullscreenenter"",""0"",""5272""
","
","null","run_exp/static/images/Set 6_rs/007a.jpg","null","","","","","","test","TR",""
"","html-keyboard-response","269","450840","0.0-235.0-2.0","""event"",""trial"",""time""
""fullscreenenter"",""0"",""5272""
","
","
","""event"",""trial"",""time""
""fullscreenenter"",""0"",""5272""
","
","null","<p></p>","null","","","","","","","",""
"","image","270","451985","0.0-236.0-0.0","""event"",""trial"",""time""
""fullscreenenter"",""0"",""5272""
","
","
","""event"",""trial"",""time""
""fullscreenenter"",""0"",""5272""
","
","1143.1999999955297","run_exp/static/images/Set 6_rs/109a.jpg","78","","","","","","test","TF","5"
"","show_choice","271","452489","0.0-236.0-1.0","""event"",""trial"",""time""
""fullscreenenter"",""0"",""5272""
","
","
","""event"",""trial"",""time""
""fullscreenenter"",""0"",""5272""
","
","null","run_exp/static/images/Set 6_rs/109a.jpg","null","","","","","","test","TF",""
"","html-keyboard-response","272","452990","0.0-236.0-2.0","""event"",""trial"",""time""
""fullscreenenter"",""0"",""5272""
","
","
","""event"",""trial"",""time""
""fullscreenenter"",""0"",""5272""
","
","null","<p></p>","null","","","","","","","",""
"","image","273","454132","0.0-237.0-0.0","""event"",""trial"",""time""
""fullscreenenter"",""0"",""5272""
","
","
","""event"",""trial"",""time""
""fullscreenenter"",""0"",""5272""
","
","1140.1000000014901","run_exp/static/images/Set 6_rs/181b.jpg","86","","","","","","test","TL","1"
"","show_choice","274","454636","0.0-237.0-1.0","""event"",""trial"",""time""
""fullscreenenter"",""0"",""5272""
","
","
","""event"",""trial"",""time""
""fullscreenenter"",""0"",""5272""
","
","null","run_exp/static/images/Set 6_rs/181b.jpg","null","","","","","","test","TL",""
"","html-keyboard-response","275","455138","0.0-237.0-2.0","""event"",""trial"",""time""
""fullscreenenter"",""0"",""5272""
","
","
","""event"",""trial"",""time""
""fullscreenenter"",""0"",""5272""
","
","null","<p></p>","null","","","","","","","",""
"","image","276","456157","0.0-238.0-0.0","""event"",""trial"",""time""
""fullscreenenter"",""0"",""5272""
","
","
","""event"",""trial"",""time""
""fullscreenenter"",""0"",""5272""
","
","1017.0999999940395","run_exp/static/images/Set 6_rs/063a.jpg","86","","","","","","test","TR","2"
"","show_choice","277","456661","0.0-238.0-1.0","""event"",""trial"",""time""
""fullscreenenter"",""0"",""5272""
","
","
","""event"",""trial"",""time""
""fullscreenenter"",""0"",""5272""
","
","null","run_exp/static/images/Set 6_rs/063a.jpg","null","","","","","","test","TR",""
"","html-keyboard-response","278","457163","0.0-238.0-2.0","""event"",""trial"",""time""
""fullscreenenter"",""0"",""5272""
","
","
","""event"",""trial"",""time""
""fullscreenenter"",""0"",""5272""
","
","null","<p></p>","null","","","","","","","",""
"","image","279","458198","0.0-239.0-0.0","""event"",""trial"",""time""
""fullscreenenter"",""0"",""5272""
","
","
","""event"",""trial"",""time""
""fullscreenenter"",""0"",""5272""
","
","1033.6000000014901","run_exp/static/images/Set 6_rs/075a.jpg","86","","","","","","test","TR","1"
"","show_choice","280","458701","0.0-239.0-1.0","""event"",""trial"",""time""
""fullscreenenter"",""0"",""5272""
","
","
","""event"",""trial"",""time""
""fullscreenenter"",""0"",""5272""
","
","null","run_exp/static/images/Set 6_rs/075a.jpg","null","","","","","","test","TR",""
"","html-keyboard-response","281","459203","0.0-239.0-2.0","""event"",""trial"",""time""
""fullscreenenter"",""0"",""5272""
","
","
","""event"",""trial"",""time""
""fullscreenenter"",""0"",""5272""
","
","null","<p></p>","null","","","","","","","",""
"","image","282","460446","0.0-240.0-0.0","""event"",""trial"",""time""
""fullscreenenter"",""0"",""5272""
","
","
","""event"",""trial"",""time""
""fullscreenenter"",""0"",""5272""
","
","1240.2999999970198","run_exp/static/images/Set 6_rs/129b.jpg","86","","","","","","test","TL","1"
"","show_choice","283","460948","0.0-240.0-1.0","""event"",""trial"",""time""
""fullscreenenter"",""0"",""5272""
","
","
","""event"",""trial"",""time""
""fullscreenenter"",""0"",""5272""
","
","null","run_exp/static/images/Set 6_rs/129b.jpg","null","","","","","","test","TL",""
"","html-keyboard-response","284","461450","0.0-240.0-2.0","""event"",""trial"",""time""
""fullscreenenter"",""0"",""5272""
","
","
","""event"",""trial"",""time""
""fullscreenenter"",""0"",""5272""
","
","null","<p></p>","null","","","","","","","",""
"","image","285","462472","0.0-241.0-0.0","""event"",""trial"",""time""
""fullscreenenter"",""0"",""5272""
","
","
","""event"",""trial"",""time""
""fullscreenenter"",""0"",""5272""
","
","1020.1000000014901","run_exp/static/images/Set 6_rs/121a.jpg","86","","","","","","test","TR","4"
"","show_choice","286","462976","0.0-241.0-1.0","""event"",""trial"",""time""
""fullscreenenter"",""0"",""5272""
","
","
","""event"",""trial"",""time""
""fullscreenenter"",""0"",""5272""
","
","null","run_exp/static/images/Set 6_rs/121a.jpg","null","","","","","","test","TR",""
"","html-keyboard-response","287","463478","0.0-241.0-2.0","""event"",""trial"",""time""
""fullscreenenter"",""0"",""5272""
","
","
","""event"",""trial"",""time""
""fullscreenenter"",""0"",""5272""
","
","null","<p></p>","null","","","","","","","",""
"","image","288","464615","0.0-242.0-0.0","""event"",""trial"",""time""
""fullscreenenter"",""0"",""5272""
","
","
","""event"",""trial"",""time""
""fullscreenenter"",""0"",""5272""
","
","1134.8000000044703","run_exp/static/images/Set 6_rs/133a.jpg","78","","","","","","test","TF","4"
"","show_choice","289","465119","0.0-242.0-1.0","""event"",""trial"",""time""
""fullscreenenter"",""0"",""5272""
","
","
","""event"",""trial"",""time""
""fullscreenenter"",""0"",""5272""
","
","null","run_exp/static/images/Set 6_rs/133a.jpg","null","","","","","","test","TF",""
"","html-keyboard-response","290","465620","0.0-242.0-2.0","""event"",""trial"",""time""
""fullscreenenter"",""0"",""5272""
","
","
","""event"",""trial"",""time""
""fullscreenenter"",""0"",""5272""
","
","null","<p></p>","null","","","","","","","",""
"","image","291","466766","0.0-243.0-0.0","""event"",""trial"",""time""
""fullscreenenter"",""0"",""5272""
","
","
","""event"",""trial"",""time""
""fullscreenenter"",""0"",""5272""
","
","1143.3000000044703","run_exp/static/images/Set 6_rs/188a.jpg","78","","","","","","test","TF","3"
"","show_choice","292","467270","0.0-243.0-1.0","""event"",""trial"",""time""
""fullscreenenter"",""0"",""5272""
","
","
","""event"",""trial"",""time""
""fullscreenenter"",""0"",""5272""
","
","null","run_exp/static/images/Set 6_rs/188a.jpg","null","","","","","","test","TF",""
"","html-keyboard-response","293","467771","0.0-243.0-2.0","""event"",""trial"",""time""
""fullscreenenter"",""0"",""5272""
","
","
","""event"",""trial"",""time""
""fullscreenenter"",""0"",""5272""
","
","null","<p></p>","null","","","","","","","",""
"","image","294","469765","0.0-244.0-0.0","""event"",""trial"",""time""
""fullscreenenter"",""0"",""5272""
","
","
","""event"",""trial"",""time""
""fullscreenenter"",""0"",""5272""
","
","1991.2000000029802","run_exp/static/images/Set 6_rs/011a.jpg","66","","","","","","test","TF","3"
"","show_choice","295","470268","0.0-244.0-1.0","""event"",""trial"",""time""
""fullscreenenter"",""0"",""5272""
","
","
","""event"",""trial"",""time""
""fullscreenenter"",""0"",""5272""
","
","null","run_exp/static/images/Set 6_rs/011a.jpg","null","","","","","","test","TF",""
"","html-keyboard-response","296","470770","0.0-244.0-2.0","""event"",""trial"",""time""
""fullscreenenter"",""0"",""5272""
","
","
","""event"",""trial"",""time""
""fullscreenenter"",""0"",""5272""
","
","null","<p></p>","null","","","","","","","",""
"","image","297","473139","0.0-245.0-0.0","""event"",""trial"",""time""
""fullscreenenter"",""0"",""5272""
","
","
","""event"",""trial"",""time""
""fullscreenenter"",""0"",""5272""
","
","2367.2000000029802","run_exp/static/images/Set 6_rs/117b.jpg","66","","","","","","test","TL","5"
"","show_choice","298","473643","0.0-245.0-1.0","""event"",""trial"",""time""
""fullscreenenter"",""0"",""5272""
","
","
","""event"",""trial"",""time""
""fullscreenenter"",""0"",""5272""
","
","null","run_exp/static/images/Set 6_rs/117b.jpg","null","","","","","","test","TL",""
"","html-keyboard-response","299","474145","0.0-245.0-2.0","""event"",""trial"",""time""
""fullscreenenter"",""0"",""5272""
","
","
","""event"",""trial"",""time""
""fullscreenenter"",""0"",""5272""
","
","null","<p></p>","null","","","","","","","",""
"","image","300","475374","0.0-246.0-0.0","""event"",""trial"",""time""
""fullscreenenter"",""0"",""5272""
","
","
","""event"",""trial"",""time""
""fullscreenenter"",""0"",""5272""
","
","1226.3999999985099","run_exp/static/images/Set 6_rs/064a.jpg","66","","","","","","test","TR","5"
"","show_choice","301","475878","0.0-246.0-1.0","""event"",""trial"",""time""
""fullscreenenter"",""0"",""5272""
","
","
","""event"",""trial"",""time""
""fullscreenenter"",""0"",""5272""
","
","null","run_exp/static/images/Set 6_rs/064a.jpg","null","","","","","","test","TR",""
"","html-keyboard-response","302","476380","0.0-246.0-2.0","""event"",""trial"",""time""
""fullscreenenter"",""0"",""5272""
","
","
","""event"",""trial"",""time""
""fullscreenenter"",""0"",""5272""
","
","null","<p></p>","null","","","","","","","",""
"","image","303","477480","0.0-247.0-0.0","""event"",""trial"",""time""
""fullscreenenter"",""0"",""5272""
","
","
","""event"",""trial"",""time""
""fullscreenenter"",""0"",""5272""
","
","1098.6000000014901","run_exp/static/images/Set 6_rs/024a.jpg","66","","","","","","test","TR","5"
"","show_choice","304","477984","0.0-247.0-1.0","""event"",""trial"",""time""
""fullscreenenter"",""0"",""5272""
","
","
","""event"",""trial"",""time""
""fullscreenenter"",""0"",""5272""
","
","null","run_exp/static/images/Set 6_rs/024a.jpg","null","","","","","","test","TR",""
"","html-keyboard-response","305","478486","0.0-247.0-2.0","""event"",""trial"",""time""
""fullscreenenter"",""0"",""5272""
","
","
","""event"",""trial"",""time""
""fullscreenenter"",""0"",""5272""
","
","null","<p></p>","null","","","","","","","",""
"","image","306","479893","0.0-248.0-0.0","""event"",""trial"",""time""
""fullscreenenter"",""0"",""5272""
","
","
","""event"",""trial"",""time""
""fullscreenenter"",""0"",""5272""
","
","1405.5","run_exp/static/images/Set 6_rs/123b.jpg","86","","","","","","test","TL","2"
"","show_choice","307","480396","0.0-248.0-1.0","""event"",""trial"",""time""
""fullscreenenter"",""0"",""5272""
","
","
","""event"",""trial"",""time""
""fullscreenenter"",""0"",""5272""
","
","null","run_exp/static/images/Set 6_rs/123b.jpg","null","","","","","","test","TL",""
"","html-keyboard-response","308","480898","0.0-248.0-2.0","""event"",""trial"",""time""
""fullscreenenter"",""0"",""5272""
","
","
","""event"",""trial"",""time""
""fullscreenenter"",""0"",""5272""
","
","null","<p></p>","null","","","","","","","",""
"","image","309","482387","0.0-249.0-0.0","""event"",""trial"",""time""
""fullscreenenter"",""0"",""5272""
","
","
","""event"",""trial"",""time""
""fullscreenenter"",""0"",""5272""
","
","1486.3999999985099","run_exp/static/images/Set 6_rs/035a.jpg","78","","","","","","test","TF","4"
"","show_choice","310","482889","0.0-249.0-1.0","""event"",""trial"",""time""
""fullscreenenter"",""0"",""5272""
","
","
","""event"",""trial"",""time""
""fullscreenenter"",""0"",""5272""
","
","null","run_exp/static/images/Set 6_rs/035a.jpg","null","","","","","","test","TF",""
"","html-keyboard-response","311","483391","0.0-249.0-2.0","""event"",""trial"",""time""
""fullscreenenter"",""0"",""5272""
","
","
","""event"",""trial"",""time""
""fullscreenenter"",""0"",""5272""
","
","null","<p></p>","null","","","","","","","",""
"","image","312","484861","0.0-250.0-0.0","""event"",""trial"",""time""
""fullscreenenter"",""0"",""5272""
","
","
","""event"",""trial"",""time""
""fullscreenenter"",""0"",""5272""
","
","1467.0999999940395","run_exp/static/images/Set 6_rs/122a.jpg","86","","","","","","test","TR","5"
"","show_choice","313","485364","0.0-250.0-1.0","""event"",""trial"",""time""
""fullscreenenter"",""0"",""5272""
","
","
","""event"",""trial"",""time""
""fullscreenenter"",""0"",""5272""
","
","null","run_exp/static/images/Set 6_rs/122a.jpg","null","","","","","","test","TR",""
"","html-keyboard-response","314","485867","0.0-250.0-2.0","""event"",""trial"",""time""
""fullscreenenter"",""0"",""5272""
","
","
","""event"",""trial"",""time""
""fullscreenenter"",""0"",""5272""
","
","null","<p></p>","null","","","","","","","",""
"","image","315","487518","0.0-251.0-0.0","""event"",""trial"",""time""
""fullscreenenter"",""0"",""5272""
","
","
","""event"",""trial"",""time""
""fullscreenenter"",""0"",""5272""
","
","1649.1000000014901","run_exp/static/images/Set 6_rs/019b.jpg","66","","","","","","test","TL","2"
"","show_choice","316","488022","0.0-251.0-1.0","""event"",""trial"",""time""
""fullscreenenter"",""0"",""5272""
","
","
","""event"",""trial"",""time""
""fullscreenenter"",""0"",""5272""
","
","null","run_exp/static/images/Set 6_rs/019b.jpg","null","","","","","","test","TL",""
"","html-keyboard-response","317","488524","0.0-251.0-2.0","""event"",""trial"",""time""
""fullscreenenter"",""0"",""5272""
","
","
","""event"",""trial"",""time""
""fullscreenenter"",""0"",""5272""
","
","null","<p></p>","null","","","","","","","",""
"","image","318","489724","0.0-252.0-0.0","""event"",""trial"",""time""
""fullscreenenter"",""0"",""5272""
","
","
","""event"",""trial"",""time""
""fullscreenenter"",""0"",""5272""
","
","1197","run_exp/static/images/Set 6_rs/167b.jpg","66","","","","","","test","TL","2"
"","show_choice","319","490228","0.0-252.0-1.0","""event"",""trial"",""time""
""fullscreenenter"",""0"",""5272""
","
","
","""event"",""trial"",""time""
""fullscreenenter"",""0"",""5272""
","
","null","run_exp/static/images/Set 6_rs/167b.jpg","null","","","","","","test","TL",""
"","html-keyboard-response","320","490732","0.0-252.0-2.0","""event"",""trial"",""time""
""fullscreenenter"",""0"",""5272""
","
","
","""event"",""trial"",""time""
""fullscreenenter"",""0"",""5272""
","
","null","<p></p>","null","","","","","","","",""
"","image","321","492086","0.0-253.0-0.0","""event"",""trial"",""time""
""fullscreenenter"",""0"",""5272""
","
","
","""event"",""trial"",""time""
""fullscreenenter"",""0"",""5272""
","
","1351.8999999985099","run_exp/static/images/Set 6_rs/045a.jpg","86","","","","","","test","TR","2"
"","show_choice","322","492590","0.0-253.0-1.0","""event"",""trial"",""time""
""fullscreenenter"",""0"",""5272""
","
","
","""event"",""trial"",""time""
""fullscreenenter"",""0"",""5272""
","
","null","run_exp/static/images/Set 6_rs/045a.jpg","null","","","","","","test","TR",""
"","html-keyboard-response","323","493091","0.0-253.0-2.0","""event"",""trial"",""time""
""fullscreenenter"",""0"",""5272""
","
","
","""event"",""trial"",""time""
""fullscreenenter"",""0"",""5272""
","
","null","<p></p>","null","","","","","","","",""
"","image","324","494136","0.0-254.0-0.0","""event"",""trial"",""time""
""fullscreenenter"",""0"",""5272""
","
","
","""event"",""trial"",""time""
""fullscreenenter"",""0"",""5272""
","
","1042.8999999985099","run_exp/static/images/Set 6_rs/138b.jpg","86","","","","","","test","TL","1"
"","show_choice","325","494638","0.0-254.0-1.0","""event"",""trial"",""time""
""fullscreenenter"",""0"",""5272""
","
","
","""event"",""trial"",""time""
""fullscreenenter"",""0"",""5272""
","
","null","run_exp/static/images/Set 6_rs/138b.jpg","null","","","","","","test","TL",""
"","html-keyboard-response","326","495140","0.0-254.0-2.0","""event"",""trial"",""time""
""fullscreenenter"",""0"",""5272""
","
","
","""event"",""trial"",""time""
""fullscreenenter"",""0"",""5272""
","
","null","<p></p>","null","","","","","","","",""
"","image","327","495966","0.0-255.0-0.0","""event"",""trial"",""time""
""fullscreenenter"",""0"",""5272""
","
","
","""event"",""trial"",""time""
""fullscreenenter"",""0"",""5272""
","
","824.5","run_exp/static/images/Set 6_rs/134a.jpg","86","","","","","","test","TR","3"
"","show_choice","328","496468","0.0-255.0-1.0","""event"",""trial"",""time""
""fullscreenenter"",""0"",""5272""
","
","
","""event"",""trial"",""time""
""fullscreenenter"",""0"",""5272""
","
","null","run_exp/static/images/Set 6_rs/134a.jpg","null","","","","","","test","TR",""
"","html-keyboard-response","329","496972","0.0-255.0-2.0","""event"",""trial"",""time""
""fullscreenenter"",""0"",""5272""
","
","
","""event"",""trial"",""time""
""fullscreenenter"",""0"",""5272""
","
","null","<p></p>","null","","","","","","","",""
"","image","330","497869","0.0-256.0-0.0","""event"",""trial"",""time""
""fullscreenenter"",""0"",""5272""
","
","
","""event"",""trial"",""time""
""fullscreenenter"",""0"",""5272""
","
","895.6000000014901","run_exp/static/images/Set 6_rs/023a.jpg","86","","","","","","test","TR","3"
"","show_choice","331","498373","0.0-256.0-1.0","""event"",""trial"",""time""
""fullscreenenter"",""0"",""5272""
","
","
","""event"",""trial"",""time""
""fullscreenenter"",""0"",""5272""
","
","null","run_exp/static/images/Set 6_rs/023a.jpg","null","","","","","","test","TR",""
"","html-keyboard-response","332","498875","0.0-256.0-2.0","""event"",""trial"",""time""
""fullscreenenter"",""0"",""5272""
","
","
","""event"",""trial"",""time""
""fullscreenenter"",""0"",""5272""
","
","null","<p></p>","null","","","","","","","",""
"","image","333","500093","0.0-257.0-0.0","""event"",""trial"",""time""
""fullscreenenter"",""0"",""5272""
","
","
","""event"",""trial"",""time""
""fullscreenenter"",""0"",""5272""
","
","1215.1000000014901","run_exp/static/images/Set 6_rs/079b.jpg","66","","","","","","test","TL","5"
"","show_choice","334","500596","0.0-257.0-1.0","""event"",""trial"",""time""
""fullscreenenter"",""0"",""5272""
","
","
","""event"",""trial"",""time""
""fullscreenenter"",""0"",""5272""
","
","null","run_exp/static/images/Set 6_rs/079b.jpg","null","","","","","","test","TL",""
"","html-keyboard-response","335","501099","0.0-257.0-2.0","""event"",""trial"",""time""
""fullscreenenter"",""0"",""5272""
","
","
","""event"",""trial"",""time""
""fullscreenenter"",""0"",""5272""
","
","null","<p></p>","null","","","","","","","",""
"","image","336","502047","0.0-258.0-0.0","""event"",""trial"",""time""
""fullscreenenter"",""0"",""5272""
","
","
","""event"",""trial"",""time""
""fullscreenenter"",""0"",""5272""
","
","945.3999999985099","run_exp/static/images/Set 6_rs/132a.jpg","66","","","","","","test","TR","5"
"","show_choice","337","502550","0.0-258.0-1.0","""event"",""trial"",""time""
""fullscreenenter"",""0"",""5272""
","
","
","""event"",""trial"",""time""
""fullscreenenter"",""0"",""5272""
","
","null","run_exp/static/images/Set 6_rs/132a.jpg","null","","","","","","test","TR",""
"","html-keyboard-response","338","503052","0.0-258.0-2.0","""event"",""trial"",""time""
""fullscreenenter"",""0"",""5272""
","
","
","""event"",""trial"",""time""
""fullscreenenter"",""0"",""5272""
","
","null","<p></p>","null","","","","","","","",""
"","image","339","504336","0.0-259.0-0.0","""event"",""trial"",""time""
""fullscreenenter"",""0"",""5272""
","
","
","""event"",""trial"",""time""
""fullscreenenter"",""0"",""5272""
","
","1281.7999999970198","run_exp/static/images/Set 6_rs/152a.jpg","86","","","","","","test","TR","2"
"","show_choice","340","504840","0.0-259.0-1.0","""event"",""trial"",""time""
""fullscreenenter"",""0"",""5272""
","
","
","""event"",""trial"",""time""
""fullscreenenter"",""0"",""5272""
","
","null","run_exp/static/images/Set 6_rs/152a.jpg","null","","","","","","test","TR",""
