"success","trial_type","trial_index","time_elapsed","internal_node_id","rt","stimulus","key_press","subject_id","participant_id","age","gender","prompt","phase","condition","lure_bin"
"true","fullscreen","0","15430","0.0-0.0","","","","","","","","","","",""
"","pavlovia","1","15436","0.0-1.0","","","","","","","","","","",""
"","welcome","2","55541","0.0-2.0","null","run_exp/static/audio/clip_1_welcome.m4a","null","178","384","10","Female","<div class='center'><p>This is your last game of the experiment! First, you'll be shown pictures of items one at a time. For each picture, you have to decide if the item is typically found indoors or outdoors.</p><p>If you think it's usually found indoors, then press <b>v</b> key on your keyboard. If you think it's usually found outdoors, then press the <b>n</b> key.There will be reminders on the screen to help you remember which keys to press. </p><p>If you're not sure whether the item is an indoor item or outdoor item, go ahead and take a guess but try your best not to skip that choice. </p></div>","","",""
"","html-keyboard-response","3","56894","0.0-3.0","1348.699999988079","<div class='center'><p>This is your last game of the experiment! First, you'll be shown pictures of items one at a time. For each picture, you have to decide if the item is typically found indoors or outdoors.</p><p>If you think it's usually found indoors, then press <b>v</b> key on your keyboard. If you think it's usually found outdoors, then press the <b>n</b> key.There will be reminders on the screen to help you remember which keys to press. </p><p>If you're not sure whether the item is an indoor item or outdoor item, go ahead and take a guess but try your best not to skip that choice. </p><div><p><b>[Press the space bar to continue]</b></p></div>","32","","","","","","","",""
"","image","4","58659","0.0-4.0","1761.199999988079","run_exp/static/images/Set 6_rs/108a.jpg","86","","","","","","learn","SR",""
"","show_choice","5","58913","0.0-5.0","null","run_exp/static/images/Set 6_rs/108a.jpg","null","","","","","","learn","SR",""
"","html-keyboard-response","6","59429","0.0-6.0","null","<p></p>","null","","","","","","","",""
"","image","7","60287","0.0-7.0","855.8999999761581","run_exp/static/images/Set 6_rs/112a.jpg","86","","","","","","learn","SR",""
"","show_choice","8","61437","0.0-8.0","null","run_exp/static/images/Set 6_rs/112a.jpg","null","","","","","","learn","SR",""
"","html-keyboard-response","9","61943","0.0-9.0","null","<p></p>","null","","","","","","","",""
"","image","10","62748","0.0-10.0","802.6999999880791","run_exp/static/images/Set 6_rs/063a.jpg","86","","","","","","learn","SR",""
"","show_choice","11","63958","0.0-11.0","null","run_exp/static/images/Set 6_rs/063a.jpg","null","","","","","","learn","SR",""
"","html-keyboard-response","12","64463","0.0-12.0","null","<p></p>","null","","","","","","","",""
"","image","13","65228","0.0-13.0","761.8999999761581","run_exp/static/images/Set 6_rs/169a.jpg","78","","","","","","learn","SR",""
"","show_choice","14","66484","0.0-14.0","null","run_exp/static/images/Set 6_rs/169a.jpg","null","","","","","","learn","SR",""
"","html-keyboard-response","15","66985","0.0-15.0","null","<p></p>","null","","","","","","","",""
"","image","16","67639","0.0-16.0","650.8000000119209","run_exp/static/images/Set 6_rs/036a.jpg","86","","","","","","learn","SL",""
"","show_choice","17","68990","0.0-17.0","null","run_exp/static/images/Set 6_rs/036a.jpg","null","","","","","","learn","SL",""
"","html-keyboard-response","18","69503","0.0-18.0","null","<p></p>","null","","","","","","","",""
"","image","19","70785","0.0-19.0","1279.300000011921","run_exp/static/images/Set 6_rs/132a.jpg","86","","","","","","learn","SR",""
"","show_choice","20","71514","0.0-20.0","null","run_exp/static/images/Set 6_rs/132a.jpg","null","","","","","","learn","SR",""
"","html-keyboard-response","21","72029","0.0-21.0","null","<p></p>","null","","","","","","","",""
"","image","22","73293","0.0-22.0","1261.5","run_exp/static/images/Set 6_rs/167a.jpg","86","","","","","","learn","SL",""
"","show_choice","23","74038","0.0-23.0","null","run_exp/static/images/Set 6_rs/167a.jpg","null","","","","","","learn","SL",""
"","html-keyboard-response","24","74552","0.0-24.0","null","<p></p>","null","","","","","","","",""
"","image","25","75430","0.0-25.0","844.2000000476837","run_exp/static/images/Set 6_rs/025a.jpg","78","","","","","","learn","SL",""
"","show_choice","26","76587","0.0-26.0","null","run_exp/static/images/Set 6_rs/025a.jpg","null","","","","","","learn","SL",""
"","html-keyboard-response","27","77101","0.0-27.0","null","<p></p>","null","","","","","","","",""
"","image","28","78309","0.0-28.0","1205","run_exp/static/images/Set 6_rs/061a.jpg","78","","","","","","learn","SR",""
"","show_choice","29","79118","0.0-29.0","null","run_exp/static/images/Set 6_rs/061a.jpg","null","","","","","","learn","SR",""
"","html-keyboard-response","30","79633","0.0-30.0","null","<p></p>","null","","","","","","","",""
"","image","31","80729","0.0-31.0","1092.800000011921","run_exp/static/images/Set 6_rs/126a.jpg","78","","","","","","learn","SR",""
"","show_choice","32","81647","0.0-32.0","null","run_exp/static/images/Set 6_rs/126a.jpg","null","","","","","","learn","SR",""
"","html-keyboard-response","33","82163","0.0-33.0","null","<p></p>","null","","","","","","","",""
"","image","34","83364","0.0-34.0","1198.7000000476837","run_exp/static/images/Set 6_rs/152a.jpg","78","","","","","","learn","SR",""
"","show_choice","35","84180","0.0-35.0","null","run_exp/static/images/Set 6_rs/152a.jpg","null","","","","","","learn","SR",""
"","html-keyboard-response","36","84693","0.0-36.0","null","<p></p>","null","","","","","","","",""
"","image","37","85520","0.0-37.0","825.2999999523163","run_exp/static/images/Set 6_rs/131a.jpg","86","","","","","","learn","SR",""
"","show_choice","38","86699","0.0-38.0","null","run_exp/static/images/Set 6_rs/131a.jpg","null","","","","","","learn","SR",""
"","html-keyboard-response","39","87214","0.0-39.0","null","<p></p>","null","","","","","","","",""
"","image","40","88097","0.0-40.0","880.7000000476837","run_exp/static/images/Set 6_rs/187a.jpg","86","","","","","","learn","SR",""
"","show_choice","41","89230","0.0-41.0","null","run_exp/static/images/Set 6_rs/187a.jpg","null","","","","","","learn","SR",""
"","html-keyboard-response","42","89734","0.0-42.0","null","<p></p>","null","","","","","","","",""
"","image","43","90625","0.0-43.0","889","run_exp/static/images/Set 6_rs/122a.jpg","86","","","","","","learn","SR",""
"","show_choice","44","91747","0.0-44.0","null","run_exp/static/images/Set 6_rs/122a.jpg","null","","","","","","learn","SR",""
"","html-keyboard-response","45","92262","0.0-45.0","null","<p></p>","null","","","","","","","",""
"","image","46","93369","0.0-46.0","1105.199999988079","run_exp/static/images/Set 6_rs/066a.jpg","78","","","","","","learn","SL",""
"","show_choice","47","94273","0.0-47.0","null","run_exp/static/images/Set 6_rs/066a.jpg","null","","","","","","learn","SL",""
"","html-keyboard-response","48","94788","0.0-48.0","null","<p></p>","null","","","","","","","",""
"","image","49","95849","0.0-49.0","1057.699999988079","run_exp/static/images/Set 6_rs/154a.jpg","86","","","","","","learn","SR",""
"","show_choice","50","96806","0.0-50.0","null","run_exp/static/images/Set 6_rs/154a.jpg","null","","","","","","learn","SR",""
"","html-keyboard-response","51","97322","0.0-51.0","null","<p></p>","null","","","","","","","",""
"","image","52","98399","0.0-52.0","1075.300000011921","run_exp/static/images/Set 6_rs/071a.jpg","78","","","","","","learn","SL",""
"","show_choice","53","99339","0.0-53.0","null","run_exp/static/images/Set 6_rs/071a.jpg","null","","","","","","learn","SL",""
"","html-keyboard-response","54","99857","0.0-54.0","null","<p></p>","null","","","","","","","",""
"","image","55","100472","0.0-55.0","612.8999999761581","run_exp/static/images/Set 6_rs/073a.jpg","86","","","","","","learn","SL",""
"","show_choice","56","101871","0.0-56.0","null","run_exp/static/images/Set 6_rs/073a.jpg","null","","","","","","learn","SL",""
"","html-keyboard-response","57","102386","0.0-57.0","null","<p></p>","null","","","","","","","",""
"","image","58","102930","0.0-58.0","541.7999999523163","run_exp/static/images/Set 6_rs/006a.jpg","86","","","","","","learn","SL",""
"","show_choice","59","104400","0.0-59.0","null","run_exp/static/images/Set 6_rs/006a.jpg","null","","","","","","learn","SL",""
"","html-keyboard-response","60","104912","0.0-60.0","null","<p></p>","null","","","","","","","",""
"","image","61","105480","0.0-61.0","565.3999999761581","run_exp/static/images/Set 6_rs/150a.jpg","86","","","","","","learn","SR",""
"","show_choice","62","106927","0.0-62.0","null","run_exp/static/images/Set 6_rs/150a.jpg","null","","","","","","learn","SR",""
"","html-keyboard-response","63","107442","0.0-63.0","null","<p></p>","null","","","","","","","",""
"","image","64","108148","0.0-64.0","703.8000000119209","run_exp/static/images/Set 6_rs/007a.jpg","86","","","","","","learn","SR",""
"","show_choice","65","109455","0.0-65.0","null","run_exp/static/images/Set 6_rs/007a.jpg","null","","","","","","learn","SR",""
"","html-keyboard-response","66","109971","0.0-66.0","null","<p></p>","null","","","","","","","",""
"","image","67","110727","0.0-67.0","754.1000000238419","run_exp/static/images/Set 6_rs/016a.jpg","86","","","","","","learn","SL",""
"","show_choice","68","111981","0.0-68.0","null","run_exp/static/images/Set 6_rs/016a.jpg","null","","","","","","learn","SL",""
"","html-keyboard-response","69","112496","0.0-69.0","null","<p></p>","null","","","","","","","",""
"","image","70","113080","0.0-70.0","580.8999999761581","run_exp/static/images/Set 6_rs/166a.jpg","86","","","","","","learn","SR",""
"","show_choice","71","114511","0.0-71.0","null","run_exp/static/images/Set 6_rs/166a.jpg","null","","","","","","learn","SR",""
"","html-keyboard-response","72","115027","0.0-72.0","null","<p></p>","null","","","","","","","",""
"","image","73","115796","0.0-73.0","767.0999999642372","run_exp/static/images/Set 6_rs/129a.jpg","86","","","","","","learn","SL",""
"","show_choice","74","117039","0.0-74.0","null","run_exp/static/images/Set 6_rs/129a.jpg","null","","","","","","learn","SL",""
"","html-keyboard-response","75","117553","0.0-75.0","null","<p></p>","null","","","","","","","",""
"","image","76","118098","0.0-76.0","542.0999999642372","run_exp/static/images/Set 6_rs/024a.jpg","86","","","","","","learn","SR",""
"","show_choice","77","119563","0.0-77.0","null","run_exp/static/images/Set 6_rs/024a.jpg","null","","","","","","learn","SR",""
"","html-keyboard-response","78","120079","0.0-78.0","null","<p></p>","null","","","","","","","",""
"","image","79","120700","0.0-79.0","618.5999999642372","run_exp/static/images/Set 6_rs/079a.jpg","86","","","","","","learn","SL",""
"","show_choice","80","122083","0.0-80.0","null","run_exp/static/images/Set 6_rs/079a.jpg","null","","","","","","learn","SL",""
"","html-keyboard-response","81","122597","0.0-81.0","null","<p></p>","null","","","","","","","",""
"","image","82","123358","0.0-82.0","758.8000000119209","run_exp/static/images/Set 6_rs/089a.jpg","86","","","","","","learn","SL",""
"","show_choice","83","124611","0.0-83.0","null","run_exp/static/images/Set 6_rs/089a.jpg","null","","","","","","learn","SL",""
"","html-keyboard-response","84","125126","0.0-84.0","null","<p></p>","null","","","","","","","",""
"","image","85","125677","0.0-85.0","548.8000000119209","run_exp/static/images/Set 6_rs/014a.jpg","86","","","","","","learn","SL",""
"","show_choice","86","127139","0.0-86.0","null","run_exp/static/images/Set 6_rs/014a.jpg","null","","","","","","learn","SL",""
"","html-keyboard-response","87","127654","0.0-87.0","null","<p></p>","null","","","","","","","",""
"","image","88","128198","0.0-88.0","541.9000000357628","run_exp/static/images/Set 6_rs/008a.jpg","86","","","","","","learn","SL",""
"","show_choice","89","129666","0.0-89.0","null","run_exp/static/images/Set 6_rs/008a.jpg","null","","","","","","learn","SL",""
"","html-keyboard-response","90","130182","0.0-90.0","null","<p></p>","null","","","","","","","",""
"","image","91","131013","0.0-91.0","828","run_exp/static/images/Set 6_rs/091a.jpg","86","","","","","","learn","SL",""
"","show_choice","92","132193","0.0-92.0","null","run_exp/static/images/Set 6_rs/091a.jpg","null","","","","","","learn","SL",""
"","html-keyboard-response","93","132704","0.0-93.0","null","<p></p>","null","","","","","","","",""
"","image","94","133746","0.0-94.0","1039.3999999761581","run_exp/static/images/Set 6_rs/121a.jpg","86","","","","","","learn","SR",""
"","show_choice","95","134716","0.0-95.0","null","run_exp/static/images/Set 6_rs/121a.jpg","null","","","","","","learn","SR",""
"","html-keyboard-response","96","135231","0.0-96.0","null","<p></p>","null","","","","","","","",""
"","image","97","136772","0.0-97.0","1537.8999999761581","run_exp/static/images/Set 6_rs/168a.jpg","78","","","","","","learn","SL",""
"","show_choice","98","137244","0.0-98.0","null","run_exp/static/images/Set 6_rs/168a.jpg","null","","","","","","learn","SL",""
"","html-keyboard-response","99","137758","0.0-99.0","null","<p></p>","null","","","","","","","",""
"","image","100","138581","0.0-100.0","820.4000000357628","run_exp/static/images/Set 6_rs/088a.jpg","86","","","","","","learn","SR",""
"","show_choice","101","139777","0.0-101.0","null","run_exp/static/images/Set 6_rs/088a.jpg","null","","","","","","learn","SR",""
"","html-keyboard-response","102","140292","0.0-102.0","null","<p></p>","null","","","","","","","",""
"","image","103","141013","0.0-103.0","717.9000000357628","run_exp/static/images/Set 6_rs/178a.jpg","78","","","","","","learn","SR",""
"","show_choice","104","142298","0.0-104.0","null","run_exp/static/images/Set 6_rs/178a.jpg","null","","","","","","learn","SR",""
"","html-keyboard-response","105","142811","0.0-105.0","null","<p></p>","null","","","","","","","",""
"","image","106","143434","0.0-106.0","620.3000000119209","run_exp/static/images/Set 6_rs/023a.jpg","86","","","","","","learn","SR",""
"","show_choice","107","144819","0.0-107.0","null","run_exp/static/images/Set 6_rs/023a.jpg","null","","","","","","learn","SR",""
"","html-keyboard-response","108","145330","0.0-108.0","null","<p></p>","null","","","","","","","",""
"","image","109","146510","0.0-109.0","1177.2999999523163","run_exp/static/images/Set 6_rs/191a.jpg","78","","","","","","learn","SL",""
"","show_choice","110","147340","0.0-110.0","null","run_exp/static/images/Set 6_rs/191a.jpg","null","","","","","","learn","SL",""
"","html-keyboard-response","111","147855","0.0-111.0","null","<p></p>","null","","","","","","","",""
"","image","112","148665","0.0-112.0","806.6999999880791","run_exp/static/images/Set 6_rs/095a.jpg","86","","","","","","learn","SL",""
"","show_choice","113","149867","0.0-113.0","null","run_exp/static/images/Set 6_rs/095a.jpg","null","","","","","","learn","SL",""
"","html-keyboard-response","114","150383","0.0-114.0","null","<p></p>","null","","","","","","","",""
"","image","115","151688","0.0-115.0","1303.199999988079","run_exp/static/images/Set 6_rs/055a.jpg","86","","","","","","learn","SL",""
"","show_choice","116","152386","0.0-116.0","null","run_exp/static/images/Set 6_rs/055a.jpg","null","","","","","","learn","SL",""
"","html-keyboard-response","117","152902","0.0-117.0","null","<p></p>","null","","","","","","","",""
"","image","118","153588","0.0-118.0","682.8000000119209","run_exp/static/images/Set 6_rs/075a.jpg","86","","","","","","learn","SR",""
"","show_choice","119","154909","0.0-119.0","null","run_exp/static/images/Set 6_rs/075a.jpg","null","","","","","","learn","SR",""
"","html-keyboard-response","120","155425","0.0-120.0","null","<p></p>","null","","","","","","","",""
"","image","121","156259","0.0-121.0","831.6000000238419","run_exp/static/images/Set 6_rs/186a.jpg","86","","","","","","learn","SR",""
"","show_choice","122","157437","0.0-122.0","null","run_exp/static/images/Set 6_rs/186a.jpg","null","","","","","","learn","SR",""
"","html-keyboard-response","123","157951","0.0-123.0","null","<p></p>","null","","","","","","","",""
"","image","124","159097","0.0-124.0","1144.3999999761581","run_exp/static/images/Set 6_rs/116a.jpg","86","","","","","","learn","SL",""
"","show_choice","125","159966","0.0-125.0","null","run_exp/static/images/Set 6_rs/116a.jpg","null","","","","","","learn","SL",""
"","html-keyboard-response","126","160481","0.0-126.0","null","<p></p>","null","","","","","","","",""
"","image","127","161713","0.0-127.0","1229.7000000476837","run_exp/static/images/Set 6_rs/085a.jpg","78","","","","","","learn","SL",""
"","show_choice","128","162495","0.0-128.0","null","run_exp/static/images/Set 6_rs/085a.jpg","null","","","","","","learn","SL",""
"","html-keyboard-response","129","163011","0.0-129.0","null","<p></p>","null","","","","","","","",""
"","image","130","163867","0.0-130.0","854.1999999880791","run_exp/static/images/Set 6_rs/181a.jpg","78","","","","","","learn","SL",""
"","show_choice","131","165025","0.0-131.0","null","run_exp/static/images/Set 6_rs/181a.jpg","null","","","","","","learn","SL",""
"","html-keyboard-response","132","165537","0.0-132.0","null","<p></p>","null","","","","","","","",""
"","image","133","166513","0.0-133.0","973.6999999880791","run_exp/static/images/Set 6_rs/074a.jpg","78","","","","","","learn","SL",""
"","show_choice","134","167552","0.0-134.0","null","run_exp/static/images/Set 6_rs/074a.jpg","null","","","","","","learn","SL",""
"","html-keyboard-response","135","168065","0.0-135.0","null","<p></p>","null","","","","","","","",""
"","image","136","169471","0.0-136.0","1403.699999988079","run_exp/static/images/Set 6_rs/141a.jpg","78","","","","","","learn","SR",""
"","show_choice","137","170076","0.0-137.0","null","run_exp/static/images/Set 6_rs/141a.jpg","null","","","","","","learn","SR",""
"","html-keyboard-response","138","170592","0.0-138.0","null","<p></p>","null","","","","","","","",""
"","image","139","171415","0.0-139.0","820.3999999761581","run_exp/static/images/Set 6_rs/076a.jpg","78","","","","","","learn","SR",""
"","show_choice","140","172608","0.0-140.0","null","run_exp/static/images/Set 6_rs/076a.jpg","null","","","","","","learn","SR",""
"","html-keyboard-response","141","173123","0.0-141.0","null","<p></p>","null","","","","","","","",""
"","image","142","173934","0.0-142.0","808.7999999523163","run_exp/static/images/Set 6_rs/117a.jpg","86","","","","","","learn","SL",""
"","show_choice","143","175132","0.0-143.0","null","run_exp/static/images/Set 6_rs/117a.jpg","null","","","","","","learn","SL",""
"","html-keyboard-response","144","175646","0.0-144.0","null","<p></p>","null","","","","","","","",""
"","image","145","176454","0.0-145.0","806.1999999880791","run_exp/static/images/Set 6_rs/134a.jpg","86","","","","","","learn","SR",""
"","show_choice","146","177659","0.0-146.0","null","run_exp/static/images/Set 6_rs/134a.jpg","null","","","","","","learn","SR",""
"","html-keyboard-response","147","178161","0.0-147.0","null","<p></p>","null","","","","","","","",""
"","image","148","179160","0.0-148.0","996.5","run_exp/static/images/Set 6_rs/064a.jpg","78","","","","","","learn","SR",""
"","show_choice","149","180173","0.0-149.0","null","run_exp/static/images/Set 6_rs/064a.jpg","null","","","","","","learn","SR",""
"","html-keyboard-response","150","180689","0.0-150.0","null","<p></p>","null","","","","","","","",""
"","image","151","181676","0.0-151.0","984.6000000238419","run_exp/static/images/Set 6_rs/144a.jpg","86","","","","","","learn","SL",""
"","show_choice","152","182693","0.0-152.0","null","run_exp/static/images/Set 6_rs/144a.jpg","null","","","","","","learn","SL",""
"","html-keyboard-response","153","183196","0.0-153.0","null","<p></p>","null","","","","","","","",""
"","image","154","184012","0.0-154.0","814.1999999880791","run_exp/static/images/Set 6_rs/057a.jpg","86","","","","","","learn","SL",""
"","show_choice","155","185204","0.0-155.0","null","run_exp/static/images/Set 6_rs/057a.jpg","null","","","","","","learn","SL",""
"","html-keyboard-response","156","185712","0.0-156.0","null","<p></p>","null","","","","","","","",""
"","image","157","187051","0.0-157.0","1337","run_exp/static/images/Set 6_rs/017a.jpg","86","","","","","","learn","SL",""
"","show_choice","158","187724","0.0-158.0","null","run_exp/static/images/Set 6_rs/017a.jpg","null","","","","","","learn","SL",""
"","html-keyboard-response","159","188240","0.0-159.0","null","<p></p>","null","","","","","","","",""
"","image","160","189283","0.0-160.0","1041.300000011921","run_exp/static/images/Set 6_rs/012a.jpg","86","","","","","","learn","SR",""
"","show_choice","161","190256","0.0-161.0","null","run_exp/static/images/Set 6_rs/012a.jpg","null","","","","","","learn","SR",""
"","html-keyboard-response","162","190758","0.0-162.0","null","<p></p>","null","","","","","","","",""
"","image","163","191682","0.0-163.0","921.5","run_exp/static/images/Set 6_rs/010a.jpg","86","","","","","","learn","SR",""
"","show_choice","164","192770","0.0-164.0","null","run_exp/static/images/Set 6_rs/010a.jpg","null","","","","","","learn","SR",""
"","html-keyboard-response","165","193286","0.0-165.0","null","<p></p>","null","","","","","","","",""
"","image","166","194242","0.0-166.0","952.8999999761581","run_exp/static/images/Set 6_rs/062a.jpg","86","","","","","","learn","SL",""
"","show_choice","167","195303","0.0-167.0","null","run_exp/static/images/Set 6_rs/062a.jpg","null","","","","","","learn","SL",""
"","html-keyboard-response","168","195817","0.0-168.0","null","<p></p>","null","","","","","","","",""
"","image","169","196644","0.0-169.0","824.2000000476837","run_exp/static/images/Set 6_rs/111a.jpg","86","","","","","","learn","SL",""
"","show_choice","170","197833","0.0-170.0","null","run_exp/static/images/Set 6_rs/111a.jpg","null","","","","","","learn","SL",""
"","html-keyboard-response","171","198335","0.0-171.0","null","<p></p>","null","","","","","","","",""
"","image","172","199036","0.0-172.0","699","run_exp/static/images/Set 6_rs/172a.jpg","86","","","","","","learn","SR",""
"","show_choice","173","200350","0.0-173.0","null","run_exp/static/images/Set 6_rs/172a.jpg","null","","","","","","learn","SR",""
"","html-keyboard-response","174","200857","0.0-174.0","null","<p></p>","null","","","","","","","",""
"","image","175","201763","0.0-175.0","903.5999999642372","run_exp/static/images/Set 6_rs/050a.jpg","86","","","","","","learn","SL",""
"","show_choice","176","202875","0.0-176.0","null","run_exp/static/images/Set 6_rs/050a.jpg","null","","","","","","learn","SL",""
"","html-keyboard-response","177","203388","0.0-177.0","null","<p></p>","null","","","","","","","",""
"","image","178","204232","0.0-178.0","841.8999999761581","run_exp/static/images/Set 6_rs/138a.jpg","78","","","","","","learn","SL",""
"","show_choice","179","205394","0.0-179.0","null","run_exp/static/images/Set 6_rs/138a.jpg","null","","","","","","learn","SL",""
"","html-keyboard-response","180","205905","0.0-180.0","null","<p></p>","null","","","","","","","",""
"","image","181","207266","0.0-181.0","1358","run_exp/static/images/Set 6_rs/045a.jpg","86","","","","","","learn","SR",""
"","show_choice","182","207916","0.0-182.0","null","run_exp/static/images/Set 6_rs/045a.jpg","null","","","","","","learn","SR",""
"","html-keyboard-response","183","208430","0.0-183.0","null","<p></p>","null","","","","","","","",""
"","image","184","209287","0.0-184.0","851.5999999642372","run_exp/static/images/Set 6_rs/070a.jpg","86","","","","","","learn","SR",""
"","show_choice","185","210446","0.0-185.0","null","run_exp/static/images/Set 6_rs/070a.jpg","null","","","","","","learn","SR",""
"","html-keyboard-response","186","210960","0.0-186.0","null","<p></p>","null","","","","","","","",""
"","image","187","211857","0.0-187.0","895.1000000238419","run_exp/static/images/Set 6_rs/123a.jpg","78","","","","","","learn","SL",""
"","show_choice","188","212977","0.0-188.0","null","run_exp/static/images/Set 6_rs/123a.jpg","null","","","","","","learn","SL",""
"","html-keyboard-response","189","213487","0.0-189.0","null","<p></p>","null","","","","","","","",""
"","image","190","214152","0.0-190.0","662.3999999761581","run_exp/static/images/Set 6_rs/019a.jpg","86","","","","","","learn","SL",""
"","show_choice","191","215498","0.0-191.0","null","run_exp/static/images/Set 6_rs/019a.jpg","null","","","","","","learn","SL",""
"","html-keyboard-response","192","216012","0.0-192.0","null","<p></p>","null","","","","","","","",""
"","image","193","216726","0.0-193.0","711.3999999761581","run_exp/static/images/Set 6_rs/177a.jpg","78","","","","","","learn","SR",""
"","show_choice","194","218017","0.0-194.0","null","run_exp/static/images/Set 6_rs/177a.jpg","null","","","","","","learn","SR",""
"","html-keyboard-response","195","218534","0.0-195.0","null","<p></p>","null","","","","","","","",""
"","test_intro","196","256746","0.0-196.0","null","run_exp/static/audio/clip_2_memory.m4a","null","","","","","<div class='center'><p>Now, let’s see how much you remember about the items you just saw.  For each item, you need to indicate if it was <b>old</b> by pressing the <b>v</b> key, <b>similar</b> by pressing the <b>b</b> key, or <b>new</b> by pressing the <b>n</b> key.</p><p>Old refers to an item that you saw before in the indoor/outdoor game that you just played, new refers to an item you have <b>not</b> seen before within the indoor/outdoor game, and similar refers to an item that is similar to an item you’ve seen before but is not exactly the same. </p><p>Before we begin, let’s go over some brief demonstrations to make sure you understand.</p></div>","","",""
"","html-keyboard-response","197","259270","0.0-197.0","2520.800000011921","<div class='center'><p>Now, let’s see how much you remember about the items you just saw.  For each item, you need to indicate if it was <b>old</b> by pressing the <b>v</b> key, <b>similar</b> by pressing the <b>b</b> key, or <b>new</b> by pressing the <b>n</b> key.</p><p>Old refers to an item that you saw before in the indoor/outdoor game that you just played, new refers to an item you have <b>not</b> seen before within the indoor/outdoor game, and similar refers to an item that is similar to an item you’ve seen before but is not exactly the same. </p><p>Before we begin, let’s go over some brief demonstrations to make sure you understand.</p><div><p><b>[Press the space bar to continue]</b></p></div>","32","","","","","","","",""
"","items","198","266776","0.0-198.0","null","run_exp/static/audio/clip_3_items.m4a","null","","","","","","","",""
"","mop","199","271291","0.0-199.0","null","run_exp/static/audio/clip_4_mop.m4a","null","","","","","","","",""
"","baseball","200","274809","0.0-200.0","null","run_exp/static/audio/clip_5_baseball.m4a","null","","","","","","","",""
"","trumpet","201","278322","0.0-201.0","null","run_exp/static/audio/clip_6_trumpet.m4a","null","","","","","","","",""
"","gummies","202","281835","0.0-202.0","null","run_exp/static/audio/clip_7_gummies.m4a","null","","","","","","","",""
"","osn","203","286341","0.0-203.0","null","run_exp/static/audio/clip_8_osn.m4a","null","","","","","","","",""
"","old_1","204","292847","0.0-204.0","null","run_exp/static/audio/clip_9_old_trumpet.m4a","null","","","","","","","",""
"","new_1","205","300356","0.0-205.0","null","run_exp/static/audio/clip_10_new_balloon.m4a","null","","","","","","","",""
"","similar_1a","206","304866","0.0-206.0","null","run_exp/static/audio/clip_11a_similar_mop.m4a","null","","","","","","","",""
"","similar_1b","207","311381","0.0-207.0","null","run_exp/static/audio/clip_11b_similar_mop.m4a","null","","","","","","","",""
"","new_2","208","314890","0.0-208.0","null","run_exp/static/audio/clip_12_new_stoplight.m4a","null","","","","","","","",""
"","old_2","209","318395","0.0-209.0","null","run_exp/static/audio/clip_13_old_baseball.m4a","null","","","","","","","",""
"","similar_2a","210","321907","0.0-210.0","null","run_exp/static/audio/clip_14a_similar_gummies.m4a","null","","","","","","","",""
"","similar_2b","211","329419","0.0-211.0","null","run_exp/static/audio/clip_14b_similar_gummies.m4a","null","","","","","","","",""
"","practice","212","371543","0.0-212.0","null","run_exp/static/audio/clip_15_practice.m4a","null","","","","","<div class='center'><p>Let’s practice a little to make sure you understand the difference between new, similar, and old. Let’s say you saw these three items in the indoor/outdoor game.</p><p> Try your best to remember these images because you’ll soon be tested on them in a practice game. In the practice game, you’ll be shown images and you’ll have to say if they are old (one of the three images belows), similar (similar to one of the images below but not exactly the same), or new (are not one of the images below nor similar to them).</p><p>Once you press the space bar you’ll be shown these images again but one at time. Then you’ll begin the practice game.</p><p><img src='run_exp/static/images/tutorial/test/three_indoor_outdoor.png' height='300'></p></div>","","",""
"","html-keyboard-response","213","372116","0.0-213.0","569.8000000119209","<div class='center'><p>Let’s practice a little to make sure you understand the difference between new, similar, and old. Let’s say you saw these three items in the indoor/outdoor game.</p><p> Try your best to remember these images because you’ll soon be tested on them in a practice game. In the practice game, you’ll be shown images and you’ll have to say if they are old (one of the three images belows), similar (similar to one of the images below but not exactly the same), or new (are not one of the images below nor similar to them).</p><p>Once you press the space bar you’ll be shown these images again but one at time. Then you’ll begin the practice game.</p><p><img src='run_exp/static/images/tutorial/test/three_indoor_outdoor.png' height='300'></p><div><p><b>[Press the space bar to continue]</b></p></div>","32","","","","","","","",""
"","planet","214","374126","0.0-214.0","null","run_exp/static/images/tutorial/test/008a.jpg","null","","","","","","","",""
"","boot","215","376130","0.0-215.0","null","run_exp/static/images/tutorial/test/011a.jpg","null","","","","","","","",""
"","lemon","216","378134","0.0-216.0","null","run_exp/static/images/tutorial/test/018a.jpg","null","","","","","","","",""
"","practice_q1","217","383321","0.0-217.0","5181.599999964237","run_exp/static/audio/clip_16_practice_question.m4a","78","","","","","","","",""
"","correct","218","385245","0.0-218.0-0.0","null","run_exp/static/audio/clip_17_correct.m4a","null","","","","","<div class='center'><p>That's correct!</p></div>","","",""
"","html-keyboard-response","219","386758","0.0-218.0-1.0","1510.699999988079","<div class='center'><p>That's correct!</p><div><p><b>[Press the space bar to continue]</b></p></div>","32","","","","","","","",""
"","practice_q2","220","388125","0.0-218.0-2.0","1364.5","run_exp/static/audio/clip_16_practice_question.m4a","86","","","","","","","",""
"","correct","221","390026","0.0-219.0-0.0","null","run_exp/static/audio/clip_17_correct.m4a","null","","","","","<div class='center'><p>That's correct!</p></div>","","",""
"","html-keyboard-response","222","390556","0.0-219.0-1.0","528.1999999880791","<div class='center'><p>That's correct!</p><div><p><b>[Press the space bar to continue]</b></p></div>","32","","","","","","","",""
"","practice_q3","223","391858","0.0-219.0-2.0","1297.7000000476837","run_exp/static/audio/clip_16_practice_question.m4a","86","","","","","","","",""
"","incorrect_q3","224","394606","0.0-220.0-0.0","null","run_exp/static/audio/clip_20_incorrect_similar.m4a","null","","","","","<div class='center'><p>That’s incorrect. It’s similar.</p><p><img src='run_exp/static/images/tutorial/test/boot_comparison.png' height='300'></p></div>","","",""
"","html-keyboard-response","225","397136","0.0-220.0-1.0","2527.800000011921","<div class='center'><p>That’s incorrect. It’s similar.</p><p><img src='run_exp/static/images/tutorial/test/boot_comparison.png' height='300'></p><div><p><b>[Press the space bar to continue]</b></p></div>","32","","","","","","","",""
"","repeat","226","401906","0.0-221.0-0.0","null","run_exp/static/audio/clip_21_practice_again.m4a","null","","","","","<div class='center'><p>Oops. you missed at least one of these questions. Let's try practicing again. </p></div>","","",""
"","html-keyboard-response","227","403424","0.0-221.0-1.0","1516.300000011921","<div class='center'><p>Oops. you missed at least one of these questions. Let's try practicing again. </p><div><p><b>[Press the space bar to continue]</b></p></div>","32","","","","","","","",""
"","practice_q1","228","405662","0.0-221.0-2.0","2235.800000011921","run_exp/static/audio/clip_16_practice_question.m4a","78","","","","","","","",""
"","correct","229","407565","0.0-222.0-0.0","null","run_exp/static/audio/clip_17_correct.m4a","null","","","","","<div class='center'><p>That's correct!</p></div>","","",""
"","html-keyboard-response","230","408353","0.0-222.0-1.0","786","<div class='center'><p>That's correct!</p><div><p><b>[Press the space bar to continue]</b></p></div>","32","","","","","","","",""
"","practice_q2","231","409886","0.0-222.0-2.0","1528.8999999761581","run_exp/static/audio/clip_16_practice_question.m4a","86","","","","","","","",""
"","correct","232","411785","0.0-223.0-0.0","null","run_exp/static/audio/clip_17_correct.m4a","null","","","","","<div class='center'><p>That's correct!</p></div>","","",""
"","html-keyboard-response","233","412183","0.0-223.0-1.0","394.80000001192093","<div class='center'><p>That's correct!</p><div><p><b>[Press the space bar to continue]</b></p></div>","32","","","","","","","",""
"","practice_q3","234","413323","0.0-223.0-2.0","1136.199999988079","run_exp/static/audio/clip_16_practice_question.m4a","66","","","","","","","",""
"","correct","235","415386","0.0-224.0-0.0","null","run_exp/static/audio/clip_17_correct.m4a","null","","","","","<div class='center'><p>That's correct!</p></div>","","",""
"","html-keyboard-response","236","415845","0.0-224.0-1.0","456.4000000357628","<div class='center'><p>That's correct!</p><div><p><b>[Press the space bar to continue]</b></p></div>","32","","","","","","","",""
"","begin_text","237","434326","0.0-225.0-0.0","null","run_exp/static/audio/clip_22_begin_test.m4a","null","","","","","<div class='center'><p>On to the real game where we’ll test your memory of items from the indoor/outdoor game. For each item, you need to indicate if the item is <b>old</b> by pressing the <b>v</b> key, <b>similar</b> by pressing the <b>b</b> key, or <b>new</b> by pressing the <b>n</b> key. </p></div>","","",""
"","html-keyboard-response","238","435414","0.0-225.0-1.0","1085.199999988079","<div class='center'><p>On to the real game where we’ll test your memory of items from the indoor/outdoor game. For each item, you need to indicate if the item is <b>old</b> by pressing the <b>v</b> key, <b>similar</b> by pressing the <b>b</b> key, or <b>new</b> by pressing the <b>n</b> key. </p><div><p><b>[Press the space bar to continue]</b></p></div>","32","","","","","","","",""
"","image","239","437429","0.0-226.0-0.0","2013.6000000238419","run_exp/static/images/Set 6_rs/050b.jpg","86","","","","","","test","TL","3"
"","show_choice","240","437942","0.0-226.0-1.0","null","run_exp/static/images/Set 6_rs/050b.jpg","null","","","","","","test","TL",""
"","html-keyboard-response","241","438446","0.0-226.0-2.0","null","<p></p>","null","","","","","","","",""
"","image","242","439662","0.0-227.0-0.0","1213.699999988079","run_exp/static/images/Set 6_rs/133a.jpg","78","","","","","","test","TF","4"
"","show_choice","243","440169","0.0-227.0-1.0","null","run_exp/static/images/Set 6_rs/133a.jpg","null","","","","","","test","TF",""
"","html-keyboard-response","244","440672","0.0-227.0-2.0","null","<p></p>","null","","","","","","","",""
"","image","245","441643","0.0-228.0-0.0","969.1999999880791","run_exp/static/images/Set 6_rs/170a.jpg","78","","","","","","test","TF","2"
"","show_choice","246","442156","0.0-228.0-1.0","null","run_exp/static/images/Set 6_rs/170a.jpg","null","","","","","","test","TF",""
"","html-keyboard-response","247","442659","0.0-228.0-2.0","null","<p></p>","null","","","","","","","",""
"","image","248","445674","0.0-229.0-0.0","null","run_exp/static/images/Set 6_rs/126a.jpg","null","","","","","","test","TR","2"
"","show_choice","249","446197","0.0-229.0-1.0","null","run_exp/static/images/Set 6_rs/126a.jpg","null","","","","","","test","TR",""
"","html-keyboard-response","250","446702","0.0-229.0-2.0","null","<p></p>","null","","","","","","","",""
"","image","251","447645","0.0-230.0-0.0","941.8000000119209","run_exp/static/images/Set 6_rs/085b.jpg","86","","","","","","test","TL","1"
"","show_choice","252","448153","0.0-230.0-1.0","null","run_exp/static/images/Set 6_rs/085b.jpg","null","","","","","","test","TL",""
"","html-keyboard-response","253","448657","0.0-230.0-2.0","null","<p></p>","null","","","","","","","",""
"","image","254","449697","0.0-231.0-0.0","1037.5","run_exp/static/images/Set 6_rs/070a.jpg","86","","","","","","test","TR","2"
"","show_choice","255","450204","0.0-231.0-1.0","null","run_exp/static/images/Set 6_rs/070a.jpg","null","","","","","","test","TR",""
"","html-keyboard-response","256","450707","0.0-231.0-2.0","null","<p></p>","null","","","","","","","",""
"","image","257","453165","0.0-232.0-0.0","2455.5","run_exp/static/images/Set 6_rs/077a.jpg","78","","","","","","test","TF","3"
"","show_choice","258","453681","0.0-232.0-1.0","null","run_exp/static/images/Set 6_rs/077a.jpg","null","","","","","","test","TF",""
"","html-keyboard-response","259","454189","0.0-232.0-2.0","null","<p></p>","null","","","","","","","",""
"","image","260","455425","0.0-233.0-0.0","1232.6000000238419","run_exp/static/images/Set 6_rs/141a.jpg","86","","","","","","test","TR","2"
"","show_choice","261","455938","0.0-233.0-1.0","null","run_exp/static/images/Set 6_rs/141a.jpg","null","","","","","","test","TR",""
"","html-keyboard-response","262","456454","0.0-233.0-2.0","null","<p></p>","null","","","","","","","",""
"","image","263","457532","0.0-234.0-0.0","1075.2999999523163","run_exp/static/images/Set 6_rs/131a.jpg","86","","","","","","test","TR","5"
"","show_choice","264","458043","0.0-234.0-1.0","null","run_exp/static/images/Set 6_rs/131a.jpg","null","","","","","","test","TR",""
"","html-keyboard-response","265","458559","0.0-234.0-2.0","null","<p></p>","null","","","","","","","",""
"","image","266","459654","0.0-235.0-0.0","1092.4000000357628","run_exp/static/images/Set 6_rs/071b.jpg","66","","","","","","test","TL","4"
"","show_choice","267","460161","0.0-235.0-1.0","null","run_exp/static/images/Set 6_rs/071b.jpg","null","","","","","","test","TL",""
"","html-keyboard-response","268","460678","0.0-235.0-2.0","null","<p></p>","null","","","","","","","",""
"","image","269","461800","0.0-236.0-0.0","1120","run_exp/static/images/Set 6_rs/140a.jpg","78","","","","","","test","TF","1"
"","show_choice","270","462305","0.0-236.0-1.0","null","run_exp/static/images/Set 6_rs/140a.jpg","null","","","","","","test","TF",""
"","html-keyboard-response","271","462818","0.0-236.0-2.0","null","<p></p>","null","","","","","","","",""
"","image","272","464061","0.0-237.0-0.0","1240","run_exp/static/images/Set 6_rs/005a.jpg","78","","","","","","test","TF","5"
"","show_choice","273","464570","0.0-237.0-1.0","null","run_exp/static/images/Set 6_rs/005a.jpg","null","","","","","","test","TF",""
"","html-keyboard-response","274","465084","0.0-237.0-2.0","null","<p></p>","null","","","","","","","",""
"","image","275","468097","0.0-238.0-0.0","null","run_exp/static/images/Set 6_rs/154a.jpg","null","","","","","","test","TR","3"
"","show_choice","276","468599","0.0-238.0-1.0","null","run_exp/static/images/Set 6_rs/154a.jpg","null","","","","","","test","TR",""
"","html-keyboard-response","277","469114","0.0-238.0-2.0","null","<p></p>","null","","","","","","","",""
"","image","278","472129","0.0-239.0-0.0","null","run_exp/static/images/Set 6_rs/150a.jpg","null","","","","","","test","TR","1"
"","show_choice","279","472634","0.0-239.0-1.0","null","run_exp/static/images/Set 6_rs/150a.jpg","null","","","","","","test","TR",""
"","html-keyboard-response","280","473139","0.0-239.0-2.0","null","<p></p>","null","","","","","","","",""
"","image","281","474010","0.0-240.0-0.0","869.1000000238419","run_exp/static/images/Set 6_rs/019b.jpg","86","","","","","","test","TL","2"
"","show_choice","282","474525","0.0-240.0-1.0","null","run_exp/static/images/Set 6_rs/019b.jpg","null","","","","","","test","TL",""
"","html-keyboard-response","283","475030","0.0-240.0-2.0","null","<p></p>","null","","","","","","","",""
"","image","284","476024","0.0-241.0-0.0","991.5","run_exp/static/images/Set 6_rs/025b.jpg","86","","","","","","test","TL","5"
"","show_choice","285","476532","0.0-241.0-1.0","null","run_exp/static/images/Set 6_rs/025b.jpg","null","","","","","","test","TL",""
"","html-keyboard-response","286","477037","0.0-241.0-2.0","null","<p></p>","null","","","","","","","",""
"","image","287","478187","0.0-242.0-0.0","1147.5","run_exp/static/images/Set 6_rs/061a.jpg","78","","","","","","test","TR","5"
"","show_choice","288","478691","0.0-242.0-1.0","null","run_exp/static/images/Set 6_rs/061a.jpg","null","","","","","","test","TR",""
"","html-keyboard-response","289","479195","0.0-242.0-2.0","null","<p></p>","null","","","","","","","",""
"","image","290","480364","0.0-243.0-0.0","1166.3999999761581","run_exp/static/images/Set 6_rs/001a.jpg","78","","","","","","test","TF","1"
"","show_choice","291","480870","0.0-243.0-1.0","null","run_exp/static/images/Set 6_rs/001a.jpg","null","","","","","","test","TF",""
"","html-keyboard-response","292","481376","0.0-243.0-2.0","null","<p></p>","null","","","","","","","",""
"","image","293","482287","0.0-244.0-0.0","907.8999999761581","run_exp/static/images/Set 6_rs/047a.jpg","78","","","","","","test","TF","3"
"","show_choice","294","482792","0.0-244.0-1.0","null","run_exp/static/images/Set 6_rs/047a.jpg","null","","","","","","test","TF",""
"","html-keyboard-response","295","483294","0.0-244.0-2.0","null","<p></p>","null","","","","","","","",""
"","image","296","484497","0.0-245.0-0.0","1200.9000000357628","run_exp/static/images/Set 6_rs/178a.jpg","86","","","","","","test","TR","3"
"","show_choice","297","485010","0.0-245.0-1.0","null","run_exp/static/images/Set 6_rs/178a.jpg","null","","","","","","test","TR",""
"","html-keyboard-response","298","485518","0.0-245.0-2.0","null","<p></p>","null","","","","","","","",""
"","image","299","486664","0.0-246.0-0.0","1144","run_exp/static/images/Set 6_rs/089b.jpg","66","","","","","","test","TL","4"
"","show_choice","300","487174","0.0-246.0-1.0","null","run_exp/static/images/Set 6_rs/089b.jpg","null","","","","","","test","TL",""
"","html-keyboard-response","301","487681","0.0-246.0-2.0","null","<p></p>","null","","","","","","","",""
"","image","302","489148","0.0-247.0-0.0","1464.6000000238419","run_exp/static/images/Set 6_rs/011a.jpg","66","","","","","","test","TF","3"
"","show_choice","303","489651","0.0-247.0-1.0","null","run_exp/static/images/Set 6_rs/011a.jpg","null","","","","","","test","TF",""
"","html-keyboard-response","304","490157","0.0-247.0-2.0","null","<p></p>","null","","","","","","","",""
"","image","305","491246","0.0-248.0-0.0","1086.8999999761581","run_exp/static/images/Set 6_rs/017b.jpg","86","","","","","","test","TL","3"
"","show_choice","306","491752","0.0-248.0-1.0","null","run_exp/static/images/Set 6_rs/017b.jpg","null","","","","","","test","TL",""
"","html-keyboard-response","307","492256","0.0-248.0-2.0","null","<p></p>","null","","","","","","","",""
"","image","308","493628","0.0-249.0-0.0","1370.2000000476837","run_exp/static/images/Set 6_rs/111b.jpg","86","","","","","","test","TL","3"
"","show_choice","309","494138","0.0-249.0-1.0","null","run_exp/static/images/Set 6_rs/111b.jpg","null","","","","","","test","TL",""
"","html-keyboard-response","310","494642","0.0-249.0-2.0","null","<p></p>","null","","","","","","","",""
"","image","311","495700","0.0-250.0-0.0","1055.3999999761581","run_exp/static/images/Set 6_rs/122a.jpg","86","","","","","","test","TR","5"
"","show_choice","312","496214","0.0-250.0-1.0","null","run_exp/static/images/Set 6_rs/122a.jpg","null","","","","","","test","TR",""
"","html-keyboard-response","313","496717","0.0-250.0-2.0","null","<p></p>","null","","","","","","","",""
"","image","314","497785","0.0-251.0-0.0","1065.5","run_exp/static/images/Set 6_rs/023a.jpg","86","","","","","","test","TR","3"
"","show_choice","315","498297","0.0-251.0-1.0","null","run_exp/static/images/Set 6_rs/023a.jpg","null","","","","","","test","TR",""
"","html-keyboard-response","316","498814","0.0-251.0-2.0","null","<p></p>","null","","","","","","","",""
"","image","317","499855","0.0-252.0-0.0","1038.800000011921","run_exp/static/images/Set 6_rs/118a.jpg","78","","","","","","test","TF","5"
"","show_choice","318","500359","0.0-252.0-1.0","null","run_exp/static/images/Set 6_rs/118a.jpg","null","","","","","","test","TF",""
"","html-keyboard-response","319","500874","0.0-252.0-2.0","null","<p></p>","null","","","","","","","",""
"","image","320","501970","0.0-253.0-0.0","1093.300000011921","run_exp/static/images/Set 6_rs/097a.jpg","78","","","","","","test","TF","5"
"","show_choice","321","502482","0.0-253.0-1.0","null","run_exp/static/images/Set 6_rs/097a.jpg","null","","","","","","test","TF",""
"","html-keyboard-response","322","502996","0.0-253.0-2.0","null","<p></p>","null","","","","","","","",""
"","image","323","504346","0.0-254.0-0.0","1346.699999988079","run_exp/static/images/Set 6_rs/090a.jpg","86","","","","","","test","TF","5"
"","show_choice","324","504852","0.0-254.0-1.0","null","run_exp/static/images/Set 6_rs/090a.jpg","null","","","","","","test","TF",""
"","html-keyboard-response","325","505366","0.0-254.0-2.0","null","<p></p>","null","","","","","","","",""
"","image","326","506532","0.0-255.0-0.0","1163.8999999761581","run_exp/static/images/Set 6_rs/176a.jpg","78","","","","","","test","TF","4"
"","show_choice","327","507049","0.0-255.0-1.0","null","run_exp/static/images/Set 6_rs/176a.jpg","null","","","","","","test","TF",""
"","html-keyboard-response","328","507563","0.0-255.0-2.0","null","<p></p>","null","","","","","","","",""
"","image","329","508447","0.0-256.0-0.0","881.9000000357628","run_exp/static/images/Set 6_rs/024a.jpg","86","","","","","","test","TR","5"
"","show_choice","330","508955","0.0-256.0-1.0","null","run_exp/static/images/Set 6_rs/024a.jpg","null","","","","","","test","TR",""
"","html-keyboard-response","331","509470","0.0-256.0-2.0","null","<p></p>","null","","","","","","","",""
"","image","332","510378","0.0-257.0-0.0","905.6999999880791","run_exp/static/images/Set 6_rs/086a.jpg","78","","","","","","test","TF","1"
"","show_choice","333","510891","0.0-257.0-1.0","null","run_exp/static/images/Set 6_rs/086a.jpg","null","","","","","","test","TF",""
"","html-keyboard-response","334","511408","0.0-257.0-2.0","null","<p></p>","null","","","","","","","",""
"","image","335","512134","0.0-258.0-0.0","723","run_exp/static/images/Set 6_rs/056a.jpg","78","","","","","","test","TF","3"
"","show_choice","336","512643","0.0-258.0-1.0","null","run_exp/static/images/Set 6_rs/056a.jpg","null","","","","","","test","TF",""
"","html-keyboard-response","337","513157","0.0-258.0-2.0","null","<p></p>","null","","","","","","","",""
"","image","338","514202","0.0-259.0-0.0","1041.800000011921","run_exp/static/images/Set 6_rs/015a.jpg","78","","","","","","test","TF","4"
"","show_choice","339","514717","0.0-259.0-1.0","null","run_exp/static/images/Set 6_rs/015a.jpg","null","","","","","","test","TF",""
"","html-keyboard-response","340","515234","0.0-259.0-2.0","null","<p></p>","null","","","","","","","",""
"","image","341","516611","0.0-260.0-0.0","1375.5","run_exp/static/images/Set 6_rs/066b.jpg","66","","","","","","test","TL","5"
"","show_choice","342","517122","0.0-260.0-1.0","null","run_exp/static/images/Set 6_rs/066b.jpg","null","","","","","","test","TL",""
"","html-keyboard-response","343","517639","0.0-260.0-2.0","null","<p></p>","null","","","","","","","",""
"","image","344","518586","0.0-261.0-0.0","945","run_exp/static/images/Set 6_rs/022a.jpg","78","","","","","","test","TF","4"
"","show_choice","345","519090","0.0-261.0-1.0","null","run_exp/static/images/Set 6_rs/022a.jpg","null","","","","","","test","TF",""
"","html-keyboard-response","346","519604","0.0-261.0-2.0","null","<p></p>","null","","","","","","","",""
"","image","347","520728","0.0-262.0-0.0","1121.300000011921","run_exp/static/images/Set 6_rs/181b.jpg","86","","","","","","test","TL","1"
"","show_choice","348","521240","0.0-262.0-1.0","null","run_exp/static/images/Set 6_rs/181b.jpg","null","","","","","","test","TL",""
"","html-keyboard-response","349","521758","0.0-262.0-2.0","null","<p></p>","null","","","","","","","",""
"","image","350","522750","0.0-263.0-0.0","989.5999999642372","run_exp/static/images/Set 6_rs/035a.jpg","78","","","","","","test","TF","4"
"","show_choice","351","523261","0.0-263.0-1.0","null","run_exp/static/images/Set 6_rs/035a.jpg","null","","","","","","test","TF",""
"","html-keyboard-response","352","523766","0.0-263.0-2.0","null","<p></p>","null","","","","","","","",""
"","image","353","525327","0.0-264.0-0.0","1559.6000000238419","run_exp/static/images/Set 6_rs/074b.jpg","66","","","","","","test","TL","4"
"","show_choice","354","525840","0.0-264.0-1.0","null","run_exp/static/images/Set 6_rs/074b.jpg","null","","","","","","test","TL",""
"","html-keyboard-response","355","526346","0.0-264.0-2.0","null","<p></p>","null","","","","","","","",""
"","image","356","527456","0.0-265.0-0.0","1108.1000000238419","run_exp/static/images/Set 6_rs/109a.jpg","78","","","","","","test","TF","5"
"","show_choice","357","527965","0.0-265.0-1.0","null","run_exp/static/images/Set 6_rs/109a.jpg","null","","","","","","test","TF",""
"","html-keyboard-response","358","528483","0.0-265.0-2.0","null","<p></p>","null","","","","","","","",""
"","image","359","529572","0.0-266.0-0.0","1086.699999988079","run_exp/static/images/Set 6_rs/036b.jpg","78","","","","","","test","TL","4"
"","show_choice","360","530084","0.0-266.0-1.0","null","run_exp/static/images/Set 6_rs/036b.jpg","null","","","","","","test","TL",""
"","html-keyboard-response","361","530591","0.0-266.0-2.0","null","<p></p>","null","","","","","","","",""
"","image","362","532005","0.0-267.0-0.0","1411","run_exp/static/images/Set 6_rs/079b.jpg","66","","","","","","test","TL","5"
"","show_choice","363","532509","0.0-267.0-1.0","null","run_exp/static/images/Set 6_rs/079b.jpg","null","","","","","","test","TL",""
"","html-keyboard-response","364","533025","0.0-267.0-2.0","null","<p></p>","null","","","","","","","",""
"","image","365","534213","0.0-268.0-0.0","1185.8999999761581","run_exp/static/images/Set 6_rs/045a.jpg","78","","","","","","test","TR","2"
"","show_choice","366","534726","0.0-268.0-1.0","null","run_exp/static/images/Set 6_rs/045a.jpg","null","","","","","","test","TR",""
"","html-keyboard-response","367","535240","0.0-268.0-2.0","null","<p></p>","null","","","","","","","",""
"","image","368","536371","0.0-269.0-0.0","1128.699999988079","run_exp/static/images/Set 6_rs/117b.jpg","86","","","","","","test","TL","5"
"","show_choice","369","536876","0.0-269.0-1.0","null","run_exp/static/images/Set 6_rs/117b.jpg","null","","","","","","test","TL",""
"","html-keyboard-response","370","537391","0.0-269.0-2.0","null","<p></p>","null","","","","","","","",""
"","image","371","538506","0.0-270.0-0.0","1112.8999999761581","run_exp/static/images/Set 6_rs/169a.jpg","86","","","","","","test","TR","4"
"","show_choice","372","539016","0.0-270.0-1.0","null","run_exp/static/images/Set 6_rs/169a.jpg","null","","","","","","test","TR",""
"","html-keyboard-response","373","539532","0.0-270.0-2.0","null","<p></p>","null","","","","","","","",""
"","image","374","540438","0.0-271.0-0.0","903.6000000238419","run_exp/static/images/Set 6_rs/006b.jpg","66","","","","","","test","TL","2"
"","show_choice","375","540950","0.0-271.0-1.0","null","run_exp/static/images/Set 6_rs/006b.jpg","null","","","","","","test","TL",""
"","html-keyboard-response","376","541466","0.0-271.0-2.0","null","<p></p>","null","","","","","","","",""
"","image","377","542538","0.0-272.0-0.0","1069.5","run_exp/static/images/Set 6_rs/187a.jpg","66","","","","","","test","TR","3"
"","show_choice","378","543044","0.0-272.0-1.0","null","run_exp/static/images/Set 6_rs/187a.jpg","null","","","","","","test","TR",""
"","html-keyboard-response","379","543559","0.0-272.0-2.0","null","<p></p>","null","","","","","","","",""
"","image","380","544486","0.0-273.0-0.0","924.9000000357628","run_exp/static/images/Set 6_rs/048a.jpg","78","","","","","","test","TF","4"
"","show_choice","381","544993","0.0-273.0-1.0","null","run_exp/static/images/Set 6_rs/048a.jpg","null","","","","","","test","TF",""
"","html-keyboard-response","382","545508","0.0-273.0-2.0","null","<p></p>","null","","","","","","","",""
"","image","383","546686","0.0-274.0-0.0","1175.2000000476837","run_exp/static/images/Set 6_rs/152a.jpg","78","","","","","","test","TR","2"
"","show_choice","384","547192","0.0-274.0-1.0","null","run_exp/static/images/Set 6_rs/152a.jpg","null","","","","","","test","TR",""
"","html-keyboard-response","385","547706","0.0-274.0-2.0","null","<p></p>","null","","","","","","","",""
"","image","386","548712","0.0-275.0-0.0","1003.8999999761581","run_exp/static/images/Set 6_rs/100a.jpg","78","","","","","","test","TF","2"
"","show_choice","387","549222","0.0-275.0-1.0","null","run_exp/static/images/Set 6_rs/100a.jpg","null","","","","","","test","TF",""
"","html-keyboard-response","388","549738","0.0-275.0-2.0","null","<p></p>","null","","","","","","","",""
"","image","389","550540","0.0-276.0-0.0","798.8999999761581","run_exp/static/images/Set 6_rs/134a.jpg","86","","","","","","test","TR","3"
"","show_choice","390","551047","0.0-276.0-1.0","null","run_exp/static/images/Set 6_rs/134a.jpg","null","","","","","","test","TR",""
"","html-keyboard-response","391","551563","0.0-276.0-2.0","null","<p></p>","null","","","","","","","",""
"","image","392","552595","0.0-277.0-0.0","1029.5","run_exp/static/images/Set 6_rs/168b.jpg","78","","","","","","test","TL","3"
"","show_choice","393","553108","0.0-277.0-1.0","null","run_exp/static/images/Set 6_rs/168b.jpg","null","","","","","","test","TL",""
"","html-keyboard-response","394","553621","0.0-277.0-2.0","null","<p></p>","null","","","","","","","",""
"","image","395","554494","0.0-278.0-0.0","870","run_exp/static/images/Set 6_rs/112a.jpg","78","","","","","","test","TR","5"
"","show_choice","396","555001","0.0-278.0-1.0","null","run_exp/static/images/Set 6_rs/112a.jpg","null","","","","","","test","TR",""
"","html-keyboard-response","397","555517","0.0-278.0-2.0","null","<p></p>","null","","","","","","","",""
"","image","398","557052","0.0-279.0-0.0","1532.5","run_exp/static/images/Set 6_rs/190a.jpg","78","","","","","","test","TF","3"
"","show_choice","399","557563","0.0-279.0-1.0","null","run_exp/static/images/Set 6_rs/190a.jpg","null","","","","","","test","TF",""
"","html-keyboard-response","400","558076","0.0-279.0-2.0","null","<p></p>","null","","","","","","","",""
"","image","401","559295","0.0-280.0-0.0","1216","run_exp/static/images/Set 6_rs/010a.jpg","78","","","","","","test","TR","5"
"","show_choice","402","559807","0.0-280.0-1.0","null","run_exp/static/images/Set 6_rs/010a.jpg","null","","","","","","test","TR",""
"","html-keyboard-response","403","560323","0.0-280.0-2.0","null","<p></p>","null","","","","","","","",""
"","image","404","561656","0.0-281.0-0.0","1331.300000011921","run_exp/static/images/Set 6_rs/055b.jpg","78","","","","","","test","TL","4"
"","show_choice","405","562172","0.0-281.0-1.0","null","run_exp/static/images/Set 6_rs/055b.jpg","null","","","","","","test","TL",""
"","html-keyboard-response","406","562674","0.0-281.0-2.0","null","<p></p>","null","","","","","","","",""
"","image","407","563495","0.0-282.0-0.0","819.9000000357628","run_exp/static/images/Set 6_rs/155a.jpg","78","","","","","","test","TF","4"
"","show_choice","408","564004","0.0-282.0-1.0","null","run_exp/static/images/Set 6_rs/155a.jpg","null","","","","","","test","TF",""
"","html-keyboard-response","409","564519","0.0-282.0-2.0","null","<p></p>","null","","","","","","","",""
"","image","410","565286","0.0-283.0-0.0","764.6999999880791","run_exp/static/images/Set 6_rs/121a.jpg","86","","","","","","test","TR","4"
"","show_choice","411","565802","0.0-283.0-1.0","null","run_exp/static/images/Set 6_rs/121a.jpg","null","","","","","","test","TR",""
"","html-keyboard-response","412","566317","0.0-283.0-2.0","null","<p></p>","null","","","","","","","",""
"","image","413","567557","0.0-284.0-0.0","1237.3999999761581","run_exp/static/images/Set 6_rs/171a.jpg","78","","","","","","test","TF","1"
"","show_choice","414","568070","0.0-284.0-1.0","null","run_exp/static/images/Set 6_rs/171a.jpg","null","","","","","","test","TF",""
"","html-keyboard-response","415","568587","0.0-284.0-2.0","null","<p></p>","null","","","","","","","",""
"","image","416","569974","0.0-285.0-0.0","1385","run_exp/static/images/Set 6_rs/172a.jpg","86","","","","","","test","TR","1"
"","show_choice","417","570480","0.0-285.0-1.0","null","run_exp/static/images/Set 6_rs/172a.jpg","null","","","","","","test","TR",""
"","html-keyboard-response","418","570998","0.0-285.0-2.0","null","<p></p>","null","","","","","","","",""
"","image","419","572131","0.0-286.0-0.0","1131","run_exp/static/images/Set 6_rs/138b.jpg","86","","","","","","test","TL","1"
"","show_choice","420","572637","0.0-286.0-1.0","null","run_exp/static/images/Set 6_rs/138b.jpg","null","","","","","","test","TL",""
"","html-keyboard-response","421","573152","0.0-286.0-2.0","null","<p></p>","null","","","","","","","",""
"","image","422","573935","0.0-287.0-0.0","780.1000000238419","run_exp/static/images/Set 6_rs/144b.jpg","86","","","","","","test","TL","4"
"","show_choice","423","574446","0.0-287.0-1.0","null","run_exp/static/images/Set 6_rs/144b.jpg","null","","","","","","test","TL",""
"","html-keyboard-response","424","574960","0.0-287.0-2.0","null","<p></p>","null","","","","","","","",""
"","image","425","575974","0.0-288.0-0.0","1011.7000000476837","run_exp/static/images/Set 6_rs/167b.jpg","86","","","","","","test","TL","2"
"","show_choice","426","576480","0.0-288.0-1.0","null","run_exp/static/images/Set 6_rs/167b.jpg","null","","","","","","test","TL",""
"","html-keyboard-response","427","576995","0.0-288.0-2.0","null","<p></p>","null","","","","","","","",""
"","image","428","577990","0.0-289.0-0.0","992.1000000238419","run_exp/static/images/Set 6_rs/057b.jpg","86","","","","","","test","TL","1"
"","show_choice","429","578505","0.0-289.0-1.0","null","run_exp/static/images/Set 6_rs/057b.jpg","null","","","","","","test","TL",""
"","html-keyboard-response","430","579014","0.0-289.0-2.0","null","<p></p>","null","","","","","","","",""
"","image","431","580130","0.0-290.0-0.0","1113.3999999761581","run_exp/static/images/Set 6_rs/129b.jpg","66","","","","","","test","TL","1"
"","show_choice","432","580640","0.0-290.0-1.0","null","run_exp/static/images/Set 6_rs/129b.jpg","null","","","","","","test","TL",""
"","html-keyboard-response","433","581144","0.0-290.0-2.0","null","<p></p>","null","","","","","","","",""
"","image","434","582067","0.0-291.0-0.0","920.5","run_exp/static/images/Set 6_rs/076a.jpg","86","","","","","","test","TR","4"
"","show_choice","435","582573","0.0-291.0-1.0","null","run_exp/static/images/Set 6_rs/076a.jpg","null","","","","","","test","TR",""
"","html-keyboard-response","436","583087","0.0-291.0-2.0","null","<p></p>","null","","","","","","","",""
"","image","437","583978","0.0-292.0-0.0","888","run_exp/static/images/Set 6_rs/166a.jpg","86","","","","","","test","TR","1"
"","show_choice","438","584495","0.0-292.0-1.0","null","run_exp/static/images/Set 6_rs/166a.jpg","null","","","","","","test","TR",""
"","html-keyboard-response","439","585009","0.0-292.0-2.0","null","<p></p>","null","","","","","","","",""
"","image","440","585912","0.0-293.0-0.0","900.1999999880791","run_exp/static/images/Set 6_rs/062b.jpg","86","","","","","","test","TL","1"
"","show_choice","441","586425","0.0-293.0-1.0","null","run_exp/static/images/Set 6_rs/062b.jpg","null","","","","","","test","TL",""
"","html-keyboard-response","442","586942","0.0-293.0-2.0","null","<p></p>","null","","","","","","","",""
"","image","443","587784","0.0-294.0-0.0","839.3000000119209","run_exp/static/images/Set 6_rs/063a.jpg","86","","","","","","test","TR","2"
"","show_choice","444","588300","0.0-294.0-1.0","null","run_exp/static/images/Set 6_rs/063a.jpg","null","","","","","","test","TR",""
"","html-keyboard-response","445","588818","0.0-294.0-2.0","null","<p></p>","null","","","","","","","",""
"","image","446","589716","0.0-295.0-0.0","895.6999999880791","run_exp/static/images/Set 6_rs/008b.jpg","86","","","","","","test","TL","2"
"","show_choice","447","590223","0.0-295.0-1.0","null","run_exp/static/images/Set 6_rs/008b.jpg","null","","","","","","test","TL",""
"","html-keyboard-response","448","590736","0.0-295.0-2.0","null","<p></p>","null","","","","","","","",""
"","image","449","591712","0.0-296.0-0.0","973.5","run_exp/static/images/Set 6_rs/078a.jpg","66","","","","","","test","TF","1"
"","show_choice","450","592227","0.0-296.0-1.0","null","run_exp/static/images/Set 6_rs/078a.jpg","null","","","","","","test","TF",""
"","html-keyboard-response","451","592743","0.0-296.0-2.0","null","<p></p>","null","","","","","","","",""
"","image","452","593625","0.0-297.0-0.0","879","run_exp/static/images/Set 6_rs/088a.jpg","86","","","","","","test","TR","2"
"","show_choice","453","594133","0.0-297.0-1.0","null","run_exp/static/images/Set 6_rs/088a.jpg","null","","","","","","test","TR",""
"","html-keyboard-response","454","594650","0.0-297.0-2.0","null","<p></p>","null","","","","","","","",""
"","image","455","595680","0.0-298.0-0.0","1028.4000000357628","run_exp/static/images/Set 6_rs/188a.jpg","78","","","","","","test","TF","3"
"","show_choice","456","596194","0.0-298.0-1.0","null","run_exp/static/images/Set 6_rs/188a.jpg","null","","","","","","test","TF",""
"","html-keyboard-response","457","596708","0.0-298.0-2.0","null","<p></p>","null","","","","","","","",""
"","image","458","597875","0.0-299.0-0.0","1164.1000000238419","run_exp/static/images/Set 6_rs/073b.jpg","78","","","","","","test","TL","3"
"","show_choice","459","598380","0.0-299.0-1.0","null","run_exp/static/images/Set 6_rs/073b.jpg","null","","","","","","test","TL",""
"","html-keyboard-response","460","598893","0.0-299.0-2.0","null","<p></p>","null","","","","","","","",""
"","image","461","600135","0.0-300.0-0.0","1239.800000011921","run_exp/static/images/Set 6_rs/028a.jpg","78","","","","","","test","TF","1"
"","show_choice","462","600644","0.0-300.0-1.0","null","run_exp/static/images/Set 6_rs/028a.jpg","null","","","","","","test","TF",""
"","html-keyboard-response","463","601161","0.0-300.0-2.0","null","<p></p>","null","","","","","","","",""
"","image","464","602946","0.0-301.0-0.0","1782.6000000238419","run_exp/static/images/Set 6_rs/065a.jpg","78","","","","","","test","TF","3"
"","show_choice","465","603453","0.0-301.0-1.0","null","run_exp/static/images/Set 6_rs/065a.jpg","null","","","","","","test","TF",""
"","html-keyboard-response","466","603955","0.0-301.0-2.0","null","<p></p>","null","","","","","","","",""
"","image","467","605067","0.0-302.0-0.0","1108.7999999523163","run_exp/static/images/Set 6_rs/186a.jpg","86","","","","","","test","TR","5"
"","show_choice","468","605577","0.0-302.0-1.0","null","run_exp/static/images/Set 6_rs/186a.jpg","null","","","","","","test","TR",""
"","html-keyboard-response","469","606092","0.0-302.0-2.0","null","<p></p>","null","","","","","","","",""
"","image","470","607062","0.0-303.0-0.0","967.5","run_exp/static/images/Set 6_rs/052a.jpg","78","","","","","","test","TF","1"
"","show_choice","471","607571","0.0-303.0-1.0","null","run_exp/static/images/Set 6_rs/052a.jpg","null","","","","","","test","TF",""
"","html-keyboard-response","472","608088","0.0-303.0-2.0","null","<p></p>","null","","","","","","","",""
"","image","473","609039","0.0-304.0-0.0","948.5","run_exp/static/images/Set 6_rs/149a.jpg","66","","","","","","test","TF","1"
"","show_choice","474","609551","0.0-304.0-1.0","null","run_exp/static/images/Set 6_rs/149a.jpg","null","","","","","","test","TF",""
"","html-keyboard-response","475","610068","0.0-304.0-2.0","null","<p></p>","null","","","","","","","",""
"","image","476","611160","0.0-305.0-0.0","1088.800000011921","run_exp/static/images/Set 6_rs/091b.jpg","78","","","","","","test","TL","3"
"","show_choice","477","611675","0.0-305.0-1.0","null","run_exp/static/images/Set 6_rs/091b.jpg","null","","","","","","test","TL",""
"","html-keyboard-response","478","612189","0.0-305.0-2.0","null","<p></p>","null","","","","","","","",""
"","image","479","613969","0.0-306.0-0.0","1777.5999999642372","run_exp/static/images/Set 6_rs/191b.jpg","78","","","","","","test","TL","2"
"","show_choice","480","614482","0.0-306.0-1.0","null","run_exp/static/images/Set 6_rs/191b.jpg","null","","","","","","test","TL",""
"","html-keyboard-response","481","614997","0.0-306.0-2.0","null","<p></p>","null","","","","","","","",""
"","image","482","616068","0.0-307.0-0.0","1068","run_exp/static/images/Set 6_rs/075a.jpg","86","","","","","","test","TR","1"
"","show_choice","483","616572","0.0-307.0-1.0","null","run_exp/static/images/Set 6_rs/075a.jpg","null","","","","","","test","TR",""
"","html-keyboard-response","484","617074","0.0-307.0-2.0","null","<p></p>","null","","","","","","","",""
"","image","485","618299","0.0-308.0-0.0","1222.800000011921","run_exp/static/images/Set 6_rs/132a.jpg","78","","","","","","test","TR","5"
"","show_choice","486","618814","0.0-308.0-1.0","null","run_exp/static/images/Set 6_rs/132a.jpg","null","","","","","","test","TR",""
"","html-keyboard-response","487","619330","0.0-308.0-2.0","null","<p></p>","null","","","","","","","",""
"","image","488","620608","0.0-309.0-0.0","1274.7999999523163","run_exp/static/images/Set 6_rs/116b.jpg","86","","","","","","test","TL","2"
"","show_choice","489","621123","0.0-309.0-1.0","null","run_exp/static/images/Set 6_rs/116b.jpg","null","","","","","","test","TL",""
"","html-keyboard-response","490","621637","0.0-309.0-2.0","null","<p></p>","null","","","","","","","",""
"","image","491","622462","0.0-310.0-0.0","823.1000000238419","run_exp/static/images/Set 6_rs/007a.jpg","86","","","","","","test","TR","3"
"","show_choice","492","622979","0.0-310.0-1.0","null","run_exp/static/images/Set 6_rs/007a.jpg","null","","","","","","test","TR",""
"","html-keyboard-response","493","623495","0.0-310.0-2.0","null","<p></p>","null","","","","","","","",""
"","image","494","624513","0.0-311.0-0.0","1015.6999999880791","run_exp/static/images/Set 6_rs/021a.jpg","78","","","","","","test","TF","2"
"","show_choice","495","625024","0.0-311.0-1.0","null","run_exp/static/images/Set 6_rs/021a.jpg","null","","","","","","test","TF",""
"","html-keyboard-response","496","625538","0.0-311.0-2.0","null","<p></p>","null","","","","","","","",""
"","image","497","626665","0.0-312.0-0.0","1124.300000011921","run_exp/static/images/Set 6_rs/108a.jpg","86","","","","","","test","TR","5"
"","show_choice","498","627172","0.0-312.0-1.0","null","run_exp/static/images/Set 6_rs/108a.jpg","null","","","","","","test","TR",""
"","html-keyboard-response","499","627686","0.0-312.0-2.0","null","<p></p>","null","","","","","","","",""
"","image","500","628690","0.0-313.0-0.0","1001.1999999880791","run_exp/static/images/Set 6_rs/123b.jpg","66","","","","","","test","TL","2"
"","show_choice","501","629200","0.0-313.0-1.0","null","run_exp/static/images/Set 6_rs/123b.jpg","null","","","","","","test","TL",""
"","html-keyboard-response","502","629715","0.0-313.0-2.0","null","<p></p>","null","","","","","","","",""
"","image","503","630876","0.0-314.0-0.0","1159","run_exp/static/images/Set 6_rs/136a.jpg","78","","","","","","test","TF","4"
"","show_choice","504","631388","0.0-314.0-1.0","null","run_exp/static/images/Set 6_rs/136a.jpg","null","","","","","","test","TF",""
"","html-keyboard-response","505","631892","0.0-314.0-2.0","null","<p></p>","null","","","","","","","",""
"","image","506","632945","0.0-315.0-0.0","1050.5","run_exp/static/images/Set 6_rs/012a.jpg","86","","","","","","test","TR","1"
"","show_choice","507","633450","0.0-315.0-1.0","null","run_exp/static/images/Set 6_rs/012a.jpg","null","","","","","","test","TR",""
"","html-keyboard-response","508","633967","0.0-315.0-2.0","null","<p></p>","null","","","","","","","",""
"","image","509","635334","0.0-316.0-0.0","1363.6000000238419","run_exp/static/images/Set 6_rs/064a.jpg","86","","","","","","test","TR","5"
"","show_choice","510","635839","0.0-316.0-1.0","null","run_exp/static/images/Set 6_rs/064a.jpg","null","","","","","","test","TR",""
"","html-keyboard-response","511","636355","0.0-316.0-2.0","null","<p></p>","null","","","","","","","",""
"","image","512","637789","0.0-317.0-0.0","1431.800000011921","run_exp/static/images/Set 6_rs/105a.jpg","78","","","","","","test","TF","5"
"","show_choice","513","638307","0.0-317.0-1.0","null","run_exp/static/images/Set 6_rs/105a.jpg","null","","","","","","test","TF",""
"","html-keyboard-response","514","638821","0.0-317.0-2.0","null","<p></p>","null","","","","","","","",""
"","image","515","639998","0.0-318.0-0.0","1175","run_exp/static/images/Set 6_rs/177a.jpg","66","","","","","","test","TR","5"
"","show_choice","516","640504","0.0-318.0-1.0","null","run_exp/static/images/Set 6_rs/177a.jpg","null","","","","","","test","TR",""
"","html-keyboard-response","517","641021","0.0-318.0-2.0","null","<p></p>","null","","","","","","","",""
"","image","518","641926","0.0-319.0-0.0","902.8000000119209","run_exp/static/images/Set 6_rs/016b.jpg","86","","","","","","test","TL","1"
"","show_choice","519","642431","0.0-319.0-1.0","null","run_exp/static/images/Set 6_rs/016b.jpg","null","","","","","","test","TL",""
"","html-keyboard-response","520","642946","0.0-319.0-2.0","null","<p></p>","null","","","","","","","",""
"","image","521","643752","0.0-320.0-0.0","803.1999999880791","run_exp/static/images/Set 6_rs/095b.jpg","86","","","","","","test","TL","5"
"","show_choice","522","644256","0.0-320.0-1.0","null","run_exp/static/images/Set 6_rs/095b.jpg","null","","","","","","test","TL",""
"","html-keyboard-response","523","644771","0.0-320.0-2.0","null","<p></p>","null","","","","","","","",""
"","image","524","645861","0.0-321.0-0.0","1087.199999988079","run_exp/static/images/Set 6_rs/014b.jpg","66","","","","","","test","TL","5"
"","show_choice","525","646366","0.0-321.0-1.0","null","run_exp/static/images/Set 6_rs/014b.jpg","null","","","","","","test","TL",""
"","html-keyboard-response","526","646881","0.0-321.0-2.0","null","<p></p>","null","","","","","","","",""
"","all_done","527","655319","0.0-322.0-0.0","null","run_exp/static/audio/clip_23_all_done.m4a","null","","","","","<div class='center'><p>You are finished with all three parts of the experiment! You can press the space bar to end the game now. </p></div>","","",""
"","html-keyboard-response","528","655799","0.0-322.0-1.0","475.0999999642372","<div class='center'><p>You are finished with all three parts of the experiment! You can press the space bar to end the game now. </p><div><p><b>[Press the space bar to continue]</b></p></div>","32","","","","","","","",""
