"success","trial_type","trial_index","time_elapsed","internal_node_id","interactions","blur_events","focus_events","fullscreenenter_events","fullscreenexit_events","rt","stimulus","key_press","subject_id","participant_id","age","gender","prompt","phase","condition","lure_bin"
"true","fullscreen","0","8736","0.0-0.0","""event"",""trial"",""time""
""fullscreenenter"",""0"",""7755""
","
","
","""event"",""trial"",""time""
""fullscreenenter"",""0"",""7755""
","
","","","","","","","","","","",""
"","pavlovia","1","8740","0.0-1.0","""event"",""trial"",""time""
""fullscreenenter"",""0"",""7755""
","
","
","""event"",""trial"",""time""
""fullscreenenter"",""0"",""7755""
","
","","","","","","","","","","",""
"","welcome","2","43638","0.0-2.0","""event"",""trial"",""time""
""fullscreenenter"",""0"",""7755""
","
","
","""event"",""trial"",""time""
""fullscreenenter"",""0"",""7755""
","
","null","run_exp/static/audio/clip_1_welcome.m4a","null","638","42","20","Female","<div class='center'><p>Welcome to the third part of the study! First, you'll be shown pictures of items one at a time. For each picture, you have to decide if the item is typically found indoors or outdoors.</p><p>If you think it's usually found indoors, then press <b>v</b> key on your keyboard. If you think it's usually found outdoors, then press the <b>n</b> key.There will be reminders on the screen to help you remember which keys to press. </p><p>If you're not sure whether the item is an indoor item or an outdoor item, go ahead and take a guess but try your best not to skip that choice. </p></div>","","",""
"","html-keyboard-response","3","49014","0.0-3.0","""event"",""trial"",""time""
""fullscreenenter"",""0"",""7755""
","
","
","""event"",""trial"",""time""
""fullscreenenter"",""0"",""7755""
","
","5374.900000002235","<div class='center'><p>Welcome to the third part of the study! First, you'll be shown pictures of items one at a time. For each picture, you have to decide if the item is typically found indoors or outdoors.</p><p>If you think it's usually found indoors, then press <b>v</b> key on your keyboard. If you think it's usually found outdoors, then press the <b>n</b> key.There will be reminders on the screen to help you remember which keys to press. </p><p>If you're not sure whether the item is an indoor item or an outdoor item, go ahead and take a guess but try your best not to skip that choice. </p><div><p><b>[Press the space bar to continue]</b></p></div>","32","","","","","","","",""
"","image","4","51021","0.0-4.0","""event"",""trial"",""time""
""fullscreenenter"",""0"",""7755""
","
","
","""event"",""trial"",""time""
""fullscreenenter"",""0"",""7755""
","
","null","run_exp/static/images/Set 6_rs/025a.jpg","null","","","","","","learn","SL",""
"","show_choice","5","53024","0.0-5.0","""event"",""trial"",""time""
""fullscreenenter"",""0"",""7755""
","
","
","""event"",""trial"",""time""
""fullscreenenter"",""0"",""7755""
","
","null","run_exp/static/images/blank.png","null","","","","","","learn","SL",""
"","html-keyboard-response","6","53530","0.0-6.0","""event"",""trial"",""time""
""fullscreenenter"",""0"",""7755""
","
","
","""event"",""trial"",""time""
""fullscreenenter"",""0"",""7755""
","
","null","<p></p>","null","","","","","","","",""
"","image","7","54486","0.0-7.0","""event"",""trial"",""time""
""fullscreenenter"",""0"",""7755""
","
","
","""event"",""trial"",""time""
""fullscreenenter"",""0"",""7755""
","
","954.8000000007451","run_exp/static/images/Set 6_rs/063a.jpg","86","","","","","","learn","SR",""
"","show_choice","8","55536","0.0-8.0","""event"",""trial"",""time""
""fullscreenenter"",""0"",""7755""
","
","
","""event"",""trial"",""time""
""fullscreenenter"",""0"",""7755""
","
","null","run_exp/static/images/Set 6_rs/063a.jpg","null","","","","","","learn","SR",""
"","html-keyboard-response","9","56042","0.0-9.0","""event"",""trial"",""time""
""fullscreenenter"",""0"",""7755""
","
","
","""event"",""trial"",""time""
""fullscreenenter"",""0"",""7755""
","
","null","<p></p>","null","","","","","","","",""
"","image","10","56750","0.0-10.0","""event"",""trial"",""time""
""fullscreenenter"",""0"",""7755""
","
","
","""event"",""trial"",""time""
""fullscreenenter"",""0"",""7755""
","
","706.0999999977648","run_exp/static/images/Set 6_rs/181a.jpg","78","","","","","","learn","SL",""
"","show_choice","11","58046","0.0-11.0","""event"",""trial"",""time""
""fullscreenenter"",""0"",""7755""
","
","
","""event"",""trial"",""time""
""fullscreenenter"",""0"",""7755""
","
","null","run_exp/static/images/Set 6_rs/181a.jpg","null","","","","","","learn","SL",""
"","html-keyboard-response","12","58553","0.0-12.0","""event"",""trial"",""time""
""fullscreenenter"",""0"",""7755""
","
","
","""event"",""trial"",""time""
""fullscreenenter"",""0"",""7755""
","
","null","<p></p>","null","","","","","","","",""
"","image","13","59490","0.0-13.0","""event"",""trial"",""time""
""fullscreenenter"",""0"",""7755""
","
","
","""event"",""trial"",""time""
""fullscreenenter"",""0"",""7755""
","
","936.4000000022352","run_exp/static/images/Set 6_rs/085a.jpg","78","","","","","","learn","SL",""
"","show_choice","14","60555","0.0-14.0","""event"",""trial"",""time""
""fullscreenenter"",""0"",""7755""
","
","
","""event"",""trial"",""time""
""fullscreenenter"",""0"",""7755""
","
","null","run_exp/static/images/Set 6_rs/085a.jpg","null","","","","","","learn","SL",""
"","html-keyboard-response","15","61059","0.0-15.0","""event"",""trial"",""time""
""fullscreenenter"",""0"",""7755""
","
","
","""event"",""trial"",""time""
""fullscreenenter"",""0"",""7755""
","
","null","<p></p>","null","","","","","","","",""
"","image","16","61780","0.0-16.0","""event"",""trial"",""time""
""fullscreenenter"",""0"",""7755""
","
","
","""event"",""trial"",""time""
""fullscreenenter"",""0"",""7755""
","
","720.3000000007451","run_exp/static/images/Set 6_rs/023a.jpg","86","","","","","","learn","SR",""
"","show_choice","17","63065","0.0-17.0","""event"",""trial"",""time""
""fullscreenenter"",""0"",""7755""
","
","
","""event"",""trial"",""time""
""fullscreenenter"",""0"",""7755""
","
","null","run_exp/static/images/Set 6_rs/023a.jpg","null","","","","","","learn","SR",""
"","html-keyboard-response","18","63566","0.0-18.0","""event"",""trial"",""time""
""fullscreenenter"",""0"",""7755""
","
","
","""event"",""trial"",""time""
""fullscreenenter"",""0"",""7755""
","
","null","<p></p>","null","","","","","","","",""
"","image","19","64336","0.0-19.0","""event"",""trial"",""time""
""fullscreenenter"",""0"",""7755""
","
","
","""event"",""trial"",""time""
""fullscreenenter"",""0"",""7755""
","
","768.1999999992549","run_exp/static/images/Set 6_rs/169a.jpg","78","","","","","","learn","SR",""
"","show_choice","20","65571","0.0-20.0","""event"",""trial"",""time""
""fullscreenenter"",""0"",""7755""
","
","
","""event"",""trial"",""time""
""fullscreenenter"",""0"",""7755""
","
","null","run_exp/static/images/Set 6_rs/169a.jpg","null","","","","","","learn","SR",""
"","html-keyboard-response","21","66076","0.0-21.0","""event"",""trial"",""time""
""fullscreenenter"",""0"",""7755""
","
","
","""event"",""trial"",""time""
""fullscreenenter"",""0"",""7755""
","
","null","<p></p>","null","","","","","","","",""
"","image","22","66729","0.0-22.0","""event"",""trial"",""time""
""fullscreenenter"",""0"",""7755""
","
","
","""event"",""trial"",""time""
""fullscreenenter"",""0"",""7755""
","
","652.2000000029802","run_exp/static/images/Set 6_rs/073a.jpg","86","","","","","","learn","SL",""
"","show_choice","23","68083","0.0-23.0","""event"",""trial"",""time""
""fullscreenenter"",""0"",""7755""
","
","
","""event"",""trial"",""time""
""fullscreenenter"",""0"",""7755""
","
","null","run_exp/static/images/Set 6_rs/073a.jpg","null","","","","","","learn","SL",""
"","html-keyboard-response","24","68589","0.0-24.0","""event"",""trial"",""time""
""fullscreenenter"",""0"",""7755""
","
","
","""event"",""trial"",""time""
""fullscreenenter"",""0"",""7755""
","
","null","<p></p>","null","","","","","","","",""
"","image","25","69743","0.0-25.0","""event"",""trial"",""time""
""fullscreenenter"",""0"",""7755""
","
","
","""event"",""trial"",""time""
""fullscreenenter"",""0"",""7755""
","
","1152.8999999985099","run_exp/static/images/Set 6_rs/191a.jpg","78","","","","","","learn","SL",""
"","show_choice","26","70593","0.0-26.0","""event"",""trial"",""time""
""fullscreenenter"",""0"",""7755""
","
","
","""event"",""trial"",""time""
""fullscreenenter"",""0"",""7755""
","
","null","run_exp/static/images/Set 6_rs/191a.jpg","null","","","","","","learn","SL",""
"","html-keyboard-response","27","71094","0.0-27.0","""event"",""trial"",""time""
""fullscreenenter"",""0"",""7755""
","
","
","""event"",""trial"",""time""
""fullscreenenter"",""0"",""7755""
","
","null","<p></p>","null","","","","","","","",""
"","image","28","72158","0.0-28.0","""event"",""trial"",""time""
""fullscreenenter"",""0"",""7755""
","
","
","""event"",""trial"",""time""
""fullscreenenter"",""0"",""7755""
","
","1062.6000000014901","run_exp/static/images/Set 6_rs/036a.jpg","86","","","","","","learn","SL",""
"","show_choice","29","73101","0.0-29.0","""event"",""trial"",""time""
""fullscreenenter"",""0"",""7755""
","
","
","""event"",""trial"",""time""
""fullscreenenter"",""0"",""7755""
","
","null","run_exp/static/images/Set 6_rs/036a.jpg","null","","","","","","learn","SL",""
"","html-keyboard-response","30","73607","0.0-30.0","""event"",""trial"",""time""
""fullscreenenter"",""0"",""7755""
","
","
","""event"",""trial"",""time""
""fullscreenenter"",""0"",""7755""
","
","null","<p></p>","null","","","","","","","",""
"","image","31","74289","0.0-31.0","""event"",""trial"",""time""
""fullscreenenter"",""0"",""7755""
","
","
","""event"",""trial"",""time""
""fullscreenenter"",""0"",""7755""
","
","681.8000000007451","run_exp/static/images/Set 6_rs/112a.jpg","86","","","","","","learn","SR",""
"","show_choice","32","75612","0.0-32.0","""event"",""trial"",""time""
""fullscreenenter"",""0"",""7755""
","
","
","""event"",""trial"",""time""
""fullscreenenter"",""0"",""7755""
","
","null","run_exp/static/images/Set 6_rs/112a.jpg","null","","","","","","learn","SR",""
"","html-keyboard-response","33","76118","0.0-33.0","""event"",""trial"",""time""
""fullscreenenter"",""0"",""7755""
","
","
","""event"",""trial"",""time""
""fullscreenenter"",""0"",""7755""
","
","null","<p></p>","null","","","","","","","",""
"","image","34","76841","0.0-34.0","""event"",""trial"",""time""
""fullscreenenter"",""0"",""7755""
","
","
","""event"",""trial"",""time""
""fullscreenenter"",""0"",""7755""
","
","721.5","run_exp/static/images/Set 6_rs/152a.jpg","86","","","","","","learn","SR",""
"","show_choice","35","78125","0.0-35.0","""event"",""trial"",""time""
""fullscreenenter"",""0"",""7755""
","
","
","""event"",""trial"",""time""
""fullscreenenter"",""0"",""7755""
","
","null","run_exp/static/images/Set 6_rs/152a.jpg","null","","","","","","learn","SR",""
"","html-keyboard-response","36","78631","0.0-36.0","""event"",""trial"",""time""
""fullscreenenter"",""0"",""7755""
","
","
","""event"",""trial"",""time""
""fullscreenenter"",""0"",""7755""
","
","null","<p></p>","null","","","","","","","",""
"","image","37","79396","0.0-37.0","""event"",""trial"",""time""
""fullscreenenter"",""0"",""7755""
","
","
","""event"",""trial"",""time""
""fullscreenenter"",""0"",""7755""
","
","763.6000000014901","run_exp/static/images/Set 6_rs/014a.jpg","86","","","","","","learn","SL",""
"","show_choice","38","80638","0.0-38.0","""event"",""trial"",""time""
""fullscreenenter"",""0"",""7755""
","
","
","""event"",""trial"",""time""
""fullscreenenter"",""0"",""7755""
","
","null","run_exp/static/images/Set 6_rs/014a.jpg","null","","","","","","learn","SL",""
"","html-keyboard-response","39","81142","0.0-39.0","""event"",""trial"",""time""
""fullscreenenter"",""0"",""7755""
","
","
","""event"",""trial"",""time""
""fullscreenenter"",""0"",""7755""
","
","null","<p></p>","null","","","","","","","",""
"","image","40","81921","0.0-40.0","""event"",""trial"",""time""
""fullscreenenter"",""0"",""7755""
","
","
","""event"",""trial"",""time""
""fullscreenenter"",""0"",""7755""
","
","777.5999999977648","run_exp/static/images/Set 6_rs/168a.jpg","86","","","","","","learn","SL",""
"","show_choice","41","83149","0.0-41.0","""event"",""trial"",""time""
""fullscreenenter"",""0"",""7755""
","
","
","""event"",""trial"",""time""
""fullscreenenter"",""0"",""7755""
","
","null","run_exp/static/images/Set 6_rs/168a.jpg","null","","","","","","learn","SL",""
"","html-keyboard-response","42","83655","0.0-42.0","""event"",""trial"",""time""
""fullscreenenter"",""0"",""7755""
","
","
","""event"",""trial"",""time""
""fullscreenenter"",""0"",""7755""
","
","null","<p></p>","null","","","","","","","",""
"","image","43","84518","0.0-43.0","""event"",""trial"",""time""
""fullscreenenter"",""0"",""7755""
","
","
","""event"",""trial"",""time""
""fullscreenenter"",""0"",""7755""
","
","861.7999999970198","run_exp/static/images/Set 6_rs/088a.jpg","86","","","","","","learn","SR",""
"","show_choice","44","85657","0.0-44.0","""event"",""trial"",""time""
""fullscreenenter"",""0"",""7755""
","
","
","""event"",""trial"",""time""
""fullscreenenter"",""0"",""7755""
","
","null","run_exp/static/images/Set 6_rs/088a.jpg","null","","","","","","learn","SR",""
"","html-keyboard-response","45","86160","0.0-45.0","""event"",""trial"",""time""
""fullscreenenter"",""0"",""7755""
","
","
","""event"",""trial"",""time""
""fullscreenenter"",""0"",""7755""
","
","null","<p></p>","null","","","","","","","",""
"","image","46","86756","0.0-46.0","""event"",""trial"",""time""
""fullscreenenter"",""0"",""7755""
","
","
","""event"",""trial"",""time""
""fullscreenenter"",""0"",""7755""
","
","595.5","run_exp/static/images/Set 6_rs/045a.jpg","86","","","","","","learn","SR",""
"","show_choice","47","88163","0.0-47.0","""event"",""trial"",""time""
""fullscreenenter"",""0"",""7755""
","
","
","""event"",""trial"",""time""
""fullscreenenter"",""0"",""7755""
","
","null","run_exp/static/images/Set 6_rs/045a.jpg","null","","","","","","learn","SR",""
"","html-keyboard-response","48","88666","0.0-48.0","""event"",""trial"",""time""
""fullscreenenter"",""0"",""7755""
","
","
","""event"",""trial"",""time""
""fullscreenenter"",""0"",""7755""
","
","null","<p></p>","null","","","","","","","",""
"","image","49","89388","0.0-49.0","""event"",""trial"",""time""
""fullscreenenter"",""0"",""7755""
","
","
","""event"",""trial"",""time""
""fullscreenenter"",""0"",""7755""
","
","720.7000000029802","run_exp/static/images/Set 6_rs/057a.jpg","86","","","","","","learn","SL",""
"","show_choice","50","90671","0.0-50.0","""event"",""trial"",""time""
""fullscreenenter"",""0"",""7755""
","
","
","""event"",""trial"",""time""
""fullscreenenter"",""0"",""7755""
","
","null","run_exp/static/images/Set 6_rs/057a.jpg","null","","","","","","learn","SL",""
"","html-keyboard-response","51","91177","0.0-51.0","""event"",""trial"",""time""
""fullscreenenter"",""0"",""7755""
","
","
","""event"",""trial"",""time""
""fullscreenenter"",""0"",""7755""
","
","null","<p></p>","null","","","","","","","",""
"","image","52","91794","0.0-52.0","""event"",""trial"",""time""
""fullscreenenter"",""0"",""7755""
","
","
","""event"",""trial"",""time""
""fullscreenenter"",""0"",""7755""
","
","616","run_exp/static/images/Set 6_rs/111a.jpg","86","","","","","","learn","SL",""
"","show_choice","53","93181","0.0-53.0","""event"",""trial"",""time""
""fullscreenenter"",""0"",""7755""
","
","
","""event"",""trial"",""time""
""fullscreenenter"",""0"",""7755""
","
","null","run_exp/static/images/Set 6_rs/111a.jpg","null","","","","","","learn","SL",""
"","html-keyboard-response","54","93685","0.0-54.0","""event"",""trial"",""time""
""fullscreenenter"",""0"",""7755""
","
","
","""event"",""trial"",""time""
""fullscreenenter"",""0"",""7755""
","
","null","<p></p>","null","","","","","","","",""
"","image","55","94279","0.0-55.0","""event"",""trial"",""time""
""fullscreenenter"",""0"",""7755""
","
","
","""event"",""trial"",""time""
""fullscreenenter"",""0"",""7755""
","
","592.8000000007451","run_exp/static/images/Set 6_rs/166a.jpg","86","","","","","","learn","SR",""
"","show_choice","56","95687","0.0-56.0","""event"",""trial"",""time""
""fullscreenenter"",""0"",""7755""
","
","
","""event"",""trial"",""time""
""fullscreenenter"",""0"",""7755""
","
","null","run_exp/static/images/Set 6_rs/166a.jpg","null","","","","","","learn","SR",""
"","html-keyboard-response","57","96191","0.0-57.0","""event"",""trial"",""time""
""fullscreenenter"",""0"",""7755""
","
","
","""event"",""trial"",""time""
""fullscreenenter"",""0"",""7755""
","
","null","<p></p>","null","","","","","","","",""
"","image","58","96720","0.0-58.0","""event"",""trial"",""time""
""fullscreenenter"",""0"",""7755""
","
","
","""event"",""trial"",""time""
""fullscreenenter"",""0"",""7755""
","
","527.8999999985099","run_exp/static/images/Set 6_rs/070a.jpg","86","","","","","","learn","SR",""
"","show_choice","59","98194","0.0-59.0","""event"",""trial"",""time""
""fullscreenenter"",""0"",""7755""
","
","
","""event"",""trial"",""time""
""fullscreenenter"",""0"",""7755""
","
","null","run_exp/static/images/Set 6_rs/070a.jpg","null","","","","","","learn","SR",""
"","html-keyboard-response","60","98698","0.0-60.0","""event"",""trial"",""time""
""fullscreenenter"",""0"",""7755""
","
","
","""event"",""trial"",""time""
""fullscreenenter"",""0"",""7755""
","
","null","<p></p>","null","","","","","","","",""
"","image","61","99290","0.0-61.0","""event"",""trial"",""time""
""fullscreenenter"",""0"",""7755""
","
","
","""event"",""trial"",""time""
""fullscreenenter"",""0"",""7755""
","
","591","run_exp/static/images/Set 6_rs/178a.jpg","86","","","","","","learn","SR",""
"","show_choice","62","100703","0.0-62.0","""event"",""trial"",""time""
""fullscreenenter"",""0"",""7755""
","
","
","""event"",""trial"",""time""
""fullscreenenter"",""0"",""7755""
","
","null","run_exp/static/images/Set 6_rs/178a.jpg","null","","","","","","learn","SR",""
"","html-keyboard-response","63","101209","0.0-63.0","""event"",""trial"",""time""
""fullscreenenter"",""0"",""7755""
","
","
","""event"",""trial"",""time""
""fullscreenenter"",""0"",""7755""
","
","null","<p></p>","null","","","","","","","",""
"","image","64","102362","0.0-64.0","""event"",""trial"",""time""
""fullscreenenter"",""0"",""7755""
","
","
","""event"",""trial"",""time""
""fullscreenenter"",""0"",""7755""
","
","1151.5","run_exp/static/images/Set 6_rs/061a.jpg","86","","","","","","learn","SR",""
"","show_choice","65","103211","0.0-65.0","""event"",""trial"",""time""
""fullscreenenter"",""0"",""7755""
","
","
","""event"",""trial"",""time""
""fullscreenenter"",""0"",""7755""
","
","null","run_exp/static/images/Set 6_rs/061a.jpg","null","","","","","","learn","SR",""
"","html-keyboard-response","66","103716","0.0-66.0","""event"",""trial"",""time""
""fullscreenenter"",""0"",""7755""
","
","
","""event"",""trial"",""time""
""fullscreenenter"",""0"",""7755""
","
","null","<p></p>","null","","","","","","","",""
"","image","67","105141","0.0-67.0","""event"",""trial"",""time""
""fullscreenenter"",""0"",""7755""
","
","
","""event"",""trial"",""time""
""fullscreenenter"",""0"",""7755""
","
","1423.8999999985099","run_exp/static/images/Set 6_rs/091a.jpg","86","","","","","","learn","SL",""
"","show_choice","68","105722","0.0-68.0","""event"",""trial"",""time""
""fullscreenenter"",""0"",""7755""
","
","
","""event"",""trial"",""time""
""fullscreenenter"",""0"",""7755""
","
","null","run_exp/static/images/Set 6_rs/091a.jpg","null","","","","","","learn","SL",""
"","html-keyboard-response","69","106224","0.0-69.0","""event"",""trial"",""time""
""fullscreenenter"",""0"",""7755""
","
","
","""event"",""trial"",""time""
""fullscreenenter"",""0"",""7755""
","
","null","<p></p>","null","","","","","","","",""
"","image","70","107600","0.0-70.0","""event"",""trial"",""time""
""fullscreenenter"",""0"",""7755""
","
","
","""event"",""trial"",""time""
""fullscreenenter"",""0"",""7755""
","
","1374.5","run_exp/static/images/Set 6_rs/132a.jpg","86","","","","","","learn","SR",""
"","show_choice","71","108229","0.0-71.0","""event"",""trial"",""time""
""fullscreenenter"",""0"",""7755""
","
","
","""event"",""trial"",""time""
""fullscreenenter"",""0"",""7755""
","
","null","run_exp/static/images/Set 6_rs/132a.jpg","null","","","","","","learn","SR",""
"","html-keyboard-response","72","108734","0.0-72.0","""event"",""trial"",""time""
""fullscreenenter"",""0"",""7755""
","
","
","""event"",""trial"",""time""
""fullscreenenter"",""0"",""7755""
","
","null","<p></p>","null","","","","","","","",""
"","image","73","109353","0.0-73.0","""event"",""trial"",""time""
""fullscreenenter"",""0"",""7755""
","
","
","""event"",""trial"",""time""
""fullscreenenter"",""0"",""7755""
","
","618","run_exp/static/images/Set 6_rs/186a.jpg","86","","","","","","learn","SR",""
"","show_choice","74","110739","0.0-74.0","""event"",""trial"",""time""
""fullscreenenter"",""0"",""7755""
","
","
","""event"",""trial"",""time""
""fullscreenenter"",""0"",""7755""
","
","null","run_exp/static/images/Set 6_rs/186a.jpg","null","","","","","","learn","SR",""
"","html-keyboard-response","75","111241","0.0-75.0","""event"",""trial"",""time""
""fullscreenenter"",""0"",""7755""
","
","
","""event"",""trial"",""time""
""fullscreenenter"",""0"",""7755""
","
","null","<p></p>","null","","","","","","","",""
"","image","76","112066","0.0-76.0","""event"",""trial"",""time""
""fullscreenenter"",""0"",""7755""
","
","
","""event"",""trial"",""time""
""fullscreenenter"",""0"",""7755""
","
","823.3999999985099","run_exp/static/images/Set 6_rs/074a.jpg","86","","","","","","learn","SL",""
"","show_choice","77","113248","0.0-77.0","""event"",""trial"",""time""
""fullscreenenter"",""0"",""7755""
","
","
","""event"",""trial"",""time""
""fullscreenenter"",""0"",""7755""
","
","null","run_exp/static/images/Set 6_rs/074a.jpg","null","","","","","","learn","SL",""
"","html-keyboard-response","78","113753","0.0-78.0","""event"",""trial"",""time""
""fullscreenenter"",""0"",""7755""
","
","
","""event"",""trial"",""time""
""fullscreenenter"",""0"",""7755""
","
","null","<p></p>","null","","","","","","","",""
"","image","79","114402","0.0-79.0","""event"",""trial"",""time""
""fullscreenenter"",""0"",""7755""
","
","
","""event"",""trial"",""time""
""fullscreenenter"",""0"",""7755""
","
","647.7000000029802","run_exp/static/images/Set 6_rs/055a.jpg","86","","","","","","learn","SL",""
"","show_choice","80","115758","0.0-80.0","""event"",""trial"",""time""
""fullscreenenter"",""0"",""7755""
","
","
","""event"",""trial"",""time""
""fullscreenenter"",""0"",""7755""
","
","null","run_exp/static/images/Set 6_rs/055a.jpg","null","","","","","","learn","SL",""
"","html-keyboard-response","81","116259","0.0-81.0","""event"",""trial"",""time""
""fullscreenenter"",""0"",""7755""
","
","
","""event"",""trial"",""time""
""fullscreenenter"",""0"",""7755""
","
","null","<p></p>","null","","","","","","","",""
"","image","82","116836","0.0-82.0","""event"",""trial"",""time""
""fullscreenenter"",""0"",""7755""
","
","
","""event"",""trial"",""time""
""fullscreenenter"",""0"",""7755""
","
","574.4000000022352","run_exp/static/images/Set 6_rs/007a.jpg","86","","","","","","learn","SR",""
"","show_choice","83","118264","0.0-83.0","""event"",""trial"",""time""
""fullscreenenter"",""0"",""7755""
","
","
","""event"",""trial"",""time""
""fullscreenenter"",""0"",""7755""
","
","null","run_exp/static/images/Set 6_rs/007a.jpg","null","","","","","","learn","SR",""
"","html-keyboard-response","84","118765","0.0-84.0","""event"",""trial"",""time""
""fullscreenenter"",""0"",""7755""
","
","
","""event"",""trial"",""time""
""fullscreenenter"",""0"",""7755""
","
","null","<p></p>","null","","","","","","","",""
"","image","85","120112","0.0-85.0","""event"",""trial"",""time""
""fullscreenenter"",""0"",""7755""
","
","
","""event"",""trial"",""time""
""fullscreenenter"",""0"",""7755""
","
","1345.5","run_exp/static/images/Set 6_rs/122a.jpg","86","","","","","","learn","SR",""
"","show_choice","86","120771","0.0-86.0","""event"",""trial"",""time""
""fullscreenenter"",""0"",""7755""
","
","
","""event"",""trial"",""time""
""fullscreenenter"",""0"",""7755""
","
","null","run_exp/static/images/Set 6_rs/122a.jpg","null","","","","","","learn","SR",""
"","html-keyboard-response","87","121277","0.0-87.0","""event"",""trial"",""time""
""fullscreenenter"",""0"",""7755""
","
","
","""event"",""trial"",""time""
""fullscreenenter"",""0"",""7755""
","
","null","<p></p>","null","","","","","","","",""
"","image","88","121917","0.0-88.0","""event"",""trial"",""time""
""fullscreenenter"",""0"",""7755""
","
","
","""event"",""trial"",""time""
""fullscreenenter"",""0"",""7755""
","
","639.1000000014901","run_exp/static/images/Set 6_rs/012a.jpg","86","","","","","","learn","SR",""
"","show_choice","89","123282","0.0-89.0","""event"",""trial"",""time""
""fullscreenenter"",""0"",""7755""
","
","
","""event"",""trial"",""time""
""fullscreenenter"",""0"",""7755""
","
","null","run_exp/static/images/Set 6_rs/012a.jpg","null","","","","","","learn","SR",""
"","html-keyboard-response","90","123788","0.0-90.0","""event"",""trial"",""time""
""fullscreenenter"",""0"",""7755""
","
","
","""event"",""trial"",""time""
""fullscreenenter"",""0"",""7755""
","
","null","<p></p>","null","","","","","","","",""
"","image","91","124941","0.0-91.0","""event"",""trial"",""time""
""fullscreenenter"",""0"",""7755""
","
","
","""event"",""trial"",""time""
""fullscreenenter"",""0"",""7755""
","
","1152.199999999255","run_exp/static/images/Set 6_rs/121a.jpg","86","","","","","","learn","SR",""
"","show_choice","92","125792","0.0-92.0","""event"",""trial"",""time""
""fullscreenenter"",""0"",""7755""
","
","
","""event"",""trial"",""time""
""fullscreenenter"",""0"",""7755""
","
","null","run_exp/static/images/Set 6_rs/121a.jpg","null","","","","","","learn","SR",""
"","html-keyboard-response","93","126298","0.0-93.0","""event"",""trial"",""time""
""fullscreenenter"",""0"",""7755""
","
","
","""event"",""trial"",""time""
""fullscreenenter"",""0"",""7755""
","
","null","<p></p>","null","","","","","","","",""
"","image","94","127168","0.0-94.0","""event"",""trial"",""time""
""fullscreenenter"",""0"",""7755""
","
","
","""event"",""trial"",""time""
""fullscreenenter"",""0"",""7755""
","
","868.3000000007451","run_exp/static/images/Set 6_rs/138a.jpg","78","","","","","","learn","SL",""
"","show_choice","95","128305","0.0-95.0","""event"",""trial"",""time""
""fullscreenenter"",""0"",""7755""
","
","
","""event"",""trial"",""time""
""fullscreenenter"",""0"",""7755""
","
","null","run_exp/static/images/Set 6_rs/138a.jpg","null","","","","","","learn","SL",""
"","html-keyboard-response","96","128806","0.0-96.0","""event"",""trial"",""time""
""fullscreenenter"",""0"",""7755""
","
","
","""event"",""trial"",""time""
""fullscreenenter"",""0"",""7755""
","
","null","<p></p>","null","","","","","","","",""
"","image","97","129564","0.0-97.0","""event"",""trial"",""time""
""fullscreenenter"",""0"",""7755""
","
","
","""event"",""trial"",""time""
""fullscreenenter"",""0"",""7755""
","
","756.1999999992549","run_exp/static/images/Set 6_rs/071a.jpg","78","","","","","","learn","SL",""
"","show_choice","98","130812","0.0-98.0","""event"",""trial"",""time""
""fullscreenenter"",""0"",""7755""
","
","
","""event"",""trial"",""time""
""fullscreenenter"",""0"",""7755""
","
","null","run_exp/static/images/Set 6_rs/071a.jpg","null","","","","","","learn","SL",""
"","html-keyboard-response","99","131318","0.0-99.0","""event"",""trial"",""time""
""fullscreenenter"",""0"",""7755""
","
","
","""event"",""trial"",""time""
""fullscreenenter"",""0"",""7755""
","
","null","<p></p>","null","","","","","","","",""
"","image","100","131925","0.0-100.0","""event"",""trial"",""time""
""fullscreenenter"",""0"",""7755""
","
","
","""event"",""trial"",""time""
""fullscreenenter"",""0"",""7755""
","
","605.9000000022352","run_exp/static/images/Set 6_rs/024a.jpg","86","","","","","","learn","SR",""
"","show_choice","101","133323","0.0-101.0","""event"",""trial"",""time""
""fullscreenenter"",""0"",""7755""
","
","
","""event"",""trial"",""time""
""fullscreenenter"",""0"",""7755""
","
","null","run_exp/static/images/Set 6_rs/024a.jpg","null","","","","","","learn","SR",""
"","html-keyboard-response","102","133829","0.0-102.0","""event"",""trial"",""time""
""fullscreenenter"",""0"",""7755""
","
","
","""event"",""trial"",""time""
""fullscreenenter"",""0"",""7755""
","
","null","<p></p>","null","","","","","","","",""
"","image","103","134601","0.0-103.0","""event"",""trial"",""time""
""fullscreenenter"",""0"",""7755""
","
","
","""event"",""trial"",""time""
""fullscreenenter"",""0"",""7755""
","
","771.5999999977648","run_exp/static/images/Set 6_rs/167a.jpg","86","","","","","","learn","SL",""
"","show_choice","104","135835","0.0-104.0","""event"",""trial"",""time""
""fullscreenenter"",""0"",""7755""
","
","
","""event"",""trial"",""time""
""fullscreenenter"",""0"",""7755""
","
","null","run_exp/static/images/Set 6_rs/167a.jpg","null","","","","","","learn","SL",""
"","html-keyboard-response","105","136341","0.0-105.0","""event"",""trial"",""time""
""fullscreenenter"",""0"",""7755""
","
","
","""event"",""trial"",""time""
""fullscreenenter"",""0"",""7755""
","
","null","<p></p>","null","","","","","","","",""
"","image","106","137633","0.0-106.0","""event"",""trial"",""time""
""fullscreenenter"",""0"",""7755""
","
","
","""event"",""trial"",""time""
""fullscreenenter"",""0"",""7755""
","
","1290.699999999255","run_exp/static/images/Set 6_rs/089a.jpg","86","","","","","","learn","SL",""
"","show_choice","107","138347","0.0-107.0","""event"",""trial"",""time""
""fullscreenenter"",""0"",""7755""
","
","
","""event"",""trial"",""time""
""fullscreenenter"",""0"",""7755""
","
","null","run_exp/static/images/Set 6_rs/089a.jpg","null","","","","","","learn","SL",""
"","html-keyboard-response","108","138853","0.0-108.0","""event"",""trial"",""time""
""fullscreenenter"",""0"",""7755""
","
","
","""event"",""trial"",""time""
""fullscreenenter"",""0"",""7755""
","
","null","<p></p>","null","","","","","","","",""
"","image","109","140007","0.0-109.0","""event"",""trial"",""time""
""fullscreenenter"",""0"",""7755""
","
","
","""event"",""trial"",""time""
""fullscreenenter"",""0"",""7755""
","
","1152.300000000745","run_exp/static/images/Set 6_rs/017a.jpg","86","","","","","","learn","SL",""
"","show_choice","110","140859","0.0-110.0","""event"",""trial"",""time""
""fullscreenenter"",""0"",""7755""
","
","
","""event"",""trial"",""time""
""fullscreenenter"",""0"",""7755""
","
","null","run_exp/static/images/Set 6_rs/017a.jpg","null","","","","","","learn","SL",""
"","html-keyboard-response","111","141365","0.0-111.0","""event"",""trial"",""time""
""fullscreenenter"",""0"",""7755""
","
","
","""event"",""trial"",""time""
""fullscreenenter"",""0"",""7755""
","
","null","<p></p>","null","","","","","","","",""
"","image","112","142173","0.0-112.0","""event"",""trial"",""time""
""fullscreenenter"",""0"",""7755""
","
","
","""event"",""trial"",""time""
""fullscreenenter"",""0"",""7755""
","
","806.7000000029802","run_exp/static/images/Set 6_rs/116a.jpg","86","","","","","","learn","SL",""
"","show_choice","113","143371","0.0-113.0","""event"",""trial"",""time""
""fullscreenenter"",""0"",""7755""
","
","
","""event"",""trial"",""time""
""fullscreenenter"",""0"",""7755""
","
","null","run_exp/static/images/Set 6_rs/116a.jpg","null","","","","","","learn","SL",""
"","html-keyboard-response","114","143876","0.0-114.0","""event"",""trial"",""time""
""fullscreenenter"",""0"",""7755""
","
","
","""event"",""trial"",""time""
""fullscreenenter"",""0"",""7755""
","
","null","<p></p>","null","","","","","","","",""
"","image","115","145012","0.0-115.0","""event"",""trial"",""time""
""fullscreenenter"",""0"",""7755""
","
","
","""event"",""trial"",""time""
""fullscreenenter"",""0"",""7755""
","
","1134.9000000022352","run_exp/static/images/Set 6_rs/131a.jpg","86","","","","","","learn","SR",""
"","show_choice","116","145881","0.0-116.0","""event"",""trial"",""time""
""fullscreenenter"",""0"",""7755""
","
","
","""event"",""trial"",""time""
""fullscreenenter"",""0"",""7755""
","
","null","run_exp/static/images/Set 6_rs/131a.jpg","null","","","","","","learn","SR",""
"","html-keyboard-response","117","146383","0.0-117.0","""event"",""trial"",""time""
""fullscreenenter"",""0"",""7755""
","
","
","""event"",""trial"",""time""
""fullscreenenter"",""0"",""7755""
","
","null","<p></p>","null","","","","","","","",""
"","image","118","147131","0.0-118.0","""event"",""trial"",""time""
""fullscreenenter"",""0"",""7755""
","
","
","""event"",""trial"",""time""
""fullscreenenter"",""0"",""7755""
","
","747.1000000014901","run_exp/static/images/Set 6_rs/016a.jpg","86","","","","","","learn","SL",""
"","show_choice","119","148387","0.0-119.0","""event"",""trial"",""time""
""fullscreenenter"",""0"",""7755""
","
","
","""event"",""trial"",""time""
""fullscreenenter"",""0"",""7755""
","
","null","run_exp/static/images/Set 6_rs/016a.jpg","null","","","","","","learn","SL",""
"","html-keyboard-response","120","148892","0.0-120.0","""event"",""trial"",""time""
""fullscreenenter"",""0"",""7755""
","
","
","""event"",""trial"",""time""
""fullscreenenter"",""0"",""7755""
","
","null","<p></p>","null","","","","","","","",""
"","image","121","149429","0.0-121.0","""event"",""trial"",""time""
""fullscreenenter"",""0"",""7755""
","
","
","""event"",""trial"",""time""
""fullscreenenter"",""0"",""7755""
","
","536.1000000014901","run_exp/static/images/Set 6_rs/095a.jpg","86","","","","","","learn","SL",""
"","show_choice","122","150898","0.0-122.0","""event"",""trial"",""time""
""fullscreenenter"",""0"",""7755""
","
","
","""event"",""trial"",""time""
""fullscreenenter"",""0"",""7755""
","
","null","run_exp/static/images/Set 6_rs/095a.jpg","null","","","","","","learn","SL",""
"","html-keyboard-response","123","151404","0.0-123.0","""event"",""trial"",""time""
""fullscreenenter"",""0"",""7755""
","
","
","""event"",""trial"",""time""
""fullscreenenter"",""0"",""7755""
","
","null","<p></p>","null","","","","","","","",""
"","image","124","152135","0.0-124.0","""event"",""trial"",""time""
""fullscreenenter"",""0"",""7755""
","
","
","""event"",""trial"",""time""
""fullscreenenter"",""0"",""7755""
","
","729.6999999992549","run_exp/static/images/Set 6_rs/150a.jpg","86","","","","","","learn","SR",""
"","show_choice","125","153410","0.0-125.0","""event"",""trial"",""time""
""fullscreenenter"",""0"",""7755""
","
","
","""event"",""trial"",""time""
""fullscreenenter"",""0"",""7755""
","
","null","run_exp/static/images/Set 6_rs/150a.jpg","null","","","","","","learn","SR",""
"","html-keyboard-response","126","153916","0.0-126.0","""event"",""trial"",""time""
""fullscreenenter"",""0"",""7755""
","
","
","""event"",""trial"",""time""
""fullscreenenter"",""0"",""7755""
","
","null","<p></p>","null","","","","","","","",""
"","image","127","155089","0.0-127.0","""event"",""trial"",""time""
""fullscreenenter"",""0"",""7755""
","
","
","""event"",""trial"",""time""
""fullscreenenter"",""0"",""7755""
","
","1171.699999999255","run_exp/static/images/Set 6_rs/141a.jpg","78","","","","","","learn","SR",""
"","show_choice","128","155918","0.0-128.0","""event"",""trial"",""time""
""fullscreenenter"",""0"",""7755""
","
","
","""event"",""trial"",""time""
""fullscreenenter"",""0"",""7755""
","
","null","run_exp/static/images/Set 6_rs/141a.jpg","null","","","","","","learn","SR",""
"","html-keyboard-response","129","156424","0.0-129.0","""event"",""trial"",""time""
""fullscreenenter"",""0"",""7755""
","
","
","""event"",""trial"",""time""
""fullscreenenter"",""0"",""7755""
","
","null","<p></p>","null","","","","","","","",""
"","image","130","157356","0.0-130.0","""event"",""trial"",""time""
""fullscreenenter"",""0"",""7755""
","
","
","""event"",""trial"",""time""
""fullscreenenter"",""0"",""7755""
","
","931.4000000022352","run_exp/static/images/Set 6_rs/066a.jpg","86","","","","","","learn","SL",""
"","show_choice","131","158425","0.0-131.0","""event"",""trial"",""time""
""fullscreenenter"",""0"",""7755""
","
","
","""event"",""trial"",""time""
""fullscreenenter"",""0"",""7755""
","
","null","run_exp/static/images/Set 6_rs/066a.jpg","null","","","","","","learn","SL",""
"","html-keyboard-response","132","158931","0.0-132.0","""event"",""trial"",""time""
""fullscreenenter"",""0"",""7755""
","
","
","""event"",""trial"",""time""
""fullscreenenter"",""0"",""7755""
","
","null","<p></p>","null","","","","","","","",""
"","image","133","159576","0.0-133.0","""event"",""trial"",""time""
""fullscreenenter"",""0"",""7755""
","
","
","""event"",""trial"",""time""
""fullscreenenter"",""0"",""7755""
","
","644.6000000014901","run_exp/static/images/Set 6_rs/144a.jpg","86","","","","","","learn","SL",""
"","show_choice","134","160933","0.0-134.0","""event"",""trial"",""time""
""fullscreenenter"",""0"",""7755""
","
","
","""event"",""trial"",""time""
""fullscreenenter"",""0"",""7755""
","
","null","run_exp/static/images/Set 6_rs/144a.jpg","null","","","","","","learn","SL",""
"","html-keyboard-response","135","161435","0.0-135.0","""event"",""trial"",""time""
""fullscreenenter"",""0"",""7755""
","
","
","""event"",""trial"",""time""
""fullscreenenter"",""0"",""7755""
","
","null","<p></p>","null","","","","","","","",""
"","image","136","162001","0.0-136.0","""event"",""trial"",""time""
""fullscreenenter"",""0"",""7755""
","
","
","""event"",""trial"",""time""
""fullscreenenter"",""0"",""7755""
","
","565.5","run_exp/static/images/Set 6_rs/123a.jpg","86","","","","","","learn","SL",""
"","show_choice","137","163441","0.0-137.0","""event"",""trial"",""time""
""fullscreenenter"",""0"",""7755""
","
","
","""event"",""trial"",""time""
""fullscreenenter"",""0"",""7755""
","
","null","run_exp/static/images/Set 6_rs/123a.jpg","null","","","","","","learn","SL",""
"","html-keyboard-response","138","163947","0.0-138.0","""event"",""trial"",""time""
""fullscreenenter"",""0"",""7755""
","
","
","""event"",""trial"",""time""
""fullscreenenter"",""0"",""7755""
","
","null","<p></p>","null","","","","","","","",""
"","image","139","164554","0.0-139.0","""event"",""trial"",""time""
""fullscreenenter"",""0"",""7755""
","
","
","""event"",""trial"",""time""
""fullscreenenter"",""0"",""7755""
","
","606.2999999970198","run_exp/static/images/Set 6_rs/172a.jpg","86","","","","","","learn","SR",""
"","show_choice","140","165953","0.0-140.0","""event"",""trial"",""time""
""fullscreenenter"",""0"",""7755""
","
","
","""event"",""trial"",""time""
""fullscreenenter"",""0"",""7755""
","
","null","run_exp/static/images/Set 6_rs/172a.jpg","null","","","","","","learn","SR",""
"","html-keyboard-response","141","166454","0.0-141.0","""event"",""trial"",""time""
""fullscreenenter"",""0"",""7755""
","
","
","""event"",""trial"",""time""
""fullscreenenter"",""0"",""7755""
","
","null","<p></p>","null","","","","","","","",""
"","image","142","167757","0.0-142.0","""event"",""trial"",""time""
""fullscreenenter"",""0"",""7755""
","
","
","""event"",""trial"",""time""
""fullscreenenter"",""0"",""7755""
","
","1302.0999999977648","run_exp/static/images/Set 6_rs/108a.jpg","78","","","","","","learn","SR",""
"","show_choice","143","168455","0.0-143.0","""event"",""trial"",""time""
""fullscreenenter"",""0"",""7755""
","
","
","""event"",""trial"",""time""
""fullscreenenter"",""0"",""7755""
","
","null","run_exp/static/images/Set 6_rs/108a.jpg","null","","","","","","learn","SR",""
"","html-keyboard-response","144","168957","0.0-144.0","""event"",""trial"",""time""
""fullscreenenter"",""0"",""7755""
","
","
","""event"",""trial"",""time""
""fullscreenenter"",""0"",""7755""
","
","null","<p></p>","null","","","","","","","",""
"","image","145","169599","0.0-145.0","""event"",""trial"",""time""
""fullscreenenter"",""0"",""7755""
","
","
","""event"",""trial"",""time""
""fullscreenenter"",""0"",""7755""
","
","641.1000000014901","run_exp/static/images/Set 6_rs/050a.jpg","86","","","","","","learn","SL",""
"","show_choice","146","170963","0.0-146.0","""event"",""trial"",""time""
""fullscreenenter"",""0"",""7755""
","
","
","""event"",""trial"",""time""
""fullscreenenter"",""0"",""7755""
","
","null","run_exp/static/images/Set 6_rs/050a.jpg","null","","","","","","learn","SL",""
"","html-keyboard-response","147","171467","0.0-147.0","""event"",""trial"",""time""
""fullscreenenter"",""0"",""7755""
","
","
","""event"",""trial"",""time""
""fullscreenenter"",""0"",""7755""
","
","null","<p></p>","null","","","","","","","",""
"","image","148","172117","0.0-148.0","""event"",""trial"",""time""
""fullscreenenter"",""0"",""7755""
","
","
","""event"",""trial"",""time""
""fullscreenenter"",""0"",""7755""
","
","648.3000000007451","run_exp/static/images/Set 6_rs/079a.jpg","86","","","","","","learn","SL",""
"","show_choice","149","173473","0.0-149.0","""event"",""trial"",""time""
""fullscreenenter"",""0"",""7755""
","
","
","""event"",""trial"",""time""
""fullscreenenter"",""0"",""7755""
","
","null","run_exp/static/images/Set 6_rs/079a.jpg","null","","","","","","learn","SL",""
"","html-keyboard-response","150","173979","0.0-150.0","""event"",""trial"",""time""
""fullscreenenter"",""0"",""7755""
","
","
","""event"",""trial"",""time""
""fullscreenenter"",""0"",""7755""
","
","null","<p></p>","null","","","","","","","",""
"","image","151","174558","0.0-151.0","""event"",""trial"",""time""
""fullscreenenter"",""0"",""7755""
","
","
","""event"",""trial"",""time""
""fullscreenenter"",""0"",""7755""
","
","578.1000000014901","run_exp/static/images/Set 6_rs/064a.jpg","86","","","","","","learn","SR",""
"","show_choice","152","175982","0.0-152.0","""event"",""trial"",""time""
""fullscreenenter"",""0"",""7755""
","
","
","""event"",""trial"",""time""
""fullscreenenter"",""0"",""7755""
","
","null","run_exp/static/images/Set 6_rs/064a.jpg","null","","","","","","learn","SR",""
"","html-keyboard-response","153","176485","0.0-153.0","""event"",""trial"",""time""
""fullscreenenter"",""0"",""7755""
","
","
","""event"",""trial"",""time""
""fullscreenenter"",""0"",""7755""
","
","null","<p></p>","null","","","","","","","",""
"","image","154","177367","0.0-154.0","""event"",""trial"",""time""
""fullscreenenter"",""0"",""7755""
","
","
","""event"",""trial"",""time""
""fullscreenenter"",""0"",""7755""
","
","880.6999999992549","run_exp/static/images/Set 6_rs/177a.jpg","78","","","","","","learn","SR",""
"","show_choice","155","178489","0.0-155.0","""event"",""trial"",""time""
""fullscreenenter"",""0"",""7755""
","
","
","""event"",""trial"",""time""
""fullscreenenter"",""0"",""7755""
","
","null","run_exp/static/images/Set 6_rs/177a.jpg","null","","","","","","learn","SR",""
"","html-keyboard-response","156","178994","0.0-156.0","""event"",""trial"",""time""
""fullscreenenter"",""0"",""7755""
","
","
","""event"",""trial"",""time""
""fullscreenenter"",""0"",""7755""
","
","null","<p></p>","null","","","","","","","",""
"","image","157","179805","0.0-157.0","""event"",""trial"",""time""
""fullscreenenter"",""0"",""7755""
","
","
","""event"",""trial"",""time""
""fullscreenenter"",""0"",""7755""
","
","809.8000000007451","run_exp/static/images/Set 6_rs/134a.jpg","86","","","","","","learn","SR",""
"","show_choice","158","181000","0.0-158.0","""event"",""trial"",""time""
""fullscreenenter"",""0"",""7755""
","
","
","""event"",""trial"",""time""
""fullscreenenter"",""0"",""7755""
","
","null","run_exp/static/images/Set 6_rs/134a.jpg","null","","","","","","learn","SR",""
"","html-keyboard-response","159","181504","0.0-159.0","""event"",""trial"",""time""
""fullscreenenter"",""0"",""7755""
","
","
","""event"",""trial"",""time""
""fullscreenenter"",""0"",""7755""
","
","null","<p></p>","null","","","","","","","",""
"","image","160","182294","0.0-160.0","""event"",""trial"",""time""
""fullscreenenter"",""0"",""7755""
","
","
","""event"",""trial"",""time""
""fullscreenenter"",""0"",""7755""
","
","789.1000000014901","run_exp/static/images/Set 6_rs/126a.jpg","78","","","","","","learn","SR",""
"","show_choice","161","183509","0.0-161.0","""event"",""trial"",""time""
""fullscreenenter"",""0"",""7755""
","
","
","""event"",""trial"",""time""
""fullscreenenter"",""0"",""7755""
","
","null","run_exp/static/images/Set 6_rs/126a.jpg","null","","","","","","learn","SR",""
"","html-keyboard-response","162","184013","0.0-162.0","""event"",""trial"",""time""
""fullscreenenter"",""0"",""7755""
","
","
","""event"",""trial"",""time""
""fullscreenenter"",""0"",""7755""
","
","null","<p></p>","null","","","","","","","",""
"","image","163","184843","0.0-163.0","""event"",""trial"",""time""
""fullscreenenter"",""0"",""7755""
","
","
","""event"",""trial"",""time""
""fullscreenenter"",""0"",""7755""
","
","829.5","run_exp/static/images/Set 6_rs/129a.jpg","86","","","","","","learn","SL",""
"","show_choice","164","186018","0.0-164.0","""event"",""trial"",""time""
""fullscreenenter"",""0"",""7755""
","
","
","""event"",""trial"",""time""
""fullscreenenter"",""0"",""7755""
","
","null","run_exp/static/images/Set 6_rs/129a.jpg","null","","","","","","learn","SL",""
"","html-keyboard-response","165","186524","0.0-165.0","""event"",""trial"",""time""
""fullscreenenter"",""0"",""7755""
","
","
","""event"",""trial"",""time""
""fullscreenenter"",""0"",""7755""
","
","null","<p></p>","null","","","","","","","",""
"","image","166","187061","0.0-166.0","""event"",""trial"",""time""
""fullscreenenter"",""0"",""7755""
","
","
","""event"",""trial"",""time""
""fullscreenenter"",""0"",""7755""
","
","536.6999999992549","run_exp/static/images/Set 6_rs/010a.jpg","86","","","","","","learn","SR",""
"","show_choice","167","188530","0.0-167.0","""event"",""trial"",""time""
""fullscreenenter"",""0"",""7755""
","
","
","""event"",""trial"",""time""
""fullscreenenter"",""0"",""7755""
","
","null","run_exp/static/images/Set 6_rs/010a.jpg","null","","","","","","learn","SR",""
"","html-keyboard-response","168","189034","0.0-168.0","""event"",""trial"",""time""
""fullscreenenter"",""0"",""7755""
","
","
","""event"",""trial"",""time""
""fullscreenenter"",""0"",""7755""
","
","null","<p></p>","null","","","","","","","",""
"","image","169","189724","0.0-169.0","""event"",""trial"",""time""
""fullscreenenter"",""0"",""7755""
","
","
","""event"",""trial"",""time""
""fullscreenenter"",""0"",""7755""
","
","689.5","run_exp/static/images/Set 6_rs/008a.jpg","86","","","","","","learn","SL",""
"","show_choice","170","191040","0.0-170.0","""event"",""trial"",""time""
""fullscreenenter"",""0"",""7755""
","
","
","""event"",""trial"",""time""
""fullscreenenter"",""0"",""7755""
","
","null","run_exp/static/images/Set 6_rs/008a.jpg","null","","","","","","learn","SL",""
"","html-keyboard-response","171","191546","0.0-171.0","""event"",""trial"",""time""
""fullscreenenter"",""0"",""7755""
","
","
","""event"",""trial"",""time""
""fullscreenenter"",""0"",""7755""
","
","null","<p></p>","null","","","","","","","",""
"","image","172","192068","0.0-172.0","""event"",""trial"",""time""
""fullscreenenter"",""0"",""7755""
","
","
","""event"",""trial"",""time""
""fullscreenenter"",""0"",""7755""
","
","521.5","run_exp/static/images/Set 6_rs/019a.jpg","86","","","","","","learn","SL",""
"","show_choice","173","193552","0.0-173.0","""event"",""trial"",""time""
""fullscreenenter"",""0"",""7755""
","
","
","""event"",""trial"",""time""
""fullscreenenter"",""0"",""7755""
","
","null","run_exp/static/images/Set 6_rs/019a.jpg","null","","","","","","learn","SL",""
"","html-keyboard-response","174","194058","0.0-174.0","""event"",""trial"",""time""
""fullscreenenter"",""0"",""7755""
","
","
","""event"",""trial"",""time""
""fullscreenenter"",""0"",""7755""
","
","null","<p></p>","null","","","","","","","",""
"","image","175","194512","0.0-175.0","""event"",""trial"",""time""
""fullscreenenter"",""0"",""7755""
","
","
","""event"",""trial"",""time""
""fullscreenenter"",""0"",""7755""
","
","452.80000000074506","run_exp/static/images/Set 6_rs/187a.jpg","86","","","","","","learn","SR",""
"","show_choice","176","196064","0.0-176.0","""event"",""trial"",""time""
""fullscreenenter"",""0"",""7755""
","
","
","""event"",""trial"",""time""
""fullscreenenter"",""0"",""7755""
","
","null","run_exp/static/images/Set 6_rs/187a.jpg","null","","","","","","learn","SR",""
"","html-keyboard-response","177","196570","0.0-177.0","""event"",""trial"",""time""
""fullscreenenter"",""0"",""7755""
","
","
","""event"",""trial"",""time""
""fullscreenenter"",""0"",""7755""
","
","null","<p></p>","null","","","","","","","",""
"","image","178","197491","0.0-178.0","""event"",""trial"",""time""
""fullscreenenter"",""0"",""7755""
","
","
","""event"",""trial"",""time""
""fullscreenenter"",""0"",""7755""
","
","919.5999999977648","run_exp/static/images/Set 6_rs/117a.jpg","86","","","","","","learn","SL",""
"","show_choice","179","198574","0.0-179.0","""event"",""trial"",""time""
""fullscreenenter"",""0"",""7755""
","
","
","""event"",""trial"",""time""
""fullscreenenter"",""0"",""7755""
","
","null","run_exp/static/images/Set 6_rs/117a.jpg","null","","","","","","learn","SL",""
"","html-keyboard-response","180","199080","0.0-180.0","""event"",""trial"",""time""
""fullscreenenter"",""0"",""7755""
","
","
","""event"",""trial"",""time""
""fullscreenenter"",""0"",""7755""
","
","null","<p></p>","null","","","","","","","",""
"","image","181","199588","0.0-181.0","""event"",""trial"",""time""
""fullscreenenter"",""0"",""7755""
","
","
","""event"",""trial"",""time""
""fullscreenenter"",""0"",""7755""
","
","506.8999999985099","run_exp/static/images/Set 6_rs/006a.jpg","86","","","","","","learn","SL",""
"","show_choice","182","201086","0.0-182.0","""event"",""trial"",""time""
""fullscreenenter"",""0"",""7755""
","
","
","""event"",""trial"",""time""
""fullscreenenter"",""0"",""7755""
","
","null","run_exp/static/images/Set 6_rs/006a.jpg","null","","","","","","learn","SL",""
"","html-keyboard-response","183","201588","0.0-183.0","""event"",""trial"",""time""
""fullscreenenter"",""0"",""7755""
","
","
","""event"",""trial"",""time""
""fullscreenenter"",""0"",""7755""
","
","null","<p></p>","null","","","","","","","",""
"","image","184","202371","0.0-184.0","""event"",""trial"",""time""
""fullscreenenter"",""0"",""7755""
","
","
","""event"",""trial"",""time""
""fullscreenenter"",""0"",""7755""
","
","782.3999999985099","run_exp/static/images/Set 6_rs/076a.jpg","86","","","","","","learn","SR",""
"","show_choice","185","203594","0.0-185.0","""event"",""trial"",""time""
""fullscreenenter"",""0"",""7755""
","
","
","""event"",""trial"",""time""
""fullscreenenter"",""0"",""7755""
","
","null","run_exp/static/images/Set 6_rs/076a.jpg","null","","","","","","learn","SR",""
"","html-keyboard-response","186","204097","0.0-186.0","""event"",""trial"",""time""
""fullscreenenter"",""0"",""7755""
","
","
","""event"",""trial"",""time""
""fullscreenenter"",""0"",""7755""
","
","null","<p></p>","null","","","","","","","",""
"","image","187","205056","0.0-187.0","""event"",""trial"",""time""
""fullscreenenter"",""0"",""7755""
","
","
","""event"",""trial"",""time""
""fullscreenenter"",""0"",""7755""
","
","957.5","run_exp/static/images/Set 6_rs/062a.jpg","86","","","","","","learn","SL",""
"","show_choice","188","206104","0.0-188.0","""event"",""trial"",""time""
""fullscreenenter"",""0"",""7755""
","
","
","""event"",""trial"",""time""
""fullscreenenter"",""0"",""7755""
","
","null","run_exp/static/images/Set 6_rs/062a.jpg","null","","","","","","learn","SL",""
"","html-keyboard-response","189","206608","0.0-189.0","""event"",""trial"",""time""
""fullscreenenter"",""0"",""7755""
","
","
","""event"",""trial"",""time""
""fullscreenenter"",""0"",""7755""
","
","null","<p></p>","null","","","","","","","",""
"","image","190","207418","0.0-190.0","""event"",""trial"",""time""
""fullscreenenter"",""0"",""7755""
","
","
","""event"",""trial"",""time""
""fullscreenenter"",""0"",""7755""
","
","809.1000000014901","run_exp/static/images/Set 6_rs/075a.jpg","86","","","","","","learn","SR",""
"","show_choice","191","208610","0.0-191.0","""event"",""trial"",""time""
""fullscreenenter"",""0"",""7755""
","
","
","""event"",""trial"",""time""
""fullscreenenter"",""0"",""7755""
","
","null","run_exp/static/images/Set 6_rs/075a.jpg","null","","","","","","learn","SR",""
"","html-keyboard-response","192","209116","0.0-192.0","""event"",""trial"",""time""
""fullscreenenter"",""0"",""7755""
","
","
","""event"",""trial"",""time""
""fullscreenenter"",""0"",""7755""
","
","null","<p></p>","null","","","","","","","",""
"","image","193","210048","0.0-193.0","""event"",""trial"",""time""
""fullscreenenter"",""0"",""7755""
","
","
","""event"",""trial"",""time""
""fullscreenenter"",""0"",""7755""
","
","930.8999999985099","run_exp/static/images/Set 6_rs/154a.jpg","86","","","","","","learn","SR",""
"","show_choice","194","211123","0.0-194.0","""event"",""trial"",""time""
""fullscreenenter"",""0"",""7755""
","
","
","""event"",""trial"",""time""
""fullscreenenter"",""0"",""7755""
","
","null","run_exp/static/images/Set 6_rs/154a.jpg","null","","","","","","learn","SR",""
"","html-keyboard-response","195","211629","0.0-195.0","""event"",""trial"",""time""
""fullscreenenter"",""0"",""7755""
","
","
","""event"",""trial"",""time""
""fullscreenenter"",""0"",""7755""
","
","null","<p></p>","null","","","","","","","",""
"","test_intro","196","248469","0.0-196.0","""event"",""trial"",""time""
""fullscreenenter"",""0"",""7755""
","
","
","""event"",""trial"",""time""
""fullscreenenter"",""0"",""7755""
","
","null","run_exp/static/audio/clip_2_memory.m4a","null","","","","","<div class='center'><p>Now, lets see how much you remember about the items you just saw.  For each item, you need to indicate if it was <b>old</b> by pressing the <b>v</b> key, <b>similar</b> by pressing the <b>b</b> key, or <b>new</b> by pressing the <b>n</b> key.</p><p>Old refers to an item that you saw before in the indoor/outdoor game that you just played, new refers to an item you have <b>not</b> seen before within the indoor/outdoor game, and similar refers to an item that is similar to an item youve seen before but is not exactly the same. </p><p>Before we begin, lets go over some brief demonstrations to make sure you understand.</p></div>","","",""
"","html-keyboard-response","197","248770","0.0-197.0","""event"",""trial"",""time""
""fullscreenenter"",""0"",""7755""
","
","
","""event"",""trial"",""time""
""fullscreenenter"",""0"",""7755""
","
","300.3999999985099","<div class='center'><p>Now, lets see how much you remember about the items you just saw.  For each item, you need to indicate if it was <b>old</b> by pressing the <b>v</b> key, <b>similar</b> by pressing the <b>b</b> key, or <b>new</b> by pressing the <b>n</b> key.</p><p>Old refers to an item that you saw before in the indoor/outdoor game that you just played, new refers to an item you have <b>not</b> seen before within the indoor/outdoor game, and similar refers to an item that is similar to an item youve seen before but is not exactly the same. </p><p>Before we begin, lets go over some brief demonstrations to make sure you understand.</p><div><p><b>[Press the space bar to continue]</b></p></div>","32","","","","","","","",""
"","items","198","256274","0.0-198.0","""event"",""trial"",""time""
""fullscreenenter"",""0"",""7755""
","
","
","""event"",""trial"",""time""
""fullscreenenter"",""0"",""7755""
","
","null","run_exp/static/audio/clip_3_items.m4a","null","","","","","","","",""
"","mop","199","260780","0.0-199.0","""event"",""trial"",""time""
""fullscreenenter"",""0"",""7755""
","
","
","""event"",""trial"",""time""
""fullscreenenter"",""0"",""7755""
","
","null","run_exp/static/audio/clip_4_mop.m4a","null","","","","","","","",""
"","baseball","200","264286","0.0-200.0","""event"",""trial"",""time""
""fullscreenenter"",""0"",""7755""
","
","
","""event"",""trial"",""time""
""fullscreenenter"",""0"",""7755""
","
","null","run_exp/static/audio/clip_5_baseball.m4a","null","","","","","","","",""
"","trumpet","201","267788","0.0-201.0","""event"",""trial"",""time""
""fullscreenenter"",""0"",""7755""
","
","
","""event"",""trial"",""time""
""fullscreenenter"",""0"",""7755""
","
","null","run_exp/static/audio/clip_6_trumpet.m4a","null","","","","","","","",""
"","gummies","202","271291","0.0-202.0","""event"",""trial"",""time""
""fullscreenenter"",""0"",""7755""
","
","
","""event"",""trial"",""time""
""fullscreenenter"",""0"",""7755""
","
","null","run_exp/static/audio/clip_7_gummies.m4a","null","","","","","","","",""
"","osn","203","275797","0.0-203.0","""event"",""trial"",""time""
""fullscreenenter"",""0"",""7755""
","
","
","""event"",""trial"",""time""
""fullscreenenter"",""0"",""7755""
","
","null","run_exp/static/audio/clip_8_osn.m4a","null","","","","","","","",""
"","old_1","204","282301","0.0-204.0","""event"",""trial"",""time""
""fullscreenenter"",""0"",""7755""
","
","
","""event"",""trial"",""time""
""fullscreenenter"",""0"",""7755""
","
","null","run_exp/static/audio/clip_9_old_trumpet.m4a","null","","","","","","","",""
"","new_1","205","289807","0.0-205.0","""event"",""trial"",""time""
""fullscreenenter"",""0"",""7755""
","
","
","""event"",""trial"",""time""
""fullscreenenter"",""0"",""7755""
","
","null","run_exp/static/audio/clip_10_new_balloon.m4a","null","","","","","","","",""
"","similar_1a","206","294310","0.0-206.0","""event"",""trial"",""time""
""fullscreenenter"",""0"",""7755""
","
","
","""event"",""trial"",""time""
""fullscreenenter"",""0"",""7755""
","
","null","run_exp/static/audio/clip_11a_similar_mop.m4a","null","","","","","","","",""
"","similar_1b","207","300817","0.0-207.0","""event"",""trial"",""time""
""fullscreenenter"",""0"",""7755""
","
","
","""event"",""trial"",""time""
""fullscreenenter"",""0"",""7755""
","
","null","run_exp/static/audio/clip_11b_similar_mop.m4a","null","","","","","","","",""
"","new_2","208","304322","0.0-208.0","""event"",""trial"",""time""
""fullscreenenter"",""0"",""7755""
","
","
","""event"",""trial"",""time""
""fullscreenenter"",""0"",""7755""
","
","null","run_exp/static/audio/clip_12_new_stoplight.m4a","null","","","","","","","",""
"","old_2","209","307828","0.0-209.0","""event"",""trial"",""time""
""fullscreenenter"",""0"",""7755""
","
","
","""event"",""trial"",""time""
""fullscreenenter"",""0"",""7755""
","
","null","run_exp/static/audio/clip_13_old_baseball.m4a","null","","","","","","","",""
"","similar_2a","210","311333","0.0-210.0","""event"",""trial"",""time""
""fullscreenenter"",""0"",""7755""
","
","
","""event"",""trial"",""time""
""fullscreenenter"",""0"",""7755""
","
","null","run_exp/static/audio/clip_14a_similar_gummies.m4a","null","","","","","","","",""
"","similar_2b","211","318840","0.0-211.0","""event"",""trial"",""time""
""fullscreenenter"",""0"",""7755""
","
","
","""event"",""trial"",""time""
""fullscreenenter"",""0"",""7755""
","
","null","run_exp/static/audio/clip_14b_similar_gummies.m4a","null","","","","","","","",""
"","practice","212","360946","0.0-212.0","""event"",""trial"",""time""
""fullscreenenter"",""0"",""7755""
","
","
","""event"",""trial"",""time""
""fullscreenenter"",""0"",""7755""
","
","null","run_exp/static/audio/clip_15_practice.m4a","null","","","","","<div class='center'><p>Lets practice a little to make sure you understand the difference between new, similar, and old. Lets say you saw these three items in the indoor/outdoor game.</p><p> Try your best to remember these images because youll soon be tested on them in a practice game. In the practice game, youll be shown images and youll have to say if they are old (one of the three images belows), similar (similar to one of the images below but not exactly the same), or new (are not one of the images below nor similar to them).</p><p>Once you press the space bar youll be shown these images again but one at time. Then youll begin the practice game.</p><p><img src='run_exp/static/images/tutorial/test/three_indoor_outdoor.png' height='300'></p></div>","","",""
"","html-keyboard-response","213","362182","0.0-213.0","""event"",""trial"",""time""
""fullscreenenter"",""0"",""7755""
","
","
","""event"",""trial"",""time""
""fullscreenenter"",""0"",""7755""
","
","1235.300000000745","<div class='center'><p>Lets practice a little to make sure you understand the difference between new, similar, and old. Lets say you saw these three items in the indoor/outdoor game.</p><p> Try your best to remember these images because youll soon be tested on them in a practice game. In the practice game, youll be shown images and youll have to say if they are old (one of the three images belows), similar (similar to one of the images below but not exactly the same), or new (are not one of the images below nor similar to them).</p><p>Once you press the space bar youll be shown these images again but one at time. Then youll begin the practice game.</p><p><img src='run_exp/static/images/tutorial/test/three_indoor_outdoor.png' height='300'></p><div><p><b>[Press the space bar to continue]</b></p></div>","32","","","","","","","",""
"","planet","214","364183","0.0-214.0","""event"",""trial"",""time""
""fullscreenenter"",""0"",""7755""
","
","
","""event"",""trial"",""time""
""fullscreenenter"",""0"",""7755""
","
","null","run_exp/static/images/tutorial/test/008a.jpg","null","","","","","","","",""
"","boot","215","366185","0.0-215.0","""event"",""trial"",""time""
""fullscreenenter"",""0"",""7755""
","
","
","""event"",""trial"",""time""
""fullscreenenter"",""0"",""7755""
","
","null","run_exp/static/images/tutorial/test/011a.jpg","null","","","","","","","",""
"","lemon","216","368186","0.0-216.0","""event"",""trial"",""time""
""fullscreenenter"",""0"",""7755""
","
","
","""event"",""trial"",""time""
""fullscreenenter"",""0"",""7755""
","
","null","run_exp/static/images/tutorial/test/018a.jpg","null","","","","","","","",""
"","practice_q1","217","371982","0.0-217.0","""event"",""trial"",""time""
""fullscreenenter"",""0"",""7755""
","
","
","""event"",""trial"",""time""
""fullscreenenter"",""0"",""7755""
","
","3794.60000000149","run_exp/static/audio/clip_16_practice_question.m4a","78","","","","","","","",""
"","correct","218","373856","0.0-218.0-0.0","""event"",""trial"",""time""
""fullscreenenter"",""0"",""7755""
","
","
","""event"",""trial"",""time""
""fullscreenenter"",""0"",""7755""
","
","null","run_exp/static/audio/clip_17_correct.m4a","null","","","","","<div class='center'><p>That's correct!</p></div>","","",""
"","html-keyboard-response","219","374893","0.0-218.0-1.0","""event"",""trial"",""time""
""fullscreenenter"",""0"",""7755""
","
","
","""event"",""trial"",""time""
""fullscreenenter"",""0"",""7755""
","
","1036.4000000022352","<div class='center'><p>That's correct!</p><div><p><b>[Press the space bar to continue]</b></p></div>","32","","","","","","","",""
"","practice_q2","220","377078","0.0-218.0-2.0","""event"",""trial"",""time""
""fullscreenenter"",""0"",""7755""
","
","
","""event"",""trial"",""time""
""fullscreenenter"",""0"",""7755""
","
","2183.300000000745","run_exp/static/audio/clip_16_practice_question.m4a","86","","","","","","","",""
"","correct","221","378941","0.0-219.0-0.0","""event"",""trial"",""time""
""fullscreenenter"",""0"",""7755""
","
","
","""event"",""trial"",""time""
""fullscreenenter"",""0"",""7755""
","
","null","run_exp/static/audio/clip_17_correct.m4a","null","","","","","<div class='center'><p>That's correct!</p></div>","","",""
"","html-keyboard-response","222","379237","0.0-219.0-1.0","""event"",""trial"",""time""
""fullscreenenter"",""0"",""7755""
","
","
","""event"",""trial"",""time""
""fullscreenenter"",""0"",""7755""
","
","294.4000000022352","<div class='center'><p>That's correct!</p><div><p><b>[Press the space bar to continue]</b></p></div>","32","","","","","","","",""
"","practice_q3","223","381134","0.0-219.0-2.0","""event"",""trial"",""time""
""fullscreenenter"",""0"",""7755""
","
","
","""event"",""trial"",""time""
""fullscreenenter"",""0"",""7755""
","
","1896.5","run_exp/static/audio/clip_16_practice_question.m4a","66","","","","","","","",""
"","correct","224","383121","0.0-220.0-0.0","""event"",""trial"",""time""
""fullscreenenter"",""0"",""7755""
","
","
","""event"",""trial"",""time""
""fullscreenenter"",""0"",""7755""
","
","null","run_exp/static/audio/clip_17_correct.m4a","null","","","","","<div class='center'><p>That's correct!</p></div>","","",""
"","html-keyboard-response","225","383650","0.0-220.0-1.0","""event"",""trial"",""time""
""fullscreenenter"",""0"",""7755""
","
","
","""event"",""trial"",""time""
""fullscreenenter"",""0"",""7755""
","
","527.6999999992549","<div class='center'><p>That's correct!</p><div><p><b>[Press the space bar to continue]</b></p></div>","32","","","","","","","",""
"","begin_text","226","402115","0.0-221.0-0.0","""event"",""trial"",""time""
""fullscreenenter"",""0"",""7755""
","
","
","""event"",""trial"",""time""
""fullscreenenter"",""0"",""7755""
","
","null","run_exp/static/audio/clip_22_begin_test.m4a","null","","","","","<div class='center'><p>On to the real game where well test your memory of items from the indoor/outdoor game. For each item, you need to indicate if the item is <b>old</b> by pressing the <b>v</b> key, <b>similar</b> by pressing the <b>b</b> key, or <b>new</b> by pressing the <b>n</b> key. </p></div>","","",""
"","html-keyboard-response","227","402963","0.0-221.0-1.0","""event"",""trial"",""time""
""fullscreenenter"",""0"",""7755""
","
","
","""event"",""trial"",""time""
""fullscreenenter"",""0"",""7755""
","
","847.5999999977648","<div class='center'><p>On to the real game where well test your memory of items from the indoor/outdoor game. For each item, you need to indicate if the item is <b>old</b> by pressing the <b>v</b> key, <b>similar</b> by pressing the <b>b</b> key, or <b>new</b> by pressing the <b>n</b> key. </p><div><p><b>[Press the space bar to continue]</b></p></div>","32","","","","","","","",""
"","image","228","404921","0.0-222.0-0.0","""event"",""trial"",""time""
""fullscreenenter"",""0"",""7755""
","
","
","""event"",""trial"",""time""
""fullscreenenter"",""0"",""7755""
","
","1956.8999999985099","run_exp/static/images/Set 6_rs/050b.jpg","86","","","","","","test","TL","3"
"","show_choice","229","405423","0.0-222.0-1.0","""event"",""trial"",""time""
""fullscreenenter"",""0"",""7755""
","
","
","""event"",""trial"",""time""
""fullscreenenter"",""0"",""7755""
","
","null","run_exp/static/images/Set 6_rs/050b.jpg","null","","","","","","test","TL",""
"","html-keyboard-response","230","405929","0.0-222.0-2.0","""event"",""trial"",""time""
""fullscreenenter"",""0"",""7755""
","
","
","""event"",""trial"",""time""
""fullscreenenter"",""0"",""7755""
","
","null","<p></p>","null","","","","","","","",""
"","image","231","407085","0.0-223.0-0.0","""event"",""trial"",""time""
""fullscreenenter"",""0"",""7755""
","
","
","""event"",""trial"",""time""
""fullscreenenter"",""0"",""7755""
","
","1155.2000000029802","run_exp/static/images/Set 6_rs/170a.jpg","78","","","","","","test","TF","2"
"","show_choice","232","407588","0.0-223.0-1.0","""event"",""trial"",""time""
""fullscreenenter"",""0"",""7755""
","
","
","""event"",""trial"",""time""
""fullscreenenter"",""0"",""7755""
","
","null","run_exp/static/images/Set 6_rs/170a.jpg","null","","","","","","test","TF",""
"","html-keyboard-response","233","408093","0.0-223.0-2.0","""event"",""trial"",""time""
""fullscreenenter"",""0"",""7755""
","
","
","""event"",""trial"",""time""
""fullscreenenter"",""0"",""7755""
","
","null","<p></p>","null","","","","","","","",""
"","image","234","409443","0.0-224.0-0.0","""event"",""trial"",""time""
""fullscreenenter"",""0"",""7755""
","
","
","""event"",""trial"",""time""
""fullscreenenter"",""0"",""7755""
","
","1349.1000000014901","run_exp/static/images/Set 6_rs/122a.jpg","86","","","","","","test","TR","5"
"","show_choice","235","409948","0.0-224.0-1.0","""event"",""trial"",""time""
""fullscreenenter"",""0"",""7755""
","
","
","""event"",""trial"",""time""
""fullscreenenter"",""0"",""7755""
","
","null","run_exp/static/images/Set 6_rs/122a.jpg","null","","","","","","test","TR",""
"","html-keyboard-response","236","410451","0.0-224.0-2.0","""event"",""trial"",""time""
""fullscreenenter"",""0"",""7755""
","
","
","""event"",""trial"",""time""
""fullscreenenter"",""0"",""7755""
","
","null","<p></p>","null","","","","","","","",""
"","image","237","411708","0.0-225.0-0.0","""event"",""trial"",""time""
""fullscreenenter"",""0"",""7755""
","
","
","""event"",""trial"",""time""
""fullscreenenter"",""0"",""7755""
","
","1255.800000000745","run_exp/static/images/Set 6_rs/188a.jpg","78","","","","","","test","TF","3"
"","show_choice","238","412213","0.0-225.0-1.0","""event"",""trial"",""time""
""fullscreenenter"",""0"",""7755""
","
","
","""event"",""trial"",""time""
""fullscreenenter"",""0"",""7755""
","
","null","run_exp/static/images/Set 6_rs/188a.jpg","null","","","","","","test","TF",""
"","html-keyboard-response","239","412716","0.0-225.0-2.0","""event"",""trial"",""time""
""fullscreenenter"",""0"",""7755""
","
","
","""event"",""trial"",""time""
""fullscreenenter"",""0"",""7755""
","
","null","<p></p>","null","","","","","","","",""
"","image","240","413661","0.0-226.0-0.0","""event"",""trial"",""time""
""fullscreenenter"",""0"",""7755""
","
","
","""event"",""trial"",""time""
""fullscreenenter"",""0"",""7755""
","
","943.3999999985099","run_exp/static/images/Set 6_rs/166a.jpg","86","","","","","","test","TR","1"
"","show_choice","241","414166","0.0-226.0-1.0","""event"",""trial"",""time""
""fullscreenenter"",""0"",""7755""
","
","
","""event"",""trial"",""time""
""fullscreenenter"",""0"",""7755""
","
","null","run_exp/static/images/Set 6_rs/166a.jpg","null","","","","","","test","TR",""
"","html-keyboard-response","242","414672","0.0-226.0-2.0","""event"",""trial"",""time""
""fullscreenenter"",""0"",""7755""
","
","
","""event"",""trial"",""time""
""fullscreenenter"",""0"",""7755""
","
","null","<p></p>","null","","","","","","","",""
"","image","243","416111","0.0-227.0-0.0","""event"",""trial"",""time""
""fullscreenenter"",""0"",""7755""
","
","
","""event"",""trial"",""time""
""fullscreenenter"",""0"",""7755""
","
","1437.800000000745","run_exp/static/images/Set 6_rs/100a.jpg","66","","","","","","test","TF","2"
"","show_choice","244","416616","0.0-227.0-1.0","""event"",""trial"",""time""
""fullscreenenter"",""0"",""7755""
","
","
","""event"",""trial"",""time""
""fullscreenenter"",""0"",""7755""
","
","null","run_exp/static/images/Set 6_rs/100a.jpg","null","","","","","","test","TF",""
"","html-keyboard-response","245","417123","0.0-227.0-2.0","""event"",""trial"",""time""
""fullscreenenter"",""0"",""7755""
","
","
","""event"",""trial"",""time""
""fullscreenenter"",""0"",""7755""
","
","null","<p></p>","null","","","","","","","",""
"","image","246","418299","0.0-228.0-0.0","""event"",""trial"",""time""
""fullscreenenter"",""0"",""7755""
","
","
","""event"",""trial"",""time""
""fullscreenenter"",""0"",""7755""
","
","1175.5999999977648","run_exp/static/images/Set 6_rs/176a.jpg","78","","","","","","test","TF","4"
"","show_choice","247","418802","0.0-228.0-1.0","""event"",""trial"",""time""
""fullscreenenter"",""0"",""7755""
","
","
","""event"",""trial"",""time""
""fullscreenenter"",""0"",""7755""
","
","null","run_exp/static/images/Set 6_rs/176a.jpg","null","","","","","","test","TF",""
"","html-keyboard-response","248","419308","0.0-228.0-2.0","""event"",""trial"",""time""
""fullscreenenter"",""0"",""7755""
","
","
","""event"",""trial"",""time""
""fullscreenenter"",""0"",""7755""
","
","null","<p></p>","null","","","","","","","",""
"","image","249","420200","0.0-229.0-0.0","""event"",""trial"",""time""
""fullscreenenter"",""0"",""7755""
","
","
","""event"",""trial"",""time""
""fullscreenenter"",""0"",""7755""
","
","890.9000000022352","run_exp/static/images/Set 6_rs/132a.jpg","86","","","","","","test","TR","5"
"","show_choice","250","420701","0.0-229.0-1.0","""event"",""trial"",""time""
""fullscreenenter"",""0"",""7755""
","
","
","""event"",""trial"",""time""
""fullscreenenter"",""0"",""7755""
","
","null","run_exp/static/images/Set 6_rs/132a.jpg","null","","","","","","test","TR",""
"","html-keyboard-response","251","421207","0.0-229.0-2.0","""event"",""trial"",""time""
""fullscreenenter"",""0"",""7755""
","
","
","""event"",""trial"",""time""
""fullscreenenter"",""0"",""7755""
","
","null","<p></p>","null","","","","","","","",""
"","image","252","422003","0.0-230.0-0.0","""event"",""trial"",""time""
""fullscreenenter"",""0"",""7755""
","
","
","""event"",""trial"",""time""
""fullscreenenter"",""0"",""7755""
","
","795","run_exp/static/images/Set 6_rs/090a.jpg","78","","","","","","test","TF","5"
"","show_choice","253","422507","0.0-230.0-1.0","""event"",""trial"",""time""
""fullscreenenter"",""0"",""7755""
","
","
","""event"",""trial"",""time""
""fullscreenenter"",""0"",""7755""
","
","null","run_exp/static/images/Set 6_rs/090a.jpg","null","","","","","","test","TF",""
"","html-keyboard-response","254","423012","0.0-230.0-2.0","""event"",""trial"",""time""
""fullscreenenter"",""0"",""7755""
","
","
","""event"",""trial"",""time""
""fullscreenenter"",""0"",""7755""
","
","null","<p></p>","null","","","","","","","",""
"","image","255","424349","0.0-231.0-0.0","""event"",""trial"",""time""
""fullscreenenter"",""0"",""7755""
","
","
","""event"",""trial"",""time""
""fullscreenenter"",""0"",""7755""
","
","1335.7000000029802","run_exp/static/images/Set 6_rs/089b.jpg","86","","","","","","test","TL","4"
"","show_choice","256","424853","0.0-231.0-1.0","""event"",""trial"",""time""
""fullscreenenter"",""0"",""7755""
","
","
","""event"",""trial"",""time""
""fullscreenenter"",""0"",""7755""
","
","null","run_exp/static/images/Set 6_rs/089b.jpg","null","","","","","","test","TL",""
"","html-keyboard-response","257","425357","0.0-231.0-2.0","""event"",""trial"",""time""
""fullscreenenter"",""0"",""7755""
","
","
","""event"",""trial"",""time""
""fullscreenenter"",""0"",""7755""
","
","null","<p></p>","null","","","","","","","",""
"","image","258","426602","0.0-232.0-0.0","""event"",""trial"",""time""
""fullscreenenter"",""0"",""7755""
","
","
","""event"",""trial"",""time""
""fullscreenenter"",""0"",""7755""
","
","1243.800000000745","run_exp/static/images/Set 6_rs/118a.jpg","78","","","","","","test","TF","5"
"","show_choice","259","427107","0.0-232.0-1.0","""event"",""trial"",""time""
""fullscreenenter"",""0"",""7755""
","
","
","""event"",""trial"",""time""
""fullscreenenter"",""0"",""7755""
","
","null","run_exp/static/images/Set 6_rs/118a.jpg","null","","","","","","test","TF",""
"","html-keyboard-response","260","427613","0.0-232.0-2.0","""event"",""trial"",""time""
""fullscreenenter"",""0"",""7755""
","
","
","""event"",""trial"",""time""
""fullscreenenter"",""0"",""7755""
","
","null","<p></p>","null","","","","","","","",""
"","image","261","428710","0.0-233.0-0.0","""event"",""trial"",""time""
""fullscreenenter"",""0"",""7755""
","
","
","""event"",""trial"",""time""
""fullscreenenter"",""0"",""7755""
","
","1095.8999999985099","run_exp/static/images/Set 6_rs/062b.jpg","66","","","","","","test","TL","1"
"","show_choice","262","429215","0.0-233.0-1.0","""event"",""trial"",""time""
""fullscreenenter"",""0"",""7755""
","
","
","""event"",""trial"",""time""
""fullscreenenter"",""0"",""7755""
","
","null","run_exp/static/images/Set 6_rs/062b.jpg","null","","","","","","test","TL",""
"","html-keyboard-response","263","429717","0.0-233.0-2.0","""event"",""trial"",""time""
""fullscreenenter"",""0"",""7755""
","
","
","""event"",""trial"",""time""
""fullscreenenter"",""0"",""7755""
","
","null","<p></p>","null","","","","","","","",""
"","image","264","430729","0.0-234.0-0.0","""event"",""trial"",""time""
""fullscreenenter"",""0"",""7755""
","
","
","""event"",""trial"",""time""
""fullscreenenter"",""0"",""7755""
","
","1010.7000000029802","run_exp/static/images/Set 6_rs/140a.jpg","78","","","","","","test","TF","1"
"","show_choice","265","431234","0.0-234.0-1.0","""event"",""trial"",""time""
""fullscreenenter"",""0"",""7755""
","
","
","""event"",""trial"",""time""
""fullscreenenter"",""0"",""7755""
","
","null","run_exp/static/images/Set 6_rs/140a.jpg","null","","","","","","test","TF",""
"","html-keyboard-response","266","431737","0.0-234.0-2.0","""event"",""trial"",""time""
""fullscreenenter"",""0"",""7755""
","
","
","""event"",""trial"",""time""
""fullscreenenter"",""0"",""7755""
","
","null","<p></p>","null","","","","","","","",""
"","image","267","432737","0.0-235.0-0.0","""event"",""trial"",""time""
""fullscreenenter"",""0"",""7755""
","
","
","""event"",""trial"",""time""
""fullscreenenter"",""0"",""7755""
","
","998.9000000022352","run_exp/static/images/Set 6_rs/010a.jpg","86","","","","","","test","TR","5"
"","show_choice","268","433243","0.0-235.0-1.0","""event"",""trial"",""time""
""fullscreenenter"",""0"",""7755""
","
","
","""event"",""trial"",""time""
""fullscreenenter"",""0"",""7755""
","
","null","run_exp/static/images/Set 6_rs/010a.jpg","null","","","","","","test","TR",""
"","html-keyboard-response","269","433744","0.0-235.0-2.0","""event"",""trial"",""time""
""fullscreenenter"",""0"",""7755""
","
","
","""event"",""trial"",""time""
""fullscreenenter"",""0"",""7755""
","
","null","<p></p>","null","","","","","","","",""
"","image","270","434407","0.0-236.0-0.0","""event"",""trial"",""time""
""fullscreenenter"",""0"",""7755""
","
","
","""event"",""trial"",""time""
""fullscreenenter"",""0"",""7755""
","
","661.9000000022352","run_exp/static/images/Set 6_rs/112a.jpg","86","","","","","","test","TR","5"
"","show_choice","271","434908","0.0-236.0-1.0","""event"",""trial"",""time""
""fullscreenenter"",""0"",""7755""
","
","
","""event"",""trial"",""time""
""fullscreenenter"",""0"",""7755""
","
","null","run_exp/static/images/Set 6_rs/112a.jpg","null","","","","","","test","TR",""
"","html-keyboard-response","272","435415","0.0-236.0-2.0","""event"",""trial"",""time""
""fullscreenenter"",""0"",""7755""
","
","
","""event"",""trial"",""time""
""fullscreenenter"",""0"",""7755""
","
","null","<p></p>","null","","","","","","","",""
"","image","273","436396","0.0-237.0-0.0","""event"",""trial"",""time""
""fullscreenenter"",""0"",""7755""
","
","
","""event"",""trial"",""time""
""fullscreenenter"",""0"",""7755""
","
","980.6000000014901","run_exp/static/images/Set 6_rs/023a.jpg","86","","","","","","test","TR","3"
"","show_choice","274","436902","0.0-237.0-1.0","""event"",""trial"",""time""
""fullscreenenter"",""0"",""7755""
","
","
","""event"",""trial"",""time""
""fullscreenenter"",""0"",""7755""
","
","null","run_exp/static/images/Set 6_rs/023a.jpg","null","","","","","","test","TR",""
"","html-keyboard-response","275","437405","0.0-237.0-2.0","""event"",""trial"",""time""
""fullscreenenter"",""0"",""7755""
","
","
","""event"",""trial"",""time""
""fullscreenenter"",""0"",""7755""
","
","null","<p></p>","null","","","","","","","",""
"","image","276","438322","0.0-238.0-0.0","""event"",""trial"",""time""
""fullscreenenter"",""0"",""7755""
","
","
","""event"",""trial"",""time""
""fullscreenenter"",""0"",""7755""
","
","915.6000000014901","run_exp/static/images/Set 6_rs/048a.jpg","78","","","","","","test","TF","4"
"","show_choice","277","438824","0.0-238.0-1.0","""event"",""trial"",""time""
""fullscreenenter"",""0"",""7755""
","
","
","""event"",""trial"",""time""
""fullscreenenter"",""0"",""7755""
","
","null","run_exp/static/images/Set 6_rs/048a.jpg","null","","","","","","test","TF",""
"","html-keyboard-response","278","439330","0.0-238.0-2.0","""event"",""trial"",""time""
""fullscreenenter"",""0"",""7755""
","
","
","""event"",""trial"",""time""
""fullscreenenter"",""0"",""7755""
","
","null","<p></p>","null","","","","","","","",""
"","image","279","440310","0.0-239.0-0.0","""event"",""trial"",""time""
""fullscreenenter"",""0"",""7755""
","
","
","""event"",""trial"",""time""
""fullscreenenter"",""0"",""7755""
","
","979.3000000007451","run_exp/static/images/Set 6_rs/187a.jpg","86","","","","","","test","TR","3"
"","show_choice","280","440815","0.0-239.0-1.0","""event"",""trial"",""time""
""fullscreenenter"",""0"",""7755""
","
","
","""event"",""trial"",""time""
""fullscreenenter"",""0"",""7755""
","
","null","run_exp/static/images/Set 6_rs/187a.jpg","null","","","","","","test","TR",""
"","html-keyboard-response","281","441320","0.0-239.0-2.0","""event"",""trial"",""time""
""fullscreenenter"",""0"",""7755""
","
","
","""event"",""trial"",""time""
""fullscreenenter"",""0"",""7755""
","
","null","<p></p>","null","","","","","","","",""
"","image","282","442511","0.0-240.0-0.0","""event"",""trial"",""time""
""fullscreenenter"",""0"",""7755""
","
","
","""event"",""trial"",""time""
""fullscreenenter"",""0"",""7755""
","
","1189.699999999255","run_exp/static/images/Set 6_rs/091b.jpg","66","","","","","","test","TL","3"
"","show_choice","283","443016","0.0-240.0-1.0","""event"",""trial"",""time""
""fullscreenenter"",""0"",""7755""
","
","
","""event"",""trial"",""time""
""fullscreenenter"",""0"",""7755""
","
","null","run_exp/static/images/Set 6_rs/091b.jpg","null","","","","","","test","TL",""
"","html-keyboard-response","284","443522","0.0-240.0-2.0","""event"",""trial"",""time""
""fullscreenenter"",""0"",""7755""
","
","
","""event"",""trial"",""time""
""fullscreenenter"",""0"",""7755""
","
","null","<p></p>","null","","","","","","","",""
"","image","285","444395","0.0-241.0-0.0","""event"",""trial"",""time""
""fullscreenenter"",""0"",""7755""
","
","
","""event"",""trial"",""time""
""fullscreenenter"",""0"",""7755""
","
","871.9000000022352","run_exp/static/images/Set 6_rs/181b.jpg","86","","","","","","test","TL","1"
"","show_choice","286","444900","0.0-241.0-1.0","""event"",""trial"",""time""
""fullscreenenter"",""0"",""7755""
","
","
","""event"",""trial"",""time""
""fullscreenenter"",""0"",""7755""
","
","null","run_exp/static/images/Set 6_rs/181b.jpg","null","","","","","","test","TL",""
"","html-keyboard-response","287","445406","0.0-241.0-2.0","""event"",""trial"",""time""
""fullscreenenter"",""0"",""7755""
","
","
","""event"",""trial"",""time""
""fullscreenenter"",""0"",""7755""
","
","null","<p></p>","null","","","","","","","",""
"","image","288","446755","0.0-242.0-0.0","""event"",""trial"",""time""
""fullscreenenter"",""0"",""7755""
","
","
","""event"",""trial"",""time""
""fullscreenenter"",""0"",""7755""
","
","1348","run_exp/static/images/Set 6_rs/144b.jpg","66","","","","","","test","TL","4"
"","show_choice","289","447261","0.0-242.0-1.0","""event"",""trial"",""time""
""fullscreenenter"",""0"",""7755""
","
","
","""event"",""trial"",""time""
""fullscreenenter"",""0"",""7755""
","
","null","run_exp/static/images/Set 6_rs/144b.jpg","null","","","","","","test","TL",""
"","html-keyboard-response","290","447767","0.0-242.0-2.0","""event"",""trial"",""time""
""fullscreenenter"",""0"",""7755""
","
","
","""event"",""trial"",""time""
""fullscreenenter"",""0"",""7755""
","
","null","<p></p>","null","","","","","","","",""
"","image","291","449027","0.0-243.0-0.0","""event"",""trial"",""time""
""fullscreenenter"",""0"",""7755""
","
","
","""event"",""trial"",""time""
""fullscreenenter"",""0"",""7755""
","
","1259.6000000014901","run_exp/static/images/Set 6_rs/011a.jpg","78","","","","","","test","TF","3"
"","show_choice","292","449532","0.0-243.0-1.0","""event"",""trial"",""time""
""fullscreenenter"",""0"",""7755""
","
","
","""event"",""trial"",""time""
""fullscreenenter"",""0"",""7755""
","
","null","run_exp/static/images/Set 6_rs/011a.jpg","null","","","","","","test","TF",""
"","html-keyboard-response","293","450039","0.0-243.0-2.0","""event"",""trial"",""time""
""fullscreenenter"",""0"",""7755""
","
","
","""event"",""trial"",""time""
""fullscreenenter"",""0"",""7755""
","
","null","<p></p>","null","","","","","","","",""
"","image","294","450761","0.0-244.0-0.0","""event"",""trial"",""time""
""fullscreenenter"",""0"",""7755""
","
","
","""event"",""trial"",""time""
""fullscreenenter"",""0"",""7755""
","
","721.1000000014901","run_exp/static/images/Set 6_rs/133a.jpg","78","","","","","","test","TF","4"
"","show_choice","295","451262","0.0-244.0-1.0","""event"",""trial"",""time""
""fullscreenenter"",""0"",""7755""
","
","
","""event"",""trial"",""time""
""fullscreenenter"",""0"",""7755""
","
","null","run_exp/static/images/Set 6_rs/133a.jpg","null","","","","","","test","TF",""
"","html-keyboard-response","296","451765","0.0-244.0-2.0","""event"",""trial"",""time""
""fullscreenenter"",""0"",""7755""
","
","
","""event"",""trial"",""time""
""fullscreenenter"",""0"",""7755""
","
","null","<p></p>","null","","","","","","","",""
"","image","297","452584","0.0-245.0-0.0","""event"",""trial"",""time""
""fullscreenenter"",""0"",""7755""
","
","
","""event"",""trial"",""time""
""fullscreenenter"",""0"",""7755""
","
","817.5","run_exp/static/images/Set 6_rs/052a.jpg","78","","","","","","test","TF","1"
"","show_choice","298","453085","0.0-245.0-1.0","""event"",""trial"",""time""
""fullscreenenter"",""0"",""7755""
","
","
","""event"",""trial"",""time""
""fullscreenenter"",""0"",""7755""
","
","null","run_exp/static/images/Set 6_rs/052a.jpg","null","","","","","","test","TF",""
"","html-keyboard-response","299","453589","0.0-245.0-2.0","""event"",""trial"",""time""
""fullscreenenter"",""0"",""7755""
","
","
","""event"",""trial"",""time""
""fullscreenenter"",""0"",""7755""
","
","null","<p></p>","null","","","","","","","",""
"","image","300","454282","0.0-246.0-0.0","""event"",""trial"",""time""
""fullscreenenter"",""0"",""7755""
","
","
","""event"",""trial"",""time""
""fullscreenenter"",""0"",""7755""
","
","691.8000000007451","run_exp/static/images/Set 6_rs/047a.jpg","78","","","","","","test","TF","3"
"","show_choice","301","454787","0.0-246.0-1.0","""event"",""trial"",""time""
""fullscreenenter"",""0"",""7755""
","
","
","""event"",""trial"",""time""
""fullscreenenter"",""0"",""7755""
","
","null","run_exp/static/images/Set 6_rs/047a.jpg","null","","","","","","test","TF",""
"","html-keyboard-response","302","455293","0.0-246.0-2.0","""event"",""trial"",""time""
""fullscreenenter"",""0"",""7755""
","
","
","""event"",""trial"",""time""
""fullscreenenter"",""0"",""7755""
","
","null","<p></p>","null","","","","","","","",""
"","image","303","456210","0.0-247.0-0.0","""event"",""trial"",""time""
""fullscreenenter"",""0"",""7755""
","
","
","""event"",""trial"",""time""
""fullscreenenter"",""0"",""7755""
","
","915.6999999992549","run_exp/static/images/Set 6_rs/152a.jpg","78","","","","","","test","TR","2"
"","show_choice","304","456715","0.0-247.0-1.0","""event"",""trial"",""time""
""fullscreenenter"",""0"",""7755""
","
","
","""event"",""trial"",""time""
""fullscreenenter"",""0"",""7755""
","
","null","run_exp/static/images/Set 6_rs/152a.jpg","null","","","","","","test","TR",""
"","html-keyboard-response","305","457221","0.0-247.0-2.0","""event"",""trial"",""time""
""fullscreenenter"",""0"",""7755""
","
","
","""event"",""trial"",""time""
""fullscreenenter"",""0"",""7755""
","
","null","<p></p>","null","","","","","","","",""
"","image","306","458542","0.0-248.0-0.0","""event"",""trial"",""time""
""fullscreenenter"",""0"",""7755""
","
","
","""event"",""trial"",""time""
""fullscreenenter"",""0"",""7755""
","
","1320","run_exp/static/images/Set 6_rs/191b.jpg","66","","","","","","test","TL","2"
"","show_choice","307","459047","0.0-248.0-1.0","""event"",""trial"",""time""
""fullscreenenter"",""0"",""7755""
","
","
","""event"",""trial"",""time""
""fullscreenenter"",""0"",""7755""
","
","null","run_exp/static/images/Set 6_rs/191b.jpg","null","","","","","","test","TL",""
"","html-keyboard-response","308","459549","0.0-248.0-2.0","""event"",""trial"",""time""
""fullscreenenter"",""0"",""7755""
","
","
","""event"",""trial"",""time""
""fullscreenenter"",""0"",""7755""
","
","null","<p></p>","null","","","","","","","",""
"","image","309","460626","0.0-249.0-0.0","""event"",""trial"",""time""
""fullscreenenter"",""0"",""7755""
","
","
","""event"",""trial"",""time""
""fullscreenenter"",""0"",""7755""
","
","1076.1000000014901","run_exp/static/images/Set 6_rs/136a.jpg","78","","","","","","test","TF","4"
"","show_choice","310","461131","0.0-249.0-1.0","""event"",""trial"",""time""
""fullscreenenter"",""0"",""7755""
","
","
","""event"",""trial"",""time""
""fullscreenenter"",""0"",""7755""
","
","null","run_exp/static/images/Set 6_rs/136a.jpg","null","","","","","","test","TF",""
"","html-keyboard-response","311","461636","0.0-249.0-2.0","""event"",""trial"",""time""
""fullscreenenter"",""0"",""7755""
","
","
","""event"",""trial"",""time""
""fullscreenenter"",""0"",""7755""
","
","null","<p></p>","null","","","","","","","",""
"","image","312","462454","0.0-250.0-0.0","""event"",""trial"",""time""
""fullscreenenter"",""0"",""7755""
","
","
","""event"",""trial"",""time""
""fullscreenenter"",""0"",""7755""
","
","816.5","run_exp/static/images/Set 6_rs/150a.jpg","86","","","","","","test","TR","1"
"","show_choice","313","462955","0.0-250.0-1.0","""event"",""trial"",""time""
""fullscreenenter"",""0"",""7755""
","
","
","""event"",""trial"",""time""
""fullscreenenter"",""0"",""7755""
","
","null","run_exp/static/images/Set 6_rs/150a.jpg","null","","","","","","test","TR",""
"","html-keyboard-response","314","463461","0.0-250.0-2.0","""event"",""trial"",""time""
""fullscreenenter"",""0"",""7755""
","
","
","""event"",""trial"",""time""
""fullscreenenter"",""0"",""7755""
","
","null","<p></p>","null","","","","","","","",""
"","image","315","464121","0.0-251.0-0.0","""event"",""trial"",""time""
""fullscreenenter"",""0"",""7755""
","
","
","""event"",""trial"",""time""
""fullscreenenter"",""0"",""7755""
","
","659.7000000029802","run_exp/static/images/Set 6_rs/057b.jpg","86","","","","","","test","TL","1"
"","show_choice","316","464627","0.0-251.0-1.0","""event"",""trial"",""time""
""fullscreenenter"",""0"",""7755""
","
","
","""event"",""trial"",""time""
""fullscreenenter"",""0"",""7755""
","
","null","run_exp/static/images/Set 6_rs/057b.jpg","null","","","","","","test","TL",""
"","html-keyboard-response","317","465133","0.0-251.0-2.0","""event"",""trial"",""time""
""fullscreenenter"",""0"",""7755""
","
","
","""event"",""trial"",""time""
""fullscreenenter"",""0"",""7755""
","
","null","<p></p>","null","","","","","","","",""
"","image","318","465741","0.0-252.0-0.0","""event"",""trial"",""time""
""fullscreenenter"",""0"",""7755""
","
","
","""event"",""trial"",""time""
""fullscreenenter"",""0"",""7755""
","
","607.6000000014901","run_exp/static/images/Set 6_rs/007a.jpg","86","","","","","","test","TR","3"
"","show_choice","319","466244","0.0-252.0-1.0","""event"",""trial"",""time""
""fullscreenenter"",""0"",""7755""
","
","
","""event"",""trial"",""time""
""fullscreenenter"",""0"",""7755""
","
","null","run_exp/static/images/Set 6_rs/007a.jpg","null","","","","","","test","TR",""
"","html-keyboard-response","320","466747","0.0-252.0-2.0","""event"",""trial"",""time""
""fullscreenenter"",""0"",""7755""
","
","
","""event"",""trial"",""time""
""fullscreenenter"",""0"",""7755""
","
","null","<p></p>","null","","","","","","","",""
"","image","321","467356","0.0-253.0-0.0","""event"",""trial"",""time""
""fullscreenenter"",""0"",""7755""
","
","
","""event"",""trial"",""time""
""fullscreenenter"",""0"",""7755""
","
","607.3000000007451","run_exp/static/images/Set 6_rs/117b.jpg","86","","","","","","test","TL","5"
"","show_choice","322","467861","0.0-253.0-1.0","""event"",""trial"",""time""
""fullscreenenter"",""0"",""7755""
","
","
","""event"",""trial"",""time""
""fullscreenenter"",""0"",""7755""
","
","null","run_exp/static/images/Set 6_rs/117b.jpg","null","","","","","","test","TL",""
"","html-keyboard-response","323","468367","0.0-253.0-2.0","""event"",""trial"",""time""
""fullscreenenter"",""0"",""7755""
","
","
","""event"",""trial"",""time""
""fullscreenenter"",""0"",""7755""
","
","null","<p></p>","null","","","","","","","",""
"","image","324","468976","0.0-254.0-0.0","""event"",""trial"",""time""
""fullscreenenter"",""0"",""7755""
","
","
","""event"",""trial"",""time""
""fullscreenenter"",""0"",""7755""
","
","607.6999999992549","run_exp/static/images/Set 6_rs/014b.jpg","86","","","","","","test","TL","5"
"","show_choice","325","469478","0.0-254.0-1.0","""event"",""trial"",""time""
""fullscreenenter"",""0"",""7755""
","
","
","""event"",""trial"",""time""
""fullscreenenter"",""0"",""7755""
","
","null","run_exp/static/images/Set 6_rs/014b.jpg","null","","","","","","test","TL",""
"","html-keyboard-response","326","469981","0.0-254.0-2.0","""event"",""trial"",""time""
""fullscreenenter"",""0"",""7755""
","
","
","""event"",""trial"",""time""
""fullscreenenter"",""0"",""7755""
","
","null","<p></p>","null","","","","","","","",""
"","image","327","470750","0.0-255.0-0.0","""event"",""trial"",""time""
""fullscreenenter"",""0"",""7755""
","
","
","""event"",""trial"",""time""
""fullscreenenter"",""0"",""7755""
","
","768","run_exp/static/images/Set 6_rs/022a.jpg","78","","","","","","test","TF","4"
"","show_choice","328","471255","0.0-255.0-1.0","""event"",""trial"",""time""
""fullscreenenter"",""0"",""7755""
","
","
","""event"",""trial"",""time""
""fullscreenenter"",""0"",""7755""
","
","null","run_exp/static/images/Set 6_rs/022a.jpg","null","","","","","","test","TF",""
"","html-keyboard-response","329","471758","0.0-255.0-2.0","""event"",""trial"",""time""
""fullscreenenter"",""0"",""7755""
","
","
","""event"",""trial"",""time""
""fullscreenenter"",""0"",""7755""
","
","null","<p></p>","null","","","","","","","",""
"","image","330","472425","0.0-256.0-0.0","""event"",""trial"",""time""
""fullscreenenter"",""0"",""7755""
","
","
","""event"",""trial"",""time""
""fullscreenenter"",""0"",""7755""
","
","666.5","run_exp/static/images/Set 6_rs/154a.jpg","86","","","","","","test","TR","3"
"","show_choice","331","472928","0.0-256.0-1.0","""event"",""trial"",""time""
""fullscreenenter"",""0"",""7755""
","
","
","""event"",""trial"",""time""
""fullscreenenter"",""0"",""7755""
","
","null","run_exp/static/images/Set 6_rs/154a.jpg","null","","","","","","test","TR",""
"","html-keyboard-response","332","473432","0.0-256.0-2.0","""event"",""trial"",""time""
""fullscreenenter"",""0"",""7755""
","
","
","""event"",""trial"",""time""
""fullscreenenter"",""0"",""7755""
","
","null","<p></p>","null","","","","","","","",""
"","image","333","474279","0.0-257.0-0.0","""event"",""trial"",""time""
""fullscreenenter"",""0"",""7755""
","
","
","""event"",""trial"",""time""
""fullscreenenter"",""0"",""7755""
","
","847","run_exp/static/images/Set 6_rs/077a.jpg","78","","","","","","test","TF","3"
"","show_choice","334","474785","0.0-257.0-1.0","""event"",""trial"",""time""
""fullscreenenter"",""0"",""7755""
","
","
","""event"",""trial"",""time""
""fullscreenenter"",""0"",""7755""
","
","null","run_exp/static/images/Set 6_rs/077a.jpg","null","","","","","","test","TF",""
"","html-keyboard-response","335","475291","0.0-257.0-2.0","""event"",""trial"",""time""
""fullscreenenter"",""0"",""7755""
","
","
","""event"",""trial"",""time""
""fullscreenenter"",""0"",""7755""
","
","null","<p></p>","null","","","","","","","",""
"","image","336","476087","0.0-258.0-0.0","""event"",""trial"",""time""
""fullscreenenter"",""0"",""7755""
","
","
","""event"",""trial"",""time""
""fullscreenenter"",""0"",""7755""
","
","795.3000000007451","run_exp/static/images/Set 6_rs/066b.jpg","78","","","","","","test","TL","5"
"","show_choice","337","476591","0.0-258.0-1.0","""event"",""trial"",""time""
""fullscreenenter"",""0"",""7755""
","
","
","""event"",""trial"",""time""
""fullscreenenter"",""0"",""7755""
","
","null","run_exp/static/images/Set 6_rs/066b.jpg","null","","","","","","test","TL",""
"","html-keyboard-response","338","477097","0.0-258.0-2.0","""event"",""trial"",""time""
""fullscreenenter"",""0"",""7755""
","
","
","""event"",""trial"",""time""
""fullscreenenter"",""0"",""7755""
","
","null","<p></p>","null","","","","","","","",""
"","image","339","478234","0.0-259.0-0.0","""event"",""trial"",""time""
""fullscreenenter"",""0"",""7755""
","
","
","""event"",""trial"",""time""
""fullscreenenter"",""0"",""7755""
","
","1135.800000000745","run_exp/static/images/Set 6_rs/071b.jpg","66","","","","","","test","TL","4"
"","show_choice","340","478735","0.0-259.0-1.0","""event"",""trial"",""time""
""fullscreenenter"",""0"",""7755""
","
","
","""event"",""trial"",""time""
""fullscreenenter"",""0"",""7755""
","
","null","run_exp/static/images/Set 6_rs/071b.jpg","null","","","","","","test","TL",""
"","html-keyboard-response","341","479238","0.0-259.0-2.0","""event"",""trial"",""time""