"success","trial_type","trial_index","time_elapsed","internal_node_id","interactions","blur_events","focus_events","fullscreenenter_events","fullscreenexit_events","rt","stimulus","key_press","subject_id","participant_id","age","gender","prompt","phase","condition","lure_bin"
"true","fullscreen","0","2487","0.0-0.0","""event"",""trial"",""time""
""fullscreenenter"",""0"",""1502""
","
","
","""event"",""trial"",""time""
""fullscreenenter"",""0"",""1502""
","
","","","","","","","","","","",""
"","pavlovia","1","2495","0.0-1.0","""event"",""trial"",""time""
""fullscreenenter"",""0"",""1502""
","
","
","""event"",""trial"",""time""
""fullscreenenter"",""0"",""1502""
","
","","","","","","","","","","",""
"","welcome","2","37311","0.0-2.0","""event"",""trial"",""time""
""fullscreenenter"",""0"",""1502""
","
","
","""event"",""trial"",""time""
""fullscreenenter"",""0"",""1502""
","
","null","run_exp/static/audio/clip_1_welcome.m4a","null","586","843","15","Female","<div class='center'><p>Welcome to the third part of the study! First, you'll be shown pictures of items one at a time. For each picture, you have to decide if the item is typically found indoors or outdoors.</p><p>If you think it's usually found indoors, then press <b>v</b> key on your keyboard. If you think it's usually found outdoors, then press the <b>n</b> key.There will be reminders on the screen to help you remember which keys to press. </p><p>If you're not sure whether the item is an indoor item or an outdoor item, go ahead and take a guess but try your best not to skip that choice. </p></div>","","",""
"","html-keyboard-response","3","42632","0.0-3.0","""event"",""trial"",""time""
""fullscreenenter"",""0"",""1502""
","
","
","""event"",""trial"",""time""
""fullscreenenter"",""0"",""1502""
","
","5317.5","<div class='center'><p>Welcome to the third part of the study! First, you'll be shown pictures of items one at a time. For each picture, you have to decide if the item is typically found indoors or outdoors.</p><p>If you think it's usually found indoors, then press <b>v</b> key on your keyboard. If you think it's usually found outdoors, then press the <b>n</b> key.There will be reminders on the screen to help you remember which keys to press. </p><p>If you're not sure whether the item is an indoor item or an outdoor item, go ahead and take a guess but try your best not to skip that choice. </p><div><p><b>[Press the space bar to continue]</b></p></div>","32","","","","","","","",""
"","image","4","44649","0.0-4.0","""event"",""trial"",""time""
""fullscreenenter"",""0"",""1502""
","
","
","""event"",""trial"",""time""
""fullscreenenter"",""0"",""1502""
","
","null","run_exp/static/images/Set 6_rs/024a.jpg","null","","","","","","learn","SR",""
"","show_choice","5","46654","0.0-5.0","""event"",""trial"",""time""
""fullscreenenter"",""0"",""1502""
","
","
","""event"",""trial"",""time""
""fullscreenenter"",""0"",""1502""
","
","null","run_exp/static/images/blank.png","null","","","","","","learn","SR",""
"","html-keyboard-response","6","47168","0.0-6.0","""event"",""trial"",""time""
""fullscreenenter"",""0"",""1502""
","
","
","""event"",""trial"",""time""
""fullscreenenter"",""0"",""1502""
","
","null","<p></p>","null","","","","","","","",""
"","image","7","48491","0.0-7.0","""event"",""trial"",""time""
""fullscreenenter"",""0"",""1502""
","
","
","""event"",""trial"",""time""
""fullscreenenter"",""0"",""1502""
","
","1321","run_exp/static/images/Set 6_rs/154a.jpg","86","","","","","","learn","SR",""
"","show_choice","8","49173","0.0-8.0","""event"",""trial"",""time""
""fullscreenenter"",""0"",""1502""
","
","
","""event"",""trial"",""time""
""fullscreenenter"",""0"",""1502""
","
","null","run_exp/static/images/Set 6_rs/154a.jpg","null","","","","","","learn","SR",""
"","html-keyboard-response","9","49684","0.0-9.0","""event"",""trial"",""time""
""fullscreenenter"",""0"",""1502""
","
","
","""event"",""trial"",""time""
""fullscreenenter"",""0"",""1502""
","
","null","<p></p>","null","","","","","","","",""
"","image","10","51059","0.0-10.0","""event"",""trial"",""time""
""fullscreenenter"",""0"",""1502""
","
","
","""event"",""trial"",""time""
""fullscreenenter"",""0"",""1502""
","
","1373.1999998092651","run_exp/static/images/Set 6_rs/181a.jpg","78","","","","","","learn","SL",""
"","show_choice","11","51692","0.0-11.0","""event"",""trial"",""time""
""fullscreenenter"",""0"",""1502""
","
","
","""event"",""trial"",""time""
""fullscreenenter"",""0"",""1502""
","
","null","run_exp/static/images/Set 6_rs/181a.jpg","null","","","","","","learn","SL",""
"","html-keyboard-response","12","52195","0.0-12.0","""event"",""trial"",""time""
""fullscreenenter"",""0"",""1502""
","
","
","""event"",""trial"",""time""
""fullscreenenter"",""0"",""1502""
","
","null","<p></p>","null","","","","","","","",""
"","image","13","53686","0.0-13.0","""event"",""trial"",""time""
""fullscreenenter"",""0"",""1502""
","
","
","""event"",""trial"",""time""
""fullscreenenter"",""0"",""1502""
","
","1489.2000000476837","run_exp/static/images/Set 6_rs/117a.jpg","78","","","","","","learn","SL",""
"","show_choice","14","54213","0.0-14.0","""event"",""trial"",""time""
""fullscreenenter"",""0"",""1502""
","
","
","""event"",""trial"",""time""
""fullscreenenter"",""0"",""1502""
","
","null","run_exp/static/images/Set 6_rs/117a.jpg","null","","","","","","learn","SL",""
"","html-keyboard-response","15","54716","0.0-15.0","""event"",""trial"",""time""
""fullscreenenter"",""0"",""1502""
","
","
","""event"",""trial"",""time""
""fullscreenenter"",""0"",""1502""
","
","null","<p></p>","null","","","","","","","",""
"","image","16","55819","0.0-16.0","""event"",""trial"",""time""
""fullscreenenter"",""0"",""1502""
","
","
","""event"",""trial"",""time""
""fullscreenenter"",""0"",""1502""
","
","1101.2000000476837","run_exp/static/images/Set 6_rs/108a.jpg","78","","","","","","learn","SR",""
"","show_choice","17","56722","0.0-17.0","""event"",""trial"",""time""
""fullscreenenter"",""0"",""1502""
","
","
","""event"",""trial"",""time""
""fullscreenenter"",""0"",""1502""
","
","null","run_exp/static/images/Set 6_rs/108a.jpg","null","","","","","","learn","SR",""
"","html-keyboard-response","18","57231","0.0-18.0","""event"",""trial"",""time""
""fullscreenenter"",""0"",""1502""
","
","
","""event"",""trial"",""time""
""fullscreenenter"",""0"",""1502""
","
","null","<p></p>","null","","","","","","","",""
"","image","19","59179","0.0-19.0","""event"",""trial"",""time""
""fullscreenenter"",""0"",""1502""
","
","
","""event"",""trial"",""time""
""fullscreenenter"",""0"",""1502""
","
","1946.5999999046326","run_exp/static/images/Set 6_rs/167a.jpg","86","","","","","","learn","SL",""
"","show_choice","20","59245","0.0-20.0","""event"",""trial"",""time""
""fullscreenenter"",""0"",""1502""
","
","
","""event"",""trial"",""time""
""fullscreenenter"",""0"",""1502""
","
","null","run_exp/static/images/Set 6_rs/167a.jpg","null","","","","","","learn","SL",""
"","html-keyboard-response","21","59749","0.0-21.0","""event"",""trial"",""time""
""fullscreenenter"",""0"",""1502""
","
","
","""event"",""trial"",""time""
""fullscreenenter"",""0"",""1502""
","
","null","<p></p>","null","","","","","","","",""
"","image","22","61179","0.0-22.0","""event"",""trial"",""time""
""fullscreenenter"",""0"",""1502""
","
","
","""event"",""trial"",""time""
""fullscreenenter"",""0"",""1502""
","
","1428.2000000476837","run_exp/static/images/Set 6_rs/144a.jpg","86","","","","","","learn","SL",""
"","show_choice","23","61761","0.0-23.0","""event"",""trial"",""time""
""fullscreenenter"",""0"",""1502""
","
","
","""event"",""trial"",""time""
""fullscreenenter"",""0"",""1502""
","
","null","run_exp/static/images/Set 6_rs/144a.jpg","null","","","","","","learn","SL",""
"","html-keyboard-response","24","62275","0.0-24.0","""event"",""trial"",""time""
""fullscreenenter"",""0"",""1502""
","
","
","""event"",""trial"",""time""
""fullscreenenter"",""0"",""1502""
","
","null","<p></p>","null","","","","","","","",""
"","image","25","63830","0.0-25.0","""event"",""trial"",""time""
""fullscreenenter"",""0"",""1502""
","
","
","""event"",""trial"",""time""
""fullscreenenter"",""0"",""1502""
","
","1552.4000000953674","run_exp/static/images/Set 6_rs/126a.jpg","78","","","","","","learn","SR",""
"","show_choice","26","64285","0.0-26.0","""event"",""trial"",""time""
""fullscreenenter"",""0"",""1502""
","
","
","""event"",""trial"",""time""
""fullscreenenter"",""0"",""1502""
","
","null","run_exp/static/images/Set 6_rs/126a.jpg","null","","","","","","learn","SR",""
"","html-keyboard-response","27","64797","0.0-27.0","""event"",""trial"",""time""
""fullscreenenter"",""0"",""1502""
","
","
","""event"",""trial"",""time""
""fullscreenenter"",""0"",""1502""
","
","null","<p></p>","null","","","","","","","",""
"","image","28","66124","0.0-28.0","""event"",""trial"",""time""
""fullscreenenter"",""0"",""1502""
","
","
","""event"",""trial"",""time""
""fullscreenenter"",""0"",""1502""
","
","1324.5","run_exp/static/images/Set 6_rs/166a.jpg","86","","","","","","learn","SR",""
"","show_choice","29","66803","0.0-29.0","""event"",""trial"",""time""
""fullscreenenter"",""0"",""1502""
","
","
","""event"",""trial"",""time""
""fullscreenenter"",""0"",""1502""
","
","null","run_exp/static/images/Set 6_rs/166a.jpg","null","","","","","","learn","SR",""
"","html-keyboard-response","30","67314","0.0-30.0","""event"",""trial"",""time""
""fullscreenenter"",""0"",""1502""
","
","
","""event"",""trial"",""time""
""fullscreenenter"",""0"",""1502""
","
","null","<p></p>","null","","","","","","","",""
"","image","31","68476","0.0-31.0","""event"",""trial"",""time""
""fullscreenenter"",""0"",""1502""
","
","
","""event"",""trial"",""time""
""fullscreenenter"",""0"",""1502""
","
","1159.2000000476837","run_exp/static/images/Set 6_rs/132a.jpg","86","","","","","","learn","SR",""
"","show_choice","32","69327","0.0-32.0","""event"",""trial"",""time""
""fullscreenenter"",""0"",""1502""
","
","
","""event"",""trial"",""time""
""fullscreenenter"",""0"",""1502""
","
","null","run_exp/static/images/Set 6_rs/132a.jpg","null","","","","","","learn","SR",""
"","html-keyboard-response","33","69832","0.0-33.0","""event"",""trial"",""time""
""fullscreenenter"",""0"",""1502""
","
","
","""event"",""trial"",""time""
""fullscreenenter"",""0"",""1502""
","
","null","<p></p>","null","","","","","","","",""
"","image","34","70923","0.0-34.0","""event"",""trial"",""time""
""fullscreenenter"",""0"",""1502""
","
","
","""event"",""trial"",""time""
""fullscreenenter"",""0"",""1502""
","
","1088.7999999523163","run_exp/static/images/Set 6_rs/025a.jpg","86","","","","","","learn","SL",""
"","show_choice","35","71839","0.0-35.0","""event"",""trial"",""time""
""fullscreenenter"",""0"",""1502""
","
","
","""event"",""trial"",""time""
""fullscreenenter"",""0"",""1502""
","
","null","run_exp/static/images/Set 6_rs/025a.jpg","null","","","","","","learn","SL",""
"","html-keyboard-response","36","72349","0.0-36.0","""event"",""trial"",""time""
""fullscreenenter"",""0"",""1502""
","
","
","""event"",""trial"",""time""
""fullscreenenter"",""0"",""1502""
","
","null","<p></p>","null","","","","","","","",""
"","image","37","73627","0.0-37.0","""event"",""trial"",""time""
""fullscreenenter"",""0"",""1502""
","
","
","""event"",""trial"",""time""
""fullscreenenter"",""0"",""1502""
","
","1275","run_exp/static/images/Set 6_rs/134a.jpg","78","","","","","","learn","SR",""
"","show_choice","38","74368","0.0-38.0","""event"",""trial"",""time""
""fullscreenenter"",""0"",""1502""
","
","
","""event"",""trial"",""time""
""fullscreenenter"",""0"",""1502""
","
","null","run_exp/static/images/Set 6_rs/134a.jpg","null","","","","","","learn","SR",""
"","html-keyboard-response","39","74880","0.0-39.0","""event"",""trial"",""time""
""fullscreenenter"",""0"",""1502""
","
","
","""event"",""trial"",""time""
""fullscreenenter"",""0"",""1502""
","
","null","<p></p>","null","","","","","","","",""
"","image","40","75805","0.0-40.0","""event"",""trial"",""time""
""fullscreenenter"",""0"",""1502""
","
","
","""event"",""trial"",""time""
""fullscreenenter"",""0"",""1502""
","
","923.3999998569489","run_exp/static/images/Set 6_rs/088a.jpg","86","","","","","","learn","SR",""
"","show_choice","41","76895","0.0-41.0","""event"",""trial"",""time""
""fullscreenenter"",""0"",""1502""
","
","
","""event"",""trial"",""time""
""fullscreenenter"",""0"",""1502""
","
","null","run_exp/static/images/Set 6_rs/088a.jpg","null","","","","","","learn","SR",""
"","html-keyboard-response","42","77398","0.0-42.0","""event"",""trial"",""time""
""fullscreenenter"",""0"",""1502""
","
","
","""event"",""trial"",""time""
""fullscreenenter"",""0"",""1502""
","
","null","<p></p>","null","","","","","","","",""
"","image","43","78331","0.0-43.0","""event"",""trial"",""time""
""fullscreenenter"",""0"",""1502""
","
","
","""event"",""trial"",""time""
""fullscreenenter"",""0"",""1502""
","
","930.2999999523163","run_exp/static/images/Set 6_rs/129a.jpg","86","","","","","","learn","SL",""
"","show_choice","44","79402","0.0-44.0","""event"",""trial"",""time""
""fullscreenenter"",""0"",""1502""
","
","
","""event"",""trial"",""time""
""fullscreenenter"",""0"",""1502""
","
","null","run_exp/static/images/Set 6_rs/129a.jpg","null","","","","","","learn","SL",""
"","html-keyboard-response","45","79912","0.0-45.0","""event"",""trial"",""time""
""fullscreenenter"",""0"",""1502""
","
","
","""event"",""trial"",""time""
""fullscreenenter"",""0"",""1502""
","
","null","<p></p>","null","","","","","","","",""
"","image","46","80963","0.0-46.0","""event"",""trial"",""time""
""fullscreenenter"",""0"",""1502""
","
","
","""event"",""trial"",""time""
""fullscreenenter"",""0"",""1502""
","
","1048.5999999046326","run_exp/static/images/Set 6_rs/085a.jpg","86","","","","","","learn","SL",""
"","show_choice","47","81919","0.0-47.0","""event"",""trial"",""time""
""fullscreenenter"",""0"",""1502""
","
","
","""event"",""trial"",""time""
""fullscreenenter"",""0"",""1502""
","
","null","run_exp/static/images/Set 6_rs/085a.jpg","null","","","","","","learn","SL",""
"","html-keyboard-response","48","82430","0.0-48.0","""event"",""trial"",""time""
""fullscreenenter"",""0"",""1502""
","
","
","""event"",""trial"",""time""
""fullscreenenter"",""0"",""1502""
","
","null","<p></p>","null","","","","","","","",""
"","image","49","83499","0.0-49.0","""event"",""trial"",""time""
""fullscreenenter"",""0"",""1502""
","
","
","""event"",""trial"",""time""
""fullscreenenter"",""0"",""1502""
","
","1066.2999999523163","run_exp/static/images/Set 6_rs/055a.jpg","86","","","","","","learn","SL",""
"","show_choice","50","84435","0.0-50.0","""event"",""trial"",""time""
""fullscreenenter"",""0"",""1502""
","
","
","""event"",""trial"",""time""
""fullscreenenter"",""0"",""1502""
","
","null","run_exp/static/images/Set 6_rs/055a.jpg","null","","","","","","learn","SL",""
"","html-keyboard-response","51","84949","0.0-51.0","""event"",""trial"",""time""
""fullscreenenter"",""0"",""1502""
","
","
","""event"",""trial"",""time""
""fullscreenenter"",""0"",""1502""
","
","null","<p></p>","null","","","","","","","",""
"","image","52","85885","0.0-52.0","""event"",""trial"",""time""
""fullscreenenter"",""0"",""1502""
","
","
","""event"",""trial"",""time""
""fullscreenenter"",""0"",""1502""
","
","935.2000000476837","run_exp/static/images/Set 6_rs/064a.jpg","86","","","","","","learn","SR",""
"","show_choice","53","86961","0.0-53.0","""event"",""trial"",""time""
""fullscreenenter"",""0"",""1502""
","
","
","""event"",""trial"",""time""
""fullscreenenter"",""0"",""1502""
","
","null","run_exp/static/images/Set 6_rs/064a.jpg","null","","","","","","learn","SR",""
"","html-keyboard-response","54","87465","0.0-54.0","""event"",""trial"",""time""
""fullscreenenter"",""0"",""1502""
","
","
","""event"",""trial"",""time""
""fullscreenenter"",""0"",""1502""
","
","null","<p></p>","null","","","","","","","",""
"","image","55","89123","0.0-55.0","""event"",""trial"",""time""
""fullscreenenter"",""0"",""1502""
","
","
","""event"",""trial"",""time""
""fullscreenenter"",""0"",""1502""
","
","1655.7000000476837","run_exp/static/images/Set 6_rs/191a.jpg","86","","","","","","learn","SL",""
"","show_choice","56","89475","0.0-56.0","""event"",""trial"",""time""
""fullscreenenter"",""0"",""1502""
","
","
","""event"",""trial"",""time""
""fullscreenenter"",""0"",""1502""
","
","null","run_exp/static/images/Set 6_rs/191a.jpg","null","","","","","","learn","SL",""
"","html-keyboard-response","57","89982","0.0-57.0","""event"",""trial"",""time""
""fullscreenenter"",""0"",""1502""
","
","
","""event"",""trial"",""time""
""fullscreenenter"",""0"",""1502""
","
","null","<p></p>","null","","","","","","","",""
"","image","58","91203","0.0-58.0","""event"",""trial"",""time""
""fullscreenenter"",""0"",""1502""
","
","
","""event"",""trial"",""time""
""fullscreenenter"",""0"",""1502""
","
","1218.7999999523163","run_exp/static/images/Set 6_rs/091a.jpg","78","","","","","","learn","SL",""
"","show_choice","59","91995","0.0-59.0","""event"",""trial"",""time""
""fullscreenenter"",""0"",""1502""
","
","
","""event"",""trial"",""time""
""fullscreenenter"",""0"",""1502""
","
","null","run_exp/static/images/Set 6_rs/091a.jpg","null","","","","","","learn","SL",""
"","html-keyboard-response","60","92498","0.0-60.0","""event"",""trial"",""time""
""fullscreenenter"",""0"",""1502""
","
","
","""event"",""trial"",""time""
""fullscreenenter"",""0"",""1502""
","
","null","<p></p>","null","","","","","","","",""
"","image","61","93595","0.0-61.0","""event"",""trial"",""time""
""fullscreenenter"",""0"",""1502""
","
","
","""event"",""trial"",""time""
""fullscreenenter"",""0"",""1502""
","
","1094.2000000476837","run_exp/static/images/Set 6_rs/057a.jpg","86","","","","","","learn","SL",""
"","show_choice","62","94505","0.0-62.0","""event"",""trial"",""time""
""fullscreenenter"",""0"",""1502""
","
","
","""event"",""trial"",""time""
""fullscreenenter"",""0"",""1502""
","
","null","run_exp/static/images/Set 6_rs/057a.jpg","null","","","","","","learn","SL",""
"","html-keyboard-response","63","95014","0.0-63.0","""event"",""trial"",""time""
""fullscreenenter"",""0"",""1502""
","
","
","""event"",""trial"",""time""
""fullscreenenter"",""0"",""1502""
","
","null","<p></p>","null","","","","","","","",""
"","image","64","95998","0.0-64.0","""event"",""trial"",""time""
""fullscreenenter"",""0"",""1502""
","
","
","""event"",""trial"",""time""
""fullscreenenter"",""0"",""1502""
","
","981","run_exp/static/images/Set 6_rs/023a.jpg","86","","","","","","learn","SR",""
"","show_choice","65","97025","0.0-65.0","""event"",""trial"",""time""
""fullscreenenter"",""0"",""1502""
","
","
","""event"",""trial"",""time""
""fullscreenenter"",""0"",""1502""
","
","null","run_exp/static/images/Set 6_rs/023a.jpg","null","","","","","","learn","SR",""
"","html-keyboard-response","66","97529","0.0-66.0","""event"",""trial"",""time""
""fullscreenenter"",""0"",""1502""
","
","
","""event"",""trial"",""time""
""fullscreenenter"",""0"",""1502""
","
","null","<p></p>","null","","","","","","","",""
"","image","67","98787","0.0-67.0","""event"",""trial"",""time""
""fullscreenenter"",""0"",""1502""
","
","
","""event"",""trial"",""time""
""fullscreenenter"",""0"",""1502""
","
","1256.4000000953674","run_exp/static/images/Set 6_rs/131a.jpg","86","","","","","","learn","SR",""
"","show_choice","68","99546","0.0-68.0","""event"",""trial"",""time""
""fullscreenenter"",""0"",""1502""
","
","
","""event"",""trial"",""time""
""fullscreenenter"",""0"",""1502""
","
","null","run_exp/static/images/Set 6_rs/131a.jpg","null","","","","","","learn","SR",""
"","html-keyboard-response","69","100056","0.0-69.0","""event"",""trial"",""time""
""fullscreenenter"",""0"",""1502""
","
","
","""event"",""trial"",""time""
""fullscreenenter"",""0"",""1502""
","
","null","<p></p>","null","","","","","","","",""
"","image","70","102003","0.0-70.0","""event"",""trial"",""time""
""fullscreenenter"",""0"",""1502""
","
","
","""event"",""trial"",""time""
""fullscreenenter"",""0"",""1502""
","
","1945.1999998092651","run_exp/static/images/Set 6_rs/150a.jpg","78","","","","","","learn","SR",""
"","show_choice","71","102061","0.0-71.0","""event"",""trial"",""time""
""fullscreenenter"",""0"",""1502""
","
","
","""event"",""trial"",""time""
""fullscreenenter"",""0"",""1502""
","
","null","run_exp/static/images/Set 6_rs/150a.jpg","null","","","","","","learn","SR",""
"","html-keyboard-response","72","102565","0.0-72.0","""event"",""trial"",""time""
""fullscreenenter"",""0"",""1502""
","
","
","""event"",""trial"",""time""
""fullscreenenter"",""0"",""1502""
","
","null","<p></p>","null","","","","","","","",""
"","image","73","103907","0.0-73.0","""event"",""trial"",""time""
""fullscreenenter"",""0"",""1502""
","
","
","""event"",""trial"",""time""
""fullscreenenter"",""0"",""1502""
","
","1339.5999999046326","run_exp/static/images/Set 6_rs/172a.jpg","86","","","","","","learn","SR",""
"","show_choice","74","104571","0.0-74.0","""event"",""trial"",""time""
""fullscreenenter"",""0"",""1502""
","
","
","""event"",""trial"",""time""
""fullscreenenter"",""0"",""1502""
","
","null","run_exp/static/images/Set 6_rs/172a.jpg","null","","","","","","learn","SR",""
"","html-keyboard-response","75","105081","0.0-75.0","""event"",""trial"",""time""
""fullscreenenter"",""0"",""1502""
","
","
","""event"",""trial"",""time""
""fullscreenenter"",""0"",""1502""
","
","null","<p></p>","null","","","","","","","",""
"","image","76","105987","0.0-76.0","""event"",""trial"",""time""
""fullscreenenter"",""0"",""1502""
","
","
","""event"",""trial"",""time""
""fullscreenenter"",""0"",""1502""
","
","904.1999998092651","run_exp/static/images/Set 6_rs/116a.jpg","86","","","","","","learn","SL",""
"","show_choice","77","107091","0.0-77.0","""event"",""trial"",""time""
""fullscreenenter"",""0"",""1502""
","
","
","""event"",""trial"",""time""
""fullscreenenter"",""0"",""1502""
","
","null","run_exp/static/images/Set 6_rs/116a.jpg","null","","","","","","learn","SL",""
"","html-keyboard-response","78","107597","0.0-78.0","""event"",""trial"",""time""
""fullscreenenter"",""0"",""1502""
","
","
","""event"",""trial"",""time""
""fullscreenenter"",""0"",""1502""
","
","null","<p></p>","null","","","","","","","",""
"","image","79","108694","0.0-79.0","""event"",""trial"",""time""
""fullscreenenter"",""0"",""1502""
","
","
","""event"",""trial"",""time""
""fullscreenenter"",""0"",""1502""
","
","1094.5","run_exp/static/images/Set 6_rs/079a.jpg","86","","","","","","learn","SL",""
"","show_choice","80","109607","0.0-80.0","""event"",""trial"",""time""
""fullscreenenter"",""0"",""1502""
","
","
","""event"",""trial"",""time""
""fullscreenenter"",""0"",""1502""
","
","null","run_exp/static/images/Set 6_rs/079a.jpg","null","","","","","","learn","SL",""
"","html-keyboard-response","81","110114","0.0-81.0","""event"",""trial"",""time""
""fullscreenenter"",""0"",""1502""
","
","
","""event"",""trial"",""time""
""fullscreenenter"",""0"",""1502""
","
","null","<p></p>","null","","","","","","","",""
"","image","82","111370","0.0-82.0","""event"",""trial"",""time""
""fullscreenenter"",""0"",""1502""
","
","
","""event"",""trial"",""time""
""fullscreenenter"",""0"",""1502""
","
","1254","run_exp/static/images/Set 6_rs/010a.jpg","86","","","","","","learn","SR",""
"","show_choice","83","112123","0.0-83.0","""event"",""trial"",""time""
""fullscreenenter"",""0"",""1502""
","
","
","""event"",""trial"",""time""
""fullscreenenter"",""0"",""1502""
","
","null","run_exp/static/images/Set 6_rs/010a.jpg","null","","","","","","learn","SR",""
"","html-keyboard-response","84","112631","0.0-84.0","""event"",""trial"",""time""
""fullscreenenter"",""0"",""1502""
","
","
","""event"",""trial"",""time""
""fullscreenenter"",""0"",""1502""
","
","null","<p></p>","null","","","","","","","",""
"","image","85","114019","0.0-85.0","""event"",""trial"",""time""
""fullscreenenter"",""0"",""1502""
","
","
","""event"",""trial"",""time""
""fullscreenenter"",""0"",""1502""
","
","1385.2999999523163","run_exp/static/images/Set 6_rs/178a.jpg","78","","","","","","learn","SR",""
"","show_choice","86","114640","0.0-86.0","""event"",""trial"",""time""
""fullscreenenter"",""0"",""1502""
","
","
","""event"",""trial"",""time""
""fullscreenenter"",""0"",""1502""
","
","null","run_exp/static/images/Set 6_rs/178a.jpg","null","","","","","","learn","SR",""
"","html-keyboard-response","87","115147","0.0-87.0","""event"",""trial"",""time""
""fullscreenenter"",""0"",""1502""
","
","
","""event"",""trial"",""time""
""fullscreenenter"",""0"",""1502""
","
","null","<p></p>","null","","","","","","","",""
"","image","88","117157","0.0-88.0","""event"",""trial"",""time""
""fullscreenenter"",""0"",""1502""
","
","
","""event"",""trial"",""time""
""fullscreenenter"",""0"",""1502""
","
","null","run_exp/static/images/Set 6_rs/016a.jpg","null","","","","","","learn","SL",""
"","show_choice","89","119167","0.0-89.0","""event"",""trial"",""time""
""fullscreenenter"",""0"",""1502""
","
","
","""event"",""trial"",""time""
""fullscreenenter"",""0"",""1502""
","
","null","run_exp/static/images/blank.png","null","","","","","","learn","SL",""
"","html-keyboard-response","90","119680","0.0-90.0","""event"",""trial"",""time""
""fullscreenenter"",""0"",""1502""
","
","
","""event"",""trial"",""time""
""fullscreenenter"",""0"",""1502""
","
","null","<p></p>","null","","","","","","","",""
"","image","91","120974","0.0-91.0","""event"",""trial"",""time""
""fullscreenenter"",""0"",""1502""
","
","
","""event"",""trial"",""time""
""fullscreenenter"",""0"",""1502""
","
","1292.7000000476837","run_exp/static/images/Set 6_rs/074a.jpg","78","","","","","","learn","SL",""
"","show_choice","92","121685","0.0-92.0","""event"",""trial"",""time""
""fullscreenenter"",""0"",""1502""
","
","
","""event"",""trial"",""time""
""fullscreenenter"",""0"",""1502""
","
","null","run_exp/static/images/Set 6_rs/074a.jpg","null","","","","","","learn","SL",""
"","html-keyboard-response","93","122197","0.0-93.0","""event"",""trial"",""time""
""fullscreenenter"",""0"",""1502""
","
","
","""event"",""trial"",""time""
""fullscreenenter"",""0"",""1502""
","
","null","<p></p>","null","","","","","","","",""
"","image","94","123115","0.0-94.0","""event"",""trial"",""time""
""fullscreenenter"",""0"",""1502""
","
","
","""event"",""trial"",""time""
""fullscreenenter"",""0"",""1502""
","
","915.7999999523163","run_exp/static/images/Set 6_rs/187a.jpg","86","","","","","","learn","SR",""
"","show_choice","95","124207","0.0-95.0","""event"",""trial"",""time""
""fullscreenenter"",""0"",""1502""
","
","
","""event"",""trial"",""time""
""fullscreenenter"",""0"",""1502""
","
","null","run_exp/static/images/Set 6_rs/187a.jpg","null","","","","","","learn","SR",""
"","html-keyboard-response","96","124715","0.0-96.0","""event"",""trial"",""time""
""fullscreenenter"",""0"",""1502""
","
","
","""event"",""trial"",""time""
""fullscreenenter"",""0"",""1502""
","
","null","<p></p>","null","","","","","","","",""
"","image","97","125707","0.0-97.0","""event"",""trial"",""time""
""fullscreenenter"",""0"",""1502""
","
","
","""event"",""trial"",""time""
""fullscreenenter"",""0"",""1502""
","
","989.5999999046326","run_exp/static/images/Set 6_rs/007a.jpg","86","","","","","","learn","SR",""
"","show_choice","98","126730","0.0-98.0","""event"",""trial"",""time""
""fullscreenenter"",""0"",""1502""
","
","
","""event"",""trial"",""time""
""fullscreenenter"",""0"",""1502""
","
","null","run_exp/static/images/Set 6_rs/007a.jpg","null","","","","","","learn","SR",""
"","html-keyboard-response","99","127232","0.0-99.0","""event"",""trial"",""time""
""fullscreenenter"",""0"",""1502""
","
","
","""event"",""trial"",""time""
""fullscreenenter"",""0"",""1502""
","
","null","<p></p>","null","","","","","","","",""
"","image","100","128675","0.0-100.0","""event"",""trial"",""time""
""fullscreenenter"",""0"",""1502""
","
","
","""event"",""trial"",""time""
""fullscreenenter"",""0"",""1502""
","
","1440.8999998569489","run_exp/static/images/Set 6_rs/045a.jpg","86","","","","","","learn","SR",""
"","show_choice","101","129244","0.0-101.0","""event"",""trial"",""time""
""fullscreenenter"",""0"",""1502""
","
","
","""event"",""trial"",""time""
""fullscreenenter"",""0"",""1502""
","
","null","run_exp/static/images/Set 6_rs/045a.jpg","null","","","","","","learn","SR",""
"","html-keyboard-response","102","129747","0.0-102.0","""event"",""trial"",""time""
""fullscreenenter"",""0"",""1502""
","
","
","""event"",""trial"",""time""
""fullscreenenter"",""0"",""1502""
","
","null","<p></p>","null","","","","","","","",""
"","image","103","130963","0.0-103.0","""event"",""trial"",""time""
""fullscreenenter"",""0"",""1502""
","
","
","""event"",""trial"",""time""
""fullscreenenter"",""0"",""1502""
","
","1214.2999999523163","run_exp/static/images/Set 6_rs/177a.jpg","78","","","","","","learn","SR",""
"","show_choice","104","131762","0.0-104.0","""event"",""trial"",""time""
""fullscreenenter"",""0"",""1502""
","
","
","""event"",""trial"",""time""
""fullscreenenter"",""0"",""1502""
","
","null","run_exp/static/images/Set 6_rs/177a.jpg","null","","","","","","learn","SR",""
"","html-keyboard-response","105","132272","0.0-105.0","""event"",""trial"",""time""
""fullscreenenter"",""0"",""1502""
","
","
","""event"",""trial"",""time""
""fullscreenenter"",""0"",""1502""
","
","null","<p></p>","null","","","","","","","",""
"","image","106","133350","0.0-106.0","""event"",""trial"",""time""
""fullscreenenter"",""0"",""1502""
","
","
","""event"",""trial"",""time""
""fullscreenenter"",""0"",""1502""
","
","1075.1000001430511","run_exp/static/images/Set 6_rs/169a.jpg","78","","","","","","learn","SR",""
"","show_choice","107","134287","0.0-107.0","""event"",""trial"",""time""
""fullscreenenter"",""0"",""1502""
","
","
","""event"",""trial"",""time""
""fullscreenenter"",""0"",""1502""
","
","null","run_exp/static/images/Set 6_rs/169a.jpg","null","","","","","","learn","SR",""
"","html-keyboard-response","108","134797","0.0-108.0","""event"",""trial"",""time""
""fullscreenenter"",""0"",""1502""
","
","
","""event"",""trial"",""time""
""fullscreenenter"",""0"",""1502""
","
","null","<p></p>","null","","","","","","","",""
"","image","109","135835","0.0-109.0","""event"",""trial"",""time""
""fullscreenenter"",""0"",""1502""
","
","
","""event"",""trial"",""time""
""fullscreenenter"",""0"",""1502""
","
","1036","run_exp/static/images/Set 6_rs/063a.jpg","86","","","","","","learn","SR",""
"","show_choice","110","136816","0.0-110.0","""event"",""trial"",""time""
""fullscreenenter"",""0"",""1502""
","
","
","""event"",""trial"",""time""
""fullscreenenter"",""0"",""1502""
","
","null","run_exp/static/images/Set 6_rs/063a.jpg","null","","","","","","learn","SR",""
"","html-keyboard-response","111","137331","0.0-111.0","""event"",""trial"",""time""
""fullscreenenter"",""0"",""1502""
","
","
","""event"",""trial"",""time""
""fullscreenenter"",""0"",""1502""
","
","null","<p></p>","null","","","","","","","",""
"","image","112","138556","0.0-112.0","""event"",""trial"",""time""
""fullscreenenter"",""0"",""1502""
","
","
","""event"",""trial"",""time""
""fullscreenenter"",""0"",""1502""
","
","1223.0999999046326","run_exp/static/images/Set 6_rs/141a.jpg","86","","","","","","learn","SR",""
"","show_choice","113","139347","0.0-113.0","""event"",""trial"",""time""
""fullscreenenter"",""0"",""1502""
","
","
","""event"",""trial"",""time""
""fullscreenenter"",""0"",""1502""
","
","null","run_exp/static/images/Set 6_rs/141a.jpg","null","","","","","","learn","SR",""
"","html-keyboard-response","114","139848","0.0-114.0","""event"",""trial"",""time""
""fullscreenenter"",""0"",""1502""
","
","
","""event"",""trial"",""time""
""fullscreenenter"",""0"",""1502""
","
","null","<p></p>","null","","","","","","","",""
"","image","115","141139","0.0-115.0","""event"",""trial"",""time""
""fullscreenenter"",""0"",""1502""
","
","
","""event"",""trial"",""time""
""fullscreenenter"",""0"",""1502""
","
","1288.5","run_exp/static/images/Set 6_rs/075a.jpg","86","","","","","","learn","SR",""
"","show_choice","116","141865","0.0-116.0","""event"",""trial"",""time""
""fullscreenenter"",""0"",""1502""
","
","
","""event"",""trial"",""time""
""fullscreenenter"",""0"",""1502""
","
","null","run_exp/static/images/Set 6_rs/075a.jpg","null","","","","","","learn","SR",""
"","html-keyboard-response","117","142381","0.0-117.0","""event"",""trial"",""time""
""fullscreenenter"",""0"",""1502""
","
","
","""event"",""trial"",""time""
""fullscreenenter"",""0"",""1502""
","
","null","<p></p>","null","","","","","","","",""
"","image","118","143382","0.0-118.0","""event"",""trial"",""time""
""fullscreenenter"",""0"",""1502""
","
","
","""event"",""trial"",""time""
""fullscreenenter"",""0"",""1502""
","
","998.9000000953674","run_exp/static/images/Set 6_rs/050a.jpg","86","","","","","","learn","SL",""
"","show_choice","119","144397","0.0-119.0","""event"",""trial"",""time""
""fullscreenenter"",""0"",""1502""
","
","
","""event"",""trial"",""time""
""fullscreenenter"",""0"",""1502""
","
","null","run_exp/static/images/Set 6_rs/050a.jpg","null","","","","","","learn","SL",""
"","html-keyboard-response","120","144899","0.0-120.0","""event"",""trial"",""time""
""fullscreenenter"",""0"",""1502""
","
","
","""event"",""trial"",""time""
""fullscreenenter"",""0"",""1502""
","
","null","<p></p>","null","","","","","","","",""
"","image","121","146075","0.0-121.0","""event"",""trial"",""time""
""fullscreenenter"",""0"",""1502""
","
","
","""event"",""trial"",""time""
""fullscreenenter"",""0"",""1502""
","
","1173.3999998569489","run_exp/static/images/Set 6_rs/061a.jpg","78","","","","","","learn","SR",""
"","show_choice","122","146911","0.0-122.0","""event"",""trial"",""time""
""fullscreenenter"",""0"",""1502""
","
","
","""event"",""trial"",""time""
""fullscreenenter"",""0"",""1502""
","
","null","run_exp/static/images/Set 6_rs/061a.jpg","null","","","","","","learn","SR",""
"","html-keyboard-response","123","147416","0.0-123.0","""event"",""trial"",""time""
""fullscreenenter"",""0"",""1502""
","
","
","""event"",""trial"",""time""
""fullscreenenter"",""0"",""1502""
","
","null","<p></p>","null","","","","","","","",""
"","image","124","148667","0.0-124.0","""event"",""trial"",""time""
""fullscreenenter"",""0"",""1502""
","
","
","""event"",""trial"",""time""
""fullscreenenter"",""0"",""1502""
","
","1248.8999998569489","run_exp/static/images/Set 6_rs/138a.jpg","78","","","","","","learn","SL",""
"","show_choice","125","149431","0.0-125.0","""event"",""trial"",""time""
""fullscreenenter"",""0"",""1502""
","
","
","""event"",""trial"",""time""
""fullscreenenter"",""0"",""1502""
","
","null","run_exp/static/images/Set 6_rs/138a.jpg","null","","","","","","learn","SL",""
"","html-keyboard-response","126","149947","0.0-126.0","""event"",""trial"",""time""
""fullscreenenter"",""0"",""1502""
","
","
","""event"",""trial"",""time""
""fullscreenenter"",""0"",""1502""
","
","null","<p></p>","null","","","","","","","",""
"","image","127","151027","0.0-127.0","""event"",""trial"",""time""
""fullscreenenter"",""0"",""1502""
","
","
","""event"",""trial"",""time""
""fullscreenenter"",""0"",""1502""
","
","1078","run_exp/static/images/Set 6_rs/095a.jpg","86","","","","","","learn","SL",""
"","show_choice","128","151965","0.0-128.0","""event"",""trial"",""time""
""fullscreenenter"",""0"",""1502""
","
","
","""event"",""trial"",""time""
""fullscreenenter"",""0"",""1502""
","
","null","run_exp/static/images/Set 6_rs/095a.jpg","null","","","","","","learn","SL",""
"","html-keyboard-response","129","152473","0.0-129.0","""event"",""trial"",""time""
""fullscreenenter"",""0"",""1502""
","
","
","""event"",""trial"",""time""
""fullscreenenter"",""0"",""1502""
","
","null","<p></p>","null","","","","","","","",""
"","image","130","153494","0.0-130.0","""event"",""trial"",""time""
""fullscreenenter"",""0"",""1502""
","
","
","""event"",""trial"",""time""
""fullscreenenter"",""0"",""1502""
","
","1018","run_exp/static/images/Set 6_rs/168a.jpg","78","","","","","","learn","SL",""
"","show_choice","131","154485","0.0-131.0","""event"",""trial"",""time""
""fullscreenenter"",""0"",""1502""
","
","
","""event"",""trial"",""time""
""fullscreenenter"",""0"",""1502""
","
","null","run_exp/static/images/Set 6_rs/168a.jpg","null","","","","","","learn","SL",""
"","html-keyboard-response","132","154999","0.0-132.0","""event"",""trial"",""time""
""fullscreenenter"",""0"",""1502""
","
","
","""event"",""trial"",""time""
""fullscreenenter"",""0"",""1502""
","
","null","<p></p>","null","","","","","","","",""
"","image","133","156299","0.0-133.0","""event"",""trial"",""time""
""fullscreenenter"",""0"",""1502""
","
","
","""event"",""trial"",""time""
""fullscreenenter"",""0"",""1502""
","
","1298.4000000953674","run_exp/static/images/Set 6_rs/071a.jpg","78","","","","","","learn","SL",""
"","show_choice","134","157002","0.0-134.0","""event"",""trial"",""time""
""fullscreenenter"",""0"",""1502""
","
","
","""event"",""trial"",""time""
""fullscreenenter"",""0"",""1502""
","
","null","run_exp/static/images/Set 6_rs/071a.jpg","null","","","","","","learn","SL",""
"","html-keyboard-response","135","157513","0.0-135.0","""event"",""trial"",""time""
""fullscreenenter"",""0"",""1502""
","
","
","""event"",""trial"",""time""
""fullscreenenter"",""0"",""1502""
","
","null","<p></p>","null","","","","","","","",""
"","image","136","158395","0.0-136.0","""event"",""trial"",""time""
""fullscreenenter"",""0"",""1502""
","
","
","""event"",""trial"",""time""
""fullscreenenter"",""0"",""1502""
","
","880.2999999523163","run_exp/static/images/Set 6_rs/111a.jpg","86","","","","","","learn","SL",""
"","show_choice","137","159523","0.0-137.0","""event"",""trial"",""time""
""fullscreenenter"",""0"",""1502""
","
","
","""event"",""trial"",""time""
""fullscreenenter"",""0"",""1502""
","
","null","run_exp/static/images/Set 6_rs/111a.jpg","null","","","","","","learn","SL",""
"","html-keyboard-response","138","160031","0.0-138.0","""event"",""trial"",""time""
""fullscreenenter"",""0"",""1502""
","
","
","""event"",""trial"",""time""
""fullscreenenter"",""0"",""1502""
","
","null","<p></p>","null","","","","","","","",""
"","image","139","161339","0.0-139.0","""event"",""trial"",""time""
""fullscreenenter"",""0"",""1502""
","
","
","""event"",""trial"",""time""
""fullscreenenter"",""0"",""1502""
","
","1306.9000000953674","run_exp/static/images/Set 6_rs/076a.jpg","78","","","","","","learn","SR",""
"","show_choice","140","162036","0.0-140.0","""event"",""trial"",""time""
""fullscreenenter"",""0"",""1502""
","
","
","""event"",""trial"",""time""
""fullscreenenter"",""0"",""1502""
","
","null","run_exp/static/images/Set 6_rs/076a.jpg","null","","","","","","learn","SR",""
"","html-keyboard-response","141","162548","0.0-141.0","""event"",""trial"",""time""
""fullscreenenter"",""0"",""1502""
","
","
","""event"",""trial"",""time""
""fullscreenenter"",""0"",""1502""
","
","null","<p></p>","null","","","","","","","",""
"","image","142","163806","0.0-142.0","""event"",""trial"",""time""
""fullscreenenter"",""0"",""1502""
","
","
","""event"",""trial"",""time""
""fullscreenenter"",""0"",""1502""
","
","1256","run_exp/static/images/Set 6_rs/066a.jpg","78","","","","","","learn","SL",""
"","show_choice","143","164564","0.0-143.0","""event"",""trial"",""time""
""fullscreenenter"",""0"",""1502""
","
","
","""event"",""trial"",""time""
""fullscreenenter"",""0"",""1502""
","
","null","run_exp/static/images/Set 6_rs/066a.jpg","null","","","","","","learn","SL",""
"","html-keyboard-response","144","165067","0.0-144.0","""event"",""trial"",""time""
""fullscreenenter"",""0"",""1502""
","
","
","""event"",""trial"",""time""
""fullscreenenter"",""0"",""1502""
","
","null","<p></p>","null","","","","","","","",""
"","image","145","166131","0.0-145.0","""event"",""trial"",""time""
""fullscreenenter"",""0"",""1502""
","
","
","""event"",""trial"",""time""
""fullscreenenter"",""0"",""1502""
","
","1062.5999999046326","run_exp/static/images/Set 6_rs/123a.jpg","78","","","","","","learn","SL",""
"","show_choice","146","167070","0.0-146.0","""event"",""trial"",""time""
""fullscreenenter"",""0"",""1502""
","
","
","""event"",""trial"",""time""
""fullscreenenter"",""0"",""1502""
","
","null","run_exp/static/images/Set 6_rs/123a.jpg","null","","","","","","learn","SL",""
"","html-keyboard-response","147","167581","0.0-147.0","""event"",""trial"",""time""
""fullscreenenter"",""0"",""1502""
","
","
","""event"",""trial"",""time""
""fullscreenenter"",""0"",""1502""
","
","null","<p></p>","null","","","","","","","",""
"","image","148","168683","0.0-148.0","""event"",""trial"",""time""
""fullscreenenter"",""0"",""1502""
","
","
","""event"",""trial"",""time""
""fullscreenenter"",""0"",""1502""
","
","1100","run_exp/static/images/Set 6_rs/121a.jpg","86","","","","","","learn","SR",""
"","show_choice","149","169590","0.0-149.0","""event"",""trial"",""time""
""fullscreenenter"",""0"",""1502""
","
","
","""event"",""trial"",""time""
""fullscreenenter"",""0"",""1502""
","
","null","run_exp/static/images/Set 6_rs/121a.jpg","null","","","","","","learn","SR",""
"","html-keyboard-response","150","170105","0.0-150.0","""event"",""trial"",""time""
""fullscreenenter"",""0"",""1502""
","
","
","""event"",""trial"",""time""
""fullscreenenter"",""0"",""1502""
","
","null","<p></p>","null","","","","","","","",""
"","image","151","171011","0.0-151.0","""event"",""trial"",""time""
""fullscreenenter"",""0"",""1502""
","
","
","""event"",""trial"",""time""
""fullscreenenter"",""0"",""1502""
","
","904.7999999523163","run_exp/static/images/Set 6_rs/186a.jpg","86","","","","","","learn","SR",""
"","show_choice","152","172110","0.0-152.0","""event"",""trial"",""time""
""fullscreenenter"",""0"",""1502""
","
","
","""event"",""trial"",""time""
""fullscreenenter"",""0"",""1502""
","
","null","run_exp/static/images/Set 6_rs/186a.jpg","null","","","","","","learn","SR",""
"","html-keyboard-response","153","172622","0.0-153.0","""event"",""trial"",""time""
""fullscreenenter"",""0"",""1502""
","
","
","""event"",""trial"",""time""
""fullscreenenter"",""0"",""1502""
","
","null","<p></p>","null","","","","","","","",""
"","image","154","173460","0.0-154.0","""event"",""trial"",""time""
""fullscreenenter"",""0"",""1502""
","
","
","""event"",""trial"",""time""
""fullscreenenter"",""0"",""1502""
","
","835.9000000953674","run_exp/static/images/Set 6_rs/014a.jpg","86","","","","","","learn","SL",""
"","show_choice","155","174632","0.0-155.0","""event"",""trial"",""time""
""fullscreenenter"",""0"",""1502""
","
","
","""event"",""trial"",""time""
""fullscreenenter"",""0"",""1502""
","
","null","run_exp/static/images/Set 6_rs/014a.jpg","null","","","","","","learn","SL",""
"","html-keyboard-response","156","175148","0.0-156.0","""event"",""trial"",""time""
""fullscreenenter"",""0"",""1502""
","
","
","""event"",""trial"",""time""
""fullscreenenter"",""0"",""1502""
","
","null","<p></p>","null","","","","","","","",""
"","image","157","176158","0.0-157.0","""event"",""trial"",""time""
""fullscreenenter"",""0"",""1502""
","
","
","""event"",""trial"",""time""
""fullscreenenter"",""0"",""1502""
","
","1009","run_exp/static/images/Set 6_rs/070a.jpg","86","","","","","","learn","SR",""
"","show_choice","158","177161","0.0-158.0","""event"",""trial"",""time""
""fullscreenenter"",""0"",""1502""
","
","
","""event"",""trial"",""time""
""fullscreenenter"",""0"",""1502""
","
","null","run_exp/static/images/Set 6_rs/070a.jpg","null","","","","","","learn","SR",""
"","html-keyboard-response","159","177666","0.0-159.0","""event"",""trial"",""time""
""fullscreenenter"",""0"",""1502""
","
","
","""event"",""trial"",""time""
""fullscreenenter"",""0"",""1502""
","
","null","<p></p>","null","","","","","","","",""
"","image","160","178819","0.0-160.0","""event"",""trial"",""time""
""fullscreenenter"",""0"",""1502""
","
","
","""event"",""trial"",""time""
""fullscreenenter"",""0"",""1502""
","
","1150.6000001430511","run_exp/static/images/Set 6_rs/089a.jpg","86","","","","","","learn","SL",""
"","show_choice","161","179679","0.0-161.0","""event"",""trial"",""time""
""fullscreenenter"",""0"",""1502""
","
","
","""event"",""trial"",""time""
""fullscreenenter"",""0"",""1502""
","
","null","run_exp/static/images/Set 6_rs/089a.jpg","null","","","","","","learn","SL",""
"","html-keyboard-response","162","180183","0.0-162.0","""event"",""trial"",""time""
""fullscreenenter"",""0"",""1502""
","
","
","""event"",""trial"",""time""
""fullscreenenter"",""0"",""1502""
","
","null","<p></p>","null","","","","","","","",""
"","image","163","180987","0.0-163.0","""event"",""trial"",""time""
""fullscreenenter"",""0"",""1502""
","
","
","""event"",""trial"",""time""
""fullscreenenter"",""0"",""1502""
","
","802.2999999523163","run_exp/static/images/Set 6_rs/112a.jpg","86","","","","","","learn","SR",""
"","show_choice","164","182186","0.0-164.0","""event"",""trial"",""time""
""fullscreenenter"",""0"",""1502""
","
","
","""event"",""trial"",""time""
""fullscreenenter"",""0"",""1502""
","
","null","run_exp/static/images/Set 6_rs/112a.jpg","null","","","","","","learn","SR",""
"","html-keyboard-response","165","182697","0.0-165.0","""event"",""trial"",""time""
""fullscreenenter"",""0"",""1502""
","
","
","""event"",""trial"",""time""
""fullscreenenter"",""0"",""1502""
","
","null","<p></p>","null","","","","","","","",""
"","image","166","183539","0.0-166.0","""event"",""trial"",""time""
""fullscreenenter"",""0"",""1502""
","
","
","""event"",""trial"",""time""
""fullscreenenter"",""0"",""1502""
","
","840","run_exp/static/images/Set 6_rs/036a.jpg","86","","","","","","learn","SL",""
"","show_choice","167","184704","0.0-167.0","""event"",""trial"",""time""
""fullscreenenter"",""0"",""1502""
","
","
","""event"",""trial"",""time""
""fullscreenenter"",""0"",""1502""
","
","null","run_exp/static/images/Set 6_rs/036a.jpg","null","","","","","","learn","SL",""
"","html-keyboard-response","168","185214","0.0-168.0","""event"",""trial"",""time""
""fullscreenenter"",""0"",""1502""
","
","
","""event"",""trial"",""time""
""fullscreenenter"",""0"",""1502""
","
","null","<p></p>","null","","","","","","","",""
"","image","169","186183","0.0-169.0","""event"",""trial"",""time""
""fullscreenenter"",""0"",""1502""
","
","
","""event"",""trial"",""time""
""fullscreenenter"",""0"",""1502""
","
","966.2999999523163","run_exp/static/images/Set 6_rs/006a.jpg","86","","","","","","learn","SL",""
"","show_choice","170","187228","0.0-170.0","""event"",""trial"",""time""
""fullscreenenter"",""0"",""1502""
","
","
","""event"",""trial"",""time""
""fullscreenenter"",""0"",""1502""
","
","null","run_exp/static/images/Set 6_rs/006a.jpg","null","","","","","","learn","SL",""
"","html-keyboard-response","171","187731","0.0-171.0","""event"",""trial"",""time""
""fullscreenenter"",""0"",""1502""
","
","
","""event"",""trial"",""time""
""fullscreenenter"",""0"",""1502""
","
","null","<p></p>","null","","","","","","","",""
"","image","172","188555","0.0-172.0","""event"",""trial"",""time""
""fullscreenenter"",""0"",""1502""
","
","
","""event"",""trial"",""time""
""fullscreenenter"",""0"",""1502""
","
","822.5999999046326","run_exp/static/images/Set 6_rs/062a.jpg","86","","","","","","learn","SL",""
"","show_choice","173","189736","0.0-173.0","""event"",""trial"",""time""
""fullscreenenter"",""0"",""1502""
","
","
","""event"",""trial"",""time""
""fullscreenenter"",""0"",""1502""
","
","null","run_exp/static/images/Set 6_rs/062a.jpg","null","","","","","","learn","SL",""
"","html-keyboard-response","174","190247","0.0-174.0","""event"",""trial"",""time""
""fullscreenenter"",""0"",""1502""
","
","
","""event"",""trial"",""time""
""fullscreenenter"",""0"",""1502""
","
","null","<p></p>","null","","","","","","","",""
"","image","175","191659","0.0-175.0","""event"",""trial"",""time""
""fullscreenenter"",""0"",""1502""
","
","
","""event"",""trial"",""time""
""fullscreenenter"",""0"",""1502""
","
","1410.2000000476837","run_exp/static/images/Set 6_rs/122a.jpg","86","","","","","","learn","SR",""
"","show_choice","176","192264","0.0-176.0","""event"",""trial"",""time""
""fullscreenenter"",""0"",""1502""
","
","
","""event"",""trial"",""time""
""fullscreenenter"",""0"",""1502""
","
","null","run_exp/static/images/Set 6_rs/122a.jpg","null","","","","","","learn","SR",""
"","html-keyboard-response","177","192766","0.0-177.0","""event"",""trial"",""time""
""fullscreenenter"",""0"",""1502""
","
","
","""event"",""trial"",""time""
""fullscreenenter"",""0"",""1502""
","
","null","<p></p>","null","","","","","","","",""
"","image","178","193667","0.0-178.0","""event"",""trial"",""time""
""fullscreenenter"",""0"",""1502""
","
","
","""event"",""trial"",""time""
""fullscreenenter"",""0"",""1502""
","
","899.5999999046326","run_exp/static/images/Set 6_rs/019a.jpg","86","","","","","","learn","SL",""
"","show_choice","179","194775","0.0-179.0","""event"",""trial"",""time""
""fullscreenenter"",""0"",""1502""
","
","
","""event"",""trial"",""time""
""fullscreenenter"",""0"",""1502""
","
","null","run_exp/static/images/Set 6_rs/019a.jpg","null","","","","","","learn","SL",""
"","html-keyboard-response","180","195291","0.0-180.0","""event"",""trial"",""time""
""fullscreenenter"",""0"",""1502""
","
","
","""event"",""trial"",""time""
""fullscreenenter"",""0"",""1502""
","
","null","<p></p>","null","","","","","","","",""
"","image","181","196286","0.0-181.0","""event"",""trial"",""time""
""fullscreenenter"",""0"",""1502""
","
","
","""event"",""trial"",""time""
""fullscreenenter"",""0"",""1502""
","
","993.0999999046326","run_exp/static/images/Set 6_rs/008a.jpg","86","","","","","","learn","SL",""
"","show_choice","182","197297","0.0-182.0","""event"",""trial"",""time""
""fullscreenenter"",""0"",""1502""
","
","
","""event"",""trial"",""time""
""fullscreenenter"",""0"",""1502""
","
","null","run_exp/static/images/Set 6_rs/008a.jpg","null","","","","","","learn","SL",""
"","html-keyboard-response","183","197814","0.0-183.0","""event"",""trial"",""time""
""fullscreenenter"",""0"",""1502""
","
","
","""event"",""trial"",""time""
""fullscreenenter"",""0"",""1502""
","
","null","<p></p>","null","","","","","","","",""
"","image","184","198836","0.0-184.0","""event"",""trial"",""time""
""fullscreenenter"",""0"",""1502""
","
","
","""event"",""trial"",""time""
""fullscreenenter"",""0"",""1502""
","
","1019.2999999523163","run_exp/static/images/Set 6_rs/152a.jpg","86","","","","","","learn","SR",""
"","show_choice","185","199832","0.0-185.0","""event"",""trial"",""time""
""fullscreenenter"",""0"",""1502""
","
","
","""event"",""trial"",""time""
""fullscreenenter"",""0"",""1502""
","
","null","run_exp/static/images/Set 6_rs/152a.jpg","null","","","","","","learn","SR",""
"","html-keyboard-response","186","200348","0.0-186.0","""event"",""trial"",""time""
""fullscreenenter"",""0"",""1502""
","
","
","""event"",""trial"",""time""
""fullscreenenter"",""0"",""1502""
","
","null","<p></p>","null","","","","","","","",""
"","image","187","201187","0.0-187.0","""event"",""trial"",""time""
""fullscreenenter"",""0"",""1502""
","
","
","""event"",""trial"",""time""
""fullscreenenter"",""0"",""1502""
","
","836.5","run_exp/static/images/Set 6_rs/012a.jpg","86","","","","","","learn","SR",""
"","show_choice","188","202353","0.0-188.0","""event"",""trial"",""time""
""fullscreenenter"",""0"",""1502""
","
","
","""event"",""trial"",""time""
""fullscreenenter"",""0"",""1502""
","
","null","run_exp/static/images/Set 6_rs/012a.jpg","null","","","","","","learn","SR",""
"","html-keyboard-response","189","202869","0.0-189.0","""event"",""trial"",""time""
""fullscreenenter"",""0"",""1502""
","
","
","""event"",""trial"",""time""
""fullscreenenter"",""0"",""1502""
","
","null","<p></p>","null","","","","","","","",""
"","image","190","203539","0.0-190.0","""event"",""trial"",""time""
""fullscreenenter"",""0"",""1502""
","
","
","""event"",""trial"",""time""
""fullscreenenter"",""0"",""1502""
","
","668.7000000476837","run_exp/static/images/Set 6_rs/073a.jpg","86","","","","","","learn","SL",""
"","show_choice","191","204875","0.0-191.0","""event"",""trial"",""time""
""fullscreenenter"",""0"",""1502""
","
","
","""event"",""trial"",""time""
""fullscreenenter"",""0"",""1502""
","
","null","run_exp/static/images/Set 6_rs/073a.jpg","null","","","","","","learn","SL",""
"","html-keyboard-response","192","205384","0.0-192.0","""event"",""trial"",""time""
""fullscreenenter"",""0"",""1502""
","
","
","""event"",""trial"",""time""
""fullscreenenter"",""0"",""1502""
","
","null","<p></p>","null","","","","","","","",""
"","image","193","206510","0.0-193.0","""event"",""trial"",""time""
""fullscreenenter"",""0"",""1502""
","
","
","""event"",""trial"",""time""
""fullscreenenter"",""0"",""1502""
","
","1124.7000000476837","run_exp/static/images/Set 6_rs/017a.jpg","86","","","","","","learn","SL",""
"","show_choice","194","207390","0.0-194.0","""event"",""trial"",""time""
""fullscreenenter"",""0"",""1502""
","
","
","""event"",""trial"",""time""
""fullscreenenter"",""0"",""1502""
","
","null","run_exp/static/images/Set 6_rs/017a.jpg","null","","","","","","learn","SL",""
"","html-keyboard-response","195","207897","0.0-195.0","""event"",""trial"",""time""
""fullscreenenter"",""0"",""1502""
","
","
","""event"",""trial"",""time""
""fullscreenenter"",""0"",""1502""
","
","null","<p></p>","null","","","","","","","",""
"","test_intro","196","244952","0.0-196.0","""event"",""trial"",""time""
""fullscreenenter"",""0"",""1502""
","
","
","""event"",""trial"",""time""
""fullscreenenter"",""0"",""1502""
","
","null","run_exp/static/audio/clip_2_memory.m4a","null","","","","","<div class='center'><p>Now, lets see how much you remember about the items you just saw.  For each item, you need to indicate if it was <b>old</b> by pressing the <b>v</b> key, <b>similar</b> by pressing the <b>b</b> key, or <b>new</b> by pressing the <b>n</b> key.</p><p>Old refers to an item that you saw before in the indoor/outdoor game that you just played, new refers to an item you have <b>not</b> seen before within the indoor/outdoor game, and similar refers to an item that is similar to an item youve seen before but is not exactly the same. </p><p>Before we begin, lets go over some brief demonstrations to make sure you understand.</p></div>","","",""
"","html-keyboard-response","197","246459","0.0-197.0","""event"",""trial"",""time""
""fullscreenenter"",""0"",""1502""
","
","
","""event"",""trial"",""time""
""fullscreenenter"",""0"",""1502""
","
","1504.4000000953674","<div class='center'><p>Now, lets see how much you remember about the items you just saw.  For each item, you need to indicate if it was <b>old</b> by pressing the <b>v</b> key, <b>similar</b> by pressing the <b>b</b> key, or <b>new</b> by pressing the <b>n</b> key.</p><p>Old refers to an item that you saw before in the indoor/outdoor game that you just played, new refers to an item you have <b>not</b> seen before within the indoor/outdoor game, and similar refers to an item that is similar to an item youve seen before but is not exactly the same. </p><p>Before we begin, lets go over some brief demonstrations to make sure you understand.</p><div><p><b>[Press the space bar to continue]</b></p></div>","32","","","","","","","",""
"","items","198","253979","0.0-198.0","""event"",""trial"",""time""
""fullscreenenter"",""0"",""1502""
","
","
","""event"",""trial"",""time""
""fullscreenenter"",""0"",""1502""
","
","null","run_exp/static/audio/clip_3_items.m4a","null","","","","","","","",""
"","mop","199","258488","0.0-199.0","""event"",""trial"",""time""
""fullscreenenter"",""0"",""1502""
","
","
","""event"",""trial"",""time""
""fullscreenenter"",""0"",""1502""
","
","null","run_exp/static/audio/clip_4_mop.m4a","null","","","","","","","",""
"","baseball","200","262000","0.0-200.0","""event"",""trial"",""time""
""fullscreenenter"",""0"",""1502""
","
","
","""event"",""trial"",""time""
""fullscreenenter"",""0"",""1502""
","
","null","run_exp/static/audio/clip_5_baseball.m4a","null","","","","","","","",""
"","trumpet","201","265504","0.0-201.0","""event"",""trial"",""time""
""fullscreenenter"",""0"",""1502""
","
","
","""event"",""trial"",""time""
""fullscreenenter"",""0"",""1502""
","
","null","run_exp/static/audio/clip_6_trumpet.m4a","null","","","","","","","",""
"","gummies","202","269020","0.0-202.0","""event"",""trial"",""time""
""fullscreenenter"",""0"",""1502""
","
","
","""event"",""trial"",""time""
""fullscreenenter"",""0"",""1502""
","
","null","run_exp/static/audio/clip_7_gummies.m4a","null","","","","","","","",""
"","osn","203","273529","0.0-203.0","""event"",""trial"",""time""
""fullscreenenter"",""0"",""1502""
","
","
","""event"",""trial"",""time""
""fullscreenenter"",""0"",""1502""
","
","null","run_exp/static/audio/clip_8_osn.m4a","null","","","","","","","",""
"","old_1","204","280039","0.0-204.0","""event"",""trial"",""time""
""fullscreenenter"",""0"",""1502""
","
","
","""event"",""trial"",""time""
""fullscreenenter"",""0"",""1502""
","
","null","run_exp/static/audio/clip_9_old_trumpet.m4a","null","","","","","","","",""
"","new_1","205","287562","0.0-205.0","""event"",""trial"",""time""
""fullscreenenter"",""0"",""1502""
","
","
","""event"",""trial"",""time""
""fullscreenenter"",""0"",""1502""
","
","null","run_exp/static/audio/clip_10_new_balloon.m4a","null","","","","","","","",""
"","similar_1a","206","292066","0.0-206.0","""event"",""trial"",""time""
""fullscreenenter"",""0"",""1502""
","
","
","""event"",""trial"",""time""
""fullscreenenter"",""0"",""1502""
","
","null","run_exp/static/audio/clip_11a_similar_mop.m4a","null","","","","","","","",""
"","similar_1b","207","298581","0.0-207.0","""event"",""trial"",""time""
""fullscreenenter"",""0"",""1502""
","
","
","""event"",""trial"",""time""
""fullscreenenter"",""0"",""1502""
","
","null","run_exp/static/audio/clip_11b_similar_mop.m4a","null","","","","","","","",""
"","new_2","208","302091","0.0-208.0","""event"",""trial"",""time""
""fullscreenenter"",""0"",""1502""
","
","
","""event"",""trial"",""time""
""fullscreenenter"",""0"",""1502""
","
","null","run_exp/static/audio/clip_12_new_stoplight.m4a","null","","","","","","","",""
"","old_2","209","305601","0.0-209.0","""event"",""trial"",""time""
""fullscreenenter"",""0"",""1502""
","
","
","""event"",""trial"",""time""
""fullscreenenter"",""0"",""1502""
","
","null","run_exp/static/audio/clip_13_old_baseball.m4a","null","","","","","","","",""
"","similar_2a","210","309111","0.0-210.0","""event"",""trial"",""time""
""fullscreenenter"",""0"",""1502""
","
","
","""event"",""trial"",""time""
""fullscreenenter"",""0"",""1502""
","
","null","run_exp/static/audio/clip_14a_similar_gummies.m4a","null","","","","","","","",""
"","similar_2b","211","316621","0.0-211.0","""event"",""trial"",""time""
""fullscreenenter"",""0"",""1502""
","
","
","""event"",""trial"",""time""
""fullscreenenter"",""0"",""1502""
","
","null","run_exp/static/audio/clip_14b_similar_gummies.m4a","null","","","","","","","",""
"","practice","212","358752","0.0-212.0","""event"",""trial"",""time""
""fullscreenenter"",""0"",""1502""
","
","
","""event"",""trial"",""time""
""fullscreenenter"",""0"",""1502""
","
","null","run_exp/static/audio/clip_15_practice.m4a","null","","","","","<div class='center'><p>Lets practice a little to make sure you understand the difference between new, similar, and old. Lets say you saw these three items in the indoor/outdoor game.</p><p> Try your best to remember these images because youll soon be tested on them in a practice game. In the practice game, youll be shown images and youll have to say if they are old (one of the three images belows), similar (similar to one of the images below but not exactly the same), or new (are not one of the images below nor similar to them).</p><p>Once you press the space bar youll be shown these images again but one at time. Then youll begin the practice game.</p><p><img src='run_exp/static/images/tutorial/test/three_indoor_outdoor.png' height='300'></p></div>","","",""
"","html-keyboard-response","213","361419","0.0-213.0","""event"",""trial"",""time""
""fullscreenenter"",""0"",""1502""
","
","
","""event"",""trial"",""time""
""fullscreenenter"",""0"",""1502""
","
","2664.199999809265","<div class='center'><p>Lets practice a little to make sure you understand the difference between new, similar, and old. Lets say you saw these three items in the indoor/outdoor game.</p><p> Try your best to remember these images because youll soon be tested on them in a practice game. In the practice game, youll be shown images and youll have to say if they are old (one of the three images belows), similar (similar to one of the images below but not exactly the same), or new (are not one of the images below nor similar to them).</p><p>Once you press the space bar youll be shown these images again but one at time. Then youll begin the practice game.</p><p><img src='run_exp/static/images/tutorial/test/three_indoor_outdoor.png' height='300'></p><div><p><b>[Press the space bar to continue]</b></p></div>","32","","","","","","","",""
"","planet","214","363429","0.0-214.0","""event"",""trial"",""time""
""fullscreenenter"",""0"",""1502""
","
","
","""event"",""trial"",""time""
""fullscreenenter"",""0"",""1502""
","
","null","run_exp/static/images/tutorial/test/008a.jpg","null","","","","","","","",""
"","boot","215","365432","0.0-215.0","""event"",""trial"",""time""
""fullscreenenter"",""0"",""1502""
","
","
","""event"",""trial"",""time""
""fullscreenenter"",""0"",""1502""
","
","null","run_exp/static/images/tutorial/test/011a.jpg","null","","","","","","","",""
"","lemon","216","367449","0.0-216.0","""event"",""trial"",""time""
""fullscreenenter"",""0"",""1502""
","
","
","""event"",""trial"",""time""
""fullscreenenter"",""0"",""1502""
","
","null","run_exp/static/images/tutorial/test/018a.jpg","null","","","","","","","",""
"","practice_q1","217","375666","0.0-217.0","""event"",""trial"",""time""
""fullscreenenter"",""0"",""1502""
","
","
","""event"",""trial"",""time""
""fullscreenenter"",""0"",""1502""
","
","8213.399999856949","run_exp/static/audio/clip_16_practice_question.m4a","66","","","","","","","",""
"","incorrect_q1","218","378532","0.0-218.0-0.0","""event"",""trial"",""time""
""fullscreenenter"",""0"",""1502""
","
","
","""event"",""trial"",""time""
""fullscreenenter"",""0"",""1502""
","
","null","run_exp/static/audio/clip_18_incorrect_new.m4a","null","","","","","<div class='center'><p>Thats incorrect. Its new.</p></div>","","",""
"","html-keyboard-response","219","380154","0.0-218.0-1.0","""event"",""trial"",""time""
""fullscreenenter"",""0"",""1502""
","
","
","""event"",""trial"",""time""
""fullscreenenter"",""0"",""1502""
","
","1620.6000001430511","<div class='center'><p>Thats incorrect. Its new.</p><div><p><b>[Press the space bar to continue]</b></p></div>","32","","","","","","","",""
"","practice_q2","220","385435","0.0-218.0-2.0","""event"",""trial"",""time""
""fullscreenenter"",""0"",""1502""
","
","
","""event"",""trial"",""time""
""fullscreenenter"",""0"",""1502""
","
","5277.199999809265","run_exp/static/audio/clip_16_practice_question.m4a","78","","","","","","","",""
"","incorrect_q2","221","388512","0.0-219.0-0.0","""event"",""trial"",""time""
""fullscreenenter"",""0"",""1502""
","
","
","""event"",""trial"",""time""
""fullscreenenter"",""0"",""1502""
","
","null","run_exp/static/audio/clip_19_incorrect_old.m4a","null","","","","","<div class='center'><p>Thats incorrect. Its old.</p></div>","","",""
"","html-keyboard-response","222","389442","0.0-219.0-1.0","""event"",""trial"",""time""
""fullscreenenter"",""0"",""1502""
","
","
","""event"",""trial"",""time""
""fullscreenenter"",""0"",""1502""
","
","929.0999999046326","<div class='center'><p>Thats incorrect. Its old.</p><div><p><b>[Press the space bar to continue]</b></p></div>","32","","","","","","","",""
"","practice_q3","223","394659","0.0-219.0-2.0","""event"",""trial"",""time""
""fullscreenenter"",""0"",""1502""
","
","
","""event"",""trial"",""time""
""fullscreenenter"",""0"",""1502""
","
","5212.200000047684","run_exp/static/audio/clip_16_practice_question.m4a","86","","","","","","","",""
"","incorrect_q3","224","397412","0.0-220.0-0.0","""event"",""trial"",""time""
""fullscreenenter"",""0"",""1502""
","
","
","""event"",""trial"",""time""
""fullscreenenter"",""0"",""1502""
","
","null","run_exp/static/audio/clip_20_incorrect_similar.m4a","null","","","","","<div class='center'><p>Thats incorrect. Its similar.</p><p><img src='run_exp/static/images/tutorial/test/boot_comparison.png' height='300'></p></div>","","",""
"","html-keyboard-response","225","397930","0.0-220.0-1.0","""event"",""trial"",""time""
""fullscreenenter"",""0"",""1502""
","
","
","""event"",""trial"",""time""
""fullscreenenter"",""0"",""1502""
","
","516.2000000476837","<div class='center'><p>Thats incorrect. Its similar.</p><p><img src='run_exp/static/images/tutorial/test/boot_comparison.png' height='300'></p><div><p><b>[Press the space bar to continue]</b></p></div>","32","","","","","","","",""
"","repeat","226","402691","0.0-221.0-0.0","""event"",""trial"",""time""
""fullscreenenter"",""0"",""1502""
","
","
","""event"",""trial"",""time""
""fullscreenenter"",""0"",""1502""
","
","null","run_exp/static/audio/clip_21_practice_again.m4a","null","","","","","<div class='center'><p>Oops. you missed at least one of these questions. Let's try practicing again. </p></div>","","",""
"","html-keyboard-response","227","403533","0.0-221.0-1.0","""event"",""trial"",""time""
""fullscreenenter"",""0"",""1502""
","
","
","""event"",""trial"",""time""
""fullscreenenter"",""0"",""1502""
","
","839.7000000476837","<div class='center'><p>Oops. you missed at least one of these questions. Let's try practicing again. </p><div><p><b>[Press the space bar to continue]</b></p></div>","32","","","","","","","",""
"","practice_q1","228","408820","0.0-221.0-2.0","""event"",""trial"",""time""
""fullscreenenter"",""0"",""1502""
","
","
","""event"",""trial"",""time""
""fullscreenenter"",""0"",""1502""
","
","5282.699999809265","run_exp/static/audio/clip_16_practice_question.m4a","78","","","","","","","",""
"","correct","229","410753","0.0-222.0-0.0","""event"",""trial"",""time""
""fullscreenenter"",""0"",""1502""
","
","
","""event"",""trial"",""time""
""fullscreenenter"",""0"",""1502""
","
","null","run_exp/static/audio/clip_17_correct.m4a","null","","","","","<div class='center'><p>That's correct!</p></div>","","",""
"","html-keyboard-response","230","411667","0.0-222.0-1.0","""event"",""trial"",""time""
""fullscreenenter"",""0"",""1502""
","
","
","""event"",""trial"",""time""
""fullscreenenter"",""0"",""1502""
","
","912.6000001430511","<div class='center'><p>That's correct!</p><div><p><b>[Press the space bar to continue]</b></p></div>","32","","","","","","","",""
"","practice_q2","231","416958","0.0-222.0-2.0","""event"",""trial"",""time""
""fullscreenenter"",""0"",""1502""
","
","
","""event"",""trial"",""time""
""fullscreenenter"",""0"",""1502""
","
","5287.600000143051","run_exp/static/audio/clip_16_practice_question.m4a","78","","","","","","","",""
"","incorrect_q2","232","420033","0.0-223.0-0.0","""event"",""trial"",""time""
""fullscreenenter"",""0"",""1502""
","
","
","""event"",""trial"",""time""
""fullscreenenter"",""0"",""1502""
","
","null","run_exp/static/audio/clip_19_incorrect_old.m4a","null","","","","","<div class='center'><p>Thats incorrect. Its old.</p></div>","","",""
"","html-keyboard-response","233","420539","0.0-223.0-1.0","""event"",""trial"",""time""
""fullscreenenter"",""0"",""1502""
","
","
","""event"",""trial"",""time""
""fullscreenenter"",""0"",""1502""
","
","504.60000014305115","<div class='center'><p>Thats incorrect. Its old.</p><div><p><b>[Press the space bar to continue]</b></p></div>","32","","","","","","","",""
"","practice_q3","234","425772","0.0-223.0-2.0","""event"",""trial"",""time""
""fullscreenenter"",""0"",""1502""
","
","
","""event"",""trial"",""time""
""fullscreenenter"",""0"",""1502""
","
","5227","run_exp/static/audio/clip_16_practice_question.m4a","66","","","","","","","",""
"","correct","235","427673","0.0-224.0-0.0","""event"",""trial"",""time""
""fullscreenenter"",""0"",""1502""
","
","
","""event"",""trial"",""time""
""fullscreenenter"",""0"",""1502""
","
","null","run_exp/static/audio/clip_17_correct.m4a","null","","","","","<div class='center'><p>That's correct!</p></div>","","",""
"","html-keyboard-response","236","428830","0.0-224.0-1.0","""event"",""trial"",""time""
""fullscreenenter"",""0"",""1502""
","
","
","""event"",""trial"",""time""
""fullscreenenter"",""0"",""1502""
","
","1155.7000000476837","<div class='center'><p>That's correct!</p><div><p><b>[Press the space bar to continue]</b></p></div>","32","","","","","","","",""
"","repeat","237","433593","0.0-225.0-0.0","""event"",""trial"",""time""
""fullscreenenter"",""0"",""1502""
","
","
","""event"",""trial"",""time""
""fullscreenenter"",""0"",""1502""
","
","null","run_exp/static/audio/clip_21_practice_again.m4a","null","","","","","<div class='center'><p>Oops. you missed at least one of these questions. Let's try practicing again. </p></div>","","",""
"","html-keyboard-response","238","434259","0.0-225.0-1.0","""event"",""trial"",""time""
""fullscreenenter"",""0"",""1502""
","
","
","""event"",""trial"",""time""
""fullscreenenter"",""0"",""1502""
","
","663.8000001907349","<div class='center'><p>Oops. you missed at least one of these questions. Let's try practicing again. </p><div><p><b>[Press the space bar to continue]</b></p></div>","32","","","","","","","",""
"","practice_q1","239","439582","0.0-225.0-2.0","""event"",""trial"",""time""
""fullscreenenter"",""0"",""1502""
","
","
","""event"",""trial"",""time""
""fullscreenenter"",""0"",""1502""
","
","5319.200000047684","run_exp/static/audio/clip_16_practice_question.m4a","78","","","","","","","",""
"","correct","240","441493","0.0-226.0-0.0","""event"",""trial"",""time""
""fullscreenenter"",""0"",""1502""
","
","
","""event"",""trial"",""time""
""fullscreenenter"",""0"",""1502""
","
","null","run_exp/static/audio/clip_17_correct.m4a","null","","","","","<div class='center'><p>That's correct!</p></div>","","",""
"","html-keyboard-response","241","442292","0.0-226.0-1.0","""event"",""trial"",""time""
""fullscreenenter"",""0"",""1502""
","
","
","""event"",""trial"",""time""
""fullscreenenter"",""0"",""1502""
","
","796.8999998569489","<div class='center'><p>That's correct!</p><div><p><b>[Press the space bar to continue]</b></p></div>","32","","","","","","","",""
"","practice_q2","242","447556","0.0-226.0-2.0","""event"",""trial"",""time""
""fullscreenenter"",""0"",""1502""
","
","
","""event"",""trial"",""time""
""fullscreenenter"",""0"",""1502""
","
","5259.399999856949","run_exp/static/audio/clip_16_practice_question.m4a","86","","","","","","","",""
"","correct","243","449473","0.0-227.0-0.0","""event"",""trial"",""time""
""fullscreenenter"",""0"",""1502""
","
","
","""event"",""trial"",""time""
""fullscreenenter"",""0"",""1502""
","
","null","run_exp/static/audio/clip_17_correct.m4a","null","","","","","<div class='center'><p>That's correct!</p></div>","","",""
"","html-keyboard-response","244","449902","0.0-227.0-1.0","""event"",""trial"",""time""
""fullscreenenter"",""0"",""1502""
","
","
","""event"",""trial"",""time""
""fullscreenenter"",""0"",""1502""
","
","427.5","<div class='center'><p>That's correct!</p><div><p><b>[Press the space bar to continue]</b></p></div>","32","","","","","","","",""
"","practice_q3","245","455404","0.0-227.0-2.0","""event"",""trial"",""time""
""fullscreenenter"",""0"",""1502""
","
","
","""event"",""trial"",""time""
""fullscreenenter"",""0"",""1502""
","
","5498.199999809265","run_exp/static/audio/clip_16_practice_question.m4a","66","","","","","","","",""
"","correct","246","457473","0.0-228.0-0.0","""event"",""trial"",""time""
""fullscreenenter"",""0"",""1502""
","
","
","""event"",""trial"",""time""
""fullscreenenter"",""0"",""1502""
","
","null","run_exp/static/audio/clip_17_correct.m4a","null","","","","","<div class='center'><p>That's correct!</p></div>","","",""
"","html-keyboard-response","247","458012","0.0-228.0-1.0","""event"",""trial"",""time""
""fullscreenenter"",""0"",""1502""
","
","
","""event"",""trial"",""time""
""fullscreenenter"",""0"",""1502""
","
","536.2000000476837","<div class='center'><p>That's correct!</p><div><p><b>[Press the space bar to continue]</b></p></div>","32","","","","","","","",""
"","begin_text","248","476512","0.0-229.0-0.0","""event"",""trial"",""time""
""fullscreenenter"",""0"",""1502""
","
","
","""event"",""trial"",""time""
""fullscreenenter"",""0"",""1502""
","
","null","run_exp/static/audio/clip_22_begin_test.m4a","null","","","","","<div class='center'><p>On to the real game where well test your memory of items from the indoor/outdoor game. For each item, you need to indicate if the item is <b>old</b> by pressing the <b>v</b> key, <b>similar</b> by pressing the <b>b</b> key, or <b>new</b> by pressing the <b>n</b> key. </p></div>","","",""
"","html-keyboard-response","249","477643","0.0-229.0-1.0","""event"",""trial"",""time""
""fullscreenenter"",""0"",""1502""
","
","
","""event"",""trial"",""time""
""fullscreenenter"",""0"",""1502""
","
","1127.7000000476837","<div class='center'><p>On to the real game where well test your memory of items from the indoor/outdoor game. For each item, you need to indicate if the item is <b>old</b> by pressing the <b>v</b> key, <b>similar</b> by pressing the <b>b</b> key, or <b>new</b> by pressing the <b>n</b> key. </p><div><p><b>[Press the space bar to continue]</b></p></div>","32","","","","","","","",""
"","image","250","480146","0.0-230.0-0.0","""event"",""trial"",""time""
""fullscreenenter"",""0"",""1502""
","
","
","""event"",""trial"",""time""
""fullscreenenter"",""0"",""1502""
","
","2501","run_exp/static/images/Set 6_rs/012a.jpg","78","","","","","","test","TR","1"
"","show_choice","251","480650","0.0-230.0-1.0","""event"",""trial"",""time""
""fullscreenenter"",""0"",""1502""
","
","
","""event"",""trial"",""time""
""fullscreenenter"",""0"",""1502""
","
","null","run_exp/static/images/Set 6_rs/012a.jpg","null","","","","","","test","TR",""
"","html-keyboard-response","252","481160","0.0-230.0-2.0","""event"",""trial"",""time""
""fullscreenenter"",""0"",""1502""
","
","
","""event"",""trial"",""time""
""fullscreenenter"",""0"",""1502""
","
","null","<p></p>","null","","","","","","","",""
"","image","253","482474","0.0-231.0-0.0","""event"",""trial"",""time""
""fullscreenenter"",""0"",""1502""
","
","
","""event"",""trial"",""time""
""fullscreenenter"",""0"",""1502""
","
","1311.6999998092651","run_exp/static/images/Set 6_rs/014b.jpg","86","","","","","","test","TL","5"
"","show_choice","254","482990","0.0-231.0-1.0","""event"",""trial"",""time""
""fullscreenenter"",""0"",""1502""
","
","
","""event"",""trial"",""time""
""fullscreenenter"",""0"",""1502""
","
","null","run_exp/static/images/Set 6_rs/014b.jpg","null","","","","","","test","TL",""
"","html-keyboard-response","255","483510","0.0-231.0-2.0","""event"",""trial"",""time""
""fullscreenenter"",""0"",""1502""
","
","
","""event"",""trial"",""time""
""fullscreenenter"",""0"",""1502""
","
","null","<p></p>","null","","","","","","","",""
"","image","256","485266","0.0-232.0-0.0","""event"",""trial"",""time""
""fullscreenenter"",""0"",""1502""
","
","
","""event"",""trial"",""time""
""fullscreenenter"",""0"",""1502""
","
","1754.1999998092651","run_exp/static/images/Set 6_rs/140a.jpg","66","","","","","","test","TF","1"
"","show_choice","257","485780","0.0-232.0-1.0","""event"",""trial"",""time""
""fullscreenenter"",""0"",""1502""
","
","
","""event"",""trial"",""time""
""fullscreenenter"",""0"",""1502""
","
","null","run_exp/static/images/Set 6_rs/140a.jpg","null","","","","","","test","TF",""
"","html-keyboard-response","258","486298","0.0-232.0-2.0","""event"",""trial"",""time""
""fullscreenenter"",""0"",""1502""
","
","
","""event"",""trial"",""time""
""fullscreenenter"",""0"",""1502""
","
","null","<p></p>","null","","","","","","","",""
"","image","259","488765","0.0-233.0-0.0","""event"",""trial"",""time""
""fullscreenenter"",""0"",""1502""
","
","
","""event"",""trial"",""time""
""fullscreenenter"",""0"",""1502""
","
","2464.600000143051","run_exp/static/images/Set 6_rs/138b.jpg","86","","","","","","test","TL","1"
"","show_choice","260","489267","0.0-233.0-1.0","""event"",""trial"",""time""
""fullscreenenter"",""0"",""1502""
","
","
","""event"",""trial"",""time""
""fullscreenenter"",""0"",""1502""
","
","null","run_exp/static/images/Set 6_rs/138b.jpg","null","","","","","","test","TL",""
"","html-keyboard-response","261","489784","0.0-233.0-2.0","""event"",""trial"",""time""
""fullscreenenter"",""0"",""1502""
","
","
","""event"",""trial"",""time""
""fullscreenenter"",""0"",""1502""
","
","null","<p></p>","null","","","","","","","",""
"","image","262","490778","0.0-234.0-0.0","""event"",""trial"",""time""
""fullscreenenter"",""0"",""1502""
","
","
","""event"",""trial"",""time""
""fullscreenenter"",""0"",""1502""
","
","992.6000001430511","run_exp/static/images/Set 6_rs/169a.jpg","86","","","","","","test","TR","4"
"","show_choice","263","491291","0.0-234.0-1.0","""event"",""trial"",""time""
""fullscreenenter"",""0"",""1502""
","
","
","""event"",""trial"",""time""
""fullscreenenter"",""0"",""1502""
","
","null","run_exp/static/images/Set 6_rs/169a.jpg","null","","","","","","test","TR",""
"","html-keyboard-response","264","491800","0.0-234.0-2.0","""event"",""trial"",""time""
""fullscreenenter"",""0"",""1502""
","
","
","""event"",""trial"",""time""
""fullscreenenter"",""0"",""1502""
","
","null","<p></p>","null","","","","","","","",""
"","image","265","492810","0.0-235.0-0.0","""event"",""trial"",""time""
""fullscreenenter"",""0"",""1502""
","
","
","""event"",""trial"",""time""
""fullscreenenter"",""0"",""1502""
","
","1007.7000000476837","run_exp/static/images/Set 6_rs/006b.jpg","86","","","","","","test","TL","2"
"","show_choice","266","493315","0.0-235.0-1.0","""event"",""trial"",""time""
""fullscreenenter"",""0"",""1502""
","
","
","""event"",""trial"",""time""
""fullscreenenter"",""0"",""1502""
","
","null","run_exp/static/images/Set 6_rs/006b.jpg","null","","","","","","test","TL",""
"","html-keyboard-response","267","493830","0.0-235.0-2.0","""event"",""trial"",""time""
""fullscreenenter"",""0"",""1502""
","
","
","""event"",""trial"",""time""
""fullscreenenter"",""0"",""1502""
","
","null","<p></p>","null","","","","","","","",""
"","image","268","494899","0.0-236.0-0.0","""event"",""trial"",""time""
""fullscreenenter"",""0"",""1502""
","
","
","""event"",""trial"",""time""
""fullscreenenter"",""0"",""1502""
","
","1066.5999999046326","run_exp/static/images/Set 6_rs/131a.jpg","86","","","","","","test","TR","5"
"","show_choice","269","495414","0.0-236.0-1.0","""event"",""trial"",""time""
""fullscreenenter"",""0"",""1502""
","
","
","""event"",""trial"",""time""
""fullscreenenter"",""0"",""1502""
","
","null","run_exp/static/images/Set 6_rs/131a.jpg","null","","","","","","test","TR",""
"","html-keyboard-response","270","495936","0.0-236.0-2.0","""event"",""trial"",""time""
""fullscreenenter"",""0"",""1502""
","
","
","""event"",""trial"",""time""
""fullscreenenter"",""0"",""1502""
","
","null","<p></p>","null","","","","","","","",""
"","image","271","497586","0.0-237.0-0.0","""event"",""trial"",""time""
""fullscreenenter"",""0"",""1502""
","
","
","""event"",""trial"",""time""
""fullscreenenter"",""0"",""1502""
","
","1647.7999999523163","run_exp/static/images/Set 6_rs/005a.jpg","78","","","","","","test","TF","5"
"","show_choice","272","498100","0.0-237.0-1.0","""event"",""trial"",""time""
""fullscreenenter"",""0"",""1502""
","
","
","""event"",""trial"",""time""
""fullscreenenter"",""0"",""1502""
","
","null","run_exp/static/images/Set 6_rs/005a.jpg","null","","","","","","test","TF",""
"","html-keyboard-response","273","498614","0.0-237.0-2.0","""event"",""trial"",""time""
""fullscreenenter"",""0"",""1502""
","
","
","""event"",""trial"",""time""
""fullscreenenter"",""0"",""1502""
","
","null","<p></p>","null","","","","","","","",""
"","image","274","500092","0.0-238.0-0.0","""event"",""trial"",""time""
""fullscreenenter"",""0"",""1502""
","
","
","""event"",""trial"",""time""
""fullscreenenter"",""0"",""1502""
","
","1477.1000001430511","run_exp/static/images/Set 6_rs/100a.jpg","66","","","","","","test","TF","2"
"","show_choice","275","500600","0.0-238.0-1.0","""event"",""trial"",""time""
""fullscreenenter"",""0"",""1502""
","
","
","""event"",""trial"",""time""
""fullscreenenter"",""0"",""1502""
","
","null","run_exp/static/images/Set 6_rs/100a.jpg","null","","","","","","test","TF",""
"","html-keyboard-response","276","501106","0.0-238.0-2.0","""event"",""trial"",""time""
""fullscreenenter"",""0"",""1502""
","
","
","""event"",""trial"",""time""
""fullscreenenter"",""0"",""1502""
","
","null","<p></p>","null","","","","","","","",""
"","image","277","502730","0.0-239.0-0.0","""event"",""trial"",""time""
""fullscreenenter"",""0"",""1502""
","
","
","""event"",""trial"",""time""
""fullscreenenter"",""0"",""1502""
","
","1621.3999998569489","run_exp/static/images/Set 6_rs/078a.jpg","78","","","","","","test","TF","1"
"","show_choice","278","503247","0.0-239.0-1.0","""event"",""trial"",""time""
""fullscreenenter"",""0"",""1502""
","
","
","""event"",""trial"",""time""
""fullscreenenter"",""0"",""1502""
","
","null","run_exp/static/images/Set 6_rs/078a.jpg","null","","","","","","test","TF",""
"","html-keyboard-response","279","503763","0.0-239.0-2.0","""event"",""trial"",""time""
""fullscreenenter"",""0"",""1502""
","
","
","""event"",""trial"",""time""
""fullscreenenter"",""0"",""1502""
","
","null","<p></p>","null","","","","","","","",""
"","image","280","505570","0.0-240.0-0.0","""event"",""trial"",""time""
""fullscreenenter"",""0"",""1502""
","
","
","""event"",""trial"",""time""
""fullscreenenter"",""0"",""1502""
","
","1804.6000001430511","run_exp/static/images/Set 6_rs/126a.jpg","86","","","","","","test","TR","2"
"","show_choice","281","506073","0.0-240.0-1.0","""event"",""trial"",""time""
""fullscreenenter"",""0"",""1502""
","
","
","""event"",""trial"",""time""
""fullscreenenter"",""0"",""1502""
","
","null","run_exp/static/images/Set 6_rs/126a.jpg","null","","","","","","test","TR",""
"","html-keyboard-response","282","506580","0.0-240.0-2.0","""event"",""trial"",""time""
""fullscreenenter"",""0"",""1502""
","
","
","""event"",""trial"",""time""
""fullscreenenter"",""0"",""1502""
","
","null","<p></p>","null","","","","","","","",""
"","image","283","508578","0.0-241.0-0.0","""event"",""trial"",""time""
""fullscreenenter"",""0"",""1502""
","
","
","""event"",""trial"",""time""
""fullscreenenter"",""0"",""1502""
","
","1995.5999999046326","run_exp/static/images/Set 6_rs/170a.jpg","78","","","","","","test","TF","2"
"","show_choice","284","509082","0.0-241.0-1.0","""event"",""trial"",""time""
""fullscreenenter"",""0"",""1502""
","
","
","""event"",""trial"",""time""
""fullscreenenter"",""0"",""1502""
","
","null","run_exp/static/images/Set 6_rs/170a.jpg","null","","","","","","test","TF",""
"","html-keyboard-response","285","509598","0.0-241.0-2.0","""event"",""trial"",""time""
""fullscreenenter"",""0"",""1502""
","
","
","""event"",""trial"",""time""
""fullscreenenter"",""0"",""1502""
","
","null","<p></p>","null","","","","","","","",""
"","image","286","511173","0.0-242.0-0.0","""event"",""trial"",""time""
""fullscreenenter"",""0"",""1502""
","
","
","""event"",""trial"",""time""
""fullscreenenter"",""0"",""1502""
","
","1572.7000000476837","run_exp/static/images/Set 6_rs/052a.jpg","86","","","","","","test","TF","1"
"","show_choice","287","511680","0.0-242.0-1.0","""event"",""trial"",""time""
""fullscreenenter"",""0"",""1502""
","
","
","""event"",""trial"",""time""
""fullscreenenter"",""0"",""1502""
","
","null","run_exp/static/images/Set 6_rs/052a.jpg","null","","","","","","test","TF",""
"","html-keyboard-response","288","512192","0.0-242.0-2.0","""event"",""trial"",""time""
""fullscreenenter"",""0"",""1502""
","
","
","""event"",""trial"",""time""
""fullscreenenter"",""0"",""1502""
","
","null","<p></p>","null","","","","","","","",""
"","image","289","514074","0.0-243.0-0.0","""event"",""trial"",""time""
""fullscreenenter"",""0"",""1502""
","
","
","""event"",""trial"",""time""
""fullscreenenter"",""0"",""1502""
","
","1879.2999999523163","run_exp/static/images/Set 6_rs/056a.jpg","78","","","","","","test","TF","3"
"","show_choice","290","514582","0.0-243.0-1.0","""event"",""trial"",""time""
""fullscreenenter"",""0"",""1502""
","
","
","""event"",""trial"",""time""
""fullscreenenter"",""0"",""1502""
","
","null","run_exp/static/images/Set 6_rs/056a.jpg","null","","","","","","test","TF",""
"","html-keyboard-response","291","515098","0.0-243.0-2.0","""event"",""trial"",""time""
""fullscreenenter"",""0"",""1502""
","
","
","""event"",""trial"",""time""
""fullscreenenter"",""0"",""1502""
","
","null","<p></p>","null","","","","","","","",""
"","image","292","516858","0.0-244.0-0.0","""event"",""trial"",""time""
""fullscreenenter"",""0"",""1502""
","
","
","""event"",""trial"",""time""
""fullscreenenter"",""0"",""1502""
","
","1758.2999999523163","run_exp/static/images/Set 6_rs/129b.jpg","66","","","","","","test","TL","1"
"","show_choice","293","517365","0.0-244.0-1.0","""event"",""trial"",""time""
""fullscreenenter"",""0"",""1502""
","
","
","""event"",""trial"",""time""
""fullscreenenter"",""0"",""1502""
","
","null","run_exp/static/images/Set 6_rs/129b.jpg","null","","","","","","test","TL",""
"","html-keyboard-response","294","517881","0.0-244.0-2.0","""event"",""trial"",""time""
""fullscreenenter"",""0"",""1502""
","
","
","""event"",""trial"",""time""
""fullscreenenter"",""0"",""1502""
","
","null","<p></p>","null","","","","","","","",""
"","image","295","519194","0.0-245.0-0.0","""event"",""trial"",""time""
""fullscreenenter"",""0"",""1502""
","
","
","""event"",""trial"",""time""
""fullscreenenter"",""0"",""1502""
","
","1310.7999999523163","run_exp/static/images/Set 6_rs/074b.jpg","78","","","","","","test","TL","4"
"","show_choice","296","519698","0.0-245.0-1.0","""event"",""trial"",""time""
""fullscreenenter"",""0"",""1502""
","
","
","""event"",""trial"",""time""
""fullscreenenter"",""0"",""1502""
","
","null","run_exp/static/images/Set 6_rs/074b.jpg","null","","","","","","test","TL",""
"","html-keyboard-response","297","520214","0.0-245.0-2.0","""event"",""trial"",""time""
""fullscreenenter"",""0"",""1502""
","
","
","""event"",""trial"",""time""
""fullscreenenter"",""0"",""1502""
","
","null","<p></p>","null","","","","","","","",""
"","image","298","521042","0.0-246.0-0.0","""event"",""trial"",""time""
""fullscreenenter"",""0"",""1502""
","
","
","""event"",""trial"",""time""
""fullscreenenter"",""0"",""1502""
","
","825.8000001907349","run_exp/static/images/Set 6_rs/070a.jpg","86","","","","","","test","TR","2"
"","show_choice","299","521549","0.0-246.0-1.0","""event"",""trial"",""time""
""fullscreenenter"",""0"",""1502""
","
","
","""event"",""trial"",""time""
""fullscreenenter"",""0"",""1502""
","
","null","run_exp/static/images/Set 6_rs/070a.jpg","null","","","","","","test","TR",""
"","html-keyboard-response","300","522064","0.0-246.0-2.0","""event"",""trial"",""time""
""fullscreenenter"",""0"",""1502""
","
","
","""event"",""trial"",""time""
""fullscreenenter"",""0"",""1502""
","
","null","<p></p>","null","","","","","","","",""
"","image","301","524061","0.0-247.0-0.0","""event"",""trial"",""time""
""fullscreenenter"",""0"",""1502""
","
","
","""event"",""trial"",""time""
""fullscreenenter"",""0"",""1502""
","
","1994.1000001430511","run_exp/static/images/Set 6_rs/001a.jpg","78","","","","","","test","TF","1"
"","show_choice","302","524564","0.0-247.0-1.0","""event"",""trial"",""time""
""fullscreenenter"",""0"",""1502""
","
","
","""event"",""trial"",""time""
""fullscreenenter"",""0"",""1502""
","
","null","run_exp/static/images/Set 6_rs/001a.jpg","null","","","","","","test","TF",""
"","html-keyboard-response","303","525081","0.0-247.0-2.0","""event"",""trial"",""time""
""fullscreenenter"",""0"",""1502""
","
","
","""event"",""trial"",""time""
""fullscreenenter"",""0"",""1502""
","
","null","<p></p>","null","","","","","","","",""
"","image","304","526938","0.0-248.0-0.0","""event"",""trial"",""time""
""fullscreenenter"",""0"",""1502""
","
","
","""event"",""trial"",""time""
""fullscreenenter"",""0"",""1502""
","
","1854.6999998092651","run_exp/static/images/Set 6_rs/150a.jpg","66","","","","","","test","TR","1"
"","show_choice","305","527447","0.0-248.0-1.0","""event"",""trial"",""time""
""fullscreenenter"",""0"",""1502""
","
","
","""event"",""trial"",""time""
""fullscreenenter"",""0"",""1502""
","
","null","run_exp/static/images/Set 6_rs/150a.jpg","null","","","","","","test","TR",""
"","html-keyboard-response","306","527964","0.0-248.0-2.0","""event"",""trial"",""time""
""fullscreenenter"",""0"",""1502""
","
","
","""event"",""trial"",""time""
""fullscreenenter"",""0"",""1502""
","
","null","<p></p>","null","","","","","","","",""
"","image","307","529323","0.0-249.0-0.0","""event"",""trial"",""time""
""fullscreenenter"",""0"",""1502""
","
","
","""event"",""trial"",""time""
""fullscreenenter"",""0"",""1502""
","
","1356.4000000953674","run_exp/static/images/Set 6_rs/144b.jpg","86","","","","","","test","TL","4"
"","show_choice","308","529833","0.0-249.0-1.0","""event"",""trial"",""time""
""fullscreenenter"",""0"",""1502""
","
","
","""event"",""trial"",""time""
""fullscreenenter"",""0"",""1502""
","
","null","run_exp/static/images/Set 6_rs/144b.jpg","null","","","","","","test","TL",""
"","html-keyboard-response","309","530349","0.0-249.0-2.0","""event"",""trial"",""time""
""fullscreenenter"",""0"",""1502""
","
","
","""event"",""trial"",""time""
""fullscreenenter"",""0"",""1502""
","
","null","<p></p>","null","","","","","","","",""
"","image","310","532859","0.0-250.0-0.0","""event"",""trial"",""time""
""fullscreenenter"",""0"",""1502""
","
","
","""event"",""trial"",""time""
""fullscreenenter"",""0"",""1502""
","
","2508.300000190735","run_exp/static/images/Set 6_rs/091b.jpg","66","","","","","","test","TL","3"
"","show_choice","311","533366","0.0-250.0-1.0","""event"",""trial"",""time""
""fullscreenenter"",""0"",""1502""
","
","
","""event"",""trial"",""time""
""fullscreenenter"",""0"",""1502""
","
","null","run_exp/static/images/Set 6_rs/091b.jpg","null","","","","","","test","TL",""
"","html-keyboard-response","312","533881","0.0-250.0-2.0","""event"",""trial"",""time""
""fullscreenenter"",""0"",""1502""
","
","
","""event"",""trial"",""time""
""fullscreenenter"",""0"",""1502""
","
","null","<p></p>","null","","","","","","","",""
"","image","313","535430","0.0-251.0-0.0","""event"",""trial"",""time""
""fullscreenenter"",""0"",""1502""
","
","
","""event"",""trial"",""time""
""fullscreenenter"",""0"",""1502""
","
","1547.0999999046326","run_exp/static/images/Set 6_rs/123b.jpg","66","","","","","","test","TL","2"
"","show_choice","314","535932","0.0-251.0-1.0","""event"",""trial"",""time""
""fullscreenenter"",""0"",""1502""
","
","
","""event"",""trial"",""time""
""fullscreenenter"",""0"",""1502""
","
","null","run_exp/static/images/Set 6_rs/123b.jpg","null","","","","","","test","TL",""
"","html-keyboard-response","315","536442","0.0-251.0-2.0","""event"",""trial"",""time""
""fullscreenenter"",""0"",""1502""
","
","
","""event"",""trial"",""time""
""fullscreenenter"",""0"",""1502""
","
","null","<p></p>","null","","","","","","","",""
"","image","316","537787","0.0-252.0-0.0","""event"",""trial"",""time""
""fullscreenenter"",""0"",""1502""
","
","
","""event"",""trial"",""time""
""fullscreenenter"",""0"",""1502""
","
","1343.5","run_exp/static/images/Set 6_rs/062b.jpg","86","","","","","","test","TL","1"
"","show_choice","317","538297","0.0-252.0-1.0","""event"",""trial"",""time""
""fullscreenenter"",""0"",""1502""
","
","
","""event"",""trial"",""time""
""fullscreenenter"",""0"",""1502""
","
","null","run_exp/static/images/Set 6_rs/062b.jpg","null","","","","","","test","TL",""
"","html-keyboard-response","318","538800","0.0-252.0-2.0","""event"",""trial"",""time""
""fullscreenenter"",""0"",""1502""
","
","
","""event"",""trial"",""time""
""fullscreenenter"",""0"",""1502""
","
","null","<p></p>","null","","","","","","","",""
"","image","319","540139","0.0-253.0-0.0","""event"",""trial"",""time""
""fullscreenenter"",""0"",""1502""
","
","
","""event"",""trial"",""time""
""fullscreenenter"",""0"",""1502""
","
","1337.7999999523163","run_exp/static/images/Set 6_rs/176a.jpg","86","","","","","","test","TF","4"
"","show_choice","320","540649","0.0-253.0-1.0","""event"",""trial"",""time""
""fullscreenenter"",""0"",""1502""
","
","
","""event"",""trial"",""time""
""fullscreenenter"",""0"",""1502""
","
","null","run_exp/static/images/Set 6_rs/176a.jpg","null","","","","","","test","TF",""
"","html-keyboard-response","321","541160","0.0-253.0-2.0","""event"",""trial"",""time""
""fullscreenenter"",""0"",""1502""
","
","
","""event"",""trial"",""time""
""fullscreenenter"",""0"",""1502""
","
","null","<p></p>","null","","","","","","","",""
"","image","322","543083","0.0-254.0-0.0","""event"",""trial"",""time""
""fullscreenenter"",""0"",""1502""
","
","
","""event"",""trial"",""time""
""fullscreenenter"",""0"",""1502""
","
","1921.1000001430511","run_exp/static/images/Set 6_rs/061a.jpg","86","","","","","","test","TR","5"
"","show_choice","323","543598","0.0-254.0-1.0","""event"",""trial"",""time""
""fullscreenenter"",""0"",""1502""
","
","
","""event"",""trial"",""time""
""fullscreenenter"",""0"",""1502""
","
","null","run_exp/static/images/Set 6_rs/061a.jpg","null","","","","","","test","TR",""
"","html-keyboard-response","324","544101","0.0-254.0-2.0","""event"",""trial"",""time""
""fullscreenenter"",""0"",""1502""
","
","
","""event"",""trial"",""time""
""fullscreenenter"",""0"",""1502""
","
","null","<p></p>","null","","","","","","","",""
"","image","325","545734","0.0-255.0-0.0","""event"",""trial"",""time""
""fullscreenenter"",""0"",""1502""
","
","
","""event"",""trial"",""time""
""fullscreenenter"",""0"",""1502""
","
","1630.7999999523163","run_exp/static/images/Set 6_rs/085b.jpg","66","","","","","","test","TL","1"
"","show_choice","326","546242","0.0-255.0-1.0","""event"",""trial"",""time""
""fullscreenenter"",""0"",""1502""
","
","
","""event"",""trial"",""time""
""fullscreenenter"",""0"",""1502""
","
","null","run_exp/static/images/Set 6_rs/085b.jpg","null","","","","","","test","TL",""
"","html-keyboard-response","327","546748","0.0-255.0-2.0","""event"",""trial"",""time""
""fullscreenenter"",""0"",""1502""
","
","
","""event"",""trial"",""time""
""fullscreenenter"",""0"",""1502""
","
","null","<p></p>","null","","","","","","","",""
"","image","328","548427","0.0-256.0-0.0","""event"",""trial"",""time""
""fullscreenenter"",""0"",""1502""
","
","
","""event"",""trial"",""time""
""fullscreenenter"",""0"",""1502""
","
","1677","run_exp/static/images/Set 6_rs/111b.jpg","66","","","","","","test","TL","3"
"","show_choice","329","548933","0.0-256.0-1.0","""event"",""trial"",""time""
""fullscreenenter"",""0"",""1502""
","
","
","""event"",""trial"",""time""
""fullscreenenter"",""0"",""1502""
","
","null","run_exp/static/images/Set 6_rs/111b.jpg","null","","","","","","test","TL",""
"","html-keyboard-response","330","549449","0.0-256.0-2.0","""event"",""trial"",""time""
""fullscreenenter"",""0"",""1502""
","
","
","""event"",""trial"",""time""
""fullscreenenter"",""0"",""1502""
","
","null","<p></p>","null","","","","","","","",""
"","image","331","551163","0.0-257.0-0.0","""event"",""trial"",""time""
""fullscreenenter"",""0"",""1502""
","
","
","""event"",""trial"",""time""
""fullscreenenter"",""0"",""1502""
","
","1711.7999999523163","run_exp/static/images/Set 6_rs/089b.jpg","66","","","","","","test","TL","4"
"","show_choice","332","551667","0.0-257.0-1.0","""event"",""trial"",""time""
""fullscreenenter"",""0"",""1502""
","
","
","""event"",""trial"",""time""
""fullscreenenter"",""0"",""1502""
","
","null","run_exp/static/images/Set 6_rs/089b.jpg","null","","","","","","test","TL",""
"","html-keyboard-response","333","552180","0.0-257.0-2.0","""event"",""trial"",""time""
""fullscreenenter"",""0"",""1502""
","
","
","""event"",""trial"",""time""
""fullscreenenter"",""0"",""1502""
","
","null","<p></p>","null","","","","","","","",""
"","image","334","553659","0.0-258.0-0.0","""event"",""trial"",""time""
""fullscreenenter"",""0"",""1502""
","
","
","""event"",""trial"",""time""
""fullscreenenter"",""0"",""1502""
","
","1477.5","run_exp/static/images/Set 6_rs/008b.jpg","78","","","","","","test","TL","2"
