"success","trial_type","trial_index","time_elapsed","internal_node_id","rt","stimulus","key_press","subject_id","participant_id","age","gender","prompt","phase","condition","lure_bin"
"true","fullscreen","0","1881","0.0-0.0","","","","","","","","","","",""
"","pavlovia","1","1886","0.0-1.0","","","","","","","","","","",""
"","welcome","2","37562","0.0-2.0","null","run_exp/static/audio/clip_1_welcome.m4a","null","0","0","8","female","<div class='center'><p>This is your last game of the experiment! First, you'll be shown pictures of items one at a time. For each picture, you have to decide if the item is typically found indoors or outdoors.</p><p>If you think it's usually found indoors, then press <b>v</b> key on your keyboard. If you think it's usually found outdoors, then press the <b>n</b> key.There will be reminders on the screen to help you remember which keys to press. </p><p>If you're not sure whether the item is an indoor item or outdoor item, go ahead and take a guess but try your best not to skip that choice. </p></div>","","",""
"","html-keyboard-response","3","43219","0.0-3.0","5654.725000000326","<div class='center'><p>This is your last game of the experiment! First, you'll be shown pictures of items one at a time. For each picture, you have to decide if the item is typically found indoors or outdoors.</p><p>If you think it's usually found indoors, then press <b>v</b> key on your keyboard. If you think it's usually found outdoors, then press the <b>n</b> key.There will be reminders on the screen to help you remember which keys to press. </p><p>If you're not sure whether the item is an indoor item or outdoor item, go ahead and take a guess but try your best not to skip that choice. </p><div><p><b>[Press the space bar to continue]</b></p></div>","32","","","","","","","",""
"","image","4","45225","0.0-4.0","null","run_exp/static/images/Set 6_rs/085a.jpg","null","","","","","","learn","SL",""
"","show_choice","5","48153","0.0-5.0","null","run_exp/static/images/blank.png","null","","","","","","learn","SL",""
"","html-keyboard-response","6","49501","0.0-6.0","null","<p></p>","null","","","","","","","",""
"","image","7","52198","0.0-7.0","null","run_exp/static/images/Set 6_rs/187a.jpg","null","","","","","","learn","SR",""
"","show_choice","8","56474","0.0-8.0","null","run_exp/static/images/blank.png","null","","","","","","learn","SR",""
"","html-keyboard-response","9","57151","0.0-9.0","null","<p></p>","null","","","","","","","",""
"","image","10","61014","0.0-10.0","null","run_exp/static/images/Set 6_rs/141a.jpg","null","","","","","","learn","SR",""
"","show_choice","11","63056","0.0-11.0","null","run_exp/static/images/blank.png","null","","","","","","learn","SR",""
"","html-keyboard-response","12","64547","0.0-12.0","null","<p></p>","null","","","","","","","",""
"","image","13","67055","0.0-13.0","null","run_exp/static/images/Set 6_rs/061a.jpg","null","","","","","","learn","SR",""
"","show_choice","14","70055","0.0-14.0","null","run_exp/static/images/blank.png","null","","","","","","learn","SR",""
"","html-keyboard-response","15","71055","0.0-15.0","null","<p></p>","null","","","","","","","",""
"","image","16","75551","0.0-16.0","null","run_exp/static/images/Set 6_rs/126a.jpg","null","","","","","","learn","SR",""
"","show_choice","17","78450","0.0-17.0","null","run_exp/static/images/blank.png","null","","","","","","learn","SR",""
"","html-keyboard-response","18","79055","0.0-18.0","null","<p></p>","null","","","","","","","",""
"","image","19","83551","0.0-19.0","null","run_exp/static/images/Set 6_rs/063a.jpg","null","","","","","","learn","SR",""
"","show_choice","20","87302","0.0-20.0","null","run_exp/static/images/blank.png","null","","","","","","learn","SR",""
"","html-keyboard-response","21","88426","0.0-21.0","null","<p></p>","null","","","","","","","",""
"","image","22","92351","0.0-22.0","null","run_exp/static/images/Set 6_rs/181a.jpg","null","","","","","","learn","SL",""
"","show_choice","23","96373","0.0-23.0","null","run_exp/static/images/blank.png","null","","","","","","learn","SL",""
"","html-keyboard-response","24","97388","0.0-24.0","null","<p></p>","null","","","","","","","",""
"","image","25","100055","0.0-25.0","null","run_exp/static/images/Set 6_rs/169a.jpg","null","","","","","","learn","SR",""
"","show_choice","26","104553","0.0-26.0","null","run_exp/static/images/blank.png","null","","","","","","learn","SR",""
"","html-keyboard-response","27","105299","0.0-27.0","null","<p></p>","null","","","","","","","",""
"","image","28","109402","0.0-28.0","null","run_exp/static/images/Set 6_rs/091a.jpg","null","","","","","","learn","SL",""
"","show_choice","29","113375","0.0-29.0","null","run_exp/static/images/blank.png","null","","","","","","learn","SL",""
"","html-keyboard-response","30","114379","0.0-30.0","null","<p></p>","null","","","","","","","",""
"","image","31","118375","0.0-31.0","null","run_exp/static/images/Set 6_rs/168a.jpg","null","","","","","","learn","SL",""
"","show_choice","32","121762","0.0-32.0","null","run_exp/static/images/blank.png","null","","","","","","learn","SL",""
"","html-keyboard-response","33","123689","0.0-33.0","null","<p></p>","null","","","","","","","",""
"","image","34","126576","0.0-34.0","null","run_exp/static/images/Set 6_rs/025a.jpg","null","","","","","","learn","SL",""
"","show_choice","35","129055","0.0-35.0","null","run_exp/static/images/blank.png","null","","","","","","learn","SL",""
"","html-keyboard-response","36","130528","0.0-36.0","null","<p></p>","null","","","","","","","",""
"","image","37","134316","0.0-37.0","null","run_exp/static/images/Set 6_rs/123a.jpg","null","","","","","","learn","SL",""
"","show_choice","38","138375","0.0-38.0","null","run_exp/static/images/blank.png","null","","","","","","learn","SL",""
"","html-keyboard-response","39","139373","0.0-39.0","null","<p></p>","null","","","","","","","",""
"","image","40","143374","0.0-40.0","null","run_exp/static/images/Set 6_rs/191a.jpg","null","","","","","","learn","SL",""
"","show_choice","41","147350","0.0-41.0","null","run_exp/static/images/blank.png","null","","","","","","learn","SL",""
"","html-keyboard-response","42","148398","0.0-42.0","null","<p></p>","null","","","","","","","",""
"","image","43","151055","0.0-43.0","null","run_exp/static/images/Set 6_rs/024a.jpg","null","","","","","","learn","SR",""
"","show_choice","44","155552","0.0-44.0","null","run_exp/static/images/blank.png","null","","","","","","learn","SR",""
"","html-keyboard-response","45","156273","0.0-45.0","null","<p></p>","null","","","","","","","",""
"","image","46","159175","0.0-46.0","null","run_exp/static/images/Set 6_rs/131a.jpg","null","","","","","","learn","SR",""
"","show_choice","47","163478","0.0-47.0","null","run_exp/static/images/blank.png","null","","","","","","learn","SR",""
"","html-keyboard-response","48","164300","0.0-48.0","null","<p></p>","null","","","","","","","",""
"","image","49","168403","0.0-49.0","null","run_exp/static/images/Set 6_rs/150a.jpg","null","","","","","","learn","SR",""
"","show_choice","50","172352","0.0-50.0","null","run_exp/static/images/blank.png","null","","","","","","learn","SR",""
"","html-keyboard-response","51","173376","0.0-51.0","null","<p></p>","null","","","","","","","",""
"","image","52","177374","0.0-52.0","null","run_exp/static/images/Set 6_rs/064a.jpg","null","","","","","","learn","SR",""
"","show_choice","53","180055","0.0-53.0","null","run_exp/static/images/blank.png","null","","","","","","learn","SR",""
"","html-keyboard-response","54","181548","0.0-54.0","null","<p></p>","null","","","","","","","",""
"","image","55","185301","0.0-55.0","null","run_exp/static/images/Set 6_rs/007a.jpg","null","","","","","","learn","SR",""
"","show_choice","56","189374","0.0-56.0","null","run_exp/static/images/blank.png","null","","","","","","learn","SR",""
"","html-keyboard-response","57","190381","0.0-57.0","null","<p></p>","null","","","","","","","",""
"","image","58","193055","0.0-58.0","null","run_exp/static/images/Set 6_rs/017a.jpg","null","","","","","","learn","SL",""
"","show_choice","59","197083","0.0-59.0","null","run_exp/static/images/blank.png","null","","","","","","learn","SL",""
"","html-keyboard-response","60","198055","0.0-60.0","null","<p></p>","null","","","","","","","",""
"","image","61","202524","0.0-61.0","null","run_exp/static/images/Set 6_rs/122a.jpg","null","","","","","","learn","SR",""
"","show_choice","62","205055","0.0-62.0","null","run_exp/static/images/blank.png","null","","","","","","learn","SR",""
"","html-keyboard-response","63","206552","0.0-63.0","null","<p></p>","null","","","","","","","",""
"","image","64","210273","0.0-64.0","null","run_exp/static/images/Set 6_rs/067a.jpg","null","","","","","","learn","SL",""
"","show_choice","65","213575","0.0-65.0","null","run_exp/static/images/blank.png","null","","","","","","learn","SL",""
"","html-keyboard-response","66","215793","0.0-66.0","null","<p></p>","null","","","","","","","",""
"","image","67","219172","0.0-67.0","null","run_exp/static/images/Set 6_rs/177a.jpg","null","","","","","","learn","SR",""
"","show_choice","68","223484","0.0-68.0","null","run_exp/static/images/blank.png","null","","","","","","learn","SR",""
"","html-keyboard-response","69","224329","0.0-69.0","null","<p></p>","null","","","","","","","",""
"","image","70","227117","0.0-70.0","null","run_exp/static/images/Set 6_rs/116a.jpg","null","","","","","","learn","SL",""
"","show_choice","71","231523","0.0-71.0","null","run_exp/static/images/blank.png","null","","","","","","learn","SL",""
"","html-keyboard-response","72","232318","0.0-72.0","null","<p></p>","null","","","","","","","",""
"","image","73","236410","0.0-73.0","null","run_exp/static/images/Set 6_rs/036a.jpg","null","","","","","","learn","SL",""
"","show_choice","74","240373","0.0-74.0","null","run_exp/static/images/blank.png","null","","","","","","learn","SL",""
"","html-keyboard-response","75","241375","0.0-75.0","null","<p></p>","null","","","","","","","",""
"","image","76","244056","0.0-76.0","null","run_exp/static/images/Set 6_rs/088a.jpg","null","","","","","","learn","SR",""
"","show_choice","77","247055","0.0-77.0","null","run_exp/static/images/blank.png","null","","","","","","learn","SR",""
"","html-keyboard-response","78","248552","0.0-78.0","null","<p></p>","null","","","","","","","",""
"","image","79","251086","0.0-79.0","null","run_exp/static/images/Set 6_rs/148a.jpg","null","","","","","","learn","SR",""
"","show_choice","80","255528","0.0-80.0","null","run_exp/static/images/blank.png","null","","","","","","learn","SR",""
"","html-keyboard-response","81","256286","0.0-81.0","null","<p></p>","null","","","","","","","",""
"","image","82","260433","0.0-82.0","null","run_exp/static/images/Set 6_rs/178a.jpg","null","","","","","","learn","SR",""
"","show_choice","83","263055","0.0-83.0","null","run_exp/static/images/blank.png","null","","","","","","learn","SR",""
"","html-keyboard-response","84","264524","0.0-84.0","null","<p></p>","null","","","","","","","",""
"","image","85","267298","0.0-85.0","null","run_exp/static/images/Set 6_rs/111a.jpg","null","","","","","","learn","SL",""
"","show_choice","86","271428","0.0-86.0","null","run_exp/static/images/blank.png","null","","","","","","learn","SL",""
"","html-keyboard-response","87","272328","0.0-87.0","null","<p></p>","null","","","","","","","",""
"","image","88","276413","0.0-88.0","null","run_exp/static/images/Set 6_rs/066a.jpg","null","","","","","","learn","SL",""
"","show_choice","89","280374","0.0-89.0","null","run_exp/static/images/blank.png","null","","","","","","learn","SL",""
"","html-keyboard-response","90","281376","0.0-90.0","null","<p></p>","null","","","","","","","",""
"","image","91","285374","0.0-91.0","null","run_exp/static/images/Set 6_rs/186a.jpg","null","","","","","","learn","SR",""
"","show_choice","92","289381","0.0-92.0","null","run_exp/static/images/blank.png","null","","","","","","learn","SR",""
"","html-keyboard-response","93","290387","0.0-93.0","null","<p></p>","null","","","","","","","",""
"","image","94","294375","0.0-94.0","null","run_exp/static/images/Set 6_rs/112a.jpg","null","","","","","","learn","SR",""
"","show_choice","95","298373","0.0-95.0","null","run_exp/static/images/blank.png","null","","","","","","learn","SR",""
"","html-keyboard-response","96","299055","0.0-96.0","null","<p></p>","null","","","","","","","",""
"","image","97","302616","0.0-97.0","null","run_exp/static/images/Set 6_rs/167a.jpg","null","","","","","","learn","SL",""
"","show_choice","98","306218","0.0-98.0","null","run_exp/static/images/blank.png","null","","","","","","learn","SL",""
"","html-keyboard-response","99","307470","0.0-99.0","null","<p></p>","null","","","","","","","",""
"","image","100","310426","0.0-100.0","null","run_exp/static/images/Set 6_rs/008a.jpg","null","","","","","","learn","SL",""
"","show_choice","101","314347","0.0-101.0","null","run_exp/static/images/blank.png","null","","","","","","learn","SL",""
"","html-keyboard-response","102","315404","0.0-102.0","null","<p></p>","null","","","","","","","",""
"","image","103","318727","0.0-103.0","null","run_exp/static/images/Set 6_rs/089a.jpg","null","","","","","","learn","SL",""
"","show_choice","104","322136","0.0-104.0","null","run_exp/static/images/blank.png","null","","","","","","learn","SL",""
"","html-keyboard-response","105","323098","0.0-105.0","null","<p></p>","null","","","","","","","",""
"","image","106","326419","0.0-106.0","null","run_exp/static/images/Set 6_rs/117a.jpg","null","","","","","","learn","SL",""
"","show_choice","107","329055","0.0-107.0","null","run_exp/static/images/blank.png","null","","","","","","learn","SL",""
"","html-keyboard-response","108","330163","0.0-108.0","null","<p></p>","null","","","","","","","",""
"","image","109","334489","0.0-109.0","null","run_exp/static/images/Set 6_rs/019a.jpg","null","","","","","","learn","SL",""
"","show_choice","110","338329","0.0-110.0","null","run_exp/static/images/blank.png","null","","","","","","learn","SL",""
"","html-keyboard-response","111","339301","0.0-111.0","null","<p></p>","null","","","","","","","",""
"","image","112","343373","0.0-112.0","null","run_exp/static/images/Set 6_rs/006a.jpg","null","","","","","","learn","SL",""
"","show_choice","113","347264","0.0-113.0","null","run_exp/static/images/blank.png","null","","","","","","learn","SL",""
"","html-keyboard-response","114","348402","0.0-114.0","null","<p></p>","null","","","","","","","",""
"","image","115","352373","0.0-115.0","null","run_exp/static/images/Set 6_rs/060a.jpg","null","","","","","","learn","SL",""
"","show_choice","116","356304","0.0-116.0","null","run_exp/static/images/blank.png","null","","","","","","learn","SL",""
"","html-keyboard-response","117","357403","0.0-117.0","null","<p></p>","null","","","","","","","",""
"","image","118","361316","0.0-118.0","null","run_exp/static/images/Set 6_rs/144a.jpg","null","","","","","","learn","SL",""
"","show_choice","119","364609","0.0-119.0","null","run_exp/static/images/blank.png","null","","","","","","learn","SL",""
"","html-keyboard-response","120","366677","0.0-120.0","null","<p></p>","null","","","","","","","",""
"","image","121","369055","0.0-121.0","null","run_exp/static/images/Set 6_rs/055a.jpg","null","","","","","","learn","SL",""
"","show_choice","122","372055","0.0-122.0","null","run_exp/static/images/blank.png","null","","","","","","learn","SL",""
"","html-keyboard-response","123","373550","0.0-123.0","null","<p></p>","null","","","","","","","",""
"","image","124","376055","0.0-124.0","null","run_exp/static/images/Set 6_rs/074a.jpg","null","","","","","","learn","SL",""
"","show_choice","125","380547","0.0-125.0","null","run_exp/static/images/blank.png","null","","","","","","learn","SL",""
"","html-keyboard-response","126","381298","0.0-126.0","null","<p></p>","null","","","","","","","",""
"","image","127","385397","0.0-127.0","null","run_exp/static/images/Set 6_rs/129a.jpg","null","","","","","","learn","SL",""
"","show_choice","128","389356","0.0-128.0","null","run_exp/static/images/blank.png","null","","","","","","learn","SL",""
"","html-keyboard-response","129","390396","0.0-129.0","null","<p></p>","null","","","","","","","",""
"","image","130","394374","0.0-130.0","null","run_exp/static/images/Set 6_rs/138a.jpg","null","","","","","","learn","SL",""
"","show_choice","131","397055","0.0-131.0","null","run_exp/static/images/blank.png","null","","","","","","learn","SL",""
"","html-keyboard-response","132","398547","0.0-132.0","null","<p></p>","null","","","","","","","",""
"","image","133","402297","0.0-133.0","null","run_exp/static/images/Set 6_rs/062a.jpg","null","","","","","","learn","SL",""
"","show_choice","134","405482","0.0-134.0","null","run_exp/static/images/blank.png","null","","","","","","learn","SL",""
"","html-keyboard-response","135","406055","0.0-135.0","null","<p></p>","null","","","","","","","",""
"","image","136","410537","0.0-136.0","null","run_exp/static/images/Set 6_rs/134a.jpg","null","","","","","","learn","SR",""
"","show_choice","137","414305","0.0-137.0","null","run_exp/static/images/blank.png","null","","","","","","learn","SR",""
"","html-keyboard-response","138","415403","0.0-138.0","null","<p></p>","null","","","","","","","",""
"","image","139","419377","0.0-139.0","null","run_exp/static/images/Set 6_rs/016a.jpg","null","","","","","","learn","SL",""
"","show_choice","140","422144","0.0-140.0","null","run_exp/static/images/blank.png","null","","","","","","learn","SL",""
"","html-keyboard-response","141","423478","0.0-141.0","null","<p></p>","null","","","","","","","",""
"","image","142","426055","0.0-142.0","null","run_exp/static/images/Set 6_rs/108a.jpg","null","","","","","","learn","SR",""
"","show_choice","143","430541","0.0-143.0","null","run_exp/static/images/blank.png","null","","","","","","learn","SR",""
"","html-keyboard-response","144","431222","0.0-144.0","null","<p></p>","null","","","","","","","",""
"","image","145","435454","0.0-145.0","null","run_exp/static/images/Set 6_rs/132a.jpg","null","","","","","","learn","SR",""
"","show_choice","146","438463","0.0-146.0","null","run_exp/static/images/blank.png","null","","","","","","learn","SR",""
"","html-keyboard-response","147","439055","0.0-147.0","null","<p></p>","null","","","","","","","",""
"","image","148","443547","0.0-148.0","null","run_exp/static/images/Set 6_rs/073a.jpg","null","","","","","","learn","SL",""
"","show_choice","149","447297","0.0-149.0","null","run_exp/static/images/blank.png","null","","","","","","learn","SL",""
"","html-keyboard-response","150","448431","0.0-150.0","null","<p></p>","null","","","","","","","",""
"","image","151","452346","0.0-151.0","null","run_exp/static/images/Set 6_rs/012a.jpg","null","","","","","","learn","SR",""
"","show_choice","152","455055","0.0-152.0","null","run_exp/static/images/blank.png","null","","","","","","learn","SR",""
"","html-keyboard-response","153","456554","0.0-153.0","null","<p></p>","null","","","","","","","",""
"","image","154","460298","0.0-154.0","null","run_exp/static/images/Set 6_rs/152a.jpg","null","","","","","","learn","SR",""
"","show_choice","155","463055","0.0-155.0","null","run_exp/static/images/blank.png","null","","","","","","learn","SR",""
"","html-keyboard-response","156","464055","0.0-156.0","null","<p></p>","null","","","","","","","",""
"","image","157","468547","0.0-157.0","null","run_exp/static/images/Set 6_rs/095a.jpg","null","","","","","","learn","SL",""
"","show_choice","158","472305","0.0-158.0","null","run_exp/static/images/blank.png","null","","","","","","learn","SL",""
"","html-keyboard-response","159","473404","0.0-159.0","null","<p></p>","null","","","","","","","",""
"","image","160","476055","0.0-160.0","null","run_exp/static/images/Set 6_rs/075a.jpg","null","","","","","","learn","SR",""
"","show_choice","161","480553","0.0-161.0","null","run_exp/static/images/blank.png","null","","","","","","learn","SR",""
"","html-keyboard-response","162","481297","0.0-162.0","null","<p></p>","null","","","","","","","",""
"","image","163","484614","0.0-163.0","null","run_exp/static/images/Set 6_rs/057a.jpg","null","","","","","","learn","SL",""
"","show_choice","164","488247","0.0-164.0","null","run_exp/static/images/blank.png","null","","","","","","learn","SL",""
"","html-keyboard-response","165","489453","0.0-165.0","null","<p></p>","null","","","","","","","",""
"","image","166","492055","0.0-166.0","null","run_exp/static/images/Set 6_rs/071a.jpg","null","","","","","","learn","SL",""
"","show_choice","167","494058","0.0-167.0","null","run_exp/static/images/blank.png","null","","","","","","learn","SL",""
"","html-keyboard-response","168","494559","0.0-168.0","null","<p></p>","null","","","","","","","",""
"","image","169","496566","0.0-169.0","null","run_exp/static/images/Set 6_rs/172a.jpg","null","","","","","","learn","SR",""
"","show_choice","170","498569","0.0-170.0","null","run_exp/static/images/blank.png","null","","","","","","learn","SR",""
"","html-keyboard-response","171","499072","0.0-171.0","null","<p></p>","null","","","","","","","",""
"","image","172","501075","0.0-172.0","null","run_exp/static/images/Set 6_rs/023a.jpg","null","","","","","","learn","SR",""
"","show_choice","173","503078","0.0-173.0","null","run_exp/static/images/blank.png","null","","","","","","learn","SR",""
"","html-keyboard-response","174","503579","0.0-174.0","null","<p></p>","null","","","","","","","",""
"","image","175","505580","0.0-175.0","null","run_exp/static/images/Set 6_rs/079a.jpg","null","","","","","","learn","SL",""
"","show_choice","176","507581","0.0-176.0","null","run_exp/static/images/blank.png","null","","","","","","learn","SL",""
"","html-keyboard-response","177","508083","0.0-177.0","null","<p></p>","null","","","","","","","",""
"","image","178","511288","0.0-178.0","null","run_exp/static/images/Set 6_rs/166a.jpg","null","","","","","","learn","SR",""
"","show_choice","179","514055","0.0-179.0","null","run_exp/static/images/blank.png","null","","","","","","learn","SR",""
"","html-keyboard-response","180","515550","0.0-180.0","null","<p></p>","null","","","","","","","",""
"","image","181","519021","0.0-181.0","null","run_exp/static/images/Set 6_rs/076a.jpg","null","","","","","","learn","SR",""
"","show_choice","182","521055","0.0-182.0","null","run_exp/static/images/blank.png","null","","","","","","learn","SR",""
"","html-keyboard-response","183","522549","0.0-183.0","null","<p></p>","null","","","","","","","",""
"","image","184","525795","0.0-184.0","null","run_exp/static/images/Set 6_rs/154a.jpg","null","","","","","","learn","SR",""
"","show_choice","185","528600","0.0-185.0","null","run_exp/static/images/blank.png","null","","","","","","learn","SR",""
"","html-keyboard-response","186","530774","0.0-186.0","null","<p></p>","null","","","","","","","",""
"","image","187","534186","0.0-187.0","null","run_exp/static/images/Set 6_rs/121a.jpg","null","","","","","","learn","SR",""
"","show_choice","188","537055","0.0-188.0","null","run_exp/static/images/blank.png","null","","","","","","learn","SR",""
"","html-keyboard-response","189","538550","0.0-189.0","null","<p></p>","null","","","","","","","",""
"","image","190","541055","0.0-190.0","null","run_exp/static/images/Set 6_rs/045a.jpg","null","","","","","","learn","SR",""
"","show_choice","191","545520","0.0-191.0","null","run_exp/static/images/blank.png","null","","","","","","learn","SR",""
"","html-keyboard-response","192","546303","0.0-192.0","null","<p></p>","null","","","","","","","",""
"","image","193","550427","0.0-193.0","null","run_exp/static/images/Set 6_rs/010a.jpg","null","","","","","","learn","SR",""
"","show_choice","194","553055","0.0-194.0","null","run_exp/static/images/blank.png","null","","","","","","learn","SR",""
"","html-keyboard-response","195","554548","0.0-195.0","null","<p></p>","null","","","","","","","",""
"","test_intro","196","595914","0.0-196.0","null","run_exp/static/audio/clip_2_memory.m4a","null","","","","","<div class='center'><p>Now, let’s see how much you remember about the items you just saw.  For each item, you need to indicate if it was <b>old</b> by pressing the <b>v</b> key, <b>similar</b> by pressing the <b>b</b> key, or <b>new</b> by pressing the <b>n</b> key.</p><p>Old refers to an item that you saw before in the indoor/outdoor game that you just played, new refers to an item you have <b>not</b> seen before within the indoor/outdoor game, and similar refers to an item that is similar to an item you’ve seen before but is not exactly the same. </p><p>Before we begin, let’s go over some brief demonstrations to make sure you understand.</p></div>","","",""
"","html-keyboard-response","197","637772","0.0-197.0","41856.99000000022","<div class='center'><p>Now, let’s see how much you remember about the items you just saw.  For each item, you need to indicate if it was <b>old</b> by pressing the <b>v</b> key, <b>similar</b> by pressing the <b>b</b> key, or <b>new</b> by pressing the <b>n</b> key.</p><p>Old refers to an item that you saw before in the indoor/outdoor game that you just played, new refers to an item you have <b>not</b> seen before within the indoor/outdoor game, and similar refers to an item that is similar to an item you’ve seen before but is not exactly the same. </p><p>Before we begin, let’s go over some brief demonstrations to make sure you understand.</p><div><p><b>[Press the space bar to continue]</b></p></div>","32","","","","","","","",""
"","items","198","645475","0.0-198.0","null","run_exp/static/audio/clip_3_items.m4a","null","","","","","","","",""
"","mop","199","650088","0.0-199.0","null","run_exp/static/audio/clip_4_mop.m4a","null","","","","","","","",""
"","baseball","200","653799","0.0-200.0","null","run_exp/static/audio/clip_5_baseball.m4a","null","","","","","","","",""
"","trumpet","201","657852","0.0-201.0","null","run_exp/static/audio/clip_6_trumpet.m4a","null","","","","","","","",""
"","gummies","202","661548","0.0-202.0","null","run_exp/static/audio/clip_7_gummies.m4a","null","","","","","","","",""
"","osn","203","666088","0.0-203.0","null","run_exp/static/audio/clip_8_osn.m4a","null","","","","","","","",""
"","old_1","204","672617","0.0-204.0","null","run_exp/static/audio/clip_9_old_trumpet.m4a","null","","","","","","","",""
"","new_1","205","680123","0.0-205.0","null","run_exp/static/audio/clip_10_new_balloon.m4a","null","","","","","","","",""
"","similar_1a","206","684673","0.0-206.0","null","run_exp/static/audio/clip_11a_similar_mop.m4a","null","","","","","","","",""
"","similar_1b","207","691303","0.0-207.0","null","run_exp/static/audio/clip_11b_similar_mop.m4a","null","","","","","","","",""
"","new_2","208","695003","0.0-208.0","null","run_exp/static/audio/clip_12_new_stoplight.m4a","null","","","","","","","",""
"","old_2","209","698629","0.0-209.0","null","run_exp/static/audio/clip_13_old_baseball.m4a","null","","","","","","","",""
"","similar_2a","210","702215","0.0-210.0","null","run_exp/static/audio/clip_14a_similar_gummies.m4a","null","","","","","","","",""
"","similar_2b","211","709991","0.0-211.0","null","run_exp/static/audio/clip_14b_similar_gummies.m4a","null","","","","","","","",""
"","practice","212","725740","0.0-212.0","null","run_exp/static/audio/clip_15_practice.m4a","null","","","","","<div class='center'><p>Ok, let’s practice a little to make sure you understand the difference between new, similar, and old. Let’s say you saw these three items in the indoor/outdoor game. Study these because you’ll be tested on them soon in this practice game. </p><p><img src='run_exp/static/images/tutorial/test/three_indoor_outdoor.png' height='300'></p></div>","","",""
"","html-keyboard-response","213","743300","0.0-213.0","17558.474999997998","<div class='center'><p>Ok, let’s practice a little to make sure you understand the difference between new, similar, and old. Let’s say you saw these three items in the indoor/outdoor game. Study these because you’ll be tested on them soon in this practice game. </p><p><img src='run_exp/static/images/tutorial/test/three_indoor_outdoor.png' height='300'></p><div><p><b>[Press the space bar to continue]</b></p></div>","32","","","","","","","",""
"","practice_q1","214","744328","0.0-214.0","1026.5199999848846","run_exp/static/audio/clip_16_practice_question.m4a","78","","","","","","","",""
"","correct","215","746238","0.0-215.0-0.0","null","run_exp/static/audio/clip_17_correct.m4a","null","","","","","<div class='center'><p>That's correct!</p></div>","","",""
"","html-keyboard-response","216","746971","0.0-215.0-1.0","730.6849999877159","<div class='center'><p>That's correct!</p><div><p><b>[Press the space bar to continue]</b></p></div>","32","","","","","","","",""
"","practice_q2","217","748169","0.0-215.0-2.0","1197.634999989532","run_exp/static/audio/clip_16_practice_question.m4a","86","","","","","","","",""
"","correct","218","750069","0.0-216.0-0.0","null","run_exp/static/audio/clip_17_correct.m4a","null","","","","","<div class='center'><p>That's correct!</p></div>","","",""
"","html-keyboard-response","219","750657","0.0-216.0-1.0","587.165000004461","<div class='center'><p>That's correct!</p><div><p><b>[Press the space bar to continue]</b></p></div>","32","","","","","","","",""
"","practice_q3","220","751646","0.0-216.0-2.0","987.3800000059418","run_exp/static/audio/clip_16_practice_question.m4a","66","","","","","","","",""
"","correct","221","753668","0.0-217.0-0.0","null","run_exp/static/audio/clip_17_correct.m4a","null","","","","","<div class='center'><p>That's correct!</p></div>","","",""
"","html-keyboard-response","222","753956","0.0-217.0-1.0","286.8400000152178","<div class='center'><p>That's correct!</p><div><p><b>[Press the space bar to continue]</b></p></div>","32","","","","","","","",""
"","begin_text","223","769016","0.0-218.0-0.0","null","run_exp/static/audio/clip_22_begin_test.m4a","null","","","","","<div class='center'><p>Now it’s your turn. For each item, you need to indicate if the item is <b>old</b> by pressing the <b>v</b> key, <b>similar</b> by pressing the <b>b</b> key, or <b>new</b> by pressing the <b>n</b> key. </p></div>","","",""
"","html-keyboard-response","224","781310","0.0-218.0-1.0","12291.86500000651","<div class='center'><p>Now it’s your turn. For each item, you need to indicate if the item is <b>old</b> by pressing the <b>v</b> key, <b>similar</b> by pressing the <b>b</b> key, or <b>new</b> by pressing the <b>n</b> key. </p><div><p><b>[Press the space bar to continue]</b></p></div>","32","","","","","","","",""
"","image","225","785401","0.0-219.0-0.0","null","run_exp/static/images/Set 6_rs/060b.jpg","null","","","","","","test","TL","3"
"","show_choice","226","786378","0.0-219.0-1.0","null","run_exp/static/images/Set 6_rs/060b.jpg","null","","","","","","test","TL",""
"","html-keyboard-response","227","787388","0.0-219.0-2.0","null","<p></p>","null","","","","","","","",""
"","image","228","792278","0.0-220.0-0.0","null","run_exp/static/images/Set 6_rs/007a.jpg","null","","","","","","test","TR","3"
"","show_choice","229","793386","0.0-220.0-1.0","null","run_exp/static/images/Set 6_rs/007a.jpg","null","","","","","","test","TR",""
"","html-keyboard-response","230","794382","0.0-220.0-2.0","null","<p></p>","null","","","","","","","",""
"","image","231","799248","0.0-221.0-0.0","null","run_exp/static/images/Set 6_rs/109a.jpg","null","","","","","","test","TF","5"
"","show_choice","232","800433","0.0-221.0-1.0","null","run_exp/static/images/Set 6_rs/109a.jpg","null","","","","","","test","TF",""
"","html-keyboard-response","233","801353","0.0-221.0-2.0","null","<p></p>","null","","","","","","","",""
"","image","234","806889","0.0-222.0-0.0","null","run_exp/static/images/Set 6_rs/095b.jpg","null","","","","","","test","TL","5"
"","show_choice","235","808626","0.0-222.0-1.0","null","run_exp/static/images/Set 6_rs/095b.jpg","null","","","","","","test","TL",""
"","html-keyboard-response","236","810760","0.0-222.0-2.0","null","<p></p>","null","","","","","","","",""
"","image","237","814409","0.0-223.0-0.0","null","run_exp/static/images/Set 6_rs/167b.jpg","null","","","","","","test","TL","2"
"","show_choice","238","815373","0.0-223.0-1.0","null","run_exp/static/images/Set 6_rs/167b.jpg","null","","","","","","test","TL",""
"","html-keyboard-response","239","816383","0.0-223.0-2.0","null","<p></p>","null","","","","","","","",""
"","image","240","821101","0.0-224.0-0.0","null","run_exp/static/images/Set 6_rs/071b.jpg","null","","","","","","test","TL","4"
"","show_choice","241","822527","0.0-224.0-1.0","null","run_exp/static/images/Set 6_rs/071b.jpg","null","","","","","","test","TL",""
"","html-keyboard-response","242","823311","0.0-224.0-2.0","null","<p></p>","null","","","","","","","",""
"","image","243","828489","0.0-225.0-0.0","null","run_exp/static/images/Set 6_rs/091b.jpg","null","","","","","","test","TL","3"
"","show_choice","244","829326","0.0-225.0-1.0","null","run_exp/static/images/Set 6_rs/091b.jpg","null","","","","","","test","TL",""
"","html-keyboard-response","245","830400","0.0-225.0-2.0","null","<p></p>","null","","","","","","","",""
"","image","246","835859","0.0-226.0-0.0","null","run_exp/static/images/Set 6_rs/012a.jpg","null","","","","","","test","TR","1"
"","show_choice","247","837650","0.0-226.0-1.0","null","run_exp/static/images/Set 6_rs/012a.jpg","null","","","","","","test","TR",""
"","html-keyboard-response","248","839751","0.0-226.0-2.0","null","<p></p>","null","","","","","","","",""
"","image","249","843055","0.0-227.0-0.0","null","run_exp/static/images/Set 6_rs/001a.jpg","null","","","","","","test","TF","1"
"","show_choice","250","844553","0.0-227.0-1.0","null","run_exp/static/images/Set 6_rs/001a.jpg","null","","","","","","test","TF",""
"","html-keyboard-response","251","845259","0.0-227.0-2.0","null","<p></p>","null","","","","","","","",""
"","image","252","850925","0.0-228.0-0.0","null","run_exp/static/images/Set 6_rs/023a.jpg","null","","","","","","test","TR","3"
"","show_choice","253","852600","0.0-228.0-1.0","null","run_exp/static/images/Set 6_rs/023a.jpg","null","","","","","","test","TR",""
"","html-keyboard-response","254","854780","0.0-228.0-2.0","null","<p></p>","null","","","","","","","",""
"","image","255","859688","0.0-229.0-0.0","null","run_exp/static/images/Set 6_rs/079b.jpg","null","","","","","","test","TL","5"
"","show_choice","256","861722","0.0-229.0-1.0","null","run_exp/static/images/Set 6_rs/079b.jpg","null","","","","","","test","TL",""
"","html-keyboard-response","257","863703","0.0-229.0-2.0","null","<p></p>","null","","","","","","","",""
"","image","258","867055","0.0-230.0-0.0","null","run_exp/static/images/Set 6_rs/077a.jpg","null","","","","","","test","TF","3"
"","show_choice","259","868407","0.0-230.0-1.0","null","run_exp/static/images/Set 6_rs/077a.jpg","null","","","","","","test","TF",""
"","html-keyboard-response","260","869355","0.0-230.0-2.0","null","<p></p>","null","","","","","","","",""
"","image","261","873392","0.0-231.0-0.0","null","run_exp/static/images/Set 6_rs/066b.jpg","null","","","","","","test","TL","5"
"","show_choice","262","874364","0.0-231.0-1.0","null","run_exp/static/images/Set 6_rs/066b.jpg","null","","","","","","test","TL",""
"","html-keyboard-response","263","875374","0.0-231.0-2.0","null","<p></p>","null","","","","","","","",""
"","image","264","879055","0.0-232.0-0.0","null","run_exp/static/images/Set 6_rs/021a.jpg","null","","","","","","test","TF","2"
"","show_choice","265","880549","0.0-232.0-1.0","null","run_exp/static/images/Set 6_rs/021a.jpg","null","","","","","","test","TF",""
"","html-keyboard-response","266","881305","0.0-232.0-2.0","null","<p></p>","null","","","","","","","",""
"","image","267","885751","0.0-233.0-0.0","null","run_exp/static/images/Set 6_rs/123b.jpg","null","","","","","","test","TL","2"
"","show_choice","268","887703","0.0-233.0-1.0","null","run_exp/static/images/Set 6_rs/123b.jpg","null","","","","","","test","TL",""
"","html-keyboard-response","269","889055","0.0-233.0-2.0","null","<p></p>","null","","","","","","","",""
"","image","270","895052","0.0-234.0-0.0","null","run_exp/static/images/Set 6_rs/133a.jpg","null","","","","","","test","TF","4"
"","show_choice","271","896399","0.0-234.0-1.0","null","run_exp/static/images/Set 6_rs/133a.jpg","null","","","","","","test","TF",""
"","html-keyboard-response","272","897376","0.0-234.0-2.0","null","<p></p>","null","","","","","","","",""
"","image","273","902699","0.0-235.0-0.0","null","run_exp/static/images/Set 6_rs/045a.jpg","null","","","","","","test","TR","2"
"","show_choice","274","904722","0.0-235.0-1.0","null","run_exp/static/images/Set 6_rs/045a.jpg","null","","","","","","test","TR",""
"","html-keyboard-response","275","906314","0.0-235.0-2.0","null","<p></p>","null","","","","","","","",""
"","image","276","910325","0.0-236.0-0.0","null","run_exp/static/images/Set 6_rs/088a.jpg","null","","","","","","test","TR","2"
"","show_choice","277","911400","0.0-236.0-1.0","null","run_exp/static/images/Set 6_rs/088a.jpg","null","","","","","","test","TR",""
"","html-keyboard-response","278","911901","0.0-236.0-2.0","null","<p></p>","null","","","","","","","",""
"","image","279","915523","0.0-237.0-0.0","null","run_exp/static/images/Set 6_rs/108a.jpg","null","","","","","","test","TR","5"
"","show_choice","280","916312","0.0-237.0-1.0","null","run_exp/static/images/Set 6_rs/108a.jpg","null","","","","","","test","TR",""
"","html-keyboard-response","281","917398","0.0-237.0-2.0","null","<p></p>","null","","","","","","","",""
"","image","282","921055","0.0-238.0-0.0","null","run_exp/static/images/Set 6_rs/025b.jpg","null","","","","","","test","TL","5"
"","show_choice","283","922286","0.0-238.0-1.0","null","run_exp/static/images/Set 6_rs/025b.jpg","null","","","","","","test","TL",""
"","html-keyboard-response","284","923131","0.0-238.0-2.0","null","<p></p>","null","","","","","","","",""
"","image","285","927126","0.0-239.0-0.0","null","run_exp/static/images/Set 6_rs/144b.jpg","null","","","","","","test","TL","4"
"","show_choice","286","928498","0.0-239.0-1.0","null","run_exp/static/images/Set 6_rs/144b.jpg","null","","","","","","test","TL",""
"","html-keyboard-response","287","929326","0.0-239.0-2.0","null","<p></p>","null","","","","","","","",""
"","image","288","934900","0.0-240.0-0.0","null","run_exp/static/images/Set 6_rs/010a.jpg","null","","","","","","test","TR","5"
"","show_choice","289","936623","0.0-240.0-1.0","null","run_exp/static/images/Set 6_rs/010a.jpg","null","","","","","","test","TR",""
"","html-keyboard-response","290","938749","0.0-240.0-2.0","null","<p></p>","null","","","","","","","",""
"","image","291","943698","0.0-241.0-0.0","null","run_exp/static/images/Set 6_rs/168b.jpg","null","","","","","","test","TL","3"
"","show_choice","292","945627","0.0-241.0-1.0","null","run_exp/static/images/Set 6_rs/168b.jpg","null","","","","","","test","TL",""
"","html-keyboard-response","293","947473","0.0-241.0-2.0","null","<p></p>","null","","","","","","","",""
"","image","294","951762","0.0-242.0-0.0","null","run_exp/static/images/Set 6_rs/036b.jpg","null","","","","","","test","TL","4"
"","show_choice","295","953278","0.0-242.0-1.0","null","run_exp/static/images/Set 6_rs/036b.jpg","null","","","","","","test","TL",""
"","html-keyboard-response","296","954426","0.0-242.0-2.0","null","<p></p>","null","","","","","","","",""
"","image","297","958800","0.0-243.0-0.0","null","run_exp/static/images/Set 6_rs/090a.jpg","null","","","","","","test","TF","5"
"","show_choice","298","960176","0.0-243.0-1.0","null","run_exp/static/images/Set 6_rs/090a.jpg","null","","","","","","test","TF",""
"","html-keyboard-response","299","961322","0.0-243.0-2.0","null","<p></p>","null","","","","","","","",""
"","image","300","965072","0.0-244.0-0.0","null","run_exp/static/images/Set 6_rs/048a.jpg","null","","","","","","test","TF","4"
"","show_choice","301","966523","0.0-244.0-1.0","null","run_exp/static/images/Set 6_rs/048a.jpg","null","","","","","","test","TF",""
"","html-keyboard-response","302","967298","0.0-244.0-2.0","null","<p></p>","null","","","","","","","",""
"","image","303","972924","0.0-245.0-0.0","null","run_exp/static/images/Set 6_rs/019b.jpg","null","","","","","","test","TL","2"
"","show_choice","304","974613","0.0-245.0-1.0","null","run_exp/static/images/Set 6_rs/019b.jpg","null","","","","","","test","TL",""
"","html-keyboard-response","305","976773","0.0-245.0-2.0","null","<p></p>","null","","","","","","","",""
"","image","306","981689","0.0-246.0-0.0","null","run_exp/static/images/Set 6_rs/073b.jpg","null","","","","","","test","TL","3"
"","show_choice","307","983723","0.0-246.0-1.0","null","run_exp/static/images/Set 6_rs/073b.jpg","null","","","","","","test","TL",""
"","html-keyboard-response","308","985719","0.0-246.0-2.0","null","<p></p>","null","","","","","","","",""
"","image","309","990700","0.0-247.0-0.0","null","run_exp/static/images/Set 6_rs/085b.jpg","null","","","","","","test","TL","1"
"","show_choice","310","992723","0.0-247.0-1.0","null","run_exp/static/images/Set 6_rs/085b.jpg","null","","","","","","test","TL",""
"","html-keyboard-response","311","994082","0.0-247.0-2.0","null","<p></p>","null","","","","","","","",""
"","image","312","998348","0.0-248.0-0.0","null","run_exp/static/images/Set 6_rs/067b.jpg","null","","","","","","test","TL","5"
"","show_choice","313","999399","0.0-248.0-1.0","null","run_exp/static/images/Set 6_rs/067b.jpg","null","","","","","","test","TL",""
"","html-keyboard-response","314","1000375","0.0-248.0-2.0","null","<p></p>","null","","","","","","","",""
"","image","315","1004055","0.0-249.0-0.0","null","run_exp/static/images/Set 6_rs/055b.jpg","null","","","","","","test","TL","4"
"","show_choice","316","1005549","0.0-249.0-1.0","null","run_exp/static/images/Set 6_rs/055b.jpg","null","","","","","","test","TL",""
"","html-keyboard-response","317","1006304","0.0-249.0-2.0","null","<p></p>","null","","","","","","","",""
"","image","318","1010727","0.0-250.0-0.0","null","run_exp/static/images/Set 6_rs/065a.jpg","null","","","","","","test","TF","3"
"","show_choice","319","1012709","0.0-250.0-1.0","null","run_exp/static/images/Set 6_rs/065a.jpg","null","","","","","","test","TF",""
"","html-keyboard-response","320","1014698","0.0-250.0-2.0","null","<p></p>","null","","","","","","","",""
"","image","321","1019724","0.0-251.0-0.0","null","run_exp/static/images/Set 6_rs/111b.jpg","null","","","","","","test","TL","3"
"","show_choice","322","1021077","0.0-251.0-1.0","null","run_exp/static/images/Set 6_rs/111b.jpg","null","","","","","","test","TL",""
"","html-keyboard-response","323","1022529","0.0-251.0-2.0","null","<p></p>","null","","","","","","","",""
"","image","324","1025533","0.0-252.0-0.0","null","run_exp/static/images/Set 6_rs/191b.jpg","null","","","","","","test","TL","2"
"","show_choice","325","1026037","0.0-252.0-1.0","null","run_exp/static/images/Set 6_rs/191b.jpg","null","","","","","","test","TL",""
"","html-keyboard-response","326","1026538","0.0-252.0-2.0","null","<p></p>","null","","","","","","","",""
"","image","327","1030367","0.0-253.0-0.0","null","run_exp/static/images/Set 6_rs/052a.jpg","null","","","","","","test","TF","1"
"","show_choice","328","1031055","0.0-253.0-1.0","null","run_exp/static/images/Set 6_rs/052a.jpg","null","","","","","","test","TF",""
"","html-keyboard-response","329","1032055","0.0-253.0-2.0","null","<p></p>","null","","","","","","","",""
"","image","330","1036055","0.0-254.0-0.0","null","run_exp/static/images/Set 6_rs/105a.jpg","null","","","","","","test","TF","5"
"","show_choice","331","1037113","0.0-254.0-1.0","null","run_exp/static/images/Set 6_rs/105a.jpg","null","","","","","","test","TF",""
"","html-keyboard-response","332","1038507","0.0-254.0-2.0","null","<p></p>","null","","","","","","","",""
"","image","333","1043824","0.0-255.0-0.0","null","run_exp/static/images/Set 6_rs/181b.jpg","null","","","","","","test","TL","1"
"","show_choice","334","1045648","0.0-255.0-1.0","null","run_exp/static/images/Set 6_rs/181b.jpg","null","","","","","","test","TL",""
"","html-keyboard-response","335","1047753","0.0-255.0-2.0","null","<p></p>","null","","","","","","","",""
"","image","336","1052701","0.0-256.0-0.0","null","run_exp/static/images/Set 6_rs/140a.jpg","null","","","","","","test","TF","1"
"","show_choice","337","1054055","0.0-256.0-1.0","null","run_exp/static/images/Set 6_rs/140a.jpg","null","","","","","","test","TF",""
"","html-keyboard-response","338","1055064","0.0-256.0-2.0","null","<p></p>","null","","","","","","","",""
"","image","339","1059055","0.0-257.0-0.0","null","run_exp/static/images/Set 6_rs/155a.jpg","null","","","","","","test","TF","4"
"","show_choice","340","1060552","0.0-257.0-1.0","null","run_exp/static/images/Set 6_rs/155a.jpg","null","","","","","","test","TF",""
"","html-keyboard-response","341","1061300","0.0-257.0-2.0","null","<p></p>","null","","","","","","","",""
"","image","342","1066927","0.0-258.0-0.0","null","run_exp/static/images/Set 6_rs/129b.jpg","null","","","","","","test","TL","1"
"","show_choice","343","1068055","0.0-258.0-1.0","null","run_exp/static/images/Set 6_rs/129b.jpg","null","","","","","","test","TL",""
"","html-keyboard-response","344","1069055","0.0-258.0-2.0","null","<p></p>","null","","","","","","","",""
"","image","345","1075053","0.0-259.0-0.0","null","run_exp/static/images/Set 6_rs/061a.jpg","null","","","","","","test","TR","5"
"","show_choice","346","1076548","0.0-259.0-1.0","null","run_exp/static/images/Set 6_rs/061a.jpg","null","","","","","","test","TR",""
"","html-keyboard-response","347","1077301","0.0-259.0-2.0","null","<p></p>","null","","","","","","","",""
"","image","348","1082925","0.0-260.0-0.0","null","run_exp/static/images/Set 6_rs/035a.jpg","null","","","","","","test","TF","4"
"","show_choice","349","1084600","0.0-260.0-1.0","null","run_exp/static/images/Set 6_rs/035a.jpg","null","","","","","","test","TF",""
"","html-keyboard-response","350","1086727","0.0-260.0-2.0","null","<p></p>","null","","","","","","","",""
"","image","351","1090055","0.0-261.0-0.0","null","run_exp/static/images/Set 6_rs/074b.jpg","null","","","","","","test","TL","4"
"","show_choice","352","1091550","0.0-261.0-1.0","null","run_exp/static/images/Set 6_rs/074b.jpg","null","","","","","","test","TL",""
"","html-keyboard-response","353","1092228","0.0-261.0-2.0","null","<p></p>","null","","","","","","","",""
"","image","354","1097958","0.0-262.0-0.0","null","run_exp/static/images/Set 6_rs/047a.jpg","null","","","","","","test","TF","3"
"","show_choice","355","1099600","0.0-262.0-1.0","null","run_exp/static/images/Set 6_rs/047a.jpg","null","","","","","","test","TF",""
"","html-keyboard-response","356","1101724","0.0-262.0-2.0","null","<p></p>","null","","","","","","","",""
"","image","357","1106699","0.0-263.0-0.0","null","run_exp/static/images/Set 6_rs/063a.jpg","null","","","","","","test","TR","2"
"","show_choice","358","1108699","0.0-263.0-1.0","null","run_exp/static/images/Set 6_rs/063a.jpg","null","","","","","","test","TR",""
"","html-keyboard-response","359","1110699","0.0-263.0-2.0","null","<p></p>","null","","","","","","","",""
"","image","360","1115724","0.0-264.0-0.0","null","run_exp/static/images/Set 6_rs/178a.jpg","null","","","","","","test","TR","3"
"","show_choice","361","1117055","0.0-264.0-1.0","null","run_exp/static/images/Set 6_rs/178a.jpg","null","","","","","","test","TR",""
"","html-keyboard-response","362","1118548","0.0-264.0-2.0","null","<p></p>","null","","","","","","","",""
"","image","363","1121552","0.0-265.0-0.0","null","run_exp/static/images/Set 6_rs/062b.jpg","null","","","","","","test","TL","1"
"","show_choice","364","1122060","0.0-265.0-1.0","null","run_exp/static/images/Set 6_rs/062b.jpg","null","","","","","","test","TL",""
"","html-keyboard-response","365","1123348","0.0-265.0-2.0","null","<p></p>","null","","","","","","","",""
"","image","366","1127957","0.0-266.0-0.0","null","run_exp/static/images/Set 6_rs/141a.jpg","null","","","","","","test","TR","2"
"","show_choice","367","1129602","0.0-266.0-1.0","null","run_exp/static/images/Set 6_rs/141a.jpg","null","","","","","","test","TR",""
"","html-keyboard-response","368","1131748","0.0-266.0-2.0","null","<p></p>","null","","","","","","","",""
"","image","369","1136488","0.0-267.0-0.0","null","run_exp/static/images/Set 6_rs/132a.jpg","null","","","","","","test","TR","5"
"","show_choice","370","1137326","0.0-267.0-1.0","null","run_exp/static/images/Set 6_rs/132a.jpg","null","","","","","","test","TR",""
"","html-keyboard-response","371","1138055","0.0-267.0-2.0","null","<p></p>","null","","","","","","","",""
"","image","372","1144052","0.0-268.0-0.0","null","run_exp/static/images/Set 6_rs/150a.jpg","null","","","","","","test","TR","1"
"","show_choice","373","1145548","0.0-268.0-1.0","null","run_exp/static/images/Set 6_rs/150a.jpg","null","","","","","","test","TR",""
"","html-keyboard-response","374","1146289","0.0-268.0-2.0","null","<p></p>","null","","","","","","","",""
"","image","375","1151899","0.0-269.0-0.0","null","run_exp/static/images/Set 6_rs/006b.jpg","null","","","","","","test","TL","2"
"","show_choice","376","1153623","0.0-269.0-1.0","null","run_exp/static/images/Set 6_rs/006b.jpg","null","","","","","","test","TL",""
"","html-keyboard-response","377","1155750","0.0-269.0-2.0","null","<p></p>","null","","","","","","","",""
"","image","378","1160699","0.0-270.0-0.0","null","run_exp/static/images/Set 6_rs/154a.jpg","null","","","","","","test","TR","3"
"","show_choice","379","1162699","0.0-270.0-1.0","null","run_exp/static/images/Set 6_rs/154a.jpg","null","","","","","","test","TR",""
"","html-keyboard-response","380","1164701","0.0-270.0-2.0","null","<p></p>","null","","","","","","","",""
"","image","381","1168639","0.0-271.0-0.0","null","run_exp/static/images/Set 6_rs/122a.jpg","null","","","","","","test","TR","5"
"","show_choice","382","1170727","0.0-271.0-1.0","null","run_exp/static/images/Set 6_rs/122a.jpg","null","","","","","","test","TR",""
"","html-keyboard-response","383","1172713","0.0-271.0-2.0","null","<p></p>","null","","","","","","","",""
"","image","384","1177713","0.0-272.0-0.0","null","run_exp/static/images/Set 6_rs/134a.jpg","null","","","","","","test","TR","3"
"","show_choice","385","1179703","0.0-272.0-1.0","null","run_exp/static/images/Set 6_rs/134a.jpg","null","","","","","","test","TR",""
"","html-keyboard-response","386","1181707","0.0-272.0-2.0","null","<p></p>","null","","","","","","","",""
"","image","387","1186723","0.0-273.0-0.0","null","run_exp/static/images/Set 6_rs/075a.jpg","null","","","","","","test","TR","1"
"","show_choice","388","1188720","0.0-273.0-1.0","null","run_exp/static/images/Set 6_rs/075a.jpg","null","","","","","","test","TR",""
"","html-keyboard-response","389","1190055","0.0-273.0-2.0","null","<p></p>","null","","","","","","","",""
"","image","390","1196026","0.0-274.0-0.0","null","run_exp/static/images/Set 6_rs/100a.jpg","null","","","","","","test","TF","2"
"","show_choice","391","1197564","0.0-274.0-1.0","null","run_exp/static/images/Set 6_rs/100a.jpg","null","","","","","","test","TF",""
"","html-keyboard-response","392","1199794","0.0-274.0-2.0","null","<p></p>","null","","","","","","","",""
"","image","393","1204644","0.0-275.0-0.0","null","run_exp/static/images/Set 6_rs/149a.jpg","null","","","","","","test","TF","1"
"","show_choice","394","1206748","0.0-275.0-1.0","null","run_exp/static/images/Set 6_rs/149a.jpg","null","","","","","","test","TF",""
"","html-keyboard-response","395","1208703","0.0-275.0-2.0","null","<p></p>","null","","","","","","","",""
"","image","396","1212055","0.0-276.0-0.0","null","run_exp/static/images/Set 6_rs/170a.jpg","null","","","","","","test","TF","2"
"","show_choice","397","1213549","0.0-276.0-1.0","null","run_exp/static/images/Set 6_rs/170a.jpg","null","","","","","","test","TF",""
"","html-keyboard-response","398","1214305","0.0-276.0-2.0","null","<p></p>","null","","","","","","","",""
"","image","399","1219927","0.0-277.0-0.0","null","run_exp/static/images/Set 6_rs/131a.jpg","null","","","","","","test","TR","5"
"","show_choice","400","1221591","0.0-277.0-1.0","null","run_exp/static/images/Set 6_rs/131a.jpg","null","","","","","","test","TR",""
"","html-keyboard-response","401","1223776","0.0-277.0-2.0","null","<p></p>","null","","","","","","","",""
"","image","402","1228678","0.0-278.0-0.0","null","run_exp/static/images/Set 6_rs/008b.jpg","null","","","","","","test","TL","2"
"","show_choice","403","1230743","0.0-278.0-1.0","null","run_exp/static/images/Set 6_rs/008b.jpg","null","","","","","","test","TL",""
"","html-keyboard-response","404","1232703","0.0-278.0-2.0","null","<p></p>","null","","","","","","","",""
"","image","405","1237727","0.0-279.0-0.0","null","run_exp/static/images/Set 6_rs/024a.jpg","null","","","","","","test","TR","5"
"","show_choice","406","1239713","0.0-279.0-1.0","null","run_exp/static/images/Set 6_rs/024a.jpg","null","","","","","","test","TR",""
"","html-keyboard-response","407","1241702","0.0-279.0-2.0","null","<p></p>","null","","","","","","","",""
"","image","408","1245055","0.0-280.0-0.0","null","run_exp/static/images/Set 6_rs/176a.jpg","null","","","","","","test","TF","4"
"","show_choice","409","1245560","0.0-280.0-1.0","null","run_exp/static/images/Set 6_rs/176a.jpg","null","","","","","","test","TF",""
"","html-keyboard-response","410","1246062","0.0-280.0-2.0","null","<p></p>","null","","","","","","","",""
"","image","411","1250628","0.0-281.0-0.0","null","run_exp/static/images/Set 6_rs/064a.jpg","null","","","","","","test","TR","5"
"","show_choice","412","1252753","0.0-281.0-1.0","null","run_exp/static/images/Set 6_rs/064a.jpg","null","","","","","","test","TR",""
"","html-keyboard-response","413","1254248","0.0-281.0-2.0","null","<p></p>","null","","","","","","","",""
"","image","414","1258158","0.0-282.0-0.0","null","run_exp/static/images/Set 6_rs/017b.jpg","null","","","","","","test","TL","3"
"","show_choice","415","1259476","0.0-282.0-1.0","null","run_exp/static/images/Set 6_rs/017b.jpg","null","","","","","","test","TL",""
"","html-keyboard-response","416","1260152","0.0-282.0-2.0","null","<p></p>","null","","","","","","","",""
"","image","417","1265997","0.0-283.0-0.0","null","run_exp/static/images/Set 6_rs/117b.jpg","null","","","","","","test","TL","5"
"","show_choice","418","1267574","0.0-283.0-1.0","null","run_exp/static/images/Set 6_rs/117b.jpg","null","","","","","","test","TL",""
"","html-keyboard-response","419","1269793","0.0-283.0-2.0","null","<p></p>","null","","","","","","","",""
"","image","420","1273420","0.0-284.0-0.0","null","run_exp/static/images/Set 6_rs/136a.jpg","null","","","","","","test","TF","4"
"","show_choice","421","1274348","0.0-284.0-1.0","null","run_exp/static/images/Set 6_rs/136a.jpg","null","","","","","","test","TF",""
"","html-keyboard-response","422","1275402","0.0-284.0-2.0","null","<p></p>","null","","","","","","","",""
"","image","423","1280880","0.0-285.0-0.0","null","run_exp/static/images/Set 6_rs/169a.jpg","null","","","","","","test","TR","4"
"","show_choice","424","1282630","0.0-285.0-1.0","null","run_exp/static/images/Set 6_rs/169a.jpg","null","","","","","","test","TR",""
"","html-keyboard-response","425","1284158","0.0-285.0-2.0","null","<p></p>","null","","","","","","","",""
"","image","426","1288055","0.0-286.0-0.0","null","run_exp/static/images/Set 6_rs/172a.jpg","null","","","","","","test","TR","1"
"","show_choice","427","1289553","0.0-286.0-1.0","null","run_exp/static/images/Set 6_rs/172a.jpg","null","","","","","","test","TR",""
"","html-keyboard-response","428","1290100","0.0-286.0-2.0","null","<p></p>","null","","","","","","","",""
"","image","429","1295302","0.0-287.0-0.0","null","run_exp/static/images/Set 6_rs/112a.jpg","null","","","","","","test","TR","5"
"","show_choice","430","1296428","0.0-287.0-1.0","null","run_exp/static/images/Set 6_rs/112a.jpg","null","","","","","","test","TR",""
"","html-keyboard-response","431","1297198","0.0-287.0-2.0","null","<p></p>","null","","","","","","","",""
"","image","432","1301116","0.0-288.0-0.0","null","run_exp/static/images/Set 6_rs/078a.jpg","null","","","","","","test","TF","1"
"","show_choice","433","1302503","0.0-288.0-1.0","null","run_exp/static/images/Set 6_rs/078a.jpg","null","","","","","","test","TF",""
"","html-keyboard-response","434","1303304","0.0-288.0-2.0","null","<p></p>","null","","","","","","","",""
"","image","435","1308903","0.0-289.0-0.0","null","run_exp/static/images/Set 6_rs/121a.jpg","null","","","","","","test","TR","4"
"","show_choice","436","1310624","0.0-289.0-1.0","null","run_exp/static/images/Set 6_rs/121a.jpg","null","","","","","","test","TR",""
"","html-keyboard-response","437","1312753","0.0-289.0-2.0","null","<p></p>","null","","","","","","","",""
"","image","438","1317689","0.0-290.0-0.0","null","run_exp/static/images/Set 6_rs/056a.jpg","null","","","","","","test","TF","3"
"","show_choice","439","1319694","0.0-290.0-1.0","null","run_exp/static/images/Set 6_rs/056a.jpg","null","","","","","","test","TF",""
"","html-keyboard-response","440","1321076","0.0-290.0-2.0","null","<p></p>","null","","","","","","","",""
"","image","441","1325055","0.0-291.0-0.0","null","run_exp/static/images/Set 6_rs/138b.jpg","null","","","","","","test","TL","1"
"","show_choice","442","1326125","0.0-291.0-1.0","null","run_exp/static/images/Set 6_rs/138b.jpg","null","","","","","","test","TL",""
"","html-keyboard-response","443","1327127","0.0-291.0-2.0","null","<p></p>","null","","","","","","","",""
"","image","444","1332994","0.0-292.0-0.0","null","run_exp/static/images/Set 6_rs/177a.jpg","null","","","","","","test","TR","5"
"","show_choice","445","1334580","0.0-292.0-1.0","null","run_exp/static/images/Set 6_rs/177a.jpg","null","","","","","","test","TR",""
"","html-keyboard-response","446","1336055","0.0-292.0-2.0","null","<p></p>","null","","","","","","","",""
"","image","447","1342051","0.0-293.0-0.0","null","run_exp/static/images/Set 6_rs/189a.jpg","null","","","","","","test","TF","5"
"","show_choice","448","1343530","0.0-293.0-1.0","null","run_exp/static/images/Set 6_rs/189a.jpg","null","","","","","","test","TF",""
"","html-keyboard-response","449","1344303","0.0-293.0-2.0","null","<p></p>","null","","","","","","","",""
"","image","450","1349924","0.0-294.0-0.0","null","run_exp/static/images/Set 6_rs/166a.jpg","null","","","","","","test","TR","1"
"","show_choice","451","1351201","0.0-294.0-1.0","null","run_exp/static/images/Set 6_rs/166a.jpg","null","","","","","","test","TR",""
"","html-keyboard-response","452","1352057","0.0-294.0-2.0","null","<p></p>","null","","","","","","","",""
"","image","453","1356055","0.0-295.0-0.0","null","run_exp/static/images/Set 6_rs/015a.jpg","null","","","","","","test","TF","4"
"","show_choice","454","1357540","0.0-295.0-1.0","null","run_exp/static/images/Set 6_rs/015a.jpg","null","","","","","","test","TF",""
"","html-keyboard-response","455","1358281","0.0-295.0-2.0","null","<p></p>","null","","","","","","","",""
"","image","456","1363936","0.0-296.0-0.0","null","run_exp/static/images/Set 6_rs/022a.jpg","null","","","","","","test","TF","4"
"","show_choice","457","1365612","0.0-296.0-1.0","null","run_exp/static/images/Set 6_rs/022a.jpg","null","","","","","","test","TF",""
"","html-keyboard-response","458","1366232","0.0-296.0-2.0","null","<p></p>","null","","","","","","","",""
"","image","459","1370274","0.0-297.0-0.0","null","run_exp/static/images/Set 6_rs/126a.jpg","null","","","","","","test","TR","2"
"","show_choice","460","1371424","0.0-297.0-1.0","null","run_exp/static/images/Set 6_rs/126a.jpg","null","","","","","","test","TR",""
"","html-keyboard-response","461","1372358","0.0-297.0-2.0","null","<p></p>","null","","","","","","","",""
"","image","462","1376056","0.0-298.0-0.0","null","run_exp/static/images/Set 6_rs/187a.jpg","null","","","","","","test","TR","3"
"","show_choice","463","1377550","0.0-298.0-1.0","null","run_exp/static/images/Set 6_rs/187a.jpg","null","","","","","","test","TR",""
"","html-keyboard-response","464","1378157","0.0-298.0-2.0","null","<p></p>","null","","","","","","","",""
"","image","465","1384002","0.0-299.0-0.0","null","run_exp/static/images/Set 6_rs/116b.jpg","null","","","","","","test","TL","2"
"","show_choice","466","1385574","0.0-299.0-1.0","null","run_exp/static/images/Set 6_rs/116b.jpg","null","","","","","","test","TL",""
"","html-keyboard-response","467","1387771","0.0-299.0-2.0","null","<p></p>","null","","","","","","","",""
"","image","468","1392691","0.0-300.0-0.0","null","run_exp/static/images/Set 6_rs/086a.jpg","null","","","","","","test","TF","1"
"","show_choice","469","1394703","0.0-300.0-1.0","null","run_exp/static/images/Set 6_rs/086a.jpg","null","","","","","","test","TF",""
"","html-keyboard-response","470","1396723","0.0-300.0-2.0","null","<p></p>","null","","","","","","","",""
"","image","471","1401700","0.0-301.0-0.0","null","run_exp/static/images/Set 6_rs/089b.jpg","null","","","","","","test","TL","4"
"","show_choice","472","1403723","0.0-301.0-1.0","null","run_exp/static/images/Set 6_rs/089b.jpg","null","","","","","","test","TL",""
"","html-keyboard-response","473","1405701","0.0-301.0-2.0","null","<p></p>","null","","","","","","","",""
"","image","474","1409428","0.0-302.0-0.0","null","run_exp/static/images/Set 6_rs/057b.jpg","null","","","","","","test","TL","1"
"","show_choice","475","1410341","0.0-302.0-1.0","null","run_exp/static/images/Set 6_rs/057b.jpg","null","","","","","","test","TL",""
"","html-keyboard-response","476","1411403","0.0-302.0-2.0","null","<p></p>","null","","","","","","","",""
"","image","477","1416874","0.0-303.0-0.0","null","run_exp/static/images/Set 6_rs/188a.jpg","null","","","","","","test","TF","3"
"","show_choice","478","1418056","0.0-303.0-1.0","null","run_exp/static/images/Set 6_rs/188a.jpg","null","","","","","","test","TF",""
"","html-keyboard-response","479","1419529","0.0-303.0-2.0","null","<p></p>","null","","","","","","","",""
"","image","480","1423055","0.0-304.0-0.0","null","run_exp/static/images/Set 6_rs/076a.jpg","null","","","","","","test","TR","4"
"","show_choice","481","1424541","0.0-304.0-1.0","null","run_exp/static/images/Set 6_rs/076a.jpg","null","","","","","","test","TR",""
"","html-keyboard-response","482","1425298","0.0-304.0-2.0","null","<p></p>","null","","","","","","","",""
"","image","483","1429711","0.0-305.0-0.0","null","run_exp/static/images/Set 6_rs/118a.jpg","null","","","","","","test","TF","5"
"","show_choice","484","1431728","0.0-305.0-1.0","null","run_exp/static/images/Set 6_rs/118a.jpg","null","","","","","","test","TF",""
"","html-keyboard-response","485","1433712","0.0-305.0-2.0","null","<p></p>","null","","","","","","","",""
"","image","486","1437056","0.0-306.0-0.0","null","run_exp/static/images/Set 6_rs/171a.jpg","null","","","","","","test","TF","1"
"","show_choice","487","1438541","0.0-306.0-1.0","null","run_exp/static/images/Set 6_rs/171a.jpg","null","","","","","","test","TF",""
"","html-keyboard-response","488","1439311","0.0-306.0-2.0","null","<p></p>","null","","","","","","","",""
"","image","489","1443057","0.0-307.0-0.0","null","run_exp/static/images/Set 6_rs/186a.jpg","null","","","","","","test","TR","5"
"","show_choice","490","1444510","0.0-307.0-1.0","null","run_exp/static/images/Set 6_rs/186a.jpg","null","","","","","","test","TR",""
"","html-keyboard-response","491","1445237","0.0-307.0-2.0","null","<p></p>","null","","","","","","","",""
"","image","492","1450953","0.0-308.0-0.0","null","run_exp/static/images/Set 6_rs/152a.jpg","null","","","","","","test","TR","2"
"","show_choice","493","1452055","0.0-308.0-1.0","null","run_exp/static/images/Set 6_rs/152a.jpg","null","","","","","","test","TR",""
"","html-keyboard-response","494","1453541","0.0-308.0-2.0","null","<p></p>","null","","","","","","","",""
"","image","495","1457055","0.0-309.0-0.0","null","run_exp/static/images/Set 6_rs/148a.jpg","null","","","","","","test","TR","2"
"","show_choice","496","1458549","0.0-309.0-1.0","null","run_exp/static/images/Set 6_rs/148a.jpg","null","","","","","","test","TR",""
"","html-keyboard-response","497","1459299","0.0-309.0-2.0","null","<p></p>","null","","","","","","","",""
"","image","498","1462302","0.0-310.0-0.0","null","run_exp/static/images/Set 6_rs/097a.jpg","null","","","","","","test","TF","5"
"","show_choice","499","1462803","0.0-310.0-1.0","null","run_exp/static/images/Set 6_rs/097a.jpg","null","","","","","","test","TF",""
"","html-keyboard-response","500","1463309","0.0-310.0-2.0","null","<p></p>","null","","","","","","","",""
"","image","501","1467106","0.0-311.0-0.0","null","run_exp/static/images/Set 6_rs/190a.jpg","null","","","","","","test","TF","3"
"","show_choice","502","1468339","0.0-311.0-1.0","null","run_exp/static/images/Set 6_rs/190a.jpg","null","","","","","","test","TF",""
"","html-keyboard-response","503","1469406","0.0-311.0-2.0","null","<p></p>","null","","","","","","","",""
"","image","504","1473056","0.0-312.0-0.0","null","run_exp/static/images/Set 6_rs/028a.jpg","null","","","","","","test","TF","1"
"","show_choice","505","1474055","0.0-312.0-1.0","null","run_exp/static/images/Set 6_rs/028a.jpg","null","","","","","","test","TF",""
"","html-keyboard-response","506","1475055","0.0-312.0-2.0","null","<p></p>","null","","","","","","","",""
"","image","507","1479055","0.0-313.0-0.0","null","run_exp/static/images/Set 6_rs/016b.jpg","null","","","","","","test","TL","1"
"","show_choice","508","1480548","0.0-313.0-1.0","null","run_exp/static/images/Set 6_rs/016b.jpg","null","","","","","","test","TL",""
"","html-keyboard-response","509","1481299","0.0-313.0-2.0","null","<p></p>","null","","","","","","","",""
"","image","510","1484301","0.0-314.0-0.0","null","run_exp/static/images/Set 6_rs/011a.jpg","null","","","","","","test","TF","3"
"","show_choice","511","1484803","0.0-314.0-1.0","null","run_exp/static/images/Set 6_rs/011a.jpg","null","","","","","","test","TF",""
"","html-keyboard-response","512","1485305","0.0-314.0-2.0","null","<p></p>","null","","","","","","","",""
"","all_done","513","1492234","0.0-315.0-0.0","null","run_exp/static/audio/clip_23_all_done.m4a","null","","","","","<div class='center'><p>You are finished with all three parts of the experiment! You can press the space bar to end the game now. </p></div>","","",""
"","html-keyboard-response","514","1493011","0.0-315.0-1.0","774.8050000227522","<div class='center'><p>You are finished with all three parts of the experiment! You can press the space bar to end the game now. </p><div><p><b>[Press the space bar to continue]</b></p></div>","32","","","","","","","",""
