"success","trial_type","trial_index","time_elapsed","internal_node_id","rt","stimulus","key_press","subject_id","participant_id","age","gender","prompt","phase","condition","lure_bin"
"true","fullscreen","0","3157","0.0-0.0","","","","","","","","","","",""
"","pavlovia","1","3165","0.0-1.0","","","","","","","","","","",""
"","welcome","2","38937","0.0-2.0","null","run_exp/static/audio/clip_1_welcome.m4a","null","203","208","8","Male","<div class='center'><p>This is your last game of the experiment! First, you'll be shown pictures of items one at a time. For each picture, you have to decide if the item is typically found indoors or outdoors.</p><p>If you think it's usually found indoors, then press <b>v</b> key on your keyboard. If you think it's usually found outdoors, then press the <b>n</b> key.There will be reminders on the screen to help you remember which keys to press. </p><p>If you're not sure whether the item is an indoor item or outdoor item, go ahead and take a guess but try your best not to skip that choice. </p></div>","","",""
"","html-keyboard-response","3","40435","0.0-3.0","1478.5","<div class='center'><p>This is your last game of the experiment! First, you'll be shown pictures of items one at a time. For each picture, you have to decide if the item is typically found indoors or outdoors.</p><p>If you think it's usually found indoors, then press <b>v</b> key on your keyboard. If you think it's usually found outdoors, then press the <b>n</b> key.There will be reminders on the screen to help you remember which keys to press. </p><p>If you're not sure whether the item is an indoor item or outdoor item, go ahead and take a guess but try your best not to skip that choice. </p><div><p><b>[Press the space bar to continue]</b></p></div>","32","","","","","","","",""
"","image","4","42439","0.0-4.0","null","run_exp/static/images/Set 6_rs/112a.jpg","null","","","","","","learn","SR",""
"","show_choice","5","44442","0.0-5.0","null","run_exp/static/images/blank.png","null","","","","","","learn","SR",""
"","html-keyboard-response","6","44951","0.0-6.0","null","<p></p>","null","","","","","","","",""
"","image","7","46579","0.0-7.0","1625.3000000715256","run_exp/static/images/Set 6_rs/144a.jpg","86","","","","","","learn","SL",""
"","show_choice","8","46957","0.0-8.0","null","run_exp/static/images/Set 6_rs/144a.jpg","null","","","","","","learn","SL",""
"","html-keyboard-response","9","47465","0.0-9.0","null","<p></p>","null","","","","","","","",""
"","image","10","49337","0.0-10.0","1868.7999999523163","run_exp/static/images/Set 6_rs/129a.jpg","86","","","","","","learn","SL",""
"","show_choice","11","49470","0.0-11.0","null","run_exp/static/images/Set 6_rs/129a.jpg","null","","","","","","learn","SL",""
"","html-keyboard-response","12","49977","0.0-12.0","null","<p></p>","null","","","","","","","",""
"","image","13","51114","0.0-13.0","1134.7999999523163","run_exp/static/images/Set 6_rs/141a.jpg","86","","","","","","learn","SR",""
"","show_choice","14","51984","0.0-14.0","null","run_exp/static/images/Set 6_rs/141a.jpg","null","","","","","","learn","SR",""
"","html-keyboard-response","15","52493","0.0-15.0","null","<p></p>","null","","","","","","","",""
"","image","16","53874","0.0-16.0","1378.7999999523163","run_exp/static/images/Set 6_rs/187a.jpg","86","","","","","","learn","SR",""
"","show_choice","17","54501","0.0-17.0","null","run_exp/static/images/Set 6_rs/187a.jpg","null","","","","","","learn","SR",""
"","html-keyboard-response","18","55009","0.0-18.0","null","<p></p>","null","","","","","","","",""
"","image","19","56376","0.0-19.0","1364.8000000715256","run_exp/static/images/Set 6_rs/057a.jpg","86","","","","","","learn","SL",""
"","show_choice","20","57020","0.0-20.0","null","run_exp/static/images/Set 6_rs/057a.jpg","null","","","","","","learn","SL",""
"","html-keyboard-response","21","57522","0.0-21.0","null","<p></p>","null","","","","","","","",""
"","image","22","58671","0.0-22.0","1147","run_exp/static/images/Set 6_rs/186a.jpg","86","","","","","","learn","SR",""
"","show_choice","23","59531","0.0-23.0","null","run_exp/static/images/Set 6_rs/186a.jpg","null","","","","","","learn","SR",""
"","html-keyboard-response","24","60039","0.0-24.0","null","<p></p>","null","","","","","","","",""
"","image","25","60952","0.0-25.0","910.2000000476837","run_exp/static/images/Set 6_rs/062a.jpg","86","","","","","","learn","SL",""
"","show_choice","26","62046","0.0-26.0","null","run_exp/static/images/Set 6_rs/062a.jpg","null","","","","","","learn","SL",""
"","html-keyboard-response","27","62548","0.0-27.0","null","<p></p>","null","","","","","","","",""
"","image","28","64271","0.0-28.0","1719.5999999046326","run_exp/static/images/Set 6_rs/126a.jpg","78","","","","","","learn","SR",""
"","show_choice","29","64556","0.0-29.0","null","run_exp/static/images/Set 6_rs/126a.jpg","null","","","","","","learn","SR",""
"","html-keyboard-response","30","65065","0.0-30.0","null","<p></p>","null","","","","","","","",""
"","image","31","66875","0.0-31.0","1807.7000000476837","run_exp/static/images/Set 6_rs/134a.jpg","86","","","","","","learn","SR",""
"","show_choice","32","67069","0.0-32.0","null","run_exp/static/images/Set 6_rs/134a.jpg","null","","","","","","learn","SR",""
"","html-keyboard-response","33","67578","0.0-33.0","null","<p></p>","null","","","","","","","",""
"","image","34","68765","0.0-34.0","1185.6000000238419","run_exp/static/images/Set 6_rs/055a.jpg","86","","","","","","learn","SL",""
"","show_choice","35","69583","0.0-35.0","null","run_exp/static/images/Set 6_rs/055a.jpg","null","","","","","","learn","SL",""
"","html-keyboard-response","36","70092","0.0-36.0","null","<p></p>","null","","","","","","","",""
"","image","37","71268","0.0-37.0","1174.2999999523163","run_exp/static/images/Set 6_rs/075a.jpg","78","","","","","","learn","SR",""
"","show_choice","38","72101","0.0-38.0","null","run_exp/static/images/Set 6_rs/075a.jpg","null","","","","","","learn","SR",""
"","html-keyboard-response","39","72603","0.0-39.0","null","<p></p>","null","","","","","","","",""
"","image","40","73945","0.0-40.0","1339.7000000476837","run_exp/static/images/Set 6_rs/006a.jpg","86","","","","","","learn","SL",""
"","show_choice","41","74607","0.0-41.0","null","run_exp/static/images/Set 6_rs/006a.jpg","null","","","","","","learn","SL",""
"","html-keyboard-response","42","75116","0.0-42.0","null","<p></p>","null","","","","","","","",""
"","image","43","76461","0.0-43.0","1343.1000000238419","run_exp/static/images/Set 6_rs/079a.jpg","86","","","","","","learn","SL",""
"","show_choice","44","77124","0.0-44.0","null","run_exp/static/images/Set 6_rs/079a.jpg","null","","","","","","learn","SL",""
"","html-keyboard-response","45","77627","0.0-45.0","null","<p></p>","null","","","","","","","",""
"","image","46","78693","0.0-46.0","1063.3000000715256","run_exp/static/images/Set 6_rs/017a.jpg","78","","","","","","learn","SL",""
"","show_choice","47","79634","0.0-47.0","null","run_exp/static/images/Set 6_rs/017a.jpg","null","","","","","","learn","SL",""
"","html-keyboard-response","48","80136","0.0-48.0","null","<p></p>","null","","","","","","","",""
"","image","49","80950","0.0-49.0","811.9000000953674","run_exp/static/images/Set 6_rs/088a.jpg","86","","","","","","learn","SR",""
"","show_choice","50","82145","0.0-50.0","null","run_exp/static/images/Set 6_rs/088a.jpg","null","","","","","","learn","SR",""
"","html-keyboard-response","51","82654","0.0-51.0","null","<p></p>","null","","","","","","","",""
"","image","52","83841","0.0-52.0","1184.2999999523163","run_exp/static/images/Set 6_rs/076a.jpg","78","","","","","","learn","SR",""
"","show_choice","53","84664","0.0-53.0","null","run_exp/static/images/Set 6_rs/076a.jpg","null","","","","","","learn","SR",""
"","html-keyboard-response","54","85167","0.0-54.0","null","<p></p>","null","","","","","","","",""
"","image","55","86064","0.0-55.0","894.9000000953674","run_exp/static/images/Set 6_rs/121a.jpg","78","","","","","","learn","SR",""
"","show_choice","56","87178","0.0-56.0","null","run_exp/static/images/Set 6_rs/121a.jpg","null","","","","","","learn","SR",""
"","html-keyboard-response","57","87681","0.0-57.0","null","<p></p>","null","","","","","","","",""
"","image","58","88470","0.0-58.0","786.7000000476837","run_exp/static/images/Set 6_rs/007a.jpg","86","","","","","","learn","SR",""
"","show_choice","59","89686","0.0-59.0","null","run_exp/static/images/Set 6_rs/007a.jpg","null","","","","","","learn","SR",""
"","html-keyboard-response","60","90192","0.0-60.0","null","<p></p>","null","","","","","","","",""
"","image","61","91504","0.0-61.0","1309.7000000476837","run_exp/static/images/Set 6_rs/091a.jpg","86","","","","","","learn","SL",""
"","show_choice","62","92198","0.0-62.0","null","run_exp/static/images/Set 6_rs/091a.jpg","null","","","","","","learn","SL",""
"","html-keyboard-response","63","92699","0.0-63.0","null","<p></p>","null","","","","","","","",""
"","image","64","93645","0.0-64.0","943.2000000476837","run_exp/static/images/Set 6_rs/166a.jpg","86","","","","","","learn","SR",""
"","show_choice","65","94707","0.0-65.0","null","run_exp/static/images/Set 6_rs/166a.jpg","null","","","","","","learn","SR",""
"","html-keyboard-response","66","95212","0.0-66.0","null","<p></p>","null","","","","","","","",""
"","image","67","96160","0.0-67.0","945.7999999523163","run_exp/static/images/Set 6_rs/085a.jpg","78","","","","","","learn","SL",""
"","show_choice","68","97221","0.0-68.0","null","run_exp/static/images/Set 6_rs/085a.jpg","null","","","","","","learn","SL",""
"","html-keyboard-response","69","97725","0.0-69.0","null","<p></p>","null","","","","","","","",""
"","image","70","99305","0.0-70.0","1577.4000000953674","run_exp/static/images/Set 6_rs/122a.jpg","86","","","","","","learn","SR",""
"","show_choice","71","99732","0.0-71.0","null","run_exp/static/images/Set 6_rs/122a.jpg","null","","","","","","learn","SR",""
"","html-keyboard-response","72","100237","0.0-72.0","null","<p></p>","null","","","","","","","",""
"","image","73","101406","0.0-73.0","1167","run_exp/static/images/Set 6_rs/154a.jpg","86","","","","","","learn","SR",""
"","show_choice","74","102246","0.0-74.0","null","run_exp/static/images/Set 6_rs/154a.jpg","null","","","","","","learn","SR",""
"","html-keyboard-response","75","102755","0.0-75.0","null","<p></p>","null","","","","","","","",""
"","image","76","104322","0.0-76.0","1564.5","run_exp/static/images/Set 6_rs/089a.jpg","86","","","","","","learn","SL",""
"","show_choice","77","104758","0.0-77.0","null","run_exp/static/images/Set 6_rs/089a.jpg","null","","","","","","learn","SL",""
"","html-keyboard-response","78","105265","0.0-78.0","null","<p></p>","null","","","","","","","",""
"","image","79","106194","0.0-79.0","926.7999999523163","run_exp/static/images/Set 6_rs/016a.jpg","78","","","","","","learn","SL",""
"","show_choice","80","107269","0.0-80.0","null","run_exp/static/images/Set 6_rs/016a.jpg","null","","","","","","learn","SL",""
"","html-keyboard-response","81","107775","0.0-81.0","null","<p></p>","null","","","","","","","",""
"","image","82","108600","0.0-82.0","822.7999999523163","run_exp/static/images/Set 6_rs/063a.jpg","86","","","","","","learn","SR",""
"","show_choice","83","109785","0.0-83.0","null","run_exp/static/images/Set 6_rs/063a.jpg","null","","","","","","learn","SR",""
"","html-keyboard-response","84","110291","0.0-84.0","null","<p></p>","null","","","","","","","",""
"","image","85","111632","0.0-85.0","1338.8999999761581","run_exp/static/images/Set 6_rs/061a.jpg","78","","","","","","learn","SR",""
"","show_choice","86","112300","0.0-86.0","null","run_exp/static/images/Set 6_rs/061a.jpg","null","","","","","","learn","SR",""
"","html-keyboard-response","87","112809","0.0-87.0","null","<p></p>","null","","","","","","","",""
"","image","88","113917","0.0-88.0","1105.1000000238419","run_exp/static/images/Set 6_rs/111a.jpg","86","","","","","","learn","SL",""
"","show_choice","89","114817","0.0-89.0","null","run_exp/static/images/Set 6_rs/111a.jpg","null","","","","","","learn","SL",""
"","html-keyboard-response","90","115323","0.0-90.0","null","<p></p>","null","","","","","","","",""
"","image","91","116610","0.0-91.0","1284.3999999761581","run_exp/static/images/Set 6_rs/131a.jpg","86","","","","","","learn","SR",""
"","show_choice","92","117334","0.0-92.0","null","run_exp/static/images/Set 6_rs/131a.jpg","null","","","","","","learn","SR",""
"","html-keyboard-response","93","117837","0.0-93.0","null","<p></p>","null","","","","","","","",""
"","image","94","118989","0.0-94.0","1149.3999999761581","run_exp/static/images/Set 6_rs/108a.jpg","78","","","","","","learn","SR",""
"","show_choice","95","119847","0.0-95.0","null","run_exp/static/images/Set 6_rs/108a.jpg","null","","","","","","learn","SR",""
"","html-keyboard-response","96","120356","0.0-96.0","null","<p></p>","null","","","","","","","",""
"","image","97","121365","0.0-97.0","1005.7999999523163","run_exp/static/images/Set 6_rs/064a.jpg","86","","","","","","learn","SR",""
"","show_choice","98","122364","0.0-98.0","null","run_exp/static/images/Set 6_rs/064a.jpg","null","","","","","","learn","SR",""
"","html-keyboard-response","99","122866","0.0-99.0","null","<p></p>","null","","","","","","","",""
"","image","100","124586","0.0-100.0","1718.1999999284744","run_exp/static/images/Set 6_rs/045a.jpg","86","","","","","","learn","SR",""
"","show_choice","101","124875","0.0-101.0","null","run_exp/static/images/Set 6_rs/045a.jpg","null","","","","","","learn","SR",""
"","html-keyboard-response","102","125384","0.0-102.0","null","<p></p>","null","","","","","","","",""
"","image","103","126820","0.0-103.0","1433.8999999761581","run_exp/static/images/Set 6_rs/191a.jpg","78","","","","","","learn","SL",""
"","show_choice","104","127393","0.0-104.0","null","run_exp/static/images/Set 6_rs/191a.jpg","null","","","","","","learn","SL",""
"","html-keyboard-response","105","127902","0.0-105.0","null","<p></p>","null","","","","","","","",""
"","image","106","129684","0.0-106.0","1780.0999999046326","run_exp/static/images/Set 6_rs/008a.jpg","86","","","","","","learn","SL",""
"","show_choice","107","129912","0.0-107.0","null","run_exp/static/images/Set 6_rs/008a.jpg","null","","","","","","learn","SL",""
"","html-keyboard-response","108","130413","0.0-108.0","null","<p></p>","null","","","","","","","",""
"","image","109","131805","0.0-109.0","1390.0999999046326","run_exp/static/images/Set 6_rs/181a.jpg","78","","","","","","learn","SL",""
"","show_choice","110","132416","0.0-110.0","null","run_exp/static/images/Set 6_rs/181a.jpg","null","","","","","","learn","SL",""
"","html-keyboard-response","111","132920","0.0-111.0","null","<p></p>","null","","","","","","","",""
"","image","112","134189","0.0-112.0","1265.7999999523163","run_exp/static/images/Set 6_rs/178a.jpg","86","","","","","","learn","SR",""
"","show_choice","113","134926","0.0-113.0","null","run_exp/static/images/Set 6_rs/178a.jpg","null","","","","","","learn","SR",""
"","html-keyboard-response","114","135431","0.0-114.0","null","<p></p>","null","","","","","","","",""
"","image","115","136877","0.0-115.0","1444.6000000238419","run_exp/static/images/Set 6_rs/123a.jpg","78","","","","","","learn","SL",""
"","show_choice","116","137440","0.0-116.0","null","run_exp/static/images/Set 6_rs/123a.jpg","null","","","","","","learn","SL",""
"","html-keyboard-response","117","137944","0.0-117.0","null","<p></p>","null","","","","","","","",""
"","image","118","139952","0.0-118.0","null","run_exp/static/images/Set 6_rs/138a.jpg","null","","","","","","learn","SL",""
"","show_choice","119","141962","0.0-119.0","null","run_exp/static/images/blank.png","null","","","","","","learn","SL",""
"","html-keyboard-response","120","142465","0.0-120.0","null","<p></p>","null","","","","","","","",""
"","image","121","142749","0.0-121.0","281.1999999284744","run_exp/static/images/Set 6_rs/066a.jpg","78","","","","","","learn","SL",""
"","show_choice","122","144474","0.0-122.0","null","run_exp/static/images/Set 6_rs/066a.jpg","null","","","","","","learn","SL",""
"","html-keyboard-response","123","144983","0.0-123.0","null","<p></p>","null","","","","","","","",""
"","image","124","145279","0.0-124.0","293.2999999523163","run_exp/static/images/Set 6_rs/074a.jpg","78","","","","","","learn","SL",""
"","show_choice","125","146992","0.0-125.0","null","run_exp/static/images/Set 6_rs/074a.jpg","null","","","","","","learn","SL",""
"","html-keyboard-response","126","147496","0.0-126.0","null","<p></p>","null","","","","","","","",""
"","image","127","147645","0.0-127.0","146.60000002384186","run_exp/static/images/Set 6_rs/073a.jpg","78","","","","","","learn","SL",""
"","show_choice","128","149502","0.0-128.0","null","run_exp/static/images/Set 6_rs/073a.jpg","null","","","","","","learn","SL",""
"","html-keyboard-response","129","150010","0.0-129.0","null","<p></p>","null","","","","","","","",""
"","image","130","150281","0.0-130.0","268.40000009536743","run_exp/static/images/Set 6_rs/116a.jpg","78","","","","","","learn","SL",""
"","show_choice","131","152020","0.0-131.0","null","run_exp/static/images/Set 6_rs/116a.jpg","null","","","","","","learn","SL",""
"","html-keyboard-response","132","152529","0.0-132.0","null","<p></p>","null","","","","","","","",""
"","image","133","153347","0.0-133.0","815.5999999046326","run_exp/static/images/Set 6_rs/070a.jpg","86","","","","","","learn","SR",""
"","show_choice","134","154538","0.0-134.0","null","run_exp/static/images/Set 6_rs/070a.jpg","null","","","","","","learn","SR",""
"","html-keyboard-response","135","155044","0.0-135.0","null","<p></p>","null","","","","","","","",""
"","image","136","155967","0.0-136.0","921.6000000238419","run_exp/static/images/Set 6_rs/117a.jpg","78","","","","","","learn","SL",""
"","show_choice","137","157050","0.0-137.0","null","run_exp/static/images/Set 6_rs/117a.jpg","null","","","","","","learn","SL",""
"","html-keyboard-response","138","157558","0.0-138.0","null","<p></p>","null","","","","","","","",""
"","image","139","158757","0.0-139.0","1196.1000000238419","run_exp/static/images/Set 6_rs/024a.jpg","86","","","","","","learn","SR",""
"","show_choice","140","159563","0.0-140.0","null","run_exp/static/images/Set 6_rs/024a.jpg","null","","","","","","learn","SR",""
"","html-keyboard-response","141","160064","0.0-141.0","null","<p></p>","null","","","","","","","",""
"","image","142","161509","0.0-142.0","1443","run_exp/static/images/Set 6_rs/172a.jpg","78","","","","","","learn","SR",""
"","show_choice","143","162069","0.0-143.0","null","run_exp/static/images/Set 6_rs/172a.jpg","null","","","","","","learn","SR",""
"","html-keyboard-response","144","162577","0.0-144.0","null","<p></p>","null","","","","","","","",""
"","image","145","163543","0.0-145.0","964.1999999284744","run_exp/static/images/Set 6_rs/071a.jpg","86","","","","","","learn","SL",""
"","show_choice","146","164586","0.0-146.0","null","run_exp/static/images/Set 6_rs/071a.jpg","null","","","","","","learn","SL",""
"","html-keyboard-response","147","165088","0.0-147.0","null","<p></p>","null","","","","","","","",""
"","image","148","166351","0.0-148.0","1261.2000000476837","run_exp/static/images/Set 6_rs/167a.jpg","86","","","","","","learn","SL",""
"","show_choice","149","167096","0.0-149.0","null","run_exp/static/images/Set 6_rs/167a.jpg","null","","","","","","learn","SL",""
"","html-keyboard-response","150","167602","0.0-150.0","null","<p></p>","null","","","","","","","",""
"","image","151","168570","0.0-151.0","966.0999999046326","run_exp/static/images/Set 6_rs/014a.jpg","86","","","","","","learn","SL",""
"","show_choice","152","169612","0.0-152.0","null","run_exp/static/images/Set 6_rs/014a.jpg","null","","","","","","learn","SL",""
"","html-keyboard-response","153","170114","0.0-153.0","null","<p></p>","null","","","","","","","",""
"","image","154","171035","0.0-154.0","918.2000000476837","run_exp/static/images/Set 6_rs/019a.jpg","86","","","","","","learn","SL",""
"","show_choice","155","172119","0.0-155.0","null","run_exp/static/images/Set 6_rs/019a.jpg","null","","","","","","learn","SL",""
"","html-keyboard-response","156","172628","0.0-156.0","null","<p></p>","null","","","","","","","",""
"","image","157","173870","0.0-157.0","1239.6000000238419","run_exp/static/images/Set 6_rs/050a.jpg","86","","","","","","learn","SL",""
"","show_choice","158","174635","0.0-158.0","null","run_exp/static/images/Set 6_rs/050a.jpg","null","","","","","","learn","SL",""
"","html-keyboard-response","159","175138","0.0-159.0","null","<p></p>","null","","","","","","","",""
"","image","160","176281","0.0-160.0","1141.3000000715256","run_exp/static/images/Set 6_rs/010a.jpg","86","","","","","","learn","SR",""
"","show_choice","161","177143","0.0-161.0","null","run_exp/static/images/Set 6_rs/010a.jpg","null","","","","","","learn","SR",""
"","html-keyboard-response","162","177651","0.0-162.0","null","<p></p>","null","","","","","","","",""
"","image","163","177770","0.0-163.0","115.90000009536743","run_exp/static/images/Set 6_rs/150a.jpg","86","","","","","","learn","SR",""
"","show_choice","164","179662","0.0-164.0","null","run_exp/static/images/Set 6_rs/150a.jpg","null","","","","","","learn","SR",""
"","html-keyboard-response","165","180166","0.0-165.0","null","<p></p>","null","","","","","","","",""
"","image","166","181030","0.0-166.0","862.8999999761581","run_exp/static/images/Set 6_rs/169a.jpg","86","","","","","","learn","SR",""
"","show_choice","167","182170","0.0-167.0","null","run_exp/static/images/Set 6_rs/169a.jpg","null","","","","","","learn","SR",""
"","html-keyboard-response","168","182672","0.0-168.0","null","<p></p>","null","","","","","","","",""
"","image","169","183887","0.0-169.0","1212.8999999761581","run_exp/static/images/Set 6_rs/025a.jpg","86","","","","","","learn","SL",""
"","show_choice","170","184680","0.0-170.0","null","run_exp/static/images/Set 6_rs/025a.jpg","null","","","","","","learn","SL",""
"","html-keyboard-response","171","185185","0.0-171.0","null","<p></p>","null","","","","","","","",""
"","image","172","185803","0.0-172.0","615.7000000476837","run_exp/static/images/Set 6_rs/177a.jpg","86","","","","","","learn","SR",""
"","show_choice","173","187195","0.0-173.0","null","run_exp/static/images/Set 6_rs/177a.jpg","null","","","","","","learn","SR",""
"","html-keyboard-response","174","187702","0.0-174.0","null","<p></p>","null","","","","","","","",""
"","image","175","188344","0.0-175.0","639.7999999523163","run_exp/static/images/Set 6_rs/012a.jpg","86","","","","","","learn","SR",""
"","show_choice","176","189707","0.0-176.0","null","run_exp/static/images/Set 6_rs/012a.jpg","null","","","","","","learn","SR",""
"","html-keyboard-response","177","190211","0.0-177.0","null","<p></p>","null","","","","","","","",""
"","image","178","190729","0.0-178.0","515.5","run_exp/static/images/Set 6_rs/095a.jpg","86","","","","","","learn","SL",""
"","show_choice","179","192221","0.0-179.0","null","run_exp/static/images/Set 6_rs/095a.jpg","null","","","","","","learn","SL",""
"","html-keyboard-response","180","192728","0.0-180.0","null","<p></p>","null","","","","","","","",""
"","image","181","193146","0.0-181.0","415.89999997615814","run_exp/static/images/Set 6_rs/023a.jpg","78","","","","","","learn","SR",""
"","show_choice","182","194738","0.0-182.0","null","run_exp/static/images/Set 6_rs/023a.jpg","null","","","","","","learn","SR",""
"","html-keyboard-response","183","195241","0.0-183.0","null","<p></p>","null","","","","","","","",""
"","image","184","196517","0.0-184.0","1273.8999999761581","run_exp/static/images/Set 6_rs/132a.jpg","78","","","","","","learn","SR",""
"","show_choice","185","197251","0.0-185.0","null","run_exp/static/images/Set 6_rs/132a.jpg","null","","","","","","learn","SR",""
"","html-keyboard-response","186","197759","0.0-186.0","null","<p></p>","null","","","","","","","",""
"","image","187","198452","0.0-187.0","690.3999999761581","run_exp/static/images/Set 6_rs/036a.jpg","78","","","","","","learn","SL",""
"","show_choice","188","199767","0.0-188.0","null","run_exp/static/images/Set 6_rs/036a.jpg","null","","","","","","learn","SL",""
"","html-keyboard-response","189","200269","0.0-189.0","null","<p></p>","null","","","","","","","",""
"","image","190","201178","0.0-190.0","906.7999999523163","run_exp/static/images/Set 6_rs/168a.jpg","86","","","","","","learn","SL",""
"","show_choice","191","202275","0.0-191.0","null","run_exp/static/images/Set 6_rs/168a.jpg","null","","","","","","learn","SL",""
"","html-keyboard-response","192","202777","0.0-192.0","null","<p></p>","null","","","","","","","",""
"","image","193","204786","0.0-193.0","null","run_exp/static/images/Set 6_rs/152a.jpg","null","","","","","","learn","SR",""
"","show_choice","194","206796","0.0-194.0","null","run_exp/static/images/blank.png","null","","","","","","learn","SR",""
"","html-keyboard-response","195","207301","0.0-195.0","null","<p></p>","null","","","","","","","",""
"","test_intro","196","244223","0.0-196.0","null","run_exp/static/audio/clip_2_memory.m4a","null","","","","","<div class='center'><p>Now, let’s see how much you remember about the items you just saw.  For each item, you need to indicate if it was <b>old</b> by pressing the <b>v</b> key, <b>similar</b> by pressing the <b>b</b> key, or <b>new</b> by pressing the <b>n</b> key.</p><p>Old refers to an item that you saw before in the indoor/outdoor game that you just played, new refers to an item you have <b>not</b> seen before within the indoor/outdoor game, and similar refers to an item that is similar to an item you’ve seen before but is not exactly the same. </p><p>Before we begin, let’s go over some brief demonstrations to make sure you understand.</p></div>","","",""
"","html-keyboard-response","197","245061","0.0-197.0","835.7999999523163","<div class='center'><p>Now, let’s see how much you remember about the items you just saw.  For each item, you need to indicate if it was <b>old</b> by pressing the <b>v</b> key, <b>similar</b> by pressing the <b>b</b> key, or <b>new</b> by pressing the <b>n</b> key.</p><p>Old refers to an item that you saw before in the indoor/outdoor game that you just played, new refers to an item you have <b>not</b> seen before within the indoor/outdoor game, and similar refers to an item that is similar to an item you’ve seen before but is not exactly the same. </p><p>Before we begin, let’s go over some brief demonstrations to make sure you understand.</p><div><p><b>[Press the space bar to continue]</b></p></div>","32","","","","","","","",""
"","items","198","252563","0.0-198.0","null","run_exp/static/audio/clip_3_items.m4a","null","","","","","","","",""
"","mop","199","257067","0.0-199.0","null","run_exp/static/audio/clip_4_mop.m4a","null","","","","","","","",""
"","baseball","200","260573","0.0-200.0","null","run_exp/static/audio/clip_5_baseball.m4a","null","","","","","","","",""
"","trumpet","201","264080","0.0-201.0","null","run_exp/static/audio/clip_6_trumpet.m4a","null","","","","","","","",""
"","gummies","202","267588","0.0-202.0","null","run_exp/static/audio/clip_7_gummies.m4a","null","","","","","","","",""
"","osn","203","272096","0.0-203.0","null","run_exp/static/audio/clip_8_osn.m4a","null","","","","","","","",""
"","old_1","204","278606","0.0-204.0","null","run_exp/static/audio/clip_9_old_trumpet.m4a","null","","","","","","","",""
"","new_1","205","286114","0.0-205.0","null","run_exp/static/audio/clip_10_new_balloon.m4a","null","","","","","","","",""
"","similar_1a","206","290618","0.0-206.0","null","run_exp/static/audio/clip_11a_similar_mop.m4a","null","","","","","","","",""
"","similar_1b","207","297122","0.0-207.0","null","run_exp/static/audio/clip_11b_similar_mop.m4a","null","","","","","","","",""
"","new_2","208","300626","0.0-208.0","null","run_exp/static/audio/clip_12_new_stoplight.m4a","null","","","","","","","",""
"","old_2","209","304136","0.0-209.0","null","run_exp/static/audio/clip_13_old_baseball.m4a","null","","","","","","","",""
"","similar_2a","210","307644","0.0-210.0","null","run_exp/static/audio/clip_14a_similar_gummies.m4a","null","","","","","","","",""
"","similar_2b","211","315149","0.0-211.0","null","run_exp/static/audio/clip_14b_similar_gummies.m4a","null","","","","","","","",""
"","practice","212","357328","0.0-212.0","null","run_exp/static/audio/clip_15_practice.m4a","null","","","","","<div class='center'><p>Let’s practice a little to make sure you understand the difference between new, similar, and old. Let’s say you saw these three items in the indoor/outdoor game.</p><p> Try your best to remember these images because you’ll soon be tested on them in a practice game. In the practice game, you’ll be shown images and you’ll have to say if they are old (one of the three images belows), similar (similar to one of the images below but not exactly the same), or new (are not one of the images below nor similar to them).</p><p>Once you press the space bar you’ll be shown these images again but one at time. Then you’ll begin the practice game.</p><p><img src='run_exp/static/images/tutorial/test/three_indoor_outdoor.png' height='300'></p></div>","","",""
"","html-keyboard-response","213","357395","0.0-213.0","64.10000002384186","<div class='center'><p>Let’s practice a little to make sure you understand the difference between new, similar, and old. Let’s say you saw these three items in the indoor/outdoor game.</p><p> Try your best to remember these images because you’ll soon be tested on them in a practice game. In the practice game, you’ll be shown images and you’ll have to say if they are old (one of the three images belows), similar (similar to one of the images below but not exactly the same), or new (are not one of the images below nor similar to them).</p><p>Once you press the space bar you’ll be shown these images again but one at time. Then you’ll begin the practice game.</p><p><img src='run_exp/static/images/tutorial/test/three_indoor_outdoor.png' height='300'></p><div><p><b>[Press the space bar to continue]</b></p></div>","32","","","","","","","",""
"","planet","214","359400","0.0-214.0","null","run_exp/static/images/tutorial/test/008a.jpg","null","","","","","","","",""
"","boot","215","361411","0.0-215.0","null","run_exp/static/images/tutorial/test/011a.jpg","null","","","","","","","",""
"","lemon","216","363418","0.0-216.0","null","run_exp/static/images/tutorial/test/018a.jpg","null","","","","","","","",""
"","practice_q1","217","367296","0.0-217.0","3875.399999976158","run_exp/static/audio/clip_16_practice_question.m4a","78","","","","","","","",""
"","correct","218","369254","0.0-218.0-0.0","null","run_exp/static/audio/clip_17_correct.m4a","null","","","","","<div class='center'><p>That's correct!</p></div>","","",""
"","html-keyboard-response","219","370684","0.0-218.0-1.0","1428","<div class='center'><p>That's correct!</p><div><p><b>[Press the space bar to continue]</b></p></div>","32","","","","","","","",""
"","practice_q2","220","375951","0.0-218.0-2.0","5265.5","run_exp/static/audio/clip_16_practice_question.m4a","86","","","","","","","",""
"","correct","221","377890","0.0-219.0-0.0","null","run_exp/static/audio/clip_17_correct.m4a","null","","","","","<div class='center'><p>That's correct!</p></div>","","",""
"","html-keyboard-response","222","379027","0.0-219.0-1.0","1134.8999999761581","<div class='center'><p>That's correct!</p><div><p><b>[Press the space bar to continue]</b></p></div>","32","","","","","","","",""
"","practice_q3","223","381726","0.0-219.0-2.0","2696.7999999523163","run_exp/static/audio/clip_16_practice_question.m4a","86","","","","","","","",""
"","incorrect_q3","224","384525","0.0-220.0-0.0","null","run_exp/static/audio/clip_20_incorrect_similar.m4a","null","","","","","<div class='center'><p>That’s incorrect. It’s similar.</p><p><img src='run_exp/static/images/tutorial/test/boot_comparison.png' height='300'></p></div>","","",""
"","html-keyboard-response","225","386176","0.0-220.0-1.0","1649.1000000238419","<div class='center'><p>That’s incorrect. It’s similar.</p><p><img src='run_exp/static/images/tutorial/test/boot_comparison.png' height='300'></p><div><p><b>[Press the space bar to continue]</b></p></div>","32","","","","","","","",""
"","repeat","226","390927","0.0-221.0-0.0","null","run_exp/static/audio/clip_21_practice_again.m4a","null","","","","","<div class='center'><p>Oops. you missed at least one of these questions. Let's try practicing again. </p></div>","","",""
"","html-keyboard-response","227","391794","0.0-221.0-1.0","864.5","<div class='center'><p>Oops. you missed at least one of these questions. Let's try practicing again. </p><div><p><b>[Press the space bar to continue]</b></p></div>","32","","","","","","","",""
"","practice_q1","228","395065","0.0-221.0-2.0","3268.899999976158","run_exp/static/audio/clip_16_practice_question.m4a","78","","","","","","","",""
"","correct","229","396987","0.0-222.0-0.0","null","run_exp/static/audio/clip_17_correct.m4a","null","","","","","<div class='center'><p>That's correct!</p></div>","","",""
"","html-keyboard-response","230","399359","0.0-222.0-1.0","2370.4000000953674","<div class='center'><p>That's correct!</p><div><p><b>[Press the space bar to continue]</b></p></div>","32","","","","","","","",""
"","practice_q2","231","400293","0.0-222.0-2.0","932.3999999761581","run_exp/static/audio/clip_16_practice_question.m4a","86","","","","","","","",""
"","correct","232","402231","0.0-223.0-0.0","null","run_exp/static/audio/clip_17_correct.m4a","null","","","","","<div class='center'><p>That's correct!</p></div>","","",""
"","html-keyboard-response","233","405186","0.0-223.0-1.0","2952.7000000476837","<div class='center'><p>That's correct!</p><div><p><b>[Press the space bar to continue]</b></p></div>","32","","","","","","","",""
"","practice_q3","234","405918","0.0-223.0-2.0","730.1000000238419","run_exp/static/audio/clip_16_practice_question.m4a","66","","","","","","","",""
"","correct","235","408012","0.0-224.0-0.0","null","run_exp/static/audio/clip_17_correct.m4a","null","","","","","<div class='center'><p>That's correct!</p></div>","","",""
"","html-keyboard-response","236","409161","0.0-224.0-1.0","1146.5999999046326","<div class='center'><p>That's correct!</p><div><p><b>[Press the space bar to continue]</b></p></div>","32","","","","","","","",""
"","begin_text","237","427683","0.0-225.0-0.0","null","run_exp/static/audio/clip_22_begin_test.m4a","null","","","","","<div class='center'><p>On to the real game where we’ll test your memory of items from the indoor/outdoor game. For each item, you need to indicate if the item is <b>old</b> by pressing the <b>v</b> key, <b>similar</b> by pressing the <b>b</b> key, or <b>new</b> by pressing the <b>n</b> key. </p></div>","","",""
"","html-keyboard-response","238","427988","0.0-225.0-1.0","302.60000002384186","<div class='center'><p>On to the real game where we’ll test your memory of items from the indoor/outdoor game. For each item, you need to indicate if the item is <b>old</b> by pressing the <b>v</b> key, <b>similar</b> by pressing the <b>b</b> key, or <b>new</b> by pressing the <b>n</b> key. </p><div><p><b>[Press the space bar to continue]</b></p></div>","32","","","","","","","",""
"","image","239","429397","0.0-226.0-0.0","1407","run_exp/static/images/Set 6_rs/010a.jpg","86","","","","","","test","TR","5"
"","show_choice","240","429899","0.0-226.0-1.0","null","run_exp/static/images/Set 6_rs/010a.jpg","null","","","","","","test","TR",""
"","html-keyboard-response","241","430409","0.0-226.0-2.0","null","<p></p>","null","","","","","","","",""
"","image","242","432229","0.0-227.0-0.0","1817.2000000476837","run_exp/static/images/Set 6_rs/075a.jpg","86","","","","","","test","TR","1"
"","show_choice","243","432733","0.0-227.0-1.0","null","run_exp/static/images/Set 6_rs/075a.jpg","null","","","","","","test","TR",""
"","html-keyboard-response","244","433237","0.0-227.0-2.0","null","<p></p>","null","","","","","","","",""
"","image","245","434104","0.0-228.0-0.0","865.1000000238419","run_exp/static/images/Set 6_rs/177a.jpg","86","","","","","","test","TR","5"
"","show_choice","246","434608","0.0-228.0-1.0","null","run_exp/static/images/Set 6_rs/177a.jpg","null","","","","","","test","TR",""
"","html-keyboard-response","247","435114","0.0-228.0-2.0","null","<p></p>","null","","","","","","","",""
"","image","248","436083","0.0-229.0-0.0","966.1999999284744","run_exp/static/images/Set 6_rs/121a.jpg","86","","","","","","test","TR","4"
"","show_choice","249","436587","0.0-229.0-1.0","null","run_exp/static/images/Set 6_rs/121a.jpg","null","","","","","","test","TR",""
"","html-keyboard-response","250","437089","0.0-229.0-2.0","null","<p></p>","null","","","","","","","",""
"","image","251","439763","0.0-230.0-0.0","2671.7000000476837","run_exp/static/images/Set 6_rs/095b.jpg","66","","","","","","test","TL","5"
"","show_choice","252","440268","0.0-230.0-1.0","null","run_exp/static/images/Set 6_rs/095b.jpg","null","","","","","","test","TL",""
"","html-keyboard-response","253","440775","0.0-230.0-2.0","null","<p></p>","null","","","","","","","",""
"","image","254","442415","0.0-231.0-0.0","1638.5","run_exp/static/images/Set 6_rs/150a.jpg","86","","","","","","test","TR","1"
"","show_choice","255","442923","0.0-231.0-1.0","null","run_exp/static/images/Set 6_rs/150a.jpg","null","","","","","","test","TR",""
"","html-keyboard-response","256","443425","0.0-231.0-2.0","null","<p></p>","null","","","","","","","",""
"","image","257","444975","0.0-232.0-0.0","1548.2000000476837","run_exp/static/images/Set 6_rs/178a.jpg","86","","","","","","test","TR","3"
"","show_choice","258","445483","0.0-232.0-1.0","null","run_exp/static/images/Set 6_rs/178a.jpg","null","","","","","","test","TR",""
"","html-keyboard-response","259","445985","0.0-232.0-2.0","null","<p></p>","null","","","","","","","",""
"","image","260","447093","0.0-233.0-0.0","1106.7000000476837","run_exp/static/images/Set 6_rs/057b.jpg","86","","","","","","test","TL","1"
"","show_choice","261","447595","0.0-233.0-1.0","null","run_exp/static/images/Set 6_rs/057b.jpg","null","","","","","","test","TL",""
"","html-keyboard-response","262","448102","0.0-233.0-2.0","null","<p></p>","null","","","","","","","",""
"","image","263","449131","0.0-234.0-0.0","1027.2999999523163","run_exp/static/images/Set 6_rs/088a.jpg","86","","","","","","test","TR","2"
"","show_choice","264","449639","0.0-234.0-1.0","null","run_exp/static/images/Set 6_rs/088a.jpg","null","","","","","","test","TR",""
"","html-keyboard-response","265","450142","0.0-234.0-2.0","null","<p></p>","null","","","","","","","",""
"","image","266","452076","0.0-235.0-0.0","1931.2999999523163","run_exp/static/images/Set 6_rs/079b.jpg","78","","","","","","test","TL","5"
"","show_choice","267","452583","0.0-235.0-1.0","null","run_exp/static/images/Set 6_rs/079b.jpg","null","","","","","","test","TL",""
"","html-keyboard-response","268","453085","0.0-235.0-2.0","null","<p></p>","null","","","","","","","",""
"","image","269","454801","0.0-236.0-0.0","1712.6000000238419","run_exp/static/images/Set 6_rs/132a.jpg","86","","","","","","test","TR","5"
"","show_choice","270","455304","0.0-236.0-1.0","null","run_exp/static/images/Set 6_rs/132a.jpg","null","","","","","","test","TR",""
"","html-keyboard-response","271","455807","0.0-236.0-2.0","null","<p></p>","null","","","","","","","",""
"","image","272","458122","0.0-237.0-0.0","2313.8000000715256","run_exp/static/images/Set 6_rs/028a.jpg","78","","","","","","test","TF","1"
"","show_choice","273","458628","0.0-237.0-1.0","null","run_exp/static/images/Set 6_rs/028a.jpg","null","","","","","","test","TF",""
"","html-keyboard-response","274","459130","0.0-237.0-2.0","null","<p></p>","null","","","","","","","",""
"","image","275","460351","0.0-238.0-0.0","1218.7000000476837","run_exp/static/images/Set 6_rs/129b.jpg","86","","","","","","test","TL","1"
"","show_choice","276","460858","0.0-238.0-1.0","null","run_exp/static/images/Set 6_rs/129b.jpg","null","","","","","","test","TL",""
"","html-keyboard-response","277","461363","0.0-238.0-2.0","null","<p></p>","null","","","","","","","",""
"","image","278","463502","0.0-239.0-0.0","2136.7000000476837","run_exp/static/images/Set 6_rs/108a.jpg","86","","","","","","test","TR","5"
"","show_choice","279","464004","0.0-239.0-1.0","null","run_exp/static/images/Set 6_rs/108a.jpg","null","","","","","","test","TR",""
"","html-keyboard-response","280","464509","0.0-239.0-2.0","null","<p></p>","null","","","","","","","",""
"","image","281","466836","0.0-240.0-0.0","2325.3000000715256","run_exp/static/images/Set 6_rs/089b.jpg","86","","","","","","test","TL","4"
"","show_choice","282","467344","0.0-240.0-1.0","null","run_exp/static/images/Set 6_rs/089b.jpg","null","","","","","","test","TL",""
"","html-keyboard-response","283","467847","0.0-240.0-2.0","null","<p></p>","null","","","","","","","",""
"","image","284","469554","0.0-241.0-0.0","1704.6999999284744","run_exp/static/images/Set 6_rs/090a.jpg","66","","","","","","test","TF","5"
"","show_choice","285","470061","0.0-241.0-1.0","null","run_exp/static/images/Set 6_rs/090a.jpg","null","","","","","","test","TF",""
"","html-keyboard-response","286","470564","0.0-241.0-2.0","null","<p></p>","null","","","","","","","",""
"","image","287","471897","0.0-242.0-0.0","1330.7999999523163","run_exp/static/images/Set 6_rs/065a.jpg","86","","","","","","test","TF","3"
"","show_choice","288","472404","0.0-242.0-1.0","null","run_exp/static/images/Set 6_rs/065a.jpg","null","","","","","","test","TF",""
"","html-keyboard-response","289","472906","0.0-242.0-2.0","null","<p></p>","null","","","","","","","",""
"","image","290","472957","0.0-243.0-0.0","47.299999952316284","run_exp/static/images/Set 6_rs/070a.jpg","78","","","","","","test","TR","2"
"","show_choice","291","473464","0.0-243.0-1.0","null","run_exp/static/images/Set 6_rs/070a.jpg","null","","","","","","test","TR",""
"","html-keyboard-response","292","473973","0.0-243.0-2.0","null","<p></p>","null","","","","","","","",""
"","image","293","475149","0.0-244.0-0.0","1173.6999999284744","run_exp/static/images/Set 6_rs/091b.jpg","86","","","","","","test","TL","3"
"","show_choice","294","475651","0.0-244.0-1.0","null","run_exp/static/images/Set 6_rs/091b.jpg","null","","","","","","test","TL",""
"","html-keyboard-response","295","476154","0.0-244.0-2.0","null","<p></p>","null","","","","","","","",""
"","image","296","477510","0.0-245.0-0.0","1353.2999999523163","run_exp/static/images/Set 6_rs/061a.jpg","86","","","","","","test","TR","5"
"","show_choice","297","478017","0.0-245.0-1.0","null","run_exp/static/images/Set 6_rs/061a.jpg","null","","","","","","test","TR",""
"","html-keyboard-response","298","478524","0.0-245.0-2.0","null","<p></p>","null","","","","","","","",""
"","image","299","479323","0.0-246.0-0.0","796.7999999523163","run_exp/static/images/Set 6_rs/166a.jpg","86","","","","","","test","TR","1"
"","show_choice","300","479830","0.0-246.0-1.0","null","run_exp/static/images/Set 6_rs/166a.jpg","null","","","","","","test","TR",""
"","html-keyboard-response","301","480335","0.0-246.0-2.0","null","<p></p>","null","","","","","","","",""
"","image","302","481747","0.0-247.0-0.0","1410","run_exp/static/images/Set 6_rs/078a.jpg","78","","","","","","test","TF","1"
"","show_choice","303","482249","0.0-247.0-1.0","null","run_exp/static/images/Set 6_rs/078a.jpg","null","","","","","","test","TF",""
"","html-keyboard-response","304","482758","0.0-247.0-2.0","null","<p></p>","null","","","","","","","",""
"","image","305","483719","0.0-248.0-0.0","958.7000000476837","run_exp/static/images/Set 6_rs/063a.jpg","86","","","","","","test","TR","2"
"","show_choice","306","484223","0.0-248.0-1.0","null","run_exp/static/images/Set 6_rs/063a.jpg","null","","","","","","test","TR",""
"","html-keyboard-response","307","484730","0.0-248.0-2.0","null","<p></p>","null","","","","","","","",""
"","image","308","485520","0.0-249.0-0.0","788.1000000238419","run_exp/static/images/Set 6_rs/011a.jpg","78","","","","","","test","TF","3"
"","show_choice","309","486028","0.0-249.0-1.0","null","run_exp/static/images/Set 6_rs/011a.jpg","null","","","","","","test","TF",""
"","html-keyboard-response","310","486529","0.0-249.0-2.0","null","<p></p>","null","","","","","","","",""
"","image","311","487641","0.0-250.0-0.0","1109.2999999523163","run_exp/static/images/Set 6_rs/077a.jpg","86","","","","","","test","TF","3"
"","show_choice","312","488143","0.0-250.0-1.0","null","run_exp/static/images/Set 6_rs/077a.jpg","null","","","","","","test","TF",""
"","html-keyboard-response","313","488648","0.0-250.0-2.0","null","<p></p>","null","","","","","","","",""
"","image","314","488668","0.0-251.0-0.0","17.399999976158142","run_exp/static/images/Set 6_rs/168b.jpg","78","","","","","","test","TL","3"
"","show_choice","315","489175","0.0-251.0-1.0","null","run_exp/static/images/Set 6_rs/168b.jpg","null","","","","","","test","TL",""
"","html-keyboard-response","316","489677","0.0-251.0-2.0","null","<p></p>","null","","","","","","","",""
"","image","317","489772","0.0-252.0-0.0","93.89999997615814","run_exp/static/images/Set 6_rs/141a.jpg","78","","","","","","test","TR","2"
"","show_choice","318","490278","0.0-252.0-1.0","null","run_exp/static/images/Set 6_rs/141a.jpg","null","","","","","","test","TR",""
"","html-keyboard-response","319","490785","0.0-252.0-2.0","null","<p></p>","null","","","","","","","",""
"","image","320","492152","0.0-253.0-0.0","1364.9000000953674","run_exp/static/images/Set 6_rs/112a.jpg","86","","","","","","test","TR","5"
"","show_choice","321","492659","0.0-253.0-1.0","null","run_exp/static/images/Set 6_rs/112a.jpg","null","","","","","","test","TR",""
"","html-keyboard-response","322","493161","0.0-253.0-2.0","null","<p></p>","null","","","","","","","",""
"","image","323","494710","0.0-254.0-0.0","1547.2000000476837","run_exp/static/images/Set 6_rs/050b.jpg","78","","","","","","test","TL","3"
"","show_choice","324","495218","0.0-254.0-1.0","null","run_exp/static/images/Set 6_rs/050b.jpg","null","","","","","","test","TL",""
"","html-keyboard-response","325","495726","0.0-254.0-2.0","null","<p></p>","null","","","","","","","",""
"","image","326","495975","0.0-255.0-0.0","245.80000007152557","run_exp/static/images/Set 6_rs/181b.jpg","66","","","","","","test","TL","1"
"","show_choice","327","496482","0.0-255.0-1.0","null","run_exp/static/images/Set 6_rs/181b.jpg","null","","","","","","test","TL",""
"","html-keyboard-response","328","496986","0.0-255.0-2.0","null","<p></p>","null","","","","","","","",""
"","image","329","498468","0.0-256.0-0.0","1480.1000000238419","run_exp/static/images/Set 6_rs/064a.jpg","86","","","","","","test","TR","5"
"","show_choice","330","498970","0.0-256.0-1.0","null","run_exp/static/images/Set 6_rs/064a.jpg","null","","","","","","test","TR",""
"","html-keyboard-response","331","499474","0.0-256.0-2.0","null","<p></p>","null","","","","","","","",""
"","image","332","501659","0.0-257.0-0.0","2182.899999976158","run_exp/static/images/Set 6_rs/133a.jpg","78","","","","","","test","TF","4"
"","show_choice","333","502164","0.0-257.0-1.0","null","run_exp/static/images/Set 6_rs/133a.jpg","null","","","","","","test","TF",""
"","html-keyboard-response","334","502668","0.0-257.0-2.0","null","<p></p>","null","","","","","","","",""
"","image","335","503251","0.0-258.0-0.0","579.5999999046326","run_exp/static/images/Set 6_rs/024a.jpg","78","","","","","","test","TR","5"
"","show_choice","336","503752","0.0-258.0-1.0","null","run_exp/static/images/Set 6_rs/024a.jpg","null","","","","","","test","TR",""
"","html-keyboard-response","337","504258","0.0-258.0-2.0","null","<p></p>","null","","","","","","","",""
"","image","338","504520","0.0-259.0-0.0","259.89999997615814","run_exp/static/images/Set 6_rs/055b.jpg","78","","","","","","test","TL","4"
"","show_choice","339","505023","0.0-259.0-1.0","null","run_exp/static/images/Set 6_rs/055b.jpg","null","","","","","","test","TL",""
"","html-keyboard-response","340","505524","0.0-259.0-2.0","null","<p></p>","null","","","","","","","",""
"","image","341","506866","0.0-260.0-0.0","1340.5999999046326","run_exp/static/images/Set 6_rs/097a.jpg","66","","","","","","test","TF","5"
"","show_choice","342","507369","0.0-260.0-1.0","null","run_exp/static/images/Set 6_rs/097a.jpg","null","","","","","","test","TF",""
"","html-keyboard-response","343","507874","0.0-260.0-2.0","null","<p></p>","null","","","","","","","",""
"","image","344","508203","0.0-261.0-0.0","326.8000000715256","run_exp/static/images/Set 6_rs/076a.jpg","78","","","","","","test","TR","4"
"","show_choice","345","508710","0.0-261.0-1.0","null","run_exp/static/images/Set 6_rs/076a.jpg","null","","","","","","test","TR",""
"","html-keyboard-response","346","509216","0.0-261.0-2.0","null","<p></p>","null","","","","","","","",""
"","image","347","510354","0.0-262.0-0.0","1135.8000000715256","run_exp/static/images/Set 6_rs/155a.jpg","86","","","","","","test","TF","4"
"","show_choice","348","510859","0.0-262.0-1.0","null","run_exp/static/images/Set 6_rs/155a.jpg","null","","","","","","test","TF",""
"","html-keyboard-response","349","511363","0.0-262.0-2.0","null","<p></p>","null","","","","","","","",""
"","image","350","511555","0.0-263.0-0.0","189.10000002384186","run_exp/static/images/Set 6_rs/105a.jpg","78","","","","","","test","TF","5"
"","show_choice","351","512062","0.0-263.0-1.0","null","run_exp/static/images/Set 6_rs/105a.jpg","null","","","","","","test","TF",""
"","html-keyboard-response","352","512564","0.0-263.0-2.0","null","<p></p>","null","","","","","","","",""
"","image","353","512776","0.0-264.0-0.0","209.19999992847443","run_exp/static/images/Set 6_rs/001a.jpg","78","","","","","","test","TF","1"
"","show_choice","354","513283","0.0-264.0-1.0","null","run_exp/static/images/Set 6_rs/001a.jpg","null","","","","","","test","TF",""
"","html-keyboard-response","355","513792","0.0-264.0-2.0","null","<p></p>","null","","","","","","","",""
"","image","356","514011","0.0-265.0-0.0","215.59999990463257","run_exp/static/images/Set 6_rs/152a.jpg","86","","","","","","test","TR","2"
"","show_choice","357","514513","0.0-265.0-1.0","null","run_exp/static/images/Set 6_rs/152a.jpg","null","","","","","","test","TR",""
"","html-keyboard-response","358","515022","0.0-265.0-2.0","null","<p></p>","null","","","","","","","",""
"","image","359","515152","0.0-266.0-0.0","128.5","run_exp/static/images/Set 6_rs/167b.jpg","86","","","","","","test","TL","2"
"","show_choice","360","515660","0.0-266.0-1.0","null","run_exp/static/images/Set 6_rs/167b.jpg","null","","","","","","test","TL",""
"","html-keyboard-response","361","516164","0.0-266.0-2.0","null","<p></p>","null","","","","","","","",""
"","image","362","516534","0.0-267.0-0.0","367.2999999523163","run_exp/static/images/Set 6_rs/047a.jpg","78","","","","","","test","TF","3"
"","show_choice","363","517042","0.0-267.0-1.0","null","run_exp/static/images/Set 6_rs/047a.jpg","null","","","","","","test","TF",""
"","html-keyboard-response","364","517550","0.0-267.0-2.0","null","<p></p>","null","","","","","","","",""
"","image","365","517686","0.0-268.0-0.0","132","run_exp/static/images/Set 6_rs/073b.jpg","86","","","","","","test","TL","3"
"","show_choice","366","518193","0.0-268.0-1.0","null","run_exp/static/images/Set 6_rs/073b.jpg","null","","","","","","test","TL",""
"","html-keyboard-response","367","518702","0.0-268.0-2.0","null","<p></p>","null","","","","","","","",""
"","image","368","519238","0.0-269.0-0.0","533.0999999046326","run_exp/static/images/Set 6_rs/126a.jpg","78","","","","","","test","TR","2"
"","show_choice","369","519744","0.0-269.0-1.0","null","run_exp/static/images/Set 6_rs/126a.jpg","null","","","","","","test","TR",""
"","html-keyboard-response","370","520249","0.0-269.0-2.0","null","<p></p>","null","","","","","","","",""
"","image","371","520399","0.0-270.0-0.0","147.89999997615814","run_exp/static/images/Set 6_rs/136a.jpg","78","","","","","","test","TF","4"
"","show_choice","372","520903","0.0-270.0-1.0","null","run_exp/static/images/Set 6_rs/136a.jpg","null","","","","","","test","TF",""
"","html-keyboard-response","373","521409","0.0-270.0-2.0","null","<p></p>","null","","","","","","","",""
"","image","374","522124","0.0-271.0-0.0","712.8999999761581","run_exp/static/images/Set 6_rs/144b.jpg","66","","","","","","test","TL","4"
"","show_choice","375","522626","0.0-271.0-1.0","null","run_exp/static/images/Set 6_rs/144b.jpg","null","","","","","","test","TL",""
"","html-keyboard-response","376","523133","0.0-271.0-2.0","null","<p></p>","null","","","","","","","",""
"","image","377","523363","0.0-272.0-0.0","227.89999997615814","run_exp/static/images/Set 6_rs/016b.jpg","78","","","","","","test","TL","1"
"","show_choice","378","523870","0.0-272.0-1.0","null","run_exp/static/images/Set 6_rs/016b.jpg","null","","","","","","test","TL",""
"","html-keyboard-response","379","524378","0.0-272.0-2.0","null","<p></p>","null","","","","","","","",""
"","image","380","524682","0.0-273.0-0.0","301.2999999523163","run_exp/static/images/Set 6_rs/123b.jpg","78","","","","","","test","TL","2"
"","show_choice","381","525189","0.0-273.0-1.0","null","run_exp/static/images/Set 6_rs/123b.jpg","null","","","","","","test","TL",""
"","html-keyboard-response","382","525691","0.0-273.0-2.0","null","<p></p>","null","","","","","","","",""
"","image","383","526938","0.0-274.0-0.0","1245","run_exp/static/images/Set 6_rs/045a.jpg","86","","","","","","test","TR","2"
"","show_choice","384","527440","0.0-274.0-1.0","null","run_exp/static/images/Set 6_rs/045a.jpg","null","","","","","","test","TR",""
"","html-keyboard-response","385","527947","0.0-274.0-2.0","null","<p></p>","null","","","","","","","",""
"","image","386","527994","0.0-275.0-0.0","44.200000047683716","run_exp/static/images/Set 6_rs/012a.jpg","86","","","","","","test","TR","1"
"","show_choice","387","528496","0.0-275.0-1.0","null","run_exp/static/images/Set 6_rs/012a.jpg","null","","","","","","test","TR",""
"","html-keyboard-response","388","529004","0.0-275.0-2.0","null","<p></p>","null","","","","","","","",""
"","image","389","529255","0.0-276.0-0.0","248.5","run_exp/static/images/Set 6_rs/118a.jpg","78","","","","","","test","TF","5"
"","show_choice","390","529762","0.0-276.0-1.0","null","run_exp/static/images/Set 6_rs/118a.jpg","null","","","","","","test","TF",""
"","html-keyboard-response","391","530271","0.0-276.0-2.0","null","<p></p>","null","","","","","","","",""
"","image","392","530367","0.0-277.0-0.0","93.69999992847443","run_exp/static/images/Set 6_rs/117b.jpg","66","","","","","","test","TL","5"
"","show_choice","393","530870","0.0-277.0-1.0","null","run_exp/static/images/Set 6_rs/117b.jpg","null","","","","","","test","TL",""
"","html-keyboard-response","394","531373","0.0-277.0-2.0","null","<p></p>","null","","","","","","","",""
"","image","395","532029","0.0-278.0-0.0","653.1000000238419","run_exp/static/images/Set 6_rs/085b.jpg","66","","","","","","test","TL","1"
"","show_choice","396","532536","0.0-278.0-1.0","null","run_exp/static/images/Set 6_rs/085b.jpg","null","","","","","","test","TL",""
"","html-keyboard-response","397","533038","0.0-278.0-2.0","null","<p></p>","null","","","","","","","",""
"","image","398","533130","0.0-279.0-0.0","89.19999992847443","run_exp/static/images/Set 6_rs/169a.jpg","66","","","","","","test","TR","4"
"","show_choice","399","533638","0.0-279.0-1.0","null","run_exp/static/images/Set 6_rs/169a.jpg","null","","","","","","test","TR",""
"","html-keyboard-response","400","534141","0.0-279.0-2.0","null","<p></p>","null","","","","","","","",""
"","image","401","534235","0.0-280.0-0.0","91.39999997615814","run_exp/static/images/Set 6_rs/023a.jpg","66","","","","","","test","TR","3"
"","show_choice","402","534742","0.0-280.0-1.0","null","run_exp/static/images/Set 6_rs/023a.jpg","null","","","","","","test","TR",""
"","html-keyboard-response","403","535247","0.0-280.0-2.0","null","<p></p>","null","","","","","","","",""
"","image","404","535732","0.0-281.0-0.0","483.10000002384186","run_exp/static/images/Set 6_rs/111b.jpg","78","","","","","","test","TL","3"
"","show_choice","405","536234","0.0-281.0-1.0","null","run_exp/static/images/Set 6_rs/111b.jpg","null","","","","","","test","TL",""
"","html-keyboard-response","406","536743","0.0-281.0-2.0","null","<p></p>","null","","","","","","","",""
"","image","407","537490","0.0-282.0-0.0","744.8999999761581","run_exp/static/images/Set 6_rs/116b.jpg","78","","","","","","test","TL","2"
"","show_choice","408","537994","0.0-282.0-1.0","null","run_exp/static/images/Set 6_rs/116b.jpg","null","","","","","","test","TL",""
"","html-keyboard-response","409","538503","0.0-282.0-2.0","null","<p></p>","null","","","","","","","",""
"","image","410","538831","0.0-283.0-0.0","324.90000009536743","run_exp/static/images/Set 6_rs/086a.jpg","86","","","","","","test","TF","1"
"","show_choice","411","539338","0.0-283.0-1.0","null","run_exp/static/images/Set 6_rs/086a.jpg","null","","","","","","test","TF",""
"","html-keyboard-response","412","539848","0.0-283.0-2.0","null","<p></p>","null","","","","","","","",""
"","image","413","540096","0.0-284.0-0.0","245.89999997615814","run_exp/static/images/Set 6_rs/187a.jpg","66","","","","","","test","TR","3"
"","show_choice","414","540599","0.0-284.0-1.0","null","run_exp/static/images/Set 6_rs/187a.jpg","null","","","","","","test","TR",""
"","html-keyboard-response","415","541103","0.0-284.0-2.0","null","<p></p>","null","","","","","","","",""
"","image","416","541123","0.0-285.0-0.0","17","run_exp/static/images/Set 6_rs/014b.jpg","66","","","","","","test","TL","5"
"","show_choice","417","541630","0.0-285.0-1.0","null","run_exp/static/images/Set 6_rs/014b.jpg","null","","","","","","test","TL",""
"","html-keyboard-response","418","542132","0.0-285.0-2.0","null","<p></p>","null","","","","","","","",""
"","image","419","542293","0.0-286.0-0.0","159","run_exp/static/images/Set 6_rs/066b.jpg","66","","","","","","test","TL","5"
"","show_choice","420","542795","0.0-286.0-1.0","null","run_exp/static/images/Set 6_rs/066b.jpg","null","","","","","","test","TL",""
"","html-keyboard-response","421","543296","0.0-286.0-2.0","null","<p></p>","null","","","","","","","",""
"","image","422","543794","0.0-287.0-0.0","495.7999999523163","run_exp/static/images/Set 6_rs/019b.jpg","86","","","","","","test","TL","2"
"","show_choice","423","544301","0.0-287.0-1.0","null","run_exp/static/images/Set 6_rs/019b.jpg","null","","","","","","test","TL",""
"","html-keyboard-response","424","544810","0.0-287.0-2.0","null","<p></p>","null","","","","","","","",""
"","image","425","545006","0.0-288.0-0.0","193.59999990463257","run_exp/static/images/Set 6_rs/154a.jpg","78","","","","","","test","TR","3"
"","show_choice","426","545513","0.0-288.0-1.0","null","run_exp/static/images/Set 6_rs/154a.jpg","null","","","","","","test","TR",""
"","html-keyboard-response","427","546020","0.0-288.0-2.0","null","<p></p>","null","","","","","","","",""
"","image","428","546354","0.0-289.0-0.0","331.39999997615814","run_exp/static/images/Set 6_rs/131a.jpg","78","","","","","","test","TR","5"
"","show_choice","429","546861","0.0-289.0-1.0","null","run_exp/static/images/Set 6_rs/131a.jpg","null","","","","","","test","TR",""
"","html-keyboard-response","430","547367","0.0-289.0-2.0","null","<p></p>","null","","","","","","","",""
"","image","431","547545","0.0-290.0-0.0","176.5","run_exp/static/images/Set 6_rs/021a.jpg","66","","","","","","test","TF","2"
"","show_choice","432","548047","0.0-290.0-1.0","null","run_exp/static/images/Set 6_rs/021a.jpg","null","","","","","","test","TF",""
"","html-keyboard-response","433","548549","0.0-290.0-2.0","null","<p></p>","null","","","","","","","",""
"","image","434","548621","0.0-291.0-0.0","69.5","run_exp/static/images/Set 6_rs/035a.jpg","78","","","","","","test","TF","4"
"","show_choice","435","549126","0.0-291.0-1.0","null","run_exp/static/images/Set 6_rs/035a.jpg","null","","","","","","test","TF",""
"","html-keyboard-response","436","549636","0.0-291.0-2.0","null","<p></p>","null","","","","","","","",""
"","image","437","549697","0.0-292.0-0.0","57.59999990463257","run_exp/static/images/Set 6_rs/109a.jpg","66","","","","","","test","TF","5"
"","show_choice","438","550201","0.0-292.0-1.0","null","run_exp/static/images/Set 6_rs/109a.jpg","null","","","","","","test","TF",""
"","html-keyboard-response","439","550706","0.0-292.0-2.0","null","<p></p>","null","","","","","","","",""
"","image","440","550793","0.0-293.0-0.0","84.80000007152557","run_exp/static/images/Set 6_rs/171a.jpg","86","","","","","","test","TF","1"
"","show_choice","441","551296","0.0-293.0-1.0","null","run_exp/static/images/Set 6_rs/171a.jpg","null","","","","","","test","TF",""
"","html-keyboard-response","442","551801","0.0-293.0-2.0","null","<p></p>","null","","","","","","","",""
"","image","443","551883","0.0-294.0-0.0","80.30000007152557","run_exp/static/images/Set 6_rs/071b.jpg","66","","","","","","test","TL","4"
"","show_choice","444","552391","0.0-294.0-1.0","null","run_exp/static/images/Set 6_rs/071b.jpg","null","","","","","","test","TL",""
"","html-keyboard-response","445","552893","0.0-294.0-2.0","null","<p></p>","null","","","","","","","",""
"","image","446","552925","0.0-295.0-0.0","29.899999976158142","run_exp/static/images/Set 6_rs/186a.jpg","86","","","","","","test","TR","5"
"","show_choice","447","553432","0.0-295.0-1.0","null","run_exp/static/images/Set 6_rs/186a.jpg","null","","","","","","test","TR",""
"","html-keyboard-response","448","553941","0.0-295.0-2.0","null","<p></p>","null","","","","","","","",""
"","image","449","553957","0.0-296.0-0.0","14.199999928474426","run_exp/static/images/Set 6_rs/170a.jpg","78","","","","","","test","TF","2"
"","show_choice","450","554459","0.0-296.0-1.0","null","run_exp/static/images/Set 6_rs/170a.jpg","null","","","","","","test","TF",""
"","html-keyboard-response","451","554962","0.0-296.0-2.0","null","<p></p>","null","","","","","","","",""
"","image","452","555366","0.0-297.0-0.0","402.40000009536743","run_exp/static/images/Set 6_rs/022a.jpg","66","","","","","","test","TF","4"
"","show_choice","453","555873","0.0-297.0-1.0","null","run_exp/static/images/Set 6_rs/022a.jpg","null","","","","","","test","TF",""
"","html-keyboard-response","454","556382","0.0-297.0-2.0","null","<p></p>","null","","","","","","","",""
"","image","455","556630","0.0-298.0-0.0","245.89999997615814","run_exp/static/images/Set 6_rs/074b.jpg","86","","","","","","test","TL","4"
"","show_choice","456","557132","0.0-298.0-1.0","null","run_exp/static/images/Set 6_rs/074b.jpg","null","","","","","","test","TL",""
"","html-keyboard-response","457","557640","0.0-298.0-2.0","null","<p></p>","null","","","","","","","",""
"","image","458","557844","0.0-299.0-0.0","201.60000002384186","run_exp/static/images/Set 6_rs/015a.jpg","86","","","","","","test","TF","4"
"","show_choice","459","558349","0.0-299.0-1.0","null","run_exp/static/images/Set 6_rs/015a.jpg","null","","","","","","test","TF",""
"","html-keyboard-response","460","558858","0.0-299.0-2.0","null","<p></p>","null","","","","","","","",""
"","image","461","559414","0.0-300.0-0.0","554","run_exp/static/images/Set 6_rs/007a.jpg","78","","","","","","test","TR","3"
"","show_choice","462","559917","0.0-300.0-1.0","null","run_exp/static/images/Set 6_rs/007a.jpg","null","","","","","","test","TR",""
"","html-keyboard-response","463","560423","0.0-300.0-2.0","null","<p></p>","null","","","","","","","",""
"","image","464","560734","0.0-301.0-0.0","309.5","run_exp/static/images/Set 6_rs/008b.jpg","66","","","","","","test","TL","2"
"","show_choice","465","561238","0.0-301.0-1.0","null","run_exp/static/images/Set 6_rs/008b.jpg","null","","","","","","test","TL",""
"","html-keyboard-response","466","561743","0.0-301.0-2.0","null","<p></p>","null","","","","","","","",""
"","image","467","561885","0.0-302.0-0.0","140.29999995231628","run_exp/static/images/Set 6_rs/191b.jpg","86","","","","","","test","TL","2"
"","show_choice","468","562390","0.0-302.0-1.0","null","run_exp/static/images/Set 6_rs/191b.jpg","null","","","","","","test","TL",""
"","html-keyboard-response","469","562897","0.0-302.0-2.0","null","<p></p>","null","","","","","","","",""
"","image","470","562922","0.0-303.0-0.0","23","run_exp/static/images/Set 6_rs/122a.jpg","66","","","","","","test","TR","5"
"","show_choice","471","563424","0.0-303.0-1.0","null","run_exp/static/images/Set 6_rs/122a.jpg","null","","","","","","test","TR",""
"","html-keyboard-response","472","563927","0.0-303.0-2.0","null","<p></p>","null","","","","","","","",""
"","image","473","563970","0.0-304.0-0.0","41.5","run_exp/static/images/Set 6_rs/100a.jpg","86","","","","","","test","TF","2"
"","show_choice","474","564471","0.0-304.0-1.0","null","run_exp/static/images/Set 6_rs/100a.jpg","null","","","","","","test","TF",""
"","html-keyboard-response","475","564980","0.0-304.0-2.0","null","<p></p>","null","","","","","","","",""
"","image","476","565154","0.0-305.0-0.0","171.19999992847443","run_exp/static/images/Set 6_rs/056a.jpg","66","","","","","","test","TF","3"
"","show_choice","477","565659","0.0-305.0-1.0","null","run_exp/static/images/Set 6_rs/056a.jpg","null","","","","","","test","TF",""
"","html-keyboard-response","478","566166","0.0-305.0-2.0","null","<p></p>","null","","","","","","","",""
"","image","479","566693","0.0-306.0-0.0","524.1999999284744","run_exp/static/images/Set 6_rs/017b.jpg","86","","","","","","test","TL","3"
"","show_choice","480","567198","0.0-306.0-1.0","null","run_exp/static/images/Set 6_rs/017b.jpg","null","","","","","","test","TL",""
"","html-keyboard-response","481","567706","0.0-306.0-2.0","null","<p></p>","null","","","","","","","",""
"","image","482","568099","0.0-307.0-0.0","390.7000000476837","run_exp/static/images/Set 6_rs/176a.jpg","78","","","","","","test","TF","4"
"","show_choice","483","568606","0.0-307.0-1.0","null","run_exp/static/images/Set 6_rs/176a.jpg","null","","","","","","test","TF",""
"","html-keyboard-response","484","569109","0.0-307.0-2.0","null","<p></p>","null","","","","","","","",""
"","image","485","569262","0.0-308.0-0.0","151.80000007152557","run_exp/static/images/Set 6_rs/036b.jpg","78","","","","","","test","TL","4"
"","show_choice","486","569765","0.0-308.0-1.0","null","run_exp/static/images/Set 6_rs/036b.jpg","null","","","","","","test","TL",""
"","html-keyboard-response","487","570272","0.0-308.0-2.0","null","<p></p>","null","","","","","","","",""
"","image","488","570392","0.0-309.0-0.0","118.10000002384186","run_exp/static/images/Set 6_rs/188a.jpg","66","","","","","","test","TF","3"
"","show_choice","489","570894","0.0-309.0-1.0","null","run_exp/static/images/Set 6_rs/188a.jpg","null","","","","","","test","TF",""
"","html-keyboard-response","490","571396","0.0-309.0-2.0","null","<p></p>","null","","","","","","","",""
"","image","491","571471","0.0-310.0-0.0","72.19999992847443","run_exp/static/images/Set 6_rs/140a.jpg","66","","","","","","test","TF","1"
"","show_choice","492","571976","0.0-310.0-1.0","null","run_exp/static/images/Set 6_rs/140a.jpg","null","","","","","","test","TF",""
"","html-keyboard-response","493","572478","0.0-310.0-2.0","null","<p></p>","null","","","","","","","",""
"","image","494","572770","0.0-311.0-0.0","288.2999999523163","run_exp/static/images/Set 6_rs/005a.jpg","86","","","","","","test","TF","5"
"","show_choice","495","573275","0.0-311.0-1.0","null","run_exp/static/images/Set 6_rs/005a.jpg","null","","","","","","test","TF",""
"","html-keyboard-response","496","573784","0.0-311.0-2.0","null","<p></p>","null","","","","","","","",""
"","image","497","575593","0.0-312.0-0.0","1806.8000000715256","run_exp/static/images/Set 6_rs/006b.jpg","86","","","","","","test","TL","2"
"","show_choice","498","576095","0.0-312.0-1.0","null","run_exp/static/images/Set 6_rs/006b.jpg","null","","","","","","test","TL",""
"","html-keyboard-response","499","576603","0.0-312.0-2.0","null","<p></p>","null","","","","","","","",""
"","image","500","576931","0.0-313.0-0.0","324.5","run_exp/static/images/Set 6_rs/149a.jpg","78","","","","","","test","TF","1"
"","show_choice","501","577433","0.0-313.0-1.0","null","run_exp/static/images/Set 6_rs/149a.jpg","null","","","","","","test","TF",""
"","html-keyboard-response","502","577934","0.0-313.0-2.0","null","<p></p>","null","","","","","","","",""
"","image","503","577973","0.0-314.0-0.0","36.700000047683716","run_exp/static/images/Set 6_rs/025b.jpg","66","","","","","","test","TL","5"
"","show_choice","504","578478","0.0-314.0-1.0","null","run_exp/static/images/Set 6_rs/025b.jpg","null","","","","","","test","TL",""
"","html-keyboard-response","505","578982","0.0-314.0-2.0","null","<p></p>","null","","","","","","","",""
"","image","506","579754","0.0-315.0-0.0","770.3000000715256","run_exp/static/images/Set 6_rs/048a.jpg","86","","","","","","test","TF","4"
"","show_choice","507","580258","0.0-315.0-1.0","null","run_exp/static/images/Set 6_rs/048a.jpg","null","","","","","","test","TF",""
"","html-keyboard-response","508","580763","0.0-315.0-2.0","null","<p></p>","null","","","","","","","",""
"","image","509","581316","0.0-316.0-0.0","551.3999999761581","run_exp/static/images/Set 6_rs/062b.jpg","66","","","","","","test","TL","1"
"","show_choice","510","581821","0.0-316.0-1.0","null","run_exp/static/images/Set 6_rs/062b.jpg","null","","","","","","test","TL",""
"","html-keyboard-response","511","582327","0.0-316.0-2.0","null","<p></p>","null","","","","","","","",""
"","image","512","582793","0.0-317.0-0.0","463.10000002384186","run_exp/static/images/Set 6_rs/134a.jpg","78","","","","","","test","TR","3"
"","show_choice","513","583295","0.0-317.0-1.0","null","run_exp/static/images/Set 6_rs/134a.jpg","null","","","","","","test","TR",""
"","html-keyboard-response","514","583797","0.0-317.0-2.0","null","<p></p>","null","","","","","","","",""
"","image","515","584537","0.0-318.0-0.0","736.7000000476837","run_exp/static/images/Set 6_rs/172a.jpg","86","","","","","","test","TR","1"
"","show_choice","516","585039","0.0-318.0-1.0","null","run_exp/static/images/Set 6_rs/172a.jpg","null","","","","","","test","TR",""
"","html-keyboard-response","517","585544","0.0-318.0-2.0","null","<p></p>","null","","","","","","","",""
"","image","518","585867","0.0-319.0-0.0","320.5","run_exp/static/images/Set 6_rs/190a.jpg","86","","","","","","test","TF","3"
"","show_choice","519","586374","0.0-319.0-1.0","null","run_exp/static/images/Set 6_rs/190a.jpg","null","","","","","","test","TF",""
"","html-keyboard-response","520","586883","0.0-319.0-2.0","null","<p></p>","null","","","","","","","",""
"","image","521","586973","0.0-320.0-0.0","86.80000007152557","run_exp/static/images/Set 6_rs/138b.jpg","78","","","","","","test","TL","1"
"","show_choice","522","587478","0.0-320.0-1.0","null","run_exp/static/images/Set 6_rs/138b.jpg","null","","","","","","test","TL",""
"","html-keyboard-response","523","587980","0.0-320.0-2.0","null","<p></p>","null","","","","","","","",""
"","image","524","590985","0.0-321.0-0.0","null","run_exp/static/images/Set 6_rs/052a.jpg","null","","","","","","test","TF","1"
"","show_choice","525","591495","0.0-321.0-1.0","null","run_exp/static/images/Set 6_rs/052a.jpg","null","","","","","","test","TF",""
"","html-keyboard-response","526","591997","0.0-321.0-2.0","null","<p></p>","null","","","","","","","",""
"","all_done","527","599049","0.0-322.0-0.0","null","run_exp/static/audio/clip_23_all_done.m4a","null","","","","","<div class='center'><p>You are finished with all three parts of the experiment! You can press the space bar to end the game now. </p></div>","","",""
"","html-keyboard-response","528","599946","0.0-322.0-1.0","895.0999999046326","<div class='center'><p>You are finished with all three parts of the experiment! You can press the space bar to end the game now. </p><div><p><b>[Press the space bar to continue]</b></p></div>","32","","","","","","","",""
