"success","trial_type","trial_index","time_elapsed","internal_node_id","rt","stimulus","key_press","subject_id","participant_id","age","gender","prompt","phase","condition","lure_bin"
"true","fullscreen","0","4616","0.0-0.0","","","","","","","","","","",""
"","pavlovia","1","4623","0.0-1.0","","","","","","","","","","",""
"","welcome","2","40400","0.0-2.0","null","run_exp/static/audio/clip_1_welcome.m4a","null","54","46","8","male","<div class='center'><p>This is your last game of the experiment! First, you'll be shown pictures of items one at a time. For each picture, you have to decide if the item is typically found indoors or outdoors.</p><p>If you think it's usually found indoors, then press <b>v</b> key on your keyboard. If you think it's usually found outdoors, then press the <b>n</b> key.There will be reminders on the screen to help you remember which keys to press. </p><p>If you're not sure whether the item is an indoor item or outdoor item, go ahead and take a guess but try your best not to skip that choice. </p></div>","","",""
"","html-keyboard-response","3","41993","0.0-3.0","1591.5","<div class='center'><p>This is your last game of the experiment! First, you'll be shown pictures of items one at a time. For each picture, you have to decide if the item is typically found indoors or outdoors.</p><p>If you think it's usually found indoors, then press <b>v</b> key on your keyboard. If you think it's usually found outdoors, then press the <b>n</b> key.There will be reminders on the screen to help you remember which keys to press. </p><p>If you're not sure whether the item is an indoor item or outdoor item, go ahead and take a guess but try your best not to skip that choice. </p><div><p><b>[Press the space bar to continue]</b></p></div>","32","","","","","","","",""
"","image","4","43910","0.0-4.0","1915.0999999940395","run_exp/static/images/Set 6_rs/010a.jpg","86","","","","","","learn","SR",""
"","show_choice","5","43996","0.0-5.0","null","run_exp/static/images/Set 6_rs/010a.jpg","null","","","","","","learn","SR",""
"","html-keyboard-response","6","44502","0.0-6.0","null","<p></p>","null","","","","","","","",""
"","image","7","46069","0.0-7.0","1564.199999988079","run_exp/static/images/Set 6_rs/112a.jpg","86","","","","","","learn","SR",""
"","show_choice","8","46506","0.0-8.0","null","run_exp/static/images/Set 6_rs/112a.jpg","null","","","","","","learn","SR",""
"","html-keyboard-response","9","47010","0.0-9.0","null","<p></p>","null","","","","","","","",""
"","image","10","48191","0.0-10.0","1179.0999999940395","run_exp/static/images/Set 6_rs/150a.jpg","86","","","","","","learn","SR",""
"","show_choice","11","49014","0.0-11.0","null","run_exp/static/images/Set 6_rs/150a.jpg","null","","","","","","learn","SR",""
"","html-keyboard-response","12","49519","0.0-12.0","null","<p></p>","null","","","","","","","",""
"","image","13","50591","0.0-13.0","1068.9000000059605","run_exp/static/images/Set 6_rs/061a.jpg","78","","","","","","learn","SR",""
"","show_choice","14","51524","0.0-14.0","null","run_exp/static/images/Set 6_rs/061a.jpg","null","","","","","","learn","SR",""
"","html-keyboard-response","15","52028","0.0-15.0","null","<p></p>","null","","","","","","","",""
"","image","16","53048","0.0-16.0","1019","run_exp/static/images/Set 6_rs/138a.jpg","78","","","","","","learn","SL",""
"","show_choice","17","54031","0.0-17.0","null","run_exp/static/images/Set 6_rs/138a.jpg","null","","","","","","learn","SL",""
"","html-keyboard-response","18","54532","0.0-18.0","null","<p></p>","null","","","","","","","",""
"","image","19","55297","0.0-19.0","762.8000000119209","run_exp/static/images/Set 6_rs/060a.jpg","86","","","","","","learn","SL",""
"","show_choice","20","56537","0.0-20.0","null","run_exp/static/images/Set 6_rs/060a.jpg","null","","","","","","learn","SL",""
"","html-keyboard-response","21","57038","0.0-21.0","null","<p></p>","null","","","","","","","",""
"","image","22","57990","0.0-22.0","950.2000000178814","run_exp/static/images/Set 6_rs/071a.jpg","78","","","","","","learn","SL",""
"","show_choice","23","59040","0.0-23.0","null","run_exp/static/images/Set 6_rs/071a.jpg","null","","","","","","learn","SL",""
"","html-keyboard-response","24","59542","0.0-24.0","null","<p></p>","null","","","","","","","",""
"","image","25","60462","0.0-25.0","917.6999999880791","run_exp/static/images/Set 6_rs/074a.jpg","78","","","","","","learn","SL",""
"","show_choice","26","61545","0.0-26.0","null","run_exp/static/images/Set 6_rs/074a.jpg","null","","","","","","learn","SL",""
"","html-keyboard-response","27","62047","0.0-27.0","null","<p></p>","null","","","","","","","",""
"","image","28","62840","0.0-28.0","792.3000000119209","run_exp/static/images/Set 6_rs/108a.jpg","78","","","","","","learn","SR",""
"","show_choice","29","64049","0.0-29.0","null","run_exp/static/images/Set 6_rs/108a.jpg","null","","","","","","learn","SR",""
"","html-keyboard-response","30","64550","0.0-30.0","null","<p></p>","null","","","","","","","",""
"","image","31","65840","0.0-31.0","1289.199999988079","run_exp/static/images/Set 6_rs/126a.jpg","78","","","","","","learn","SR",""
"","show_choice","32","66552","0.0-32.0","null","run_exp/static/images/Set 6_rs/126a.jpg","null","","","","","","learn","SR",""
"","html-keyboard-response","33","67056","0.0-33.0","null","<p></p>","null","","","","","","","",""
"","image","34","68055","0.0-34.0","997","run_exp/static/images/Set 6_rs/191a.jpg","86","","","","","","learn","SL",""
"","show_choice","35","69061","0.0-35.0","null","run_exp/static/images/Set 6_rs/191a.jpg","null","","","","","","learn","SL",""
"","html-keyboard-response","36","69562","0.0-36.0","null","<p></p>","null","","","","","","","",""
"","image","37","70558","0.0-37.0","995.0999999940395","run_exp/static/images/Set 6_rs/008a.jpg","78","","","","","","learn","SL",""
"","show_choice","38","71564","0.0-38.0","null","run_exp/static/images/Set 6_rs/008a.jpg","null","","","","","","learn","SL",""
"","html-keyboard-response","39","72065","0.0-39.0","null","<p></p>","null","","","","","","","",""
"","image","40","72911","0.0-40.0","845.5999999940395","run_exp/static/images/Set 6_rs/186a.jpg","86","","","","","","learn","SR",""
"","show_choice","41","74066","0.0-41.0","null","run_exp/static/images/Set 6_rs/186a.jpg","null","","","","","","learn","SR",""
"","html-keyboard-response","42","74567","0.0-42.0","null","<p></p>","null","","","","","","","",""
"","image","43","75470","0.0-43.0","902","run_exp/static/images/Set 6_rs/172a.jpg","78","","","","","","learn","SR",""
"","show_choice","44","76573","0.0-44.0","null","run_exp/static/images/Set 6_rs/172a.jpg","null","","","","","","learn","SR",""
"","html-keyboard-response","45","77077","0.0-45.0","null","<p></p>","null","","","","","","","",""
"","image","46","78086","0.0-46.0","1007.8000000119209","run_exp/static/images/Set 6_rs/006a.jpg","86","","","","","","learn","SL",""
"","show_choice","47","79080","0.0-47.0","null","run_exp/static/images/Set 6_rs/006a.jpg","null","","","","","","learn","SL",""
"","html-keyboard-response","48","79583","0.0-48.0","null","<p></p>","null","","","","","","","",""
"","image","49","80104","0.0-49.0","517.7000000178814","run_exp/static/images/Set 6_rs/116a.jpg","78","","","","","","learn","SL",""
"","show_choice","50","81591","0.0-50.0","null","run_exp/static/images/Set 6_rs/116a.jpg","null","","","","","","learn","SL",""
"","html-keyboard-response","51","82095","0.0-51.0","null","<p></p>","null","","","","","","","",""
"","image","52","82772","0.0-52.0","675.8999999761581","run_exp/static/images/Set 6_rs/062a.jpg","86","","","","","","learn","SL",""
"","show_choice","53","84098","0.0-53.0","null","run_exp/static/images/Set 6_rs/062a.jpg","null","","","","","","learn","SL",""
"","html-keyboard-response","54","84603","0.0-54.0","null","<p></p>","null","","","","","","","",""
"","image","55","85240","0.0-55.0","635.3000000119209","run_exp/static/images/Set 6_rs/177a.jpg","78","","","","","","learn","SR",""
"","show_choice","56","86611","0.0-56.0","null","run_exp/static/images/Set 6_rs/177a.jpg","null","","","","","","learn","SR",""
"","html-keyboard-response","57","87115","0.0-57.0","null","<p></p>","null","","","","","","","",""
"","image","58","87861","0.0-58.0","743.8000000119209","run_exp/static/images/Set 6_rs/067a.jpg","86","","","","","","learn","SL",""
"","show_choice","59","89121","0.0-59.0","null","run_exp/static/images/Set 6_rs/067a.jpg","null","","","","","","learn","SL",""
"","html-keyboard-response","60","89624","0.0-60.0","null","<p></p>","null","","","","","","","",""
"","image","61","90521","0.0-61.0","894.1000000238419","run_exp/static/images/Set 6_rs/181a.jpg","86","","","","","","learn","SL",""
"","show_choice","62","91628","0.0-62.0","null","run_exp/static/images/Set 6_rs/181a.jpg","null","","","","","","learn","SL",""
"","html-keyboard-response","63","92131","0.0-63.0","null","<p></p>","null","","","","","","","",""
"","image","64","93009","0.0-64.0","876.5","run_exp/static/images/Set 6_rs/121a.jpg","78","","","","","","learn","SR",""
"","show_choice","65","94137","0.0-65.0","null","run_exp/static/images/Set 6_rs/121a.jpg","null","","","","","","learn","SR",""
"","html-keyboard-response","66","94643","0.0-66.0","null","<p></p>","null","","","","","","","",""
"","image","67","95752","0.0-67.0","1106","run_exp/static/images/Set 6_rs/064a.jpg","86","","","","","","learn","SR",""
"","show_choice","68","96649","0.0-68.0","null","run_exp/static/images/Set 6_rs/064a.jpg","null","","","","","","learn","SR",""
"","html-keyboard-response","69","97152","0.0-69.0","null","<p></p>","null","","","","","","","",""
"","image","70","98161","0.0-70.0","1006","run_exp/static/images/Set 6_rs/012a.jpg","78","","","","","","learn","SR",""
"","show_choice","71","99158","0.0-71.0","null","run_exp/static/images/Set 6_rs/012a.jpg","null","","","","","","learn","SR",""
"","html-keyboard-response","72","99660","0.0-72.0","null","<p></p>","null","","","","","","","",""
"","image","73","100511","0.0-73.0","847.8999999761581","run_exp/static/images/Set 6_rs/073a.jpg","86","","","","","","learn","SL",""
"","show_choice","74","101666","0.0-74.0","null","run_exp/static/images/Set 6_rs/073a.jpg","null","","","","","","learn","SL",""
"","html-keyboard-response","75","102168","0.0-75.0","null","<p></p>","null","","","","","","","",""
"","image","76","103230","0.0-76.0","1059.5","run_exp/static/images/Set 6_rs/089a.jpg","86","","","","","","learn","SL",""
"","show_choice","77","104172","0.0-77.0","null","run_exp/static/images/Set 6_rs/089a.jpg","null","","","","","","learn","SL",""
"","html-keyboard-response","78","104680","0.0-78.0","null","<p></p>","null","","","","","","","",""
"","image","79","105821","0.0-79.0","1138.199999988079","run_exp/static/images/Set 6_rs/144a.jpg","78","","","","","","learn","SL",""
"","show_choice","80","106689","0.0-80.0","null","run_exp/static/images/Set 6_rs/144a.jpg","null","","","","","","learn","SL",""
"","html-keyboard-response","81","107191","0.0-81.0","null","<p></p>","null","","","","","","","",""
"","image","82","107802","0.0-82.0","608.8000000119209","run_exp/static/images/Set 6_rs/045a.jpg","86","","","","","","learn","SR",""
"","show_choice","83","109201","0.0-83.0","null","run_exp/static/images/Set 6_rs/045a.jpg","null","","","","","","learn","SR",""
"","html-keyboard-response","84","109703","0.0-84.0","null","<p></p>","null","","","","","","","",""
"","image","85","110995","0.0-85.0","1290","run_exp/static/images/Set 6_rs/066a.jpg","78","","","","","","learn","SL",""
"","show_choice","86","111708","0.0-86.0","null","run_exp/static/images/Set 6_rs/066a.jpg","null","","","","","","learn","SL",""
"","html-keyboard-response","87","112214","0.0-87.0","null","<p></p>","null","","","","","","","",""
"","image","88","113393","0.0-88.0","1174.300000011921","run_exp/static/images/Set 6_rs/076a.jpg","78","","","","","","learn","SR",""
"","show_choice","89","114222","0.0-89.0","null","run_exp/static/images/Set 6_rs/076a.jpg","null","","","","","","learn","SR",""
"","html-keyboard-response","90","114724","0.0-90.0","null","<p></p>","null","","","","","","","",""
"","image","91","115581","0.0-91.0","853.8000000119209","run_exp/static/images/Set 6_rs/075a.jpg","78","","","","","","learn","SR",""
"","show_choice","92","116729","0.0-92.0","null","run_exp/static/images/Set 6_rs/075a.jpg","null","","","","","","learn","SR",""
"","html-keyboard-response","93","117235","0.0-93.0","null","<p></p>","null","","","","","","","",""
"","image","94","118310","0.0-94.0","1071.9000000059605","run_exp/static/images/Set 6_rs/079a.jpg","86","","","","","","learn","SL",""
"","show_choice","95","119240","0.0-95.0","null","run_exp/static/images/Set 6_rs/079a.jpg","null","","","","","","learn","SL",""
"","html-keyboard-response","96","119743","0.0-96.0","null","<p></p>","null","","","","","","","",""
"","image","97","120777","0.0-97.0","1032","run_exp/static/images/Set 6_rs/167a.jpg","78","","","","","","learn","SL",""
"","show_choice","98","121749","0.0-98.0","null","run_exp/static/images/Set 6_rs/167a.jpg","null","","","","","","learn","SL",""
"","html-keyboard-response","99","122253","0.0-99.0","null","<p></p>","null","","","","","","","",""
"","image","100","123340","0.0-100.0","1085.199999988079","run_exp/static/images/Set 6_rs/129a.jpg","78","","","","","","learn","SL",""
"","show_choice","101","124257","0.0-101.0","null","run_exp/static/images/Set 6_rs/129a.jpg","null","","","","","","learn","SL",""
"","html-keyboard-response","102","124759","0.0-102.0","null","<p></p>","null","","","","","","","",""
"","image","103","125892","0.0-103.0","1128.800000011921","run_exp/static/images/Set 6_rs/178a.jpg","78","","","","","","learn","SR",""
"","show_choice","104","126767","0.0-104.0","null","run_exp/static/images/Set 6_rs/178a.jpg","null","","","","","","learn","SR",""
"","html-keyboard-response","105","127274","0.0-105.0","null","<p></p>","null","","","","","","","",""
"","image","106","128200","0.0-106.0","923.3000000119209","run_exp/static/images/Set 6_rs/091a.jpg","86","","","","","","learn","SL",""
"","show_choice","107","129280","0.0-107.0","null","run_exp/static/images/Set 6_rs/091a.jpg","null","","","","","","learn","SL",""
"","html-keyboard-response","108","129783","0.0-108.0","null","<p></p>","null","","","","","","","",""
"","image","109","130901","0.0-109.0","1116.0999999940395","run_exp/static/images/Set 6_rs/169a.jpg","78","","","","","","learn","SR",""
"","show_choice","110","131788","0.0-110.0","null","run_exp/static/images/Set 6_rs/169a.jpg","null","","","","","","learn","SR",""
"","html-keyboard-response","111","132289","0.0-111.0","null","<p></p>","null","","","","","","","",""
"","image","112","133395","0.0-112.0","1102.800000011921","run_exp/static/images/Set 6_rs/132a.jpg","78","","","","","","learn","SR",""
"","show_choice","113","134293","0.0-113.0","null","run_exp/static/images/Set 6_rs/132a.jpg","null","","","","","","learn","SR",""
"","html-keyboard-response","114","134795","0.0-114.0","null","<p></p>","null","","","","","","","",""
"","image","115","136798","0.0-115.0","null","run_exp/static/images/Set 6_rs/016a.jpg","null","","","","","","learn","SL",""
"","show_choice","116","138800","0.0-116.0","null","run_exp/static/images/blank.png","null","","","","","","learn","SL",""
"","html-keyboard-response","117","139305","0.0-117.0","null","<p></p>","null","","","","","","","",""
"","image","118","139950","0.0-118.0","642.5999999940395","run_exp/static/images/Set 6_rs/088a.jpg","86","","","","","","learn","SR",""
"","show_choice","119","141309","0.0-119.0","null","run_exp/static/images/Set 6_rs/088a.jpg","null","","","","","","learn","SR",""
"","html-keyboard-response","120","141813","0.0-120.0","null","<p></p>","null","","","","","","","",""
"","image","121","143820","0.0-121.0","null","run_exp/static/images/Set 6_rs/148a.jpg","null","","","","","","learn","SR",""
"","show_choice","122","145826","0.0-122.0","null","run_exp/static/images/blank.png","null","","","","","","learn","SR",""
"","html-keyboard-response","123","146330","0.0-123.0","null","<p></p>","null","","","","","","","",""
"","image","124","147329","0.0-124.0","996.3000000119209","run_exp/static/images/Set 6_rs/095a.jpg","86","","","","","","learn","SL",""
"","show_choice","125","148339","0.0-125.0","null","run_exp/static/images/Set 6_rs/095a.jpg","null","","","","","","learn","SL",""
"","html-keyboard-response","126","148841","0.0-126.0","null","<p></p>","null","","","","","","","",""
"","image","127","150846","0.0-127.0","null","run_exp/static/images/Set 6_rs/141a.jpg","null","","","","","","learn","SR",""
"","show_choice","128","152853","0.0-128.0","null","run_exp/static/images/blank.png","null","","","","","","learn","SR",""
"","html-keyboard-response","129","153355","0.0-129.0","null","<p></p>","null","","","","","","","",""
"","image","130","155361","0.0-130.0","null","run_exp/static/images/Set 6_rs/057a.jpg","null","","","","","","learn","SL",""
"","show_choice","131","157366","0.0-131.0","null","run_exp/static/images/blank.png","null","","","","","","learn","SL",""
"","html-keyboard-response","132","157870","0.0-132.0","null","<p></p>","null","","","","","","","",""
"","image","133","158557","0.0-133.0","685.1999999880791","run_exp/static/images/Set 6_rs/134a.jpg","86","","","","","","learn","SR",""
"","show_choice","134","159877","0.0-134.0","null","run_exp/static/images/Set 6_rs/134a.jpg","null","","","","","","learn","SR",""
"","html-keyboard-response","135","160379","0.0-135.0","null","<p></p>","null","","","","","","","",""
"","image","136","161334","0.0-136.0","953.1000000238419","run_exp/static/images/Set 6_rs/123a.jpg","78","","","","","","learn","SL",""
"","show_choice","137","162388","0.0-137.0","null","run_exp/static/images/Set 6_rs/123a.jpg","null","","","","","","learn","SL",""
"","html-keyboard-response","138","162894","0.0-138.0","null","<p></p>","null","","","","","","","",""
"","image","139","164103","0.0-139.0","1205.6000000238419","run_exp/static/images/Set 6_rs/168a.jpg","86","","","","","","learn","SL",""
"","show_choice","140","164900","0.0-140.0","null","run_exp/static/images/Set 6_rs/168a.jpg","null","","","","","","learn","SL",""
"","html-keyboard-response","141","165405","0.0-141.0","null","<p></p>","null","","","","","","","",""
"","image","142","166254","0.0-142.0","844.7999999821186","run_exp/static/images/Set 6_rs/131a.jpg","78","","","","","","learn","SR",""
"","show_choice","143","167411","0.0-143.0","null","run_exp/static/images/Set 6_rs/131a.jpg","null","","","","","","learn","SR",""
"","html-keyboard-response","144","167913","0.0-144.0","null","<p></p>","null","","","","","","","",""
"","image","145","168968","0.0-145.0","1051.9000000059605","run_exp/static/images/Set 6_rs/017a.jpg","78","","","","","","learn","SL",""
"","show_choice","146","169920","0.0-146.0","null","run_exp/static/images/Set 6_rs/017a.jpg","null","","","","","","learn","SL",""
"","html-keyboard-response","147","170425","0.0-147.0","null","<p></p>","null","","","","","","","",""
"","image","148","171411","0.0-148.0","983.6999999880791","run_exp/static/images/Set 6_rs/024a.jpg","86","","","","","","learn","SR",""
"","show_choice","149","172429","0.0-149.0","null","run_exp/static/images/Set 6_rs/024a.jpg","null","","","","","","learn","SR",""
"","html-keyboard-response","150","172931","0.0-150.0","null","<p></p>","null","","","","","","","",""
"","image","151","173726","0.0-151.0","792.7000000178814","run_exp/static/images/Set 6_rs/166a.jpg","78","","","","","","learn","SR",""
"","show_choice","152","174936","0.0-152.0","null","run_exp/static/images/Set 6_rs/166a.jpg","null","","","","","","learn","SR",""
"","html-keyboard-response","153","175441","0.0-153.0","null","<p></p>","null","","","","","","","",""
"","image","154","176300","0.0-154.0","857.5","run_exp/static/images/Set 6_rs/111a.jpg","86","","","","","","learn","SL",""
"","show_choice","155","177449","0.0-155.0","null","run_exp/static/images/Set 6_rs/111a.jpg","null","","","","","","learn","SL",""
"","html-keyboard-response","156","177954","0.0-156.0","null","<p></p>","null","","","","","","","",""
"","image","157","178650","0.0-157.0","693","run_exp/static/images/Set 6_rs/122a.jpg","78","","","","","","learn","SR",""
"","show_choice","158","179960","0.0-158.0","null","run_exp/static/images/Set 6_rs/122a.jpg","null","","","","","","learn","SR",""
"","html-keyboard-response","159","180463","0.0-159.0","null","<p></p>","null","","","","","","","",""
"","image","160","181283","0.0-160.0","817.4000000059605","run_exp/static/images/Set 6_rs/117a.jpg","86","","","","","","learn","SL",""
"","show_choice","161","182467","0.0-161.0","null","run_exp/static/images/Set 6_rs/117a.jpg","null","","","","","","learn","SL",""
"","html-keyboard-response","162","182971","0.0-162.0","null","<p></p>","null","","","","","","","",""
"","image","163","183742","0.0-163.0","768.5999999940395","run_exp/static/images/Set 6_rs/055a.jpg","86","","","","","","learn","SL",""
"","show_choice","164","184977","0.0-164.0","null","run_exp/static/images/Set 6_rs/055a.jpg","null","","","","","","learn","SL",""
"","html-keyboard-response","165","185481","0.0-165.0","null","<p></p>","null","","","","","","","",""
"","image","166","186118","0.0-166.0","635.3999999761581","run_exp/static/images/Set 6_rs/063a.jpg","78","","","","","","learn","SR",""
"","show_choice","167","187487","0.0-167.0","null","run_exp/static/images/Set 6_rs/063a.jpg","null","","","","","","learn","SR",""
"","html-keyboard-response","168","187991","0.0-168.0","null","<p></p>","null","","","","","","","",""
"","image","169","188527","0.0-169.0","533.7000000178814","run_exp/static/images/Set 6_rs/154a.jpg","86","","","","","","learn","SR",""
"","show_choice","170","189995","0.0-170.0","null","run_exp/static/images/Set 6_rs/154a.jpg","null","","","","","","learn","SR",""
"","html-keyboard-response","171","190500","0.0-171.0","null","<p></p>","null","","","","","","","",""
"","image","172","191362","0.0-172.0","859.1999999880791","run_exp/static/images/Set 6_rs/152a.jpg","86","","","","","","learn","SR",""
"","show_choice","173","192507","0.0-173.0","null","run_exp/static/images/Set 6_rs/152a.jpg","null","","","","","","learn","SR",""
"","html-keyboard-response","174","193015","0.0-174.0","null","<p></p>","null","","","","","","","",""
"","image","175","193897","0.0-175.0","880","run_exp/static/images/Set 6_rs/085a.jpg","86","","","","","","learn","SL",""
"","show_choice","176","195021","0.0-176.0","null","run_exp/static/images/Set 6_rs/085a.jpg","null","","","","","","learn","SL",""
"","html-keyboard-response","177","195526","0.0-177.0","null","<p></p>","null","","","","","","","",""
"","image","178","196060","0.0-178.0","530.1999999880791","run_exp/static/images/Set 6_rs/007a.jpg","78","","","","","","learn","SR",""
"","show_choice","179","197533","0.0-179.0","null","run_exp/static/images/Set 6_rs/007a.jpg","null","","","","","","learn","SR",""
"","html-keyboard-response","180","198041","0.0-180.0","null","<p></p>","null","","","","","","","",""
"","image","181","198168","0.0-181.0","123.2000000178814","run_exp/static/images/Set 6_rs/023a.jpg","86","","","","","","learn","SR",""
"","show_choice","182","200046","0.0-182.0","null","run_exp/static/images/Set 6_rs/023a.jpg","null","","","","","","learn","SR",""
"","html-keyboard-response","183","200553","0.0-183.0","null","<p></p>","null","","","","","","","",""
"","image","184","201495","0.0-184.0","937.5","run_exp/static/images/Set 6_rs/036a.jpg","86","","","","","","learn","SL",""
"","show_choice","185","202563","0.0-185.0","null","run_exp/static/images/Set 6_rs/036a.jpg","null","","","","","","learn","SL",""
"","html-keyboard-response","186","203066","0.0-186.0","null","<p></p>","null","","","","","","","",""
"","image","187","203659","0.0-187.0","590.5999999940395","run_exp/static/images/Set 6_rs/025a.jpg","78","","","","","","learn","SL",""
"","show_choice","188","205071","0.0-188.0","null","run_exp/static/images/Set 6_rs/025a.jpg","null","","","","","","learn","SL",""
"","html-keyboard-response","189","205577","0.0-189.0","null","<p></p>","null","","","","","","","",""
"","image","190","206755","0.0-190.0","1174.5","run_exp/static/images/Set 6_rs/187a.jpg","86","","","","","","learn","SR",""
"","show_choice","191","207582","0.0-191.0","null","run_exp/static/images/Set 6_rs/187a.jpg","null","","","","","","learn","SR",""
"","html-keyboard-response","192","208087","0.0-192.0","null","<p></p>","null","","","","","","","",""
"","image","193","208748","0.0-193.0","659.0999999940395","run_exp/static/images/Set 6_rs/019a.jpg","86","","","","","","learn","SL",""
"","show_choice","194","210093","0.0-194.0","null","run_exp/static/images/Set 6_rs/019a.jpg","null","","","","","","learn","SL",""
"","html-keyboard-response","195","210595","0.0-195.0","null","<p></p>","null","","","","","","","",""
"","test_intro","196","252079","0.0-196.0","null","run_exp/static/audio/clip_2_memory.m4a","null","","","","","<div class='center'><p>Now, let’s see how much you remember about the items you just saw.  For each item, you need to indicate if it was <b>old</b> by pressing the <b>v</b> key, <b>similar</b> by pressing the <b>b</b> key, or <b>new</b> by pressing the <b>n</b> key.</p><p>Old refers to an item that you saw before in the indoor/outdoor game that you just played, new refers to an item you have <b>not</b> seen before within the indoor/outdoor game, and similar refers to an item that is similar to an item you’ve seen before but is not exactly the same. </p><p>Before we begin, let’s go over some brief demonstrations to make sure you understand.</p></div>","","",""
"","html-keyboard-response","197","252877","0.0-197.0","795.3000000119209","<div class='center'><p>Now, let’s see how much you remember about the items you just saw.  For each item, you need to indicate if it was <b>old</b> by pressing the <b>v</b> key, <b>similar</b> by pressing the <b>b</b> key, or <b>new</b> by pressing the <b>n</b> key.</p><p>Old refers to an item that you saw before in the indoor/outdoor game that you just played, new refers to an item you have <b>not</b> seen before within the indoor/outdoor game, and similar refers to an item that is similar to an item you’ve seen before but is not exactly the same. </p><p>Before we begin, let’s go over some brief demonstrations to make sure you understand.</p><div><p><b>[Press the space bar to continue]</b></p></div>","32","","","","","","","",""
"","items","198","260383","0.0-198.0","null","run_exp/static/audio/clip_3_items.m4a","null","","","","","","","",""
"","mop","199","264887","0.0-199.0","null","run_exp/static/audio/clip_4_mop.m4a","null","","","","","","","",""
"","baseball","200","268393","0.0-200.0","null","run_exp/static/audio/clip_5_baseball.m4a","null","","","","","","","",""
"","trumpet","201","271898","0.0-201.0","null","run_exp/static/audio/clip_6_trumpet.m4a","null","","","","","","","",""
"","gummies","202","275402","0.0-202.0","null","run_exp/static/audio/clip_7_gummies.m4a","null","","","","","","","",""
"","osn","203","279911","0.0-203.0","null","run_exp/static/audio/clip_8_osn.m4a","null","","","","","","","",""
"","old_1","204","286416","0.0-204.0","null","run_exp/static/audio/clip_9_old_trumpet.m4a","null","","","","","","","",""
"","new_1","205","293922","0.0-205.0","null","run_exp/static/audio/clip_10_new_balloon.m4a","null","","","","","","","",""
"","similar_1a","206","298428","0.0-206.0","null","run_exp/static/audio/clip_11a_similar_mop.m4a","null","","","","","","","",""
"","similar_1b","207","304932","0.0-207.0","null","run_exp/static/audio/clip_11b_similar_mop.m4a","null","","","","","","","",""
"","new_2","208","308439","0.0-208.0","null","run_exp/static/audio/clip_12_new_stoplight.m4a","null","","","","","","","",""
"","old_2","209","311946","0.0-209.0","null","run_exp/static/audio/clip_13_old_baseball.m4a","null","","","","","","","",""
"","similar_2a","210","315454","0.0-210.0","null","run_exp/static/audio/clip_14a_similar_gummies.m4a","null","","","","","","","",""
"","similar_2b","211","322960","0.0-211.0","null","run_exp/static/audio/clip_14b_similar_gummies.m4a","null","","","","","","","",""
"","practice","212","338754","0.0-212.0","null","run_exp/static/audio/clip_15_practice.m4a","null","","","","","<div class='center'><p>Ok, let’s practice a little to make sure you understand the difference between new, similar, and old. Let’s say you saw these three items in the indoor/outdoor game. Study these because you’ll be tested on them soon in this practice game. </p><p><img src='run_exp/static/images/tutorial/test/three_indoor_outdoor.png' height='300'></p></div>","","",""
"","html-keyboard-response","213","340580","0.0-213.0","1823.8999999761581","<div class='center'><p>Ok, let’s practice a little to make sure you understand the difference between new, similar, and old. Let’s say you saw these three items in the indoor/outdoor game. Study these because you’ll be tested on them soon in this practice game. </p><p><img src='run_exp/static/images/tutorial/test/three_indoor_outdoor.png' height='300'></p><div><p><b>[Press the space bar to continue]</b></p></div>","32","","","","","","","",""
"","practice_q1","214","348094","0.0-214.0","7512.699999988079","run_exp/static/audio/clip_16_practice_question.m4a","78","","","","","","","",""
"","correct","215","350015","0.0-215.0-0.0","null","run_exp/static/audio/clip_17_correct.m4a","null","","","","","<div class='center'><p>That's correct!</p></div>","","",""
"","html-keyboard-response","216","351643","0.0-215.0-1.0","1626.7000000178814","<div class='center'><p>That's correct!</p><div><p><b>[Press the space bar to continue]</b></p></div>","32","","","","","","","",""
"","practice_q2","217","357639","0.0-215.0-2.0","5995.399999976158","run_exp/static/audio/clip_16_practice_question.m4a","66","","","","","","","",""
"","incorrect_q2","218","360695","0.0-216.0-0.0","null","run_exp/static/audio/clip_19_incorrect_old.m4a","null","","","","","<div class='center'><p>That’s incorrect. It’s old.</p></div>","","",""
"","html-keyboard-response","219","362004","0.0-216.0-1.0","1306.800000011921","<div class='center'><p>That’s incorrect. It’s old.</p><div><p><b>[Press the space bar to continue]</b></p></div>","32","","","","","","","",""
"","practice_q3","220","367164","0.0-216.0-2.0","5158.200000017881","run_exp/static/audio/clip_16_practice_question.m4a","66","","","","","","","",""
"","correct","221","369100","0.0-217.0-0.0","null","run_exp/static/audio/clip_17_correct.m4a","null","","","","","<div class='center'><p>That's correct!</p></div>","","",""
"","html-keyboard-response","222","370220","0.0-217.0-1.0","1118.9000000059605","<div class='center'><p>That's correct!</p><div><p><b>[Press the space bar to continue]</b></p></div>","32","","","","","","","",""
"","repeat","223","374952","0.0-218.0-0.0","null","run_exp/static/audio/clip_21_practice_again.m4a","null","","","","","<div class='center'><p>Oops. you missed at least one of these questions. Let's try practiceing again. </p></div>","","",""
"","html-keyboard-response","224","376101","0.0-218.0-1.0","1148.2000000178814","<div class='center'><p>Oops. you missed at least one of these questions. Let's try practiceing again. </p><div><p><b>[Press the space bar to continue]</b></p></div>","32","","","","","","","",""
"","practice_q1","225","381304","0.0-218.0-2.0","5201","run_exp/static/audio/clip_16_practice_question.m4a","78","","","","","","","",""
"","correct","226","383242","0.0-219.0-0.0","null","run_exp/static/audio/clip_17_correct.m4a","null","","","","","<div class='center'><p>That's correct!</p></div>","","",""
"","html-keyboard-response","227","384497","0.0-219.0-1.0","1253.4000000059605","<div class='center'><p>That's correct!</p><div><p><b>[Press the space bar to continue]</b></p></div>","32","","","","","","","",""
"","practice_q2","228","389664","0.0-219.0-2.0","5165.9000000059605","run_exp/static/audio/clip_16_practice_question.m4a","86","","","","","","","",""
"","correct","229","391602","0.0-220.0-0.0","null","run_exp/static/audio/clip_17_correct.m4a","null","","","","","<div class='center'><p>That's correct!</p></div>","","",""
"","html-keyboard-response","230","392616","0.0-220.0-1.0","1012.5999999940395","<div class='center'><p>That's correct!</p><div><p><b>[Press the space bar to continue]</b></p></div>","32","","","","","","","",""
"","practice_q3","231","396090","0.0-220.0-2.0","3472.5","run_exp/static/audio/clip_16_practice_question.m4a","66","","","","","","","",""
"","correct","232","398170","0.0-221.0-0.0","null","run_exp/static/audio/clip_17_correct.m4a","null","","","","","<div class='center'><p>That's correct!</p></div>","","",""
"","html-keyboard-response","233","399642","0.0-221.0-1.0","1471.0999999940395","<div class='center'><p>That's correct!</p><div><p><b>[Press the space bar to continue]</b></p></div>","32","","","","","","","",""
"","begin_text","234","414748","0.0-222.0-0.0","null","run_exp/static/audio/clip_22_begin_test.m4a","null","","","","","<div class='center'><p>Now it’s your turn. For each item, you need to indicate if the item is <b>old</b> by pressing the <b>v</b> key, <b>similar</b> by pressing the <b>b</b> key, or <b>new</b> by pressing the <b>n</b> key. </p></div>","","",""
"","html-keyboard-response","235","415146","0.0-222.0-1.0","395.69999998807907","<div class='center'><p>Now it’s your turn. For each item, you need to indicate if the item is <b>old</b> by pressing the <b>v</b> key, <b>similar</b> by pressing the <b>b</b> key, or <b>new</b> by pressing the <b>n</b> key. </p><div><p><b>[Press the space bar to continue]</b></p></div>","32","","","","","","","",""
"","image","236","417374","0.0-223.0-0.0","2225.9000000059605","run_exp/static/images/Set 6_rs/149a.jpg","78","","","","","","test","TF","1"
"","show_choice","237","417876","0.0-223.0-1.0","null","run_exp/static/images/Set 6_rs/149a.jpg","null","","","","","","test","TF",""
"","html-keyboard-response","238","418383","0.0-223.0-2.0","null","<p></p>","null","","","","","","","",""
"","image","239","420402","0.0-224.0-0.0","2017.699999988079","run_exp/static/images/Set 6_rs/017b.jpg","66","","","","","","test","TL","3"
"","show_choice","240","420905","0.0-224.0-1.0","null","run_exp/static/images/Set 6_rs/017b.jpg","null","","","","","","test","TL",""
"","html-keyboard-response","241","421412","0.0-224.0-2.0","null","<p></p>","null","","","","","","","",""
"","image","242","422545","0.0-225.0-0.0","1131.0999999940395","run_exp/static/images/Set 6_rs/170a.jpg","78","","","","","","test","TF","2"
"","show_choice","243","423049","0.0-225.0-1.0","null","run_exp/static/images/Set 6_rs/170a.jpg","null","","","","","","test","TF",""
"","html-keyboard-response","244","423551","0.0-225.0-2.0","null","<p></p>","null","","","","","","","",""
"","image","245","424803","0.0-226.0-0.0","1250.5999999940395","run_exp/static/images/Set 6_rs/065a.jpg","78","","","","","","test","TF","3"
"","show_choice","246","425308","0.0-226.0-1.0","null","run_exp/static/images/Set 6_rs/065a.jpg","null","","","","","","test","TF",""
"","html-keyboard-response","247","425815","0.0-226.0-2.0","null","<p></p>","null","","","","","","","",""
"","image","248","426746","0.0-227.0-0.0","929.3000000119209","run_exp/static/images/Set 6_rs/126a.jpg","66","","","","","","test","TR","2"
"","show_choice","249","427248","0.0-227.0-1.0","null","run_exp/static/images/Set 6_rs/126a.jpg","null","","","","","","test","TR",""
"","html-keyboard-response","250","427757","0.0-227.0-2.0","null","<p></p>","null","","","","","","","",""
"","image","251","428500","0.0-228.0-0.0","740.7999999821186","run_exp/static/images/Set 6_rs/177a.jpg","86","","","","","","test","TR","5"
"","show_choice","252","429004","0.0-228.0-1.0","null","run_exp/static/images/Set 6_rs/177a.jpg","null","","","","","","test","TR",""
"","html-keyboard-response","253","429510","0.0-228.0-2.0","null","<p></p>","null","","","","","","","",""
"","image","254","430711","0.0-229.0-0.0","1199.4000000059605","run_exp/static/images/Set 6_rs/078a.jpg","78","","","","","","test","TF","1"
"","show_choice","255","431213","0.0-229.0-1.0","null","run_exp/static/images/Set 6_rs/078a.jpg","null","","","","","","test","TF",""
"","html-keyboard-response","256","431716","0.0-229.0-2.0","null","<p></p>","null","","","","","","","",""
"","image","257","433268","0.0-230.0-0.0","1549.5999999940395","run_exp/static/images/Set 6_rs/089b.jpg","86","","","","","","test","TL","4"
"","show_choice","258","433770","0.0-230.0-1.0","null","run_exp/static/images/Set 6_rs/089b.jpg","null","","","","","","test","TL",""
"","html-keyboard-response","259","434275","0.0-230.0-2.0","null","<p></p>","null","","","","","","","",""
"","image","260","435879","0.0-231.0-0.0","1602.5","run_exp/static/images/Set 6_rs/095b.jpg","78","","","","","","test","TL","5"
"","show_choice","261","436383","0.0-231.0-1.0","null","run_exp/static/images/Set 6_rs/095b.jpg","null","","","","","","test","TL",""
"","html-keyboard-response","262","436885","0.0-231.0-2.0","null","<p></p>","null","","","","","","","",""
"","image","263","438317","0.0-232.0-0.0","1430","run_exp/static/images/Set 6_rs/131a.jpg","86","","","","","","test","TR","5"
"","show_choice","264","438822","0.0-232.0-1.0","null","run_exp/static/images/Set 6_rs/131a.jpg","null","","","","","","test","TR",""
"","html-keyboard-response","265","439328","0.0-232.0-2.0","null","<p></p>","null","","","","","","","",""
"","image","266","440413","0.0-233.0-0.0","1081.6000000238419","run_exp/static/images/Set 6_rs/028a.jpg","66","","","","","","test","TF","1"
"","show_choice","267","440915","0.0-233.0-1.0","null","run_exp/static/images/Set 6_rs/028a.jpg","null","","","","","","test","TF",""
"","html-keyboard-response","268","441420","0.0-233.0-2.0","null","<p></p>","null","","","","","","","",""
"","image","269","442729","0.0-234.0-0.0","1306.6000000238419","run_exp/static/images/Set 6_rs/171a.jpg","78","","","","","","test","TF","1"
"","show_choice","270","443235","0.0-234.0-1.0","null","run_exp/static/images/Set 6_rs/171a.jpg","null","","","","","","test","TF",""
"","html-keyboard-response","271","443737","0.0-234.0-2.0","null","<p></p>","null","","","","","","","",""
"","image","272","444657","0.0-235.0-0.0","917","run_exp/static/images/Set 6_rs/133a.jpg","78","","","","","","test","TF","4"
"","show_choice","273","445160","0.0-235.0-1.0","null","run_exp/static/images/Set 6_rs/133a.jpg","null","","","","","","test","TF",""
"","html-keyboard-response","274","445669","0.0-235.0-2.0","null","<p></p>","null","","","","","","","",""
"","image","275","446964","0.0-236.0-0.0","1293.1000000238419","run_exp/static/images/Set 6_rs/011a.jpg","78","","","","","","test","TF","3"
"","show_choice","276","447469","0.0-236.0-1.0","null","run_exp/static/images/Set 6_rs/011a.jpg","null","","","","","","test","TF",""
"","html-keyboard-response","277","447971","0.0-236.0-2.0","null","<p></p>","null","","","","","","","",""
"","image","278","449311","0.0-237.0-0.0","1337.5","run_exp/static/images/Set 6_rs/132a.jpg","86","","","","","","test","TR","5"
"","show_choice","279","449818","0.0-237.0-1.0","null","run_exp/static/images/Set 6_rs/132a.jpg","null","","","","","","test","TR",""
"","html-keyboard-response","280","450325","0.0-237.0-2.0","null","<p></p>","null","","","","","","","",""
"","image","281","451504","0.0-238.0-0.0","1175.300000011921","run_exp/static/images/Set 6_rs/138b.jpg","86","","","","","","test","TL","1"
"","show_choice","282","452009","0.0-238.0-1.0","null","run_exp/static/images/Set 6_rs/138b.jpg","null","","","","","","test","TL",""
"","html-keyboard-response","283","452513","0.0-238.0-2.0","null","<p></p>","null","","","","","","","",""
"","image","284","453765","0.0-239.0-0.0","1250.4000000059605","run_exp/static/images/Set 6_rs/091b.jpg","86","","","","","","test","TL","3"
"","show_choice","285","454267","0.0-239.0-1.0","null","run_exp/static/images/Set 6_rs/091b.jpg","null","","","","","","test","TL",""
"","html-keyboard-response","286","454773","0.0-239.0-2.0","null","<p></p>","null","","","","","","","",""
"","image","287","455831","0.0-240.0-0.0","1055.699999988079","run_exp/static/images/Set 6_rs/186a.jpg","86","","","","","","test","TR","5"
"","show_choice","288","456338","0.0-240.0-1.0","null","run_exp/static/images/Set 6_rs/186a.jpg","null","","","","","","test","TR",""
"","html-keyboard-response","289","456845","0.0-240.0-2.0","null","<p></p>","null","","","","","","","",""
"","image","290","457895","0.0-241.0-0.0","1048.4000000059605","run_exp/static/images/Set 6_rs/062b.jpg","66","","","","","","test","TL","1"
"","show_choice","291","458400","0.0-241.0-1.0","null","run_exp/static/images/Set 6_rs/062b.jpg","null","","","","","","test","TL",""
"","html-keyboard-response","292","458906","0.0-241.0-2.0","null","<p></p>","null","","","","","","","",""
"","image","293","459769","0.0-242.0-0.0","861","run_exp/static/images/Set 6_rs/061a.jpg","86","","","","","","test","TR","5"
"","show_choice","294","460271","0.0-242.0-1.0","null","run_exp/static/images/Set 6_rs/061a.jpg","null","","","","","","test","TR",""
"","html-keyboard-response","295","460777","0.0-242.0-2.0","null","<p></p>","null","","","","","","","",""
"","image","296","461519","0.0-243.0-0.0","740.5999999940395","run_exp/static/images/Set 6_rs/154a.jpg","86","","","","","","test","TR","3"
"","show_choice","297","462022","0.0-243.0-1.0","null","run_exp/static/images/Set 6_rs/154a.jpg","null","","","","","","test","TR",""
"","html-keyboard-response","298","462523","0.0-243.0-2.0","null","<p></p>","null","","","","","","","",""
"","image","299","464222","0.0-244.0-0.0","1697.5","run_exp/static/images/Set 6_rs/036b.jpg","66","","","","","","test","TL","4"
"","show_choice","300","464730","0.0-244.0-1.0","null","run_exp/static/images/Set 6_rs/036b.jpg","null","","","","","","test","TL",""
"","html-keyboard-response","301","465232","0.0-244.0-2.0","null","<p></p>","null","","","","","","","",""
"","image","302","466396","0.0-245.0-0.0","1161.0999999940395","run_exp/static/images/Set 6_rs/112a.jpg","66","","","","","","test","TR","5"
"","show_choice","303","466897","0.0-245.0-1.0","null","run_exp/static/images/Set 6_rs/112a.jpg","null","","","","","","test","TR",""
"","html-keyboard-response","304","467403","0.0-245.0-2.0","null","<p></p>","null","","","","","","","",""
"","image","305","468776","0.0-246.0-0.0","1371","run_exp/static/images/Set 6_rs/085b.jpg","86","","","","","","test","TL","1"
"","show_choice","306","469279","0.0-246.0-1.0","null","run_exp/static/images/Set 6_rs/085b.jpg","null","","","","","","test","TL",""
"","html-keyboard-response","307","469780","0.0-246.0-2.0","null","<p></p>","null","","","","","","","",""
"","image","308","471419","0.0-247.0-0.0","1637.0999999940395","run_exp/static/images/Set 6_rs/140a.jpg","86","","","","","","test","TF","1"
"","show_choice","309","471921","0.0-247.0-1.0","null","run_exp/static/images/Set 6_rs/140a.jpg","null","","","","","","test","TF",""
"","html-keyboard-response","310","472424","0.0-247.0-2.0","null","<p></p>","null","","","","","","","",""
"","image","311","473088","0.0-248.0-0.0","662.2999999821186","run_exp/static/images/Set 6_rs/008b.jpg","78","","","","","","test","TL","2"
"","show_choice","312","473592","0.0-248.0-1.0","null","run_exp/static/images/Set 6_rs/008b.jpg","null","","","","","","test","TL",""
"","html-keyboard-response","313","474098","0.0-248.0-2.0","null","<p></p>","null","","","","","","","",""
"","image","314","474953","0.0-249.0-0.0","851.1000000238419","run_exp/static/images/Set 6_rs/144b.jpg","66","","","","","","test","TL","4"
"","show_choice","315","475457","0.0-249.0-1.0","null","run_exp/static/images/Set 6_rs/144b.jpg","null","","","","","","test","TL",""
"","html-keyboard-response","316","475964","0.0-249.0-2.0","null","<p></p>","null","","","","","","","",""
"","image","317","477154","0.0-250.0-0.0","1188.4000000059605","run_exp/static/images/Set 6_rs/166a.jpg","86","","","","","","test","TR","1"
"","show_choice","318","477658","0.0-250.0-1.0","null","run_exp/static/images/Set 6_rs/166a.jpg","null","","","","","","test","TR",""
"","html-keyboard-response","319","478163","0.0-250.0-2.0","null","<p></p>","null","","","","","","","",""
"","image","320","479771","0.0-251.0-0.0","1606.2000000178814","run_exp/static/images/Set 6_rs/025b.jpg","66","","","","","","test","TL","5"
"","show_choice","321","480277","0.0-251.0-1.0","null","run_exp/static/images/Set 6_rs/025b.jpg","null","","","","","","test","TL",""
"","html-keyboard-response","322","480782","0.0-251.0-2.0","null","<p></p>","null","","","","","","","",""
"","image","323","482025","0.0-252.0-0.0","1241.1000000238419","run_exp/static/images/Set 6_rs/012a.jpg","86","","","","","","test","TR","1"
"","show_choice","324","482529","0.0-252.0-1.0","null","run_exp/static/images/Set 6_rs/012a.jpg","null","","","","","","test","TR",""
"","html-keyboard-response","325","483033","0.0-252.0-2.0","null","<p></p>","null","","","","","","","",""
"","image","326","483892","0.0-253.0-0.0","856.5999999940395","run_exp/static/images/Set 6_rs/172a.jpg","86","","","","","","test","TR","1"
"","show_choice","327","484396","0.0-253.0-1.0","null","run_exp/static/images/Set 6_rs/172a.jpg","null","","","","","","test","TR",""
"","html-keyboard-response","328","484907","0.0-253.0-2.0","null","<p></p>","null","","","","","","","",""
"","image","329","485757","0.0-254.0-0.0","847.5999999940395","run_exp/static/images/Set 6_rs/178a.jpg","86","","","","","","test","TR","3"
"","show_choice","330","486259","0.0-254.0-1.0","null","run_exp/static/images/Set 6_rs/178a.jpg","null","","","","","","test","TR",""
"","html-keyboard-response","331","486766","0.0-254.0-2.0","null","<p></p>","null","","","","","","","",""
"","image","332","487949","0.0-255.0-0.0","1179.9000000059605","run_exp/static/images/Set 6_rs/136a.jpg","66","","","","","","test","TF","4"
"","show_choice","333","488456","0.0-255.0-1.0","null","run_exp/static/images/Set 6_rs/136a.jpg","null","","","","","","test","TF",""
"","html-keyboard-response","334","488959","0.0-255.0-2.0","null","<p></p>","null","","","","","","","",""
"","image","335","489976","0.0-256.0-0.0","1014.6999999880791","run_exp/static/images/Set 6_rs/010a.jpg","78","","","","","","test","TR","5"
"","show_choice","336","490478","0.0-256.0-1.0","null","run_exp/static/images/Set 6_rs/010a.jpg","null","","","","","","test","TR",""
"","html-keyboard-response","337","490981","0.0-256.0-2.0","null","<p></p>","null","","","","","","","",""
"","image","338","492313","0.0-257.0-0.0","1329.7000000178814","run_exp/static/images/Set 6_rs/118a.jpg","78","","","","","","test","TF","5"
"","show_choice","339","492818","0.0-257.0-1.0","null","run_exp/static/images/Set 6_rs/118a.jpg","null","","","","","","test","TF",""
"","html-keyboard-response","340","493323","0.0-257.0-2.0","null","<p></p>","null","","","","","","","",""
"","image","341","494479","0.0-258.0-0.0","1153.9000000059605","run_exp/static/images/Set 6_rs/097a.jpg","78","","","","","","test","TF","5"
"","show_choice","342","494981","0.0-258.0-1.0","null","run_exp/static/images/Set 6_rs/097a.jpg","null","","","","","","test","TF",""
"","html-keyboard-response","343","495487","0.0-258.0-2.0","null","<p></p>","null","","","","","","","",""
"","image","344","496381","0.0-259.0-0.0","891.3000000119209","run_exp/static/images/Set 6_rs/086a.jpg","78","","","","","","test","TF","1"
"","show_choice","345","496883","0.0-259.0-1.0","null","run_exp/static/images/Set 6_rs/086a.jpg","null","","","","","","test","TF",""
"","html-keyboard-response","346","497387","0.0-259.0-2.0","null","<p></p>","null","","","","","","","",""
"","image","347","498795","0.0-260.0-0.0","1404.199999988079","run_exp/static/images/Set 6_rs/121a.jpg","86","","","","","","test","TR","4"
"","show_choice","348","499297","0.0-260.0-1.0","null","run_exp/static/images/Set 6_rs/121a.jpg","null","","","","","","test","TR",""
"","html-keyboard-response","349","499799","0.0-260.0-2.0","null","<p></p>","null","","","","","","","",""
"","image","350","500977","0.0-261.0-0.0","1174.199999988079","run_exp/static/images/Set 6_rs/189a.jpg","78","","","","","","test","TF","5"
"","show_choice","351","501485","0.0-261.0-1.0","null","run_exp/static/images/Set 6_rs/189a.jpg","null","","","","","","test","TF",""
"","html-keyboard-response","352","501986","0.0-261.0-2.0","null","<p></p>","null","","","","","","","",""
"","image","353","502893","0.0-262.0-0.0","903.8000000119209","run_exp/static/images/Set 6_rs/109a.jpg","86","","","","","","test","TF","5"
"","show_choice","354","503397","0.0-262.0-1.0","null","run_exp/static/images/Set 6_rs/109a.jpg","null","","","","","","test","TF",""
"","html-keyboard-response","355","503903","0.0-262.0-2.0","null","<p></p>","null","","","","","","","",""
"","image","356","505237","0.0-263.0-0.0","1331.5","run_exp/static/images/Set 6_rs/076a.jpg","86","","","","","","test","TR","4"
"","show_choice","357","505740","0.0-263.0-1.0","null","run_exp/static/images/Set 6_rs/076a.jpg","null","","","","","","test","TR",""
"","html-keyboard-response","358","506242","0.0-263.0-2.0","null","<p></p>","null","","","","","","","",""
"","image","359","507493","0.0-264.0-0.0","1248.699999988079","run_exp/static/images/Set 6_rs/141a.jpg","86","","","","","","test","TR","2"
"","show_choice","360","507995","0.0-264.0-1.0","null","run_exp/static/images/Set 6_rs/141a.jpg","null","","","","","","test","TR",""
"","html-keyboard-response","361","508499","0.0-264.0-2.0","null","<p></p>","null","","","","","","","",""
"","image","362","509338","0.0-265.0-0.0","836.0999999940395","run_exp/static/images/Set 6_rs/108a.jpg","86","","","","","","test","TR","5"
"","show_choice","363","509843","0.0-265.0-1.0","null","run_exp/static/images/Set 6_rs/108a.jpg","null","","","","","","test","TR",""
"","html-keyboard-response","364","510347","0.0-265.0-2.0","null","<p></p>","null","","","","","","","",""
"","image","365","511184","0.0-266.0-0.0","834.5999999940395","run_exp/static/images/Set 6_rs/169a.jpg","86","","","","","","test","TR","4"
"","show_choice","366","511689","0.0-266.0-1.0","null","run_exp/static/images/Set 6_rs/169a.jpg","null","","","","","","test","TR",""
"","html-keyboard-response","367","512191","0.0-266.0-2.0","null","<p></p>","null","","","","","","","",""
"","image","368","512947","0.0-267.0-0.0","754.0999999940395","run_exp/static/images/Set 6_rs/007a.jpg","86","","","","","","test","TR","3"
"","show_choice","369","513449","0.0-267.0-1.0","null","run_exp/static/images/Set 6_rs/007a.jpg","null","","","","","","test","TR",""
"","html-keyboard-response","370","513955","0.0-267.0-2.0","null","<p></p>","null","","","","","","","",""
"","image","371","515503","0.0-268.0-0.0","1544.800000011921","run_exp/static/images/Set 6_rs/055b.jpg","66","","","","","","test","TL","4"
"","show_choice","372","516006","0.0-268.0-1.0","null","run_exp/static/images/Set 6_rs/055b.jpg","null","","","","","","test","TL",""
"","html-keyboard-response","373","516509","0.0-268.0-2.0","null","<p></p>","null","","","","","","","",""
"","image","374","517678","0.0-269.0-0.0","1166.2999999821186","run_exp/static/images/Set 6_rs/073b.jpg","86","","","","","","test","TL","3"
"","show_choice","375","518181","0.0-269.0-1.0","null","run_exp/static/images/Set 6_rs/073b.jpg","null","","","","","","test","TL",""
"","html-keyboard-response","376","518684","0.0-269.0-2.0","null","<p></p>","null","","","","","","","",""
"","image","377","520157","0.0-270.0-0.0","1470.800000011921","run_exp/static/images/Set 6_rs/176a.jpg","86","","","","","","test","TF","4"
"","show_choice","378","520659","0.0-270.0-1.0","null","run_exp/static/images/Set 6_rs/176a.jpg","null","","","","","","test","TF",""
"","html-keyboard-response","379","521169","0.0-270.0-2.0","null","<p></p>","null","","","","","","","",""
"","image","380","522391","0.0-271.0-0.0","1219.5","run_exp/static/images/Set 6_rs/077a.jpg","78","","","","","","test","TF","3"
"","show_choice","381","522895","0.0-271.0-1.0","null","run_exp/static/images/Set 6_rs/077a.jpg","null","","","","","","test","TF",""
"","html-keyboard-response","382","523396","0.0-271.0-2.0","null","<p></p>","null","","","","","","","",""
"","image","383","524327","0.0-272.0-0.0","929.3000000119209","run_exp/static/images/Set 6_rs/155a.jpg","78","","","","","","test","TF","4"
"","show_choice","384","524833","0.0-272.0-1.0","null","run_exp/static/images/Set 6_rs/155a.jpg","null","","","","","","test","TF",""
"","html-keyboard-response","385","525335","0.0-272.0-2.0","null","<p></p>","null","","","","","","","",""
"","image","386","526657","0.0-273.0-0.0","1319.4000000059605","run_exp/static/images/Set 6_rs/181b.jpg","86","","","","","","test","TL","1"
"","show_choice","387","527162","0.0-273.0-1.0","null","run_exp/static/images/Set 6_rs/181b.jpg","null","","","","","","test","TL",""
"","html-keyboard-response","388","527663","0.0-273.0-2.0","null","<p></p>","null","","","","","","","",""
"","image","389","528956","0.0-274.0-0.0","1291.6000000238419","run_exp/static/images/Set 6_rs/001a.jpg","78","","","","","","test","TF","1"
"","show_choice","390","529458","0.0-274.0-1.0","null","run_exp/static/images/Set 6_rs/001a.jpg","null","","","","","","test","TF",""
"","html-keyboard-response","391","529961","0.0-274.0-2.0","null","<p></p>","null","","","","","","","",""
"","image","392","531393","0.0-275.0-0.0","1429.2999999821186","run_exp/static/images/Set 6_rs/168b.jpg","78","","","","","","test","TL","3"
"","show_choice","393","531895","0.0-275.0-1.0","null","run_exp/static/images/Set 6_rs/168b.jpg","null","","","","","","test","TL",""
"","html-keyboard-response","394","532401","0.0-275.0-2.0","null","<p></p>","null","","","","","","","",""
"","image","395","533527","0.0-276.0-0.0","1122.9000000059605","run_exp/static/images/Set 6_rs/063a.jpg","86","","","","","","test","TR","2"
"","show_choice","396","534029","0.0-276.0-1.0","null","run_exp/static/images/Set 6_rs/063a.jpg","null","","","","","","test","TR",""
"","html-keyboard-response","397","534533","0.0-276.0-2.0","null","<p></p>","null","","","","","","","",""
"","image","398","535532","0.0-277.0-0.0","996.3000000119209","run_exp/static/images/Set 6_rs/167b.jpg","86","","","","","","test","TL","2"
"","show_choice","399","536034","0.0-277.0-1.0","null","run_exp/static/images/Set 6_rs/167b.jpg","null","","","","","","test","TL",""
"","html-keyboard-response","400","536542","0.0-277.0-2.0","null","<p></p>","null","","","","","","","",""
"","image","401","537971","0.0-278.0-0.0","1426.5999999940395","run_exp/static/images/Set 6_rs/152a.jpg","86","","","","","","test","TR","2"
"","show_choice","402","538472","0.0-278.0-1.0","null","run_exp/static/images/Set 6_rs/152a.jpg","null","","","","","","test","TR",""
"","html-keyboard-response","403","538974","0.0-278.0-2.0","null","<p></p>","null","","","","","","","",""
"","image","404","540155","0.0-279.0-0.0","1179.5","run_exp/static/images/Set 6_rs/190a.jpg","78","","","","","","test","TF","3"
"","show_choice","405","540660","0.0-279.0-1.0","null","run_exp/static/images/Set 6_rs/190a.jpg","null","","","","","","test","TF",""
"","html-keyboard-response","406","541162","0.0-279.0-2.0","null","<p></p>","null","","","","","","","",""
"","image","407","542524","0.0-280.0-0.0","1359.5999999940395","run_exp/static/images/Set 6_rs/075a.jpg","86","","","","","","test","TR","1"
"","show_choice","408","543028","0.0-280.0-1.0","null","run_exp/static/images/Set 6_rs/075a.jpg","null","","","","","","test","TR",""
"","html-keyboard-response","409","543533","0.0-280.0-2.0","null","<p></p>","null","","","","","","","",""
"","image","410","544410","0.0-281.0-0.0","872.5","run_exp/static/images/Set 6_rs/035a.jpg","66","","","","","","test","TF","4"
"","show_choice","411","544912","0.0-281.0-1.0","null","run_exp/static/images/Set 6_rs/035a.jpg","null","","","","","","test","TF",""
"","html-keyboard-response","412","545413","0.0-281.0-2.0","null","<p></p>","null","","","","","","","",""
"","image","413","546657","0.0-282.0-0.0","1241.5999999940395","run_exp/static/images/Set 6_rs/016b.jpg","86","","","","","","test","TL","1"
"","show_choice","414","547159","0.0-282.0-1.0","null","run_exp/static/images/Set 6_rs/016b.jpg","null","","","","","","test","TL",""
"","html-keyboard-response","415","547662","0.0-282.0-2.0","null","<p></p>","null","","","","","","","",""
"","image","416","548933","0.0-283.0-0.0","1269","run_exp/static/images/Set 6_rs/022a.jpg","78","","","","","","test","TF","4"
"","show_choice","417","549436","0.0-283.0-1.0","null","run_exp/static/images/Set 6_rs/022a.jpg","null","","","","","","test","TF",""
"","html-keyboard-response","418","549943","0.0-283.0-2.0","null","<p></p>","null","","","","","","","",""
"","image","419","550929","0.0-284.0-0.0","983.5","run_exp/static/images/Set 6_rs/006b.jpg","86","","","","","","test","TL","2"
"","show_choice","420","551432","0.0-284.0-1.0","null","run_exp/static/images/Set 6_rs/006b.jpg","null","","","","","","test","TL",""
"","html-keyboard-response","421","551936","0.0-284.0-2.0","null","<p></p>","null","","","","","","","",""
"","image","422","553259","0.0-285.0-0.0","1319.9000000059605","run_exp/static/images/Set 6_rs/079b.jpg","66","","","","","","test","TL","5"
"","show_choice","423","553765","0.0-285.0-1.0","null","run_exp/static/images/Set 6_rs/079b.jpg","null","","","","","","test","TL",""
"","html-keyboard-response","424","554266","0.0-285.0-2.0","null","<p></p>","null","","","","","","","",""
"","image","425","555322","0.0-286.0-0.0","1053.0999999940395","run_exp/static/images/Set 6_rs/045a.jpg","86","","","","","","test","TR","2"
"","show_choice","426","555823","0.0-286.0-1.0","null","run_exp/static/images/Set 6_rs/045a.jpg","null","","","","","","test","TR",""
"","html-keyboard-response","427","556332","0.0-286.0-2.0","null","<p></p>","null","","","","","","","",""
"","image","428","557741","0.0-287.0-0.0","1406.5","run_exp/static/images/Set 6_rs/066b.jpg","66","","","","","","test","TL","5"
"","show_choice","429","558244","0.0-287.0-1.0","null","run_exp/static/images/Set 6_rs/066b.jpg","null","","","","","","test","TL",""
"","html-keyboard-response","430","558748","0.0-287.0-2.0","null","<p></p>","null","","","","","","","",""
"","image","431","559840","0.0-288.0-0.0","1089.4000000059605","run_exp/static/images/Set 6_rs/021a.jpg","78","","","","","","test","TF","2"
"","show_choice","432","560343","0.0-288.0-1.0","null","run_exp/static/images/Set 6_rs/021a.jpg","null","","","","","","test","TF",""
"","html-keyboard-response","433","560849","0.0-288.0-2.0","null","<p></p>","null","","","","","","","",""
"","image","434","561981","0.0-289.0-0.0","1129.5","run_exp/static/images/Set 6_rs/187a.jpg","86","","","","","","test","TR","3"
"","show_choice","435","562483","0.0-289.0-1.0","null","run_exp/static/images/Set 6_rs/187a.jpg","null","","","","","","test","TR",""
"","html-keyboard-response","436","562987","0.0-289.0-2.0","null","<p></p>","null","","","","","","","",""
"","image","437","564248","0.0-290.0-0.0","1257.4000000059605","run_exp/static/images/Set 6_rs/100a.jpg","78","","","","","","test","TF","2"
"","show_choice","438","564751","0.0-290.0-1.0","null","run_exp/static/images/Set 6_rs/100a.jpg","null","","","","","","test","TF",""
"","html-keyboard-response","439","565255","0.0-290.0-2.0","null","<p></p>","null","","","","","","","",""
"","image","440","566522","0.0-291.0-0.0","1265.2999999821186","run_exp/static/images/Set 6_rs/088a.jpg","66","","","","","","test","TR","2"
"","show_choice","441","567027","0.0-291.0-1.0","null","run_exp/static/images/Set 6_rs/088a.jpg","null","","","","","","test","TR",""
"","html-keyboard-response","442","567528","0.0-291.0-2.0","null","<p></p>","null","","","","","","","",""
"","image","443","568647","0.0-292.0-0.0","1116.7000000178814","run_exp/static/images/Set 6_rs/024a.jpg","86","","","","","","test","TR","5"
"","show_choice","444","569149","0.0-292.0-1.0","null","run_exp/static/images/Set 6_rs/024a.jpg","null","","","","","","test","TR",""
"","html-keyboard-response","445","569652","0.0-292.0-2.0","null","<p></p>","null","","","","","","","",""
"","image","446","570854","0.0-293.0-0.0","1199.6000000238419","run_exp/static/images/Set 6_rs/052a.jpg","78","","","","","","test","TF","1"
"","show_choice","447","571357","0.0-293.0-1.0","null","run_exp/static/images/Set 6_rs/052a.jpg","null","","","","","","test","TF",""
"","html-keyboard-response","448","571861","0.0-293.0-2.0","null","<p></p>","null","","","","","","","",""
"","image","449","572854","0.0-294.0-0.0","990.6999999880791","run_exp/static/images/Set 6_rs/123b.jpg","86","","","","","","test","TL","2"
"","show_choice","450","573359","0.0-294.0-1.0","null","run_exp/static/images/Set 6_rs/123b.jpg","null","","","","","","test","TL",""
"","html-keyboard-response","451","573864","0.0-294.0-2.0","null","<p></p>","null","","","","","","","",""
"","image","452","575411","0.0-295.0-0.0","1544.2999999821186","run_exp/static/images/Set 6_rs/188a.jpg","66","","","","","","test","TF","3"
"","show_choice","453","575916","0.0-295.0-1.0","null","run_exp/static/images/Set 6_rs/188a.jpg","null","","","","","","test","TF",""
"","html-keyboard-response","454","576420","0.0-295.0-2.0","null","<p></p>","null","","","","","","","",""
"","image","455","577647","0.0-296.0-0.0","1224.5999999940395","run_exp/static/images/Set 6_rs/105a.jpg","86","","","","","","test","TF","5"
"","show_choice","456","578152","0.0-296.0-1.0","null","run_exp/static/images/Set 6_rs/105a.jpg","null","","","","","","test","TF",""
"","html-keyboard-response","457","578655","0.0-296.0-2.0","null","<p></p>","null","","","","","","","",""
"","image","458","579541","0.0-297.0-0.0","883.6999999880791","run_exp/static/images/Set 6_rs/019b.jpg","78","","","","","","test","TL","2"
"","show_choice","459","580046","0.0-297.0-1.0","null","run_exp/static/images/Set 6_rs/019b.jpg","null","","","","","","test","TL",""
"","html-keyboard-response","460","580548","0.0-297.0-2.0","null","<p></p>","null","","","","","","","",""
"","image","461","581149","0.0-298.0-0.0","599","run_exp/static/images/Set 6_rs/047a.jpg","78","","","","","","test","TF","3"
"","show_choice","462","581651","0.0-298.0-1.0","null","run_exp/static/images/Set 6_rs/047a.jpg","null","","","","","","test","TF",""
"","html-keyboard-response","463","582157","0.0-298.0-2.0","null","<p></p>","null","","","","","","","",""
"","image","464","582870","0.0-299.0-0.0","711.5","run_exp/static/images/Set 6_rs/111b.jpg","78","","","","","","test","TL","3"
"","show_choice","465","583372","0.0-299.0-1.0","null","run_exp/static/images/Set 6_rs/111b.jpg","null","","","","","","test","TL",""
"","html-keyboard-response","466","583877","0.0-299.0-2.0","null","<p></p>","null","","","","","","","",""
"","image","467","585000","0.0-300.0-0.0","1121.300000011921","run_exp/static/images/Set 6_rs/074b.jpg","66","","","","","","test","TL","4"
"","show_choice","468","585502","0.0-300.0-1.0","null","run_exp/static/images/Set 6_rs/074b.jpg","null","","","","","","test","TL",""
"","html-keyboard-response","469","586007","0.0-300.0-2.0","null","<p></p>","null","","","","","","","",""
"","image","470","587643","0.0-301.0-0.0","1633","run_exp/static/images/Set 6_rs/122a.jpg","78","","","","","","test","TR","5"
"","show_choice","471","588145","0.0-301.0-1.0","null","run_exp/static/images/Set 6_rs/122a.jpg","null","","","","","","test","TR",""
"","html-keyboard-response","472","588650","0.0-301.0-2.0","null","<p></p>","null","","","","","","","",""
"","image","473","589650","0.0-302.0-0.0","997.4000000059605","run_exp/static/images/Set 6_rs/023a.jpg","86","","","","","","test","TR","3"
"","show_choice","474","590154","0.0-302.0-1.0","null","run_exp/static/images/Set 6_rs/023a.jpg","null","","","","","","test","TR",""
"","html-keyboard-response","475","590660","0.0-302.0-2.0","null","<p></p>","null","","","","","","","",""
"","image","476","591694","0.0-303.0-0.0","1032","run_exp/static/images/Set 6_rs/048a.jpg","78","","","","","","test","TF","4"
"","show_choice","477","592197","0.0-303.0-1.0","null","run_exp/static/images/Set 6_rs/048a.jpg","null","","","","","","test","TF",""
"","html-keyboard-response","478","592700","0.0-303.0-2.0","null","<p></p>","null","","","","","","","",""
"","image","479","593752","0.0-304.0-0.0","1048.0999999940395","run_exp/static/images/Set 6_rs/134a.jpg","86","","","","","","test","TR","3"
"","show_choice","480","594259","0.0-304.0-1.0","null","run_exp/static/images/Set 6_rs/134a.jpg","null","","","","","","test","TR",""
"","html-keyboard-response","481","594760","0.0-304.0-2.0","null","<p></p>","null","","","","","","","",""
"","image","482","595774","0.0-305.0-0.0","1012.5","run_exp/static/images/Set 6_rs/056a.jpg","66","","","","","","test","TF","3"
"","show_choice","483","596279","0.0-305.0-1.0","null","run_exp/static/images/Set 6_rs/056a.jpg","null","","","","","","test","TF",""
"","html-keyboard-response","484","596782","0.0-305.0-2.0","null","<p></p>","null","","","","","","","",""
"","image","485","597858","0.0-306.0-0.0","1073.5","run_exp/static/images/Set 6_rs/015a.jpg","86","","","","","","test","TF","4"
"","show_choice","486","598361","0.0-306.0-1.0","null","run_exp/static/images/Set 6_rs/015a.jpg","null","","","","","","test","TF",""
"","html-keyboard-response","487","598865","0.0-306.0-2.0","null","<p></p>","null","","","","","","","",""
"","image","488","600128","0.0-307.0-0.0","1259.800000011921","run_exp/static/images/Set 6_rs/116b.jpg","86","","","","","","test","TL","2"
"","show_choice","489","600630","0.0-307.0-1.0","null","run_exp/static/images/Set 6_rs/116b.jpg","null","","","","","","test","TL",""
"","html-keyboard-response","490","601136","0.0-307.0-2.0","null","<p></p>","null","","","","","","","",""
"","image","491","602410","0.0-308.0-0.0","1271.800000011921","run_exp/static/images/Set 6_rs/129b.jpg","86","","","","","","test","TL","1"
"","show_choice","492","602913","0.0-308.0-1.0","null","run_exp/static/images/Set 6_rs/129b.jpg","null","","","","","","test","TL",""
"","html-keyboard-response","493","603417","0.0-308.0-2.0","null","<p></p>","null","","","","","","","",""
"","image","494","604785","0.0-309.0-0.0","1365.9000000059605","run_exp/static/images/Set 6_rs/060b.jpg","66","","","","","","test","TL","3"
"","show_choice","495","605290","0.0-309.0-1.0","null","run_exp/static/images/Set 6_rs/060b.jpg","null","","","","","","test","TL",""
"","html-keyboard-response","496","605792","0.0-309.0-2.0","null","<p></p>","null","","","","","","","",""
"","image","497","606786","0.0-310.0-0.0","992.3000000119209","run_exp/static/images/Set 6_rs/150a.jpg","86","","","","","","test","TR","1"
"","show_choice","498","607289","0.0-310.0-1.0","null","run_exp/static/images/Set 6_rs/150a.jpg","null","","","","","","test","TR",""
"","html-keyboard-response","499","607793","0.0-310.0-2.0","null","<p></p>","null","","","","","","","",""
"","image","500","609125","0.0-311.0-0.0","1330.0999999940395","run_exp/static/images/Set 6_rs/071b.jpg","66","","","","","","test","TL","4"
"","show_choice","501","609628","0.0-311.0-1.0","null","run_exp/static/images/Set 6_rs/071b.jpg","null","","","","","","test","TL",""
"","html-keyboard-response","502","610131","0.0-311.0-2.0","null","<p></p>","null","","","","","","","",""
"","image","503","611483","0.0-312.0-0.0","1348","run_exp/static/images/Set 6_rs/090a.jpg","78","","","","","","test","TF","5"
"","show_choice","504","611988","0.0-312.0-1.0","null","run_exp/static/images/Set 6_rs/090a.jpg","null","","","","","","test","TF",""
"","html-keyboard-response","505","612492","0.0-312.0-2.0","null","<p></p>","null","","","","","","","",""
"","image","506","613717","0.0-313.0-0.0","1222.2999999821186","run_exp/static/images/Set 6_rs/117b.jpg","86","","","","","","test","TL","5"
"","show_choice","507","614219","0.0-313.0-1.0","null","run_exp/static/images/Set 6_rs/117b.jpg","null","","","","","","test","TL",""
"","html-keyboard-response","508","614725","0.0-313.0-2.0","null","<p></p>","null","","","","","","","",""
"","image","509","615829","0.0-314.0-0.0","1101.9000000059605","run_exp/static/images/Set 6_rs/148a.jpg","66","","","","","","test","TR","2"
"","show_choice","510","616338","0.0-314.0-1.0","null","run_exp/static/images/Set 6_rs/148a.jpg","null","","","","","","test","TR",""
"","html-keyboard-response","511","616839","0.0-314.0-2.0","null","<p></p>","null","","","","","","","",""
"","image","512","617847","0.0-315.0-0.0","1005.4000000059605","run_exp/static/images/Set 6_rs/191b.jpg","86","","","","","","test","TL","2"
"","show_choice","513","618352","0.0-315.0-1.0","null","run_exp/static/images/Set 6_rs/191b.jpg","null","","","","","","test","TL",""
"","html-keyboard-response","514","618854","0.0-315.0-2.0","null","<p></p>","null","","","","","","","",""
"","image","515","619821","0.0-316.0-0.0","964.1000000238419","run_exp/static/images/Set 6_rs/057b.jpg","86","","","","","","test","TL","1"
"","show_choice","516","620323","0.0-316.0-1.0","null","run_exp/static/images/Set 6_rs/057b.jpg","null","","","","","","test","TL",""
"","html-keyboard-response","517","620826","0.0-316.0-2.0","null","<p></p>","null","","","","","","","",""
"","image","518","622162","0.0-317.0-0.0","1334.2000000178814","run_exp/static/images/Set 6_rs/067b.jpg","66","","","","","","test","TL","5"
"","show_choice","519","622668","0.0-317.0-1.0","null","run_exp/static/images/Set 6_rs/067b.jpg","null","","","","","","test","TL",""
"","html-keyboard-response","520","623173","0.0-317.0-2.0","null","<p></p>","null","","","","","","","",""
"","image","521","624259","0.0-318.0-0.0","1083.7999999821186","run_exp/static/images/Set 6_rs/064a.jpg","86","","","","","","test","TR","5"
"","show_choice","522","624764","0.0-318.0-1.0","null","run_exp/static/images/Set 6_rs/064a.jpg","null","","","","","","test","TR",""
"","html-keyboard-response","523","625268","0.0-318.0-2.0","null","<p></p>","null","","","","","","","",""
"","all_done","524","632328","0.0-319.0-0.0","null","run_exp/static/audio/clip_23_all_done.m4a","null","","","","","<div class='center'><p>You are finished with all three parts of the experiment! You can press the space bar to end the game now. </p></div>","","",""
"","html-keyboard-response","525","632768","0.0-319.0-1.0","437.89999997615814","<div class='center'><p>You are finished with all three parts of the experiment! You can press the space bar to end the game now. </p><div><p><b>[Press the space bar to continue]</b></p></div>","32","","","","","","","",""
