"success","trial_type","trial_index","time_elapsed","internal_node_id","interactions","blur_events","focus_events","fullscreenenter_events","fullscreenexit_events","rt","stimulus","key_press","subject_id","participant_id","age","gender","prompt","phase","condition","lure_bin"
"true","fullscreen","0","2600","0.0-0.0","""event"",""trial"",""time""
""fullscreenenter"",""0"",""1617""
","
","
","""event"",""trial"",""time""
""fullscreenenter"",""0"",""1617""
","
","","","","","","","","","","",""
"","pavlovia","1","2603","0.0-1.0","""event"",""trial"",""time""
""fullscreenenter"",""0"",""1617""
","
","
","""event"",""trial"",""time""
""fullscreenenter"",""0"",""1617""
","
","","","","","","","","","","",""
"","welcome","2","37365","0.0-2.0","""event"",""trial"",""time""
""fullscreenenter"",""0"",""1617""
","
","
","""event"",""trial"",""time""
""fullscreenenter"",""0"",""1617""
","
","null","run_exp/static/audio/clip_1_welcome.m4a","null","2693","2430","19","Male","<div class='center'><p>Welcome to the third part of the study! First, you'll be shown pictures of items one at a time. For each picture, you have to decide if the item is typically found indoors or outdoors.</p><p>If you think it's usually found indoors, then press <b>v</b> key on your keyboard. If you think it's usually found outdoors, then press the <b>n</b> key.There will be reminders on the screen to help you remember which keys to press. </p><p>If you're not sure whether the item is an indoor item or an outdoor item, go ahead and take a guess but try your best not to skip that choice. </p></div>","","",""
"","html-keyboard-response","3","38267","0.0-3.0","""event"",""trial"",""time""
""fullscreenenter"",""0"",""1617""
","
","
","""event"",""trial"",""time""
""fullscreenenter"",""0"",""1617""
","
","900.3000000119209","<div class='center'><p>Welcome to the third part of the study! First, you'll be shown pictures of items one at a time. For each picture, you have to decide if the item is typically found indoors or outdoors.</p><p>If you think it's usually found indoors, then press <b>v</b> key on your keyboard. If you think it's usually found outdoors, then press the <b>n</b> key.There will be reminders on the screen to help you remember which keys to press. </p><p>If you're not sure whether the item is an indoor item or an outdoor item, go ahead and take a guess but try your best not to skip that choice. </p><div><p><b>[Press the space bar to continue]</b></p></div>","32","","","","","","","",""
"","image","4","39853","0.0-4.0","""event"",""trial"",""time""
""fullscreenenter"",""0"",""1617""
","
","
","""event"",""trial"",""time""
""fullscreenenter"",""0"",""1617""
","
","1584.800000011921","run_exp/static/images/Set 6_rs/007a.jpg","78","","","","","","learn","SR",""
"","show_choice","5","40279","0.0-5.0","""event"",""trial"",""time""
""fullscreenenter"",""0"",""1617""
","
","
","""event"",""trial"",""time""
""fullscreenenter"",""0"",""1617""
","
","null","run_exp/static/images/Set 6_rs/007a.jpg","null","","","","","","learn","SR",""
"","html-keyboard-response","6","40793","0.0-6.0","""event"",""trial"",""time""
""fullscreenenter"",""0"",""1617""
","
","
","""event"",""trial"",""time""
""fullscreenenter"",""0"",""1617""
","
","null","<p></p>","null","","","","","","","",""
"","image","7","42804","0.0-7.0","""event"",""trial"",""time""
""fullscreenenter"",""0"",""1617""
","
","
","""event"",""trial"",""time""
""fullscreenenter"",""0"",""1617""
","
","null","run_exp/static/images/Set 6_rs/024a.jpg","null","","","","","","learn","SR",""
"","show_choice","8","44815","0.0-8.0","""event"",""trial"",""time""
""fullscreenenter"",""0"",""1617""
","
","
","""event"",""trial"",""time""
""fullscreenenter"",""0"",""1617""
","
","null","run_exp/static/images/blank.png","null","","","","","","learn","SR",""
"","html-keyboard-response","9","45317","0.0-9.0","""event"",""trial"",""time""
""fullscreenenter"",""0"",""1617""
","
","
","""event"",""trial"",""time""
""fullscreenenter"",""0"",""1617""
","
","null","<p></p>","null","","","","","","","",""
"","image","10","46533","0.0-10.0","""event"",""trial"",""time""
""fullscreenenter"",""0"",""1617""
","
","
","""event"",""trial"",""time""
""fullscreenenter"",""0"",""1617""
","
","1214.4000000357628","run_exp/static/images/Set 6_rs/095a.jpg","86","","","","","","learn","SL",""
"","show_choice","11","47320","0.0-11.0","""event"",""trial"",""time""
""fullscreenenter"",""0"",""1617""
","
","
","""event"",""trial"",""time""
""fullscreenenter"",""0"",""1617""
","
","null","run_exp/static/images/Set 6_rs/095a.jpg","null","","","","","","learn","SL",""
"","html-keyboard-response","12","47824","0.0-12.0","""event"",""trial"",""time""
""fullscreenenter"",""0"",""1617""
","
","
","""event"",""trial"",""time""
""fullscreenenter"",""0"",""1617""
","
","null","<p></p>","null","","","","","","","",""
"","image","13","48966","0.0-13.0","""event"",""trial"",""time""
""fullscreenenter"",""0"",""1617""
","
","
","""event"",""trial"",""time""
""fullscreenenter"",""0"",""1617""
","
","1140.5","run_exp/static/images/Set 6_rs/116a.jpg","86","","","","","","learn","SL",""
"","show_choice","14","49832","0.0-14.0","""event"",""trial"",""time""
""fullscreenenter"",""0"",""1617""
","
","
","""event"",""trial"",""time""
""fullscreenenter"",""0"",""1617""
","
","null","run_exp/static/images/Set 6_rs/116a.jpg","null","","","","","","learn","SL",""
"","html-keyboard-response","15","50338","0.0-15.0","""event"",""trial"",""time""
""fullscreenenter"",""0"",""1617""
","
","
","""event"",""trial"",""time""
""fullscreenenter"",""0"",""1617""
","
","null","<p></p>","null","","","","","","","",""
"","image","16","51756","0.0-16.0","""event"",""trial"",""time""
""fullscreenenter"",""0"",""1617""
","
","
","""event"",""trial"",""time""
""fullscreenenter"",""0"",""1617""
","
","1417.4000000357628","run_exp/static/images/Set 6_rs/091a.jpg","86","","","","","","learn","SL",""
"","show_choice","17","52355","0.0-17.0","""event"",""trial"",""time""
""fullscreenenter"",""0"",""1617""
","
","
","""event"",""trial"",""time""
""fullscreenenter"",""0"",""1617""
","
","null","run_exp/static/images/Set 6_rs/091a.jpg","null","","","","","","learn","SL",""
"","html-keyboard-response","18","52856","0.0-18.0","""event"",""trial"",""time""
""fullscreenenter"",""0"",""1617""
","
","
","""event"",""trial"",""time""
""fullscreenenter"",""0"",""1617""
","
","null","<p></p>","null","","","","","","","",""
"","image","19","53972","0.0-19.0","""event"",""trial"",""time""
""fullscreenenter"",""0"",""1617""
","
","
","""event"",""trial"",""time""
""fullscreenenter"",""0"",""1617""
","
","1114.800000011921","run_exp/static/images/Set 6_rs/123a.jpg","78","","","","","","learn","SL",""
"","show_choice","20","54862","0.0-20.0","""event"",""trial"",""time""
""fullscreenenter"",""0"",""1617""
","
","
","""event"",""trial"",""time""
""fullscreenenter"",""0"",""1617""
","
","null","run_exp/static/images/Set 6_rs/123a.jpg","null","","","","","","learn","SL",""
"","html-keyboard-response","21","55365","0.0-21.0","""event"",""trial"",""time""
""fullscreenenter"",""0"",""1617""
","
","
","""event"",""trial"",""time""
""fullscreenenter"",""0"",""1617""
","
","null","<p></p>","null","","","","","","","",""
"","image","22","56661","0.0-22.0","""event"",""trial"",""time""
""fullscreenenter"",""0"",""1617""
","
","
","""event"",""trial"",""time""
""fullscreenenter"",""0"",""1617""
","
","1294.5999999642372","run_exp/static/images/Set 6_rs/016a.jpg","86","","","","","","learn","SL",""
"","show_choice","23","57373","0.0-23.0","""event"",""trial"",""time""
""fullscreenenter"",""0"",""1617""
","
","
","""event"",""trial"",""time""
""fullscreenenter"",""0"",""1617""
","
","null","run_exp/static/images/Set 6_rs/016a.jpg","null","","","","","","learn","SL",""
"","html-keyboard-response","24","57889","0.0-24.0","""event"",""trial"",""time""
""fullscreenenter"",""0"",""1617""
","
","
","""event"",""trial"",""time""
""fullscreenenter"",""0"",""1617""
","
","null","<p></p>","null","","","","","","","",""
"","image","25","59717","0.0-25.0","""event"",""trial"",""time""
""fullscreenenter"",""0"",""1617""
","
","
","""event"",""trial"",""time""
""fullscreenenter"",""0"",""1617""
","
","1826.8999999761581","run_exp/static/images/Set 6_rs/117a.jpg","86","","","","","","learn","SL",""
"","show_choice","26","59898","0.0-26.0","""event"",""trial"",""time""
""fullscreenenter"",""0"",""1617""
","
","
","""event"",""trial"",""time""
""fullscreenenter"",""0"",""1617""
","
","null","run_exp/static/images/Set 6_rs/117a.jpg","null","","","","","","learn","SL",""
"","html-keyboard-response","27","60400","0.0-27.0","""event"",""trial"",""time""
""fullscreenenter"",""0"",""1617""
","
","
","""event"",""trial"",""time""
""fullscreenenter"",""0"",""1617""
","
","null","<p></p>","null","","","","","","","",""
"","image","28","61645","0.0-28.0","""event"",""trial"",""time""
""fullscreenenter"",""0"",""1617""
","
","
","""event"",""trial"",""time""
""fullscreenenter"",""0"",""1617""
","
","1243.9000000357628","run_exp/static/images/Set 6_rs/129a.jpg","86","","","","","","learn","SL",""
"","show_choice","29","62410","0.0-29.0","""event"",""trial"",""time""
""fullscreenenter"",""0"",""1617""
","
","
","""event"",""trial"",""time""
""fullscreenenter"",""0"",""1617""
","
","null","run_exp/static/images/Set 6_rs/129a.jpg","null","","","","","","learn","SL",""
"","html-keyboard-response","30","62921","0.0-30.0","""event"",""trial"",""time""
""fullscreenenter"",""0"",""1617""
","
","
","""event"",""trial"",""time""
""fullscreenenter"",""0"",""1617""
","
","null","<p></p>","null","","","","","","","",""
"","image","31","64124","0.0-31.0","""event"",""trial"",""time""
""fullscreenenter"",""0"",""1617""
","
","
","""event"",""trial"",""time""
""fullscreenenter"",""0"",""1617""
","
","1202.3999999761581","run_exp/static/images/Set 6_rs/006a.jpg","86","","","","","","learn","SL",""
"","show_choice","32","64938","0.0-32.0","""event"",""trial"",""time""
""fullscreenenter"",""0"",""1617""
","
","
","""event"",""trial"",""time""
""fullscreenenter"",""0"",""1617""
","
","null","run_exp/static/images/Set 6_rs/006a.jpg","null","","","","","","learn","SL",""
"","html-keyboard-response","33","65454","0.0-33.0","""event"",""trial"",""time""
""fullscreenenter"",""0"",""1617""
","
","
","""event"",""trial"",""time""
""fullscreenenter"",""0"",""1617""
","
","null","<p></p>","null","","","","","","","",""
"","image","34","66581","0.0-34.0","""event"",""trial"",""time""
""fullscreenenter"",""0"",""1617""
","
","
","""event"",""trial"",""time""
""fullscreenenter"",""0"",""1617""
","
","1126.5","run_exp/static/images/Set 6_rs/191a.jpg","78","","","","","","learn","SL",""
"","show_choice","35","67455","0.0-35.0","""event"",""trial"",""time""
""fullscreenenter"",""0"",""1617""
","
","
","""event"",""trial"",""time""
""fullscreenenter"",""0"",""1617""
","
","null","run_exp/static/images/Set 6_rs/191a.jpg","null","","","","","","learn","SL",""
"","html-keyboard-response","36","67966","0.0-36.0","""event"",""trial"",""time""
""fullscreenenter"",""0"",""1617""
","
","
","""event"",""trial"",""time""
""fullscreenenter"",""0"",""1617""
","
","null","<p></p>","null","","","","","","","",""
"","image","37","69300","0.0-37.0","""event"",""trial"",""time""
""fullscreenenter"",""0"",""1617""
","
","
","""event"",""trial"",""time""
""fullscreenenter"",""0"",""1617""
","
","1333","run_exp/static/images/Set 6_rs/167a.jpg","78","","","","","","learn","SL",""
"","show_choice","38","69968","0.0-38.0","""event"",""trial"",""time""
""fullscreenenter"",""0"",""1617""
","
","
","""event"",""trial"",""time""
""fullscreenenter"",""0"",""1617""
","
","null","run_exp/static/images/Set 6_rs/167a.jpg","null","","","","","","learn","SL",""
"","html-keyboard-response","39","70474","0.0-39.0","""event"",""trial"",""time""
""fullscreenenter"",""0"",""1617""
","
","
","""event"",""trial"",""time""
""fullscreenenter"",""0"",""1617""
","
","null","<p></p>","null","","","","","","","",""
"","image","40","72133","0.0-40.0","""event"",""trial"",""time""
""fullscreenenter"",""0"",""1617""
","
","
","""event"",""trial"",""time""
""fullscreenenter"",""0"",""1617""
","
","1658.199999988079","run_exp/static/images/Set 6_rs/166a.jpg","78","","","","","","learn","SR",""
"","show_choice","41","72480","0.0-41.0","""event"",""trial"",""time""
""fullscreenenter"",""0"",""1617""
","
","
","""event"",""trial"",""time""
""fullscreenenter"",""0"",""1617""
","
","null","run_exp/static/images/Set 6_rs/166a.jpg","null","","","","","","learn","SR",""
"","html-keyboard-response","42","72996","0.0-42.0","""event"",""trial"",""time""
""fullscreenenter"",""0"",""1617""
","
","
","""event"",""trial"",""time""
""fullscreenenter"",""0"",""1617""
","
","null","<p></p>","null","","","","","","","",""
"","image","43","74925","0.0-43.0","""event"",""trial"",""time""
""fullscreenenter"",""0"",""1617""
","
","
","""event"",""trial"",""time""
""fullscreenenter"",""0"",""1617""
","
","1927.699999988079","run_exp/static/images/Set 6_rs/025a.jpg","78","","","","","","learn","SL",""
"","show_choice","44","75011","0.0-44.0","""event"",""trial"",""time""
""fullscreenenter"",""0"",""1617""
","
","
","""event"",""trial"",""time""
""fullscreenenter"",""0"",""1617""
","
","null","run_exp/static/images/Set 6_rs/025a.jpg","null","","","","","","learn","SL",""
"","html-keyboard-response","45","75514","0.0-45.0","""event"",""trial"",""time""
""fullscreenenter"",""0"",""1617""
","
","
","""event"",""trial"",""time""
""fullscreenenter"",""0"",""1617""
","
","null","<p></p>","null","","","","","","","",""
"","image","46","76676","0.0-46.0","""event"",""trial"",""time""
""fullscreenenter"",""0"",""1617""
","
","
","""event"",""trial"",""time""
""fullscreenenter"",""0"",""1617""
","
","1161.199999988079","run_exp/static/images/Set 6_rs/010a.jpg","86","","","","","","learn","SR",""
"","show_choice","47","77526","0.0-47.0","""event"",""trial"",""time""
""fullscreenenter"",""0"",""1617""
","
","
","""event"",""trial"",""time""
""fullscreenenter"",""0"",""1617""
","
","null","run_exp/static/images/Set 6_rs/010a.jpg","null","","","","","","learn","SR",""
"","html-keyboard-response","48","78029","0.0-48.0","""event"",""trial"",""time""
""fullscreenenter"",""0"",""1617""
","
","
","""event"",""trial"",""time""
""fullscreenenter"",""0"",""1617""
","
","null","<p></p>","null","","","","","","","",""
"","image","49","79676","0.0-49.0","""event"",""trial"",""time""
""fullscreenenter"",""0"",""1617""
","
","
","""event"",""trial"",""time""
""fullscreenenter"",""0"",""1617""
","
","1645.5","run_exp/static/images/Set 6_rs/064a.jpg","78","","","","","","learn","SR",""
"","show_choice","50","80043","0.0-50.0","""event"",""trial"",""time""
""fullscreenenter"",""0"",""1617""
","
","
","""event"",""trial"",""time""
""fullscreenenter"",""0"",""1617""
","
","null","run_exp/static/images/Set 6_rs/064a.jpg","null","","","","","","learn","SR",""
"","html-keyboard-response","51","80545","0.0-51.0","""event"",""trial"",""time""
""fullscreenenter"",""0"",""1617""
","
","
","""event"",""trial"",""time""
""fullscreenenter"",""0"",""1617""
","
","null","<p></p>","null","","","","","","","",""
"","image","52","82269","0.0-52.0","""event"",""trial"",""time""
""fullscreenenter"",""0"",""1617""
","
","
","""event"",""trial"",""time""
""fullscreenenter"",""0"",""1617""
","
","1722.8999999761581","run_exp/static/images/Set 6_rs/150a.jpg","78","","","","","","learn","SR",""
"","show_choice","53","82552","0.0-53.0","""event"",""trial"",""time""
""fullscreenenter"",""0"",""1617""
","
","
","""event"",""trial"",""time""
""fullscreenenter"",""0"",""1617""
","
","null","run_exp/static/images/Set 6_rs/150a.jpg","null","","","","","","learn","SR",""
"","html-keyboard-response","54","83053","0.0-54.0","""event"",""trial"",""time""
""fullscreenenter"",""0"",""1617""
","
","
","""event"",""trial"",""time""
""fullscreenenter"",""0"",""1617""
","
","null","<p></p>","null","","","","","","","",""
"","image","55","83996","0.0-55.0","""event"",""trial"",""time""
""fullscreenenter"",""0"",""1617""
","
","
","""event"",""trial"",""time""
""fullscreenenter"",""0"",""1617""
","
","942.0999999642372","run_exp/static/images/Set 6_rs/070a.jpg","86","","","","","","learn","SR",""
"","show_choice","56","85055","0.0-56.0","""event"",""trial"",""time""
""fullscreenenter"",""0"",""1617""
","
","
","""event"",""trial"",""time""
""fullscreenenter"",""0"",""1617""
","
","null","run_exp/static/images/Set 6_rs/070a.jpg","null","","","","","","learn","SR",""
"","html-keyboard-response","57","85559","0.0-57.0","""event"",""trial"",""time""
""fullscreenenter"",""0"",""1617""
","
","
","""event"",""trial"",""time""
""fullscreenenter"",""0"",""1617""
","
","null","<p></p>","null","","","","","","","",""
"","image","58","86613","0.0-58.0","""event"",""trial"",""time""
""fullscreenenter"",""0"",""1617""
","
","
","""event"",""trial"",""time""
""fullscreenenter"",""0"",""1617""
","
","1053.5","run_exp/static/images/Set 6_rs/073a.jpg","86","","","","","","learn","SL",""
"","show_choice","59","87562","0.0-59.0","""event"",""trial"",""time""
""fullscreenenter"",""0"",""1617""
","
","
","""event"",""trial"",""time""
""fullscreenenter"",""0"",""1617""
","
","null","run_exp/static/images/Set 6_rs/073a.jpg","null","","","","","","learn","SL",""
"","html-keyboard-response","60","88065","0.0-60.0","""event"",""trial"",""time""
""fullscreenenter"",""0"",""1617""
","
","
","""event"",""trial"",""time""
""fullscreenenter"",""0"",""1617""
","
","null","<p></p>","null","","","","","","","",""
"","image","61","89741","0.0-61.0","""event"",""trial"",""time""
""fullscreenenter"",""0"",""1617""
","
","
","""event"",""trial"",""time""
""fullscreenenter"",""0"",""1617""
","
","1674.300000011921","run_exp/static/images/Set 6_rs/075a.jpg","78","","","","","","learn","SR",""
"","show_choice","62","90074","0.0-62.0","""event"",""trial"",""time""
""fullscreenenter"",""0"",""1617""
","
","
","""event"",""trial"",""time""
""fullscreenenter"",""0"",""1617""
","
","null","run_exp/static/images/Set 6_rs/075a.jpg","null","","","","","","learn","SR",""
"","html-keyboard-response","63","90578","0.0-63.0","""event"",""trial"",""time""
""fullscreenenter"",""0"",""1617""
","
","
","""event"",""trial"",""time""
""fullscreenenter"",""0"",""1617""
","
","null","<p></p>","null","","","","","","","",""
"","image","64","91685","0.0-64.0","""event"",""trial"",""time""
""fullscreenenter"",""0"",""1617""
","
","
","""event"",""trial"",""time""
""fullscreenenter"",""0"",""1617""
","
","1106.0999999642372","run_exp/static/images/Set 6_rs/036a.jpg","86","","","","","","learn","SL",""
"","show_choice","65","92586","0.0-65.0","""event"",""trial"",""time""
""fullscreenenter"",""0"",""1617""
","
","
","""event"",""trial"",""time""
""fullscreenenter"",""0"",""1617""
","
","null","run_exp/static/images/Set 6_rs/036a.jpg","null","","","","","","learn","SL",""
"","html-keyboard-response","66","93094","0.0-66.0","""event"",""trial"",""time""
""fullscreenenter"",""0"",""1617""
","
","
","""event"",""trial"",""time""
""fullscreenenter"",""0"",""1617""
","
","null","<p></p>","null","","","","","","","",""
"","image","67","94165","0.0-67.0","""event"",""trial"",""time""
""fullscreenenter"",""0"",""1617""
","
","
","""event"",""trial"",""time""
""fullscreenenter"",""0"",""1617""
","
","1070.3999999761581","run_exp/static/images/Set 6_rs/132a.jpg","78","","","","","","learn","SR",""
"","show_choice","68","95102","0.0-68.0","""event"",""trial"",""time""
""fullscreenenter"",""0"",""1617""
","
","
","""event"",""trial"",""time""
""fullscreenenter"",""0"",""1617""
","
","null","run_exp/static/images/Set 6_rs/132a.jpg","null","","","","","","learn","SR",""
"","html-keyboard-response","69","95607","0.0-69.0","""event"",""trial"",""time""
""fullscreenenter"",""0"",""1617""
","
","
","""event"",""trial"",""time""
""fullscreenenter"",""0"",""1617""
","
","null","<p></p>","null","","","","","","","",""
"","image","70","96573","0.0-70.0","""event"",""trial"",""time""
""fullscreenenter"",""0"",""1617""
","
","
","""event"",""trial"",""time""
""fullscreenenter"",""0"",""1617""
","
","964.6999999880791","run_exp/static/images/Set 6_rs/177a.jpg","78","","","","","","learn","SR",""
"","show_choice","71","97615","0.0-71.0","""event"",""trial"",""time""
""fullscreenenter"",""0"",""1617""
","
","
","""event"",""trial"",""time""
""fullscreenenter"",""0"",""1617""
","
","null","run_exp/static/images/Set 6_rs/177a.jpg","null","","","","","","learn","SR",""
"","html-keyboard-response","72","98120","0.0-72.0","""event"",""trial"",""time""
""fullscreenenter"",""0"",""1617""
","
","
","""event"",""trial"",""time""
""fullscreenenter"",""0"",""1617""
","
","null","<p></p>","null","","","","","","","",""
"","image","73","99301","0.0-73.0","""event"",""trial"",""time""
""fullscreenenter"",""0"",""1617""
","
","
","""event"",""trial"",""time""
""fullscreenenter"",""0"",""1617""
","
","1180.300000011921","run_exp/static/images/Set 6_rs/017a.jpg","78","","","","","","learn","SL",""
"","show_choice","74","100127","0.0-74.0","""event"",""trial"",""time""
""fullscreenenter"",""0"",""1617""
","
","
","""event"",""trial"",""time""
""fullscreenenter"",""0"",""1617""
","
","null","run_exp/static/images/Set 6_rs/017a.jpg","null","","","","","","learn","SL",""
"","html-keyboard-response","75","100627","0.0-75.0","""event"",""trial"",""time""
""fullscreenenter"",""0"",""1617""
","
","
","""event"",""trial"",""time""
""fullscreenenter"",""0"",""1617""
","
","null","<p></p>","null","","","","","","","",""
"","image","76","101621","0.0-76.0","""event"",""trial"",""time""
""fullscreenenter"",""0"",""1617""
","
","
","""event"",""trial"",""time""
""fullscreenenter"",""0"",""1617""
","
","992.5","run_exp/static/images/Set 6_rs/076a.jpg","78","","","","","","learn","SR",""
"","show_choice","77","102633","0.0-77.0","""event"",""trial"",""time""
""fullscreenenter"",""0"",""1617""
","
","
","""event"",""trial"",""time""
""fullscreenenter"",""0"",""1617""
","
","null","run_exp/static/images/Set 6_rs/076a.jpg","null","","","","","","learn","SR",""
"","html-keyboard-response","78","103145","0.0-78.0","""event"",""trial"",""time""
""fullscreenenter"",""0"",""1617""
","
","
","""event"",""trial"",""time""
""fullscreenenter"",""0"",""1617""
","
","null","<p></p>","null","","","","","","","",""
"","image","79","104628","0.0-79.0","""event"",""trial"",""time""
""fullscreenenter"",""0"",""1617""
","
","
","""event"",""trial"",""time""
""fullscreenenter"",""0"",""1617""
","
","1482.1000000238419","run_exp/static/images/Set 6_rs/074a.jpg","78","","","","","","learn","SL",""
"","show_choice","80","105161","0.0-80.0","""event"",""trial"",""time""
""fullscreenenter"",""0"",""1617""
","
","
","""event"",""trial"",""time""
""fullscreenenter"",""0"",""1617""
","
","null","run_exp/static/images/Set 6_rs/074a.jpg","null","","","","","","learn","SL",""
"","html-keyboard-response","81","105677","0.0-81.0","""event"",""trial"",""time""
""fullscreenenter"",""0"",""1617""
","
","
","""event"",""trial"",""time""
""fullscreenenter"",""0"",""1617""
","
","null","<p></p>","null","","","","","","","",""
"","image","82","106950","0.0-82.0","""event"",""trial"",""time""
""fullscreenenter"",""0"",""1617""
","
","
","""event"",""trial"",""time""
""fullscreenenter"",""0"",""1617""
","
","1272.2999999523163","run_exp/static/images/Set 6_rs/066a.jpg","86","","","","","","learn","SL",""
"","show_choice","83","107684","0.0-83.0","""event"",""trial"",""time""
""fullscreenenter"",""0"",""1617""
","
","
","""event"",""trial"",""time""
""fullscreenenter"",""0"",""1617""
","
","null","run_exp/static/images/Set 6_rs/066a.jpg","null","","","","","","learn","SL",""
"","html-keyboard-response","84","108197","0.0-84.0","""event"",""trial"",""time""
""fullscreenenter"",""0"",""1617""
","
","
","""event"",""trial"",""time""
""fullscreenenter"",""0"",""1617""
","
","null","<p></p>","null","","","","","","","",""
"","image","85","109189","0.0-85.0","""event"",""trial"",""time""
""fullscreenenter"",""0"",""1617""
","
","
","""event"",""trial"",""time""
""fullscreenenter"",""0"",""1617""
","
","991.0999999642372","run_exp/static/images/Set 6_rs/111a.jpg","86","","","","","","learn","SL",""
"","show_choice","86","110207","0.0-86.0","""event"",""trial"",""time""
""fullscreenenter"",""0"",""1617""
","
","
","""event"",""trial"",""time""
""fullscreenenter"",""0"",""1617""
","
","null","run_exp/static/images/Set 6_rs/111a.jpg","null","","","","","","learn","SL",""
"","html-keyboard-response","87","110710","0.0-87.0","""event"",""trial"",""time""
""fullscreenenter"",""0"",""1617""
","
","
","""event"",""trial"",""time""
""fullscreenenter"",""0"",""1617""
","
","null","<p></p>","null","","","","","","","",""
"","image","88","112236","0.0-88.0","""event"",""trial"",""time""
""fullscreenenter"",""0"",""1617""
","
","
","""event"",""trial"",""time""
""fullscreenenter"",""0"",""1617""
","
","1526.0999999642372","run_exp/static/images/Set 6_rs/141a.jpg","78","","","","","","learn","SR",""
"","show_choice","89","112711","0.0-89.0","""event"",""trial"",""time""
""fullscreenenter"",""0"",""1617""
","
","
","""event"",""trial"",""time""
""fullscreenenter"",""0"",""1617""
","
","null","run_exp/static/images/Set 6_rs/141a.jpg","null","","","","","","learn","SR",""
"","html-keyboard-response","90","113215","0.0-90.0","""event"",""trial"",""time""
""fullscreenenter"",""0"",""1617""
","
","
","""event"",""trial"",""time""
""fullscreenenter"",""0"",""1617""
","
","null","<p></p>","null","","","","","","","",""
"","image","91","114197","0.0-91.0","""event"",""trial"",""time""
""fullscreenenter"",""0"",""1617""
","
","
","""event"",""trial"",""time""
""fullscreenenter"",""0"",""1617""
","
","980.5","run_exp/static/images/Set 6_rs/186a.jpg","86","","","","","","learn","SR",""
"","show_choice","92","115221","0.0-92.0","""event"",""trial"",""time""
""fullscreenenter"",""0"",""1617""
","
","
","""event"",""trial"",""time""
""fullscreenenter"",""0"",""1617""
","
","null","run_exp/static/images/Set 6_rs/186a.jpg","null","","","","","","learn","SR",""
"","html-keyboard-response","93","115721","0.0-93.0","""event"",""trial"",""time""
""fullscreenenter"",""0"",""1617""
","
","
","""event"",""trial"",""time""
""fullscreenenter"",""0"",""1617""
","
","null","<p></p>","null","","","","","","","",""
"","image","94","116701","0.0-94.0","""event"",""trial"",""time""
""fullscreenenter"",""0"",""1617""
","
","
","""event"",""trial"",""time""
""fullscreenenter"",""0"",""1617""
","
","978.8999999761581","run_exp/static/images/Set 6_rs/138a.jpg","78","","","","","","learn","SL",""
"","show_choice","95","117731","0.0-95.0","""event"",""trial"",""time""
""fullscreenenter"",""0"",""1617""
","
","
","""event"",""trial"",""time""
""fullscreenenter"",""0"",""1617""
","
","null","run_exp/static/images/Set 6_rs/138a.jpg","null","","","","","","learn","SL",""
"","html-keyboard-response","96","118233","0.0-96.0","""event"",""trial"",""time""
""fullscreenenter"",""0"",""1617""
","
","
","""event"",""trial"",""time""
""fullscreenenter"",""0"",""1617""
","
","null","<p></p>","null","","","","","","","",""
"","image","97","119132","0.0-97.0","""event"",""trial"",""time""
""fullscreenenter"",""0"",""1617""
","
","
","""event"",""trial"",""time""
""fullscreenenter"",""0"",""1617""
","
","897.7000000476837","run_exp/static/images/Set 6_rs/187a.jpg","86","","","","","","learn","SR",""
"","show_choice","98","120247","0.0-98.0","""event"",""trial"",""time""
""fullscreenenter"",""0"",""1617""
","
","
","""event"",""trial"",""time""
""fullscreenenter"",""0"",""1617""
","
","null","run_exp/static/images/Set 6_rs/187a.jpg","null","","","","","","learn","SR",""
"","html-keyboard-response","99","120748","0.0-99.0","""event"",""trial"",""time""
""fullscreenenter"",""0"",""1617""
","
","
","""event"",""trial"",""time""
""fullscreenenter"",""0"",""1617""
","
","null","<p></p>","null","","","","","","","",""
"","image","100","121948","0.0-100.0","""event"",""trial"",""time""
""fullscreenenter"",""0"",""1617""
","
","
","""event"",""trial"",""time""
""fullscreenenter"",""0"",""1617""
","
","1198.9000000357628","run_exp/static/images/Set 6_rs/088a.jpg","86","","","","","","learn","SR",""
"","show_choice","101","122756","0.0-101.0","""event"",""trial"",""time""
""fullscreenenter"",""0"",""1617""
","
","
","""event"",""trial"",""time""
""fullscreenenter"",""0"",""1617""
","
","null","run_exp/static/images/Set 6_rs/088a.jpg","null","","","","","","learn","SR",""
"","html-keyboard-response","102","123270","0.0-102.0","""event"",""trial"",""time""
""fullscreenenter"",""0"",""1617""
","
","
","""event"",""trial"",""time""
""fullscreenenter"",""0"",""1617""
","
","null","<p></p>","null","","","","","","","",""
"","image","103","124860","0.0-103.0","""event"",""trial"",""time""
""fullscreenenter"",""0"",""1617""
","
","
","""event"",""trial"",""time""
""fullscreenenter"",""0"",""1617""
","
","1589.300000011921","run_exp/static/images/Set 6_rs/168a.jpg","86","","","","","","learn","SL",""
"","show_choice","104","125280","0.0-104.0","""event"",""trial"",""time""
""fullscreenenter"",""0"",""1617""
","
","
","""event"",""trial"",""time""
""fullscreenenter"",""0"",""1617""
","
","null","run_exp/static/images/Set 6_rs/168a.jpg","null","","","","","","learn","SL",""
"","html-keyboard-response","105","125782","0.0-105.0","""event"",""trial"",""time""
""fullscreenenter"",""0"",""1617""
","
","
","""event"",""trial"",""time""
""fullscreenenter"",""0"",""1617""
","
","null","<p></p>","null","","","","","","","",""
"","image","106","126700","0.0-106.0","""event"",""trial"",""time""
""fullscreenenter"",""0"",""1617""
","
","
","""event"",""trial"",""time""
""fullscreenenter"",""0"",""1617""
","
","917.4000000357628","run_exp/static/images/Set 6_rs/055a.jpg","86","","","","","","learn","SL",""
"","show_choice","107","127794","0.0-107.0","""event"",""trial"",""time""
""fullscreenenter"",""0"",""1617""
","
","
","""event"",""trial"",""time""
""fullscreenenter"",""0"",""1617""
","
","null","run_exp/static/images/Set 6_rs/055a.jpg","null","","","","","","learn","SL",""
"","html-keyboard-response","108","128299","0.0-108.0","""event"",""trial"",""time""
""fullscreenenter"",""0"",""1617""
","
","
","""event"",""trial"",""time""
""fullscreenenter"",""0"",""1617""
","
","null","<p></p>","null","","","","","","","",""
"","image","109","129453","0.0-109.0","""event"",""trial"",""time""
""fullscreenenter"",""0"",""1617""
","
","
","""event"",""trial"",""time""
""fullscreenenter"",""0"",""1617""
","
","1153","run_exp/static/images/Set 6_rs/045a.jpg","86","","","","","","learn","SR",""
"","show_choice","110","130302","0.0-110.0","""event"",""trial"",""time""
""fullscreenenter"",""0"",""1617""
","
","
","""event"",""trial"",""time""
""fullscreenenter"",""0"",""1617""
","
","null","run_exp/static/images/Set 6_rs/045a.jpg","null","","","","","","learn","SR",""
"","html-keyboard-response","111","130806","0.0-111.0","""event"",""trial"",""time""
""fullscreenenter"",""0"",""1617""
","
","
","""event"",""trial"",""time""
""fullscreenenter"",""0"",""1617""
","
","null","<p></p>","null","","","","","","","",""
"","image","112","132781","0.0-112.0","""event"",""trial"",""time""
""fullscreenenter"",""0"",""1617""
","
","
","""event"",""trial"",""time""
""fullscreenenter"",""0"",""1617""
","
","1974.0999999642372","run_exp/static/images/Set 6_rs/063a.jpg","86","","","","","","learn","SR",""
"","show_choice","113","132807","0.0-113.0","""event"",""trial"",""time""
""fullscreenenter"",""0"",""1617""
","
","
","""event"",""trial"",""time""
""fullscreenenter"",""0"",""1617""
","
","null","run_exp/static/images/Set 6_rs/063a.jpg","null","","","","","","learn","SR",""
"","html-keyboard-response","114","133314","0.0-114.0","""event"",""trial"",""time""
""fullscreenenter"",""0"",""1617""
","
","
","""event"",""trial"",""time""
""fullscreenenter"",""0"",""1617""
","
","null","<p></p>","null","","","","","","","",""
"","image","115","134972","0.0-115.0","""event"",""trial"",""time""
""fullscreenenter"",""0"",""1617""
","
","
","""event"",""trial"",""time""
""fullscreenenter"",""0"",""1617""
","
","1656.699999988079","run_exp/static/images/Set 6_rs/126a.jpg","78","","","","","","learn","SR",""
"","show_choice","116","135316","0.0-116.0","""event"",""trial"",""time""
""fullscreenenter"",""0"",""1617""
","
","
","""event"",""trial"",""time""
""fullscreenenter"",""0"",""1617""
","
","null","run_exp/static/images/Set 6_rs/126a.jpg","null","","","","","","learn","SR",""
"","html-keyboard-response","117","135820","0.0-117.0","""event"",""trial"",""time""
""fullscreenenter"",""0"",""1617""
","
","
","""event"",""trial"",""time""
""fullscreenenter"",""0"",""1617""
","
","null","<p></p>","null","","","","","","","",""
"","image","118","136821","0.0-118.0","""event"",""trial"",""time""
""fullscreenenter"",""0"",""1617""
","
","
","""event"",""trial"",""time""
""fullscreenenter"",""0"",""1617""
","
","1000.1999999880791","run_exp/static/images/Set 6_rs/154a.jpg","86","","","","","","learn","SR",""
"","show_choice","119","137825","0.0-119.0","""event"",""trial"",""time""
""fullscreenenter"",""0"",""1617""
","
","
","""event"",""trial"",""time""
""fullscreenenter"",""0"",""1617""
","
","null","run_exp/static/images/Set 6_rs/154a.jpg","null","","","","","","learn","SR",""
"","html-keyboard-response","120","138341","0.0-120.0","""event"",""trial"",""time""
""fullscreenenter"",""0"",""1617""
","
","
","""event"",""trial"",""time""
""fullscreenenter"",""0"",""1617""
","
","null","<p></p>","null","","","","","","","",""
"","image","121","139205","0.0-121.0","""event"",""trial"",""time""
""fullscreenenter"",""0"",""1617""
","
","
","""event"",""trial"",""time""
""fullscreenenter"",""0"",""1617""
","
","862.5999999642372","run_exp/static/images/Set 6_rs/112a.jpg","86","","","","","","learn","SR",""
"","show_choice","122","140346","0.0-122.0","""event"",""trial"",""time""
""fullscreenenter"",""0"",""1617""
","
","
","""event"",""trial"",""time""
""fullscreenenter"",""0"",""1617""
","
","null","run_exp/static/images/Set 6_rs/112a.jpg","null","","","","","","learn","SR",""
"","html-keyboard-response","123","140859","0.0-123.0","""event"",""trial"",""time""
""fullscreenenter"",""0"",""1617""
","
","
","""event"",""trial"",""time""
""fullscreenenter"",""0"",""1617""
","
","null","<p></p>","null","","","","","","","",""
"","image","124","141781","0.0-124.0","""event"",""trial"",""time""
""fullscreenenter"",""0"",""1617""
","
","
","""event"",""trial"",""time""
""fullscreenenter"",""0"",""1617""
","
","920.5999999642372","run_exp/static/images/Set 6_rs/181a.jpg","78","","","","","","learn","SL",""
"","show_choice","125","142869","0.0-125.0","""event"",""trial"",""time""
""fullscreenenter"",""0"",""1617""
","
","
","""event"",""trial"",""time""
""fullscreenenter"",""0"",""1617""
","
","null","run_exp/static/images/Set 6_rs/181a.jpg","null","","","","","","learn","SL",""
"","html-keyboard-response","126","143384","0.0-126.0","""event"",""trial"",""time""
""fullscreenenter"",""0"",""1617""
","
","
","""event"",""trial"",""time""
""fullscreenenter"",""0"",""1617""
","
","null","<p></p>","null","","","","","","","",""
"","image","127","144589","0.0-127.0","""event"",""trial"",""time""
""fullscreenenter"",""0"",""1617""
","
","
","""event"",""trial"",""time""
""fullscreenenter"",""0"",""1617""
","
","1203.699999988079","run_exp/static/images/Set 6_rs/050a.jpg","86","","","","","","learn","SL",""
"","show_choice","128","145392","0.0-128.0","""event"",""trial"",""time""
""fullscreenenter"",""0"",""1617""
","
","
","""event"",""trial"",""time""
""fullscreenenter"",""0"",""1617""
","
","null","run_exp/static/images/Set 6_rs/050a.jpg","null","","","","","","learn","SL",""
"","html-keyboard-response","129","145896","0.0-129.0","""event"",""trial"",""time""
""fullscreenenter"",""0"",""1617""
","
","
","""event"",""trial"",""time""
""fullscreenenter"",""0"",""1617""
","
","null","<p></p>","null","","","","","","","",""
"","image","130","147597","0.0-130.0","""event"",""trial"",""time""
""fullscreenenter"",""0"",""1617""
","
","
","""event"",""trial"",""time""
""fullscreenenter"",""0"",""1617""
","
","1700.7999999523163","run_exp/static/images/Set 6_rs/122a.jpg","86","","","","","","learn","SR",""
"","show_choice","131","147909","0.0-131.0","""event"",""trial"",""time""
""fullscreenenter"",""0"",""1617""
","
","
","""event"",""trial"",""time""
""fullscreenenter"",""0"",""1617""
","
","null","run_exp/static/images/Set 6_rs/122a.jpg","null","","","","","","learn","SR",""
"","html-keyboard-response","132","148425","0.0-132.0","""event"",""trial"",""time""
""fullscreenenter"",""0"",""1617""
","
","
","""event"",""trial"",""time""
""fullscreenenter"",""0"",""1617""
","
","null","<p></p>","null","","","","","","","",""
"","image","133","149333","0.0-133.0","""event"",""trial"",""time""
""fullscreenenter"",""0"",""1617""
","
","
","""event"",""trial"",""time""
""fullscreenenter"",""0"",""1617""
","
","907.1000000238419","run_exp/static/images/Set 6_rs/079a.jpg","86","","","","","","learn","SL",""
"","show_choice","134","150441","0.0-134.0","""event"",""trial"",""time""
""fullscreenenter"",""0"",""1617""
","
","
","""event"",""trial"",""time""
""fullscreenenter"",""0"",""1617""
","
","null","run_exp/static/images/Set 6_rs/079a.jpg","null","","","","","","learn","SL",""
"","html-keyboard-response","135","150941","0.0-135.0","""event"",""trial"",""time""
""fullscreenenter"",""0"",""1617""
","
","
","""event"",""trial"",""time""
""fullscreenenter"",""0"",""1617""
","
","null","<p></p>","null","","","","","","","",""
"","image","136","151660","0.0-136.0","""event"",""trial"",""time""
""fullscreenenter"",""0"",""1617""
","
","
","""event"",""trial"",""time""
""fullscreenenter"",""0"",""1617""
","
","718","run_exp/static/images/Set 6_rs/023a.jpg","86","","","","","","learn","SR",""
"","show_choice","137","152949","0.0-137.0","""event"",""trial"",""time""
""fullscreenenter"",""0"",""1617""
","
","
","""event"",""trial"",""time""
""fullscreenenter"",""0"",""1617""
","
","null","run_exp/static/images/Set 6_rs/023a.jpg","null","","","","","","learn","SR",""
"","html-keyboard-response","138","153464","0.0-138.0","""event"",""trial"",""time""
""fullscreenenter"",""0"",""1617""
","
","
","""event"",""trial"",""time""
""fullscreenenter"",""0"",""1617""
","
","null","<p></p>","null","","","","","","","",""
"","image","139","154533","0.0-139.0","""event"",""trial"",""time""
""fullscreenenter"",""0"",""1617""
","
","
","""event"",""trial"",""time""
""fullscreenenter"",""0"",""1617""
","
","1067.7000000476837","run_exp/static/images/Set 6_rs/089a.jpg","86","","","","","","learn","SL",""
"","show_choice","140","155472","0.0-140.0","""event"",""trial"",""time""
""fullscreenenter"",""0"",""1617""
","
","
","""event"",""trial"",""time""
""fullscreenenter"",""0"",""1617""
","
","null","run_exp/static/images/Set 6_rs/089a.jpg","null","","","","","","learn","SL",""
"","html-keyboard-response","141","155988","0.0-141.0","""event"",""trial"",""time""
""fullscreenenter"",""0"",""1617""
","
","
","""event"",""trial"",""time""
""fullscreenenter"",""0"",""1617""
","
","null","<p></p>","null","","","","","","","",""
"","image","142","157230","0.0-142.0","""event"",""trial"",""time""
""fullscreenenter"",""0"",""1617""
","
","
","""event"",""trial"",""time""
""fullscreenenter"",""0"",""1617""
","
","1241.5","run_exp/static/images/Set 6_rs/012a.jpg","86","","","","","","learn","SR",""
"","show_choice","143","157996","0.0-143.0","""event"",""trial"",""time""
""fullscreenenter"",""0"",""1617""
","
","
","""event"",""trial"",""time""
""fullscreenenter"",""0"",""1617""
","
","null","run_exp/static/images/Set 6_rs/012a.jpg","null","","","","","","learn","SR",""
"","html-keyboard-response","144","158499","0.0-144.0","""event"",""trial"",""time""
""fullscreenenter"",""0"",""1617""
","
","
","""event"",""trial"",""time""
""fullscreenenter"",""0"",""1617""
","
","null","<p></p>","null","","","","","","","",""
"","image","145","159661","0.0-145.0","""event"",""trial"",""time""
""fullscreenenter"",""0"",""1617""
","
","
","""event"",""trial"",""time""
""fullscreenenter"",""0"",""1617""
","
","1160.4000000357628","run_exp/static/images/Set 6_rs/172a.jpg","78","","","","","","learn","SR",""
"","show_choice","146","160512","0.0-146.0","""event"",""trial"",""time""
""fullscreenenter"",""0"",""1617""
","
","
","""event"",""trial"",""time""
""fullscreenenter"",""0"",""1617""
","
","null","run_exp/static/images/Set 6_rs/172a.jpg","null","","","","","","learn","SR",""
"","html-keyboard-response","147","161014","0.0-147.0","""event"",""trial"",""time""
""fullscreenenter"",""0"",""1617""
","
","
","""event"",""trial"",""time""
""fullscreenenter"",""0"",""1617""
","
","null","<p></p>","null","","","","","","","",""
"","image","148","161932","0.0-148.0","""event"",""trial"",""time""
""fullscreenenter"",""0"",""1617""
","
","
","""event"",""trial"",""time""
""fullscreenenter"",""0"",""1617""
","
","917.6000000238419","run_exp/static/images/Set 6_rs/085a.jpg","78","","","","","","learn","SL",""
"","show_choice","149","163024","0.0-149.0","""event"",""trial"",""time""
""fullscreenenter"",""0"",""1617""
","
","
","""event"",""trial"",""time""
""fullscreenenter"",""0"",""1617""
","
","null","run_exp/static/images/Set 6_rs/085a.jpg","null","","","","","","learn","SL",""
"","html-keyboard-response","150","163538","0.0-150.0","""event"",""trial"",""time""
""fullscreenenter"",""0"",""1617""
","
","
","""event"",""trial"",""time""
""fullscreenenter"",""0"",""1617""
","
","null","<p></p>","null","","","","","","","",""
"","image","151","164396","0.0-151.0","""event"",""trial"",""time""
""fullscreenenter"",""0"",""1617""
","
","
","""event"",""trial"",""time""
""fullscreenenter"",""0"",""1617""
","
","857.3999999761581","run_exp/static/images/Set 6_rs/057a.jpg","86","","","","","","learn","SL",""
"","show_choice","152","165544","0.0-152.0","""event"",""trial"",""time""
""fullscreenenter"",""0"",""1617""
","
","
","""event"",""trial"",""time""
""fullscreenenter"",""0"",""1617""
","
","null","run_exp/static/images/Set 6_rs/057a.jpg","null","","","","","","learn","SL",""
"","html-keyboard-response","153","166046","0.0-153.0","""event"",""trial"",""time""
""fullscreenenter"",""0"",""1617""
","
","
","""event"",""trial"",""time""
""fullscreenenter"",""0"",""1617""
","
","null","<p></p>","null","","","","","","","",""
"","image","154","166956","0.0-154.0","""event"",""trial"",""time""
""fullscreenenter"",""0"",""1617""
","
","
","""event"",""trial"",""time""
""fullscreenenter"",""0"",""1617""
","
","909.7999999523163","run_exp/static/images/Set 6_rs/108a.jpg","78","","","","","","learn","SR",""
"","show_choice","155","168049","0.0-155.0","""event"",""trial"",""time""
""fullscreenenter"",""0"",""1617""
","
","
","""event"",""trial"",""time""
""fullscreenenter"",""0"",""1617""
","
","null","run_exp/static/images/Set 6_rs/108a.jpg","null","","","","","","learn","SR",""
"","html-keyboard-response","156","168551","0.0-156.0","""event"",""trial"",""time""
""fullscreenenter"",""0"",""1617""
","
","
","""event"",""trial"",""time""
""fullscreenenter"",""0"",""1617""
","
","null","<p></p>","null","","","","","","","",""
"","image","157","170380","0.0-157.0","""event"",""trial"",""time""
""fullscreenenter"",""0"",""1617""
","
","
","""event"",""trial"",""time""
""fullscreenenter"",""0"",""1617""
","
","1828.199999988079","run_exp/static/images/Set 6_rs/121a.jpg","86","","","","","","learn","SR",""
"","show_choice","158","170559","0.0-158.0","""event"",""trial"",""time""
""fullscreenenter"",""0"",""1617""
","
","
","""event"",""trial"",""time""
""fullscreenenter"",""0"",""1617""
","
","null","run_exp/static/images/Set 6_rs/121a.jpg","null","","","","","","learn","SR",""
"","html-keyboard-response","159","171074","0.0-159.0","""event"",""trial"",""time""
""fullscreenenter"",""0"",""1617""
","
","
","""event"",""trial"",""time""
""fullscreenenter"",""0"",""1617""
","
","null","<p></p>","null","","","","","","","",""
"","image","160","172245","0.0-160.0","""event"",""trial"",""time""
""fullscreenenter"",""0"",""1617""
","
","
","""event"",""trial"",""time""
""fullscreenenter"",""0"",""1617""
","
","1169.6000000238419","run_exp/static/images/Set 6_rs/134a.jpg","86","","","","","","learn","SR",""
"","show_choice","161","173086","0.0-161.0","""event"",""trial"",""time""
""fullscreenenter"",""0"",""1617""
","
","
","""event"",""trial"",""time""
""fullscreenenter"",""0"",""1617""
","
","null","run_exp/static/images/Set 6_rs/134a.jpg","null","","","","","","learn","SR",""
"","html-keyboard-response","162","173589","0.0-162.0","""event"",""trial"",""time""
""fullscreenenter"",""0"",""1617""
","
","
","""event"",""trial"",""time""
""fullscreenenter"",""0"",""1617""
","
","null","<p></p>","null","","","","","","","",""
"","image","163","174509","0.0-163.0","""event"",""trial"",""time""
""fullscreenenter"",""0"",""1617""
","
","
","""event"",""trial"",""time""
""fullscreenenter"",""0"",""1617""
","
","918.5","run_exp/static/images/Set 6_rs/061a.jpg","78","","","","","","learn","SR",""
"","show_choice","164","175596","0.0-164.0","""event"",""trial"",""time""
""fullscreenenter"",""0"",""1617""
","
","
","""event"",""trial"",""time""
""fullscreenenter"",""0"",""1617""
","
","null","run_exp/static/images/Set 6_rs/061a.jpg","null","","","","","","learn","SR",""
"","html-keyboard-response","165","176100","0.0-165.0","""event"",""trial"",""time""
""fullscreenenter"",""0"",""1617""
","
","
","""event"",""trial"",""time""
""fullscreenenter"",""0"",""1617""
","
","null","<p></p>","null","","","","","","","",""
"","image","166","177717","0.0-166.0","""event"",""trial"",""time""
""fullscreenenter"",""0"",""1617""
","
","
","""event"",""trial"",""time""
""fullscreenenter"",""0"",""1617""
","
","1615.4000000357628","run_exp/static/images/Set 6_rs/008a.jpg","86","","","","","","learn","SL",""
"","show_choice","167","178111","0.0-167.0","""event"",""trial"",""time""
""fullscreenenter"",""0"",""1617""
","
","
","""event"",""trial"",""time""
""fullscreenenter"",""0"",""1617""
","
","null","run_exp/static/images/Set 6_rs/008a.jpg","null","","","","","","learn","SL",""
"","html-keyboard-response","168","178626","0.0-168.0","""event"",""trial"",""time""
""fullscreenenter"",""0"",""1617""
","
","
","""event"",""trial"",""time""
""fullscreenenter"",""0"",""1617""
","
","null","<p></p>","null","","","","","","","",""
"","image","169","179477","0.0-169.0","""event"",""trial"",""time""
""fullscreenenter"",""0"",""1617""
","
","
","""event"",""trial"",""time""
""fullscreenenter"",""0"",""1617""
","
","850.2000000476837","run_exp/static/images/Set 6_rs/152a.jpg","78","","","","","","learn","SR",""
"","show_choice","170","180635","0.0-170.0","""event"",""trial"",""time""
""fullscreenenter"",""0"",""1617""
","
","
","""event"",""trial"",""time""
""fullscreenenter"",""0"",""1617""
","
","null","run_exp/static/images/Set 6_rs/152a.jpg","null","","","","","","learn","SR",""
"","html-keyboard-response","171","181151","0.0-171.0","""event"",""trial"",""time""
""fullscreenenter"",""0"",""1617""
","
","
","""event"",""trial"",""time""
""fullscreenenter"",""0"",""1617""
","
","null","<p></p>","null","","","","","","","",""
"","image","172","182028","0.0-172.0","""event"",""trial"",""time""
""fullscreenenter"",""0"",""1617""
","
","
","""event"",""trial"",""time""
""fullscreenenter"",""0"",""1617""
","
","875.8000000119209","run_exp/static/images/Set 6_rs/178a.jpg","78","","","","","","learn","SR",""
"","show_choice","173","183162","0.0-173.0","""event"",""trial"",""time""
""fullscreenenter"",""0"",""1617""
","
","
","""event"",""trial"",""time""
""fullscreenenter"",""0"",""1617""
","
","null","run_exp/static/images/Set 6_rs/178a.jpg","null","","","","","","learn","SR",""
"","html-keyboard-response","174","183675","0.0-174.0","""event"",""trial"",""time""
""fullscreenenter"",""0"",""1617""
","
","
","""event"",""trial"",""time""
""fullscreenenter"",""0"",""1617""
","
","null","<p></p>","null","","","","","","","",""
"","image","175","184668","0.0-175.0","""event"",""trial"",""time""
""fullscreenenter"",""0"",""1617""
","
","
","""event"",""trial"",""time""
""fullscreenenter"",""0"",""1617""
","
","992.2999999523163","run_exp/static/images/Set 6_rs/169a.jpg","78","","","","","","learn","SR",""
"","show_choice","176","185677","0.0-176.0","""event"",""trial"",""time""
""fullscreenenter"",""0"",""1617""
","
","
","""event"",""trial"",""time""
""fullscreenenter"",""0"",""1617""
","
","null","run_exp/static/images/Set 6_rs/169a.jpg","null","","","","","","learn","SR",""
"","html-keyboard-response","177","186191","0.0-177.0","""event"",""trial"",""time""
""fullscreenenter"",""0"",""1617""
","
","
","""event"",""trial"",""time""
""fullscreenenter"",""0"",""1617""
","
","null","<p></p>","null","","","","","","","",""
"","image","178","187277","0.0-178.0","""event"",""trial"",""time""
""fullscreenenter"",""0"",""1617""
","
","
","""event"",""trial"",""time""
""fullscreenenter"",""0"",""1617""
","
","1084.5","run_exp/static/images/Set 6_rs/019a.jpg","86","","","","","","learn","SL",""
"","show_choice","179","188195","0.0-179.0","""event"",""trial"",""time""
""fullscreenenter"",""0"",""1617""
","
","
","""event"",""trial"",""time""
""fullscreenenter"",""0"",""1617""
","
","null","run_exp/static/images/Set 6_rs/019a.jpg","null","","","","","","learn","SL",""
"","html-keyboard-response","180","188702","0.0-180.0","""event"",""trial"",""time""
""fullscreenenter"",""0"",""1617""
","
","
","""event"",""trial"",""time""
""fullscreenenter"",""0"",""1617""
","
","null","<p></p>","null","","","","","","","",""
"","image","181","189749","0.0-181.0","""event"",""trial"",""time""
""fullscreenenter"",""0"",""1617""
","
","
","""event"",""trial"",""time""
""fullscreenenter"",""0"",""1617""
","
","1046","run_exp/static/images/Set 6_rs/062a.jpg","86","","","","","","learn","SL",""
"","show_choice","182","190716","0.0-182.0","""event"",""trial"",""time""
""fullscreenenter"",""0"",""1617""
","
","
","""event"",""trial"",""time""
""fullscreenenter"",""0"",""1617""
","
","null","run_exp/static/images/Set 6_rs/062a.jpg","null","","","","","","learn","SL",""
"","html-keyboard-response","183","191219","0.0-183.0","""event"",""trial"",""time""
""fullscreenenter"",""0"",""1617""
","
","
","""event"",""trial"",""time""
""fullscreenenter"",""0"",""1617""
","
","null","<p></p>","null","","","","","","","",""
"","image","184","192277","0.0-184.0","""event"",""trial"",""time""
""fullscreenenter"",""0"",""1617""
","
","
","""event"",""trial"",""time""
""fullscreenenter"",""0"",""1617""
","
","1056.9000000357628","run_exp/static/images/Set 6_rs/071a.jpg","86","","","","","","learn","SL",""
"","show_choice","185","193230","0.0-185.0","""event"",""trial"",""time""
""fullscreenenter"",""0"",""1617""
","
","
","""event"",""trial"",""time""
""fullscreenenter"",""0"",""1617""
","
","null","run_exp/static/images/Set 6_rs/071a.jpg","null","","","","","","learn","SL",""
"","html-keyboard-response","186","193745","0.0-186.0","""event"",""trial"",""time""
""fullscreenenter"",""0"",""1617""
","
","
","""event"",""trial"",""time""
""fullscreenenter"",""0"",""1617""
","
","null","<p></p>","null","","","","","","","",""
"","image","187","194980","0.0-187.0","""event"",""trial"",""time""
""fullscreenenter"",""0"",""1617""
","
","
","""event"",""trial"",""time""
""fullscreenenter"",""0"",""1617""
","
","1234","run_exp/static/images/Set 6_rs/131a.jpg","86","","","","","","learn","SR",""
"","show_choice","188","195747","0.0-188.0","""event"",""trial"",""time""
""fullscreenenter"",""0"",""1617""
","
","
","""event"",""trial"",""time""
""fullscreenenter"",""0"",""1617""
","
","null","run_exp/static/images/Set 6_rs/131a.jpg","null","","","","","","learn","SR",""
"","html-keyboard-response","189","196252","0.0-189.0","""event"",""trial"",""time""
""fullscreenenter"",""0"",""1617""
","
","
","""event"",""trial"",""time""
""fullscreenenter"",""0"",""1617""
","
","null","<p></p>","null","","","","","","","",""
"","image","190","197012","0.0-190.0","""event"",""trial"",""time""
""fullscreenenter"",""0"",""1617""
","
","
","""event"",""trial"",""time""
""fullscreenenter"",""0"",""1617""
","
","759.7999999523163","run_exp/static/images/Set 6_rs/014a.jpg","86","","","","","","learn","SL",""
"","show_choice","191","198253","0.0-191.0","""event"",""trial"",""time""
""fullscreenenter"",""0"",""1617""
","
","
","""event"",""trial"",""time""
""fullscreenenter"",""0"",""1617""
","
","null","run_exp/static/images/Set 6_rs/014a.jpg","null","","","","","","learn","SL",""
"","html-keyboard-response","192","198767","0.0-192.0","""event"",""trial"",""time""
""fullscreenenter"",""0"",""1617""
","
","
","""event"",""trial"",""time""
""fullscreenenter"",""0"",""1617""
","
","null","<p></p>","null","","","","","","","",""
"","image","193","200205","0.0-193.0","""event"",""trial"",""time""
""fullscreenenter"",""0"",""1617""
","
","
","""event"",""trial"",""time""
""fullscreenenter"",""0"",""1617""
","
","1437.4000000357628","run_exp/static/images/Set 6_rs/144a.jpg","86","","","","","","learn","SL",""
"","show_choice","194","200775","0.0-194.0","""event"",""trial"",""time""
""fullscreenenter"",""0"",""1617""
","
","
","""event"",""trial"",""time""
""fullscreenenter"",""0"",""1617""
","
","null","run_exp/static/images/Set 6_rs/144a.jpg","null","","","","","","learn","SL",""
"","html-keyboard-response","195","201277","0.0-195.0","""event"",""trial"",""time""
""fullscreenenter"",""0"",""1617""
","
","
","""event"",""trial"",""time""
""fullscreenenter"",""0"",""1617""
","
","null","<p></p>","null","","","","","","","",""
"","test_intro","196","238319","0.0-196.0","""event"",""trial"",""time""
""fullscreenenter"",""0"",""1617""
","
","
","""event"",""trial"",""time""
""fullscreenenter"",""0"",""1617""
","
","null","run_exp/static/audio/clip_2_memory.m4a","null","","","","","<div class='center'><p>Now, lets see how much you remember about the items you just saw.  For each item, you need to indicate if it was <b>old</b> by pressing the <b>v</b> key, <b>similar</b> by pressing the <b>b</b> key, or <b>new</b> by pressing the <b>n</b> key.</p><p>Old refers to an item that you saw before in the indoor/outdoor game that you just played, new refers to an item you have <b>not</b> seen before within the indoor/outdoor game, and similar refers to an item that is similar to an item youve seen before but is not exactly the same. </p><p>Before we begin, lets go over some brief demonstrations to make sure you understand.</p></div>","","",""
"","html-keyboard-response","197","239533","0.0-197.0","""event"",""trial"",""time""
""fullscreenenter"",""0"",""1617""
","
","
","""event"",""trial"",""time""
""fullscreenenter"",""0"",""1617""
","
","1213.199999988079","<div class='center'><p>Now, lets see how much you remember about the items you just saw.  For each item, you need to indicate if it was <b>old</b> by pressing the <b>v</b> key, <b>similar</b> by pressing the <b>b</b> key, or <b>new</b> by pressing the <b>n</b> key.</p><p>Old refers to an item that you saw before in the indoor/outdoor game that you just played, new refers to an item you have <b>not</b> seen before within the indoor/outdoor game, and similar refers to an item that is similar to an item youve seen before but is not exactly the same. </p><p>Before we begin, lets go over some brief demonstrations to make sure you understand.</p><div><p><b>[Press the space bar to continue]</b></p></div>","32","","","","","","","",""
"","items","198","247044","0.0-198.0","""event"",""trial"",""time""
""fullscreenenter"",""0"",""1617""
","
","
","""event"",""trial"",""time""
""fullscreenenter"",""0"",""1617""
","
","null","run_exp/static/audio/clip_3_items.m4a","null","","","","","","","",""
"","mop","199","251547","0.0-199.0","""event"",""trial"",""time""
""fullscreenenter"",""0"",""1617""
","
","
","""event"",""trial"",""time""
""fullscreenenter"",""0"",""1617""
","
","null","run_exp/static/audio/clip_4_mop.m4a","null","","","","","","","",""
"","baseball","200","255050","0.0-200.0","""event"",""trial"",""time""
""fullscreenenter"",""0"",""1617""
","
","
","""event"",""trial"",""time""
""fullscreenenter"",""0"",""1617""
","
","null","run_exp/static/audio/clip_5_baseball.m4a","null","","","","","","","",""
"","trumpet","201","258551","0.0-201.0","""event"",""trial"",""time""
""fullscreenenter"",""0"",""1617""
","
","
","""event"",""trial"",""time""
""fullscreenenter"",""0"",""1617""
","
","null","run_exp/static/audio/clip_6_trumpet.m4a","null","","","","","","","",""
"","gummies","202","262060","0.0-202.0","""event"",""trial"",""time""
""fullscreenenter"",""0"",""1617""
","
","
","""event"",""trial"",""time""
""fullscreenenter"",""0"",""1617""
","
","null","run_exp/static/audio/clip_7_gummies.m4a","null","","","","","","","",""
"","osn","203","266577","0.0-203.0","""event"",""trial"",""time""
""fullscreenenter"",""0"",""1617""
""blur"",""204"",""266953""
""focus"",""204"",""267102""
","""event"",""trial"",""time""
""blur"",""204"",""266953""
","""event"",""trial"",""time""
""focus"",""204"",""267102""
","""event"",""trial"",""time""
""fullscreenenter"",""0"",""1617""
","
","null","run_exp/static/audio/clip_8_osn.m4a","null","","","","","","","",""
"","old_1","204","273080","0.0-204.0","""event"",""trial"",""time""
""fullscreenenter"",""0"",""1617""
""blur"",""204"",""266953""
""focus"",""204"",""267102""
","""event"",""trial"",""time""
""blur"",""204"",""266953""
","""event"",""trial"",""time""
""focus"",""204"",""267102""
","""event"",""trial"",""time""
""fullscreenenter"",""0"",""1617""
","
","null","run_exp/static/audio/clip_9_old_trumpet.m4a","null","","","","","","","",""
"","new_1","205","280583","0.0-205.0","""event"",""trial"",""time""
""fullscreenenter"",""0"",""1617""
""blur"",""204"",""266953""
""focus"",""204"",""267102""
","""event"",""trial"",""time""
""blur"",""204"",""266953""
","""event"",""trial"",""time""
""focus"",""204"",""267102""
","""event"",""trial"",""time""
""fullscreenenter"",""0"",""1617""
","
","null","run_exp/static/audio/clip_10_new_balloon.m4a","null","","","","","","","",""
"","similar_1a","206","285097","0.0-206.0","""event"",""trial"",""time""
""fullscreenenter"",""0"",""1617""
""blur"",""204"",""266953""
""focus"",""204"",""267102""
","""event"",""trial"",""time""
""blur"",""204"",""266953""
","""event"",""trial"",""time""
""focus"",""204"",""267102""
","""event"",""trial"",""time""
""fullscreenenter"",""0"",""1617""
","
","null","run_exp/static/audio/clip_11a_similar_mop.m4a","null","","","","","","","",""
"","similar_1b","207","291611","0.0-207.0","""event"",""trial"",""time""
""fullscreenenter"",""0"",""1617""
""blur"",""204"",""266953""
""focus"",""204"",""267102""
","""event"",""trial"",""time""
""blur"",""204"",""266953""
","""event"",""trial"",""time""
""focus"",""204"",""267102""
","""event"",""trial"",""time""
""fullscreenenter"",""0"",""1617""
","
","null","run_exp/static/audio/clip_11b_similar_mop.m4a","null","","","","","","","",""
"","new_2","208","295123","0.0-208.0","""event"",""trial"",""time""
""fullscreenenter"",""0"",""1617""
""blur"",""204"",""266953""
""focus"",""204"",""267102""
","""event"",""trial"",""time""
""blur"",""204"",""266953""
","""event"",""trial"",""time""
""focus"",""204"",""267102""
","""event"",""trial"",""time""
""fullscreenenter"",""0"",""1617""
","
","null","run_exp/static/audio/clip_12_new_stoplight.m4a","null","","","","","","","",""
"","old_2","209","298635","0.0-209.0","""event"",""trial"",""time""
""fullscreenenter"",""0"",""1617""
""blur"",""204"",""266953""
""focus"",""204"",""267102""
","""event"",""trial"",""time""
""blur"",""204"",""266953""
","""event"",""trial"",""time""
""focus"",""204"",""267102""
","""event"",""trial"",""time""
""fullscreenenter"",""0"",""1617""
","
","null","run_exp/static/audio/clip_13_old_baseball.m4a","null","","","","","","","",""
"","similar_2a","210","302138","0.0-210.0","""event"",""trial"",""time""
""fullscreenenter"",""0"",""1617""
""blur"",""204"",""266953""
""focus"",""204"",""267102""
","""event"",""trial"",""time""
""blur"",""204"",""266953""
","""event"",""trial"",""time""
""focus"",""204"",""267102""
","""event"",""trial"",""time""
""fullscreenenter"",""0"",""1617""
","
","null","run_exp/static/audio/clip_14a_similar_gummies.m4a","null","","","","","","","",""
"","similar_2b","211","309648","0.0-211.0","""event"",""trial"",""time""
""fullscreenenter"",""0"",""1617""
""blur"",""204"",""266953""
""focus"",""204"",""267102""
","""event"",""trial"",""time""
""blur"",""204"",""266953""
","""event"",""trial"",""time""
""focus"",""204"",""267102""
","""event"",""trial"",""time""
""fullscreenenter"",""0"",""1617""
","
","null","run_exp/static/audio/clip_14b_similar_gummies.m4a","null","","","","","","","",""
"","practice","212","351759","0.0-212.0","""event"",""trial"",""time""
""fullscreenenter"",""0"",""1617""
""blur"",""204"",""266953""
""focus"",""204"",""267102""
","""event"",""trial"",""time""
""blur"",""204"",""266953""
","""event"",""trial"",""time""
""focus"",""204"",""267102""
","""event"",""trial"",""time""
""fullscreenenter"",""0"",""1617""
","
","null","run_exp/static/audio/clip_15_practice.m4a","null","","","","","<div class='center'><p>Lets practice a little to make sure you understand the difference between new, similar, and old. Lets say you saw these three items in the indoor/outdoor game.</p><p> Try your best to remember these images because youll soon be tested on them in a practice game. In the practice game, youll be shown images and youll have to say if they are old (one of the three images belows), similar (similar to one of the images below but not exactly the same), or new (are not one of the images below nor similar to them).</p><p>Once you press the space bar youll be shown these images again but one at time. Then youll begin the practice game.</p><p><img src='run_exp/static/images/tutorial/test/three_indoor_outdoor.png' height='300'></p></div>","","",""
"","html-keyboard-response","213","352172","0.0-213.0","""event"",""trial"",""time""
""fullscreenenter"",""0"",""1617""
""blur"",""204"",""266953""
""focus"",""204"",""267102""
","""event"",""trial"",""time""
""blur"",""204"",""266953""
","""event"",""trial"",""time""
""focus"",""204"",""267102""
","""event"",""trial"",""time""
""fullscreenenter"",""0"",""1617""
","
","412.19999998807907","<div class='center'><p>Lets practice a little to make sure you understand the difference between new, similar, and old. Lets say you saw these three items in the indoor/outdoor game.</p><p> Try your best to remember these images because youll soon be tested on them in a practice game. In the practice game, youll be shown images and youll have to say if they are old (one of the three images belows), similar (similar to one of the images below but not exactly the same), or new (are not one of the images below nor similar to them).</p><p>Once you press the space bar youll be shown these images again but one at time. Then youll begin the practice game.</p><p><img src='run_exp/static/images/tutorial/test/three_indoor_outdoor.png' height='300'></p><div><p><b>[Press the space bar to continue]</b></p></div>","32","","","","","","","",""
"","planet","214","354180","0.0-214.0","""event"",""trial"",""time""
""fullscreenenter"",""0"",""1617""
""blur"",""204"",""266953""
""focus"",""204"",""267102""
","""event"",""trial"",""time""
""blur"",""204"",""266953""
","""event"",""trial"",""time""
""focus"",""204"",""267102""
","""event"",""trial"",""time""
""fullscreenenter"",""0"",""1617""
","
","null","run_exp/static/images/tutorial/test/008a.jpg","null","","","","","","","",""
"","boot","215","356187","0.0-215.0","""event"",""trial"",""time""
""fullscreenenter"",""0"",""1617""
""blur"",""204"",""266953""
""focus"",""204"",""267102""
","""event"",""trial"",""time""
""blur"",""204"",""266953""
","""event"",""trial"",""time""
""focus"",""204"",""267102""
","""event"",""trial"",""time""
""fullscreenenter"",""0"",""1617""
","
","null","run_exp/static/images/tutorial/test/011a.jpg","null","","","","","","","",""
"","lemon","216","358196","0.0-216.0","""event"",""trial"",""time""
""fullscreenenter"",""0"",""1617""
""blur"",""204"",""266953""
""focus"",""204"",""267102""
","""event"",""trial"",""time""
""blur"",""204"",""266953""
","""event"",""trial"",""time""
""focus"",""204"",""267102""
","""event"",""trial"",""time""
""fullscreenenter"",""0"",""1617""
","
","null","run_exp/static/images/tutorial/test/018a.jpg","null","","","","","","","",""
"","practice_q1","217","362324","0.0-217.0","""event"",""trial"",""time""
""fullscreenenter"",""0"",""1617""
""blur"",""204"",""266953""
""focus"",""204"",""267102""
","""event"",""trial"",""time""
""blur"",""204"",""266953""
","""event"",""trial"",""time""
""focus"",""204"",""267102""
","""event"",""trial"",""time""
""fullscreenenter"",""0"",""1617""
","
","4126.800000011921","run_exp/static/audio/clip_16_practice_question.m4a","78","","","","","","","",""
"","correct","218","364238","0.0-218.0-0.0","""event"",""trial"",""time""
""fullscreenenter"",""0"",""1617""
""blur"",""204"",""266953""
""focus"",""204"",""267102""
","""event"",""trial"",""time""
""blur"",""204"",""266953""
","""event"",""trial"",""time""
""focus"",""204"",""267102""
","""event"",""trial"",""time""
""fullscreenenter"",""0"",""1617""
","
","null","run_exp/static/audio/clip_17_correct.m4a","null","","","","","<div class='center'><p>That's correct!</p></div>","","",""
"","html-keyboard-response","219","365507","0.0-218.0-1.0","""event"",""trial"",""time""
""fullscreenenter"",""0"",""1617""
""blur"",""204"",""266953""
""focus"",""204"",""267102""
","""event"",""trial"",""time""
""blur"",""204"",""266953""
","""event"",""trial"",""time""
""focus"",""204"",""267102""
","""event"",""trial"",""time""
""fullscreenenter"",""0"",""1617""
","
","1267.8999999761581","<div class='center'><p>That's correct!</p><div><p><b>[Press the space bar to continue]</b></p></div>","32","","","","","","","",""
"","practice_q2","220","366779","0.0-218.0-2.0","""event"",""trial"",""time""
""fullscreenenter"",""0"",""1617""
""blur"",""204"",""266953""
""focus"",""204"",""267102""
","""event"",""trial"",""time""
""blur"",""204"",""266953""
","""event"",""trial"",""time""
""focus"",""204"",""267102""
","""event"",""trial"",""time""
""fullscreenenter"",""0"",""1617""
","
","1271.800000011921","run_exp/static/audio/clip_16_practice_question.m4a","86","","","","","","","",""
"","correct","221","368678","0.0-219.0-0.0","""event"",""trial"",""time""
""fullscreenenter"",""0"",""1617""
""blur"",""204"",""266953""
""focus"",""204"",""267102""
","""event"",""trial"",""time""
""blur"",""204"",""266953""
","""event"",""trial"",""time""
""focus"",""204"",""267102""
","""event"",""trial"",""time""
""fullscreenenter"",""0"",""1617""
","
","null","run_exp/static/audio/clip_17_correct.m4a","null","","","","","<div class='center'><p>That's correct!</p></div>","","",""
"","html-keyboard-response","222","369707","0.0-219.0-1.0","""event"",""trial"",""time""
""fullscreenenter"",""0"",""1617""
""blur"",""204"",""266953""
""focus"",""204"",""267102""
","""event"",""trial"",""time""
""blur"",""204"",""266953""
","""event"",""trial"",""time""
""focus"",""204"",""267102""
","""event"",""trial"",""time""
""fullscreenenter"",""0"",""1617""
","
","1028.2999999523163","<div class='center'><p>That's correct!</p><div><p><b>[Press the space bar to continue]</b></p></div>","32","","","","","","","",""
"","practice_q3","223","371388","0.0-219.0-2.0","""event"",""trial"",""time""
""fullscreenenter"",""0"",""1617""
""blur"",""204"",""266953""
""focus"",""204"",""267102""
","""event"",""trial"",""time""
""blur"",""204"",""266953""
","""event"",""trial"",""time""
""focus"",""204"",""267102""
","""event"",""trial"",""time""
""fullscreenenter"",""0"",""1617""
","
","1679.5","run_exp/static/audio/clip_16_practice_question.m4a","78","","","","","","","",""
"","incorrect_q3","224","374119","0.0-220.0-0.0","""event"",""trial"",""time""
""fullscreenenter"",""0"",""1617""
""blur"",""204"",""266953""
""focus"",""204"",""267102""
","""event"",""trial"",""time""
""blur"",""204"",""266953""
","""event"",""trial"",""time""
""focus"",""204"",""267102""
","""event"",""trial"",""time""
""fullscreenenter"",""0"",""1617""
","
","null","run_exp/static/audio/clip_20_incorrect_similar.m4a","null","","","","","<div class='center'><p>Thats incorrect. Its similar.</p><p><img src='run_exp/static/images/tutorial/test/boot_comparison.png' height='300'></p></div>","","",""
"","html-keyboard-response","225","374684","0.0-220.0-1.0","""event"",""trial"",""time""
""fullscreenenter"",""0"",""1617""
""blur"",""204"",""266953""
""focus"",""204"",""267102""
","""event"",""trial"",""time""
""blur"",""204"",""266953""
","""event"",""trial"",""time""
""focus"",""204"",""267102""
","""event"",""trial"",""time""
""fullscreenenter"",""0"",""1617""
","
","564.2000000476837","<div class='center'><p>Thats incorrect. Its similar.</p><p><img src='run_exp/static/images/tutorial/test/boot_comparison.png' height='300'></p><div><p><b>[Press the space bar to continue]</b></p></div>","32","","","","","","","",""
"","repeat","226","379418","0.0-221.0-0.0","""event"",""trial"",""time""
""fullscreenenter"",""0"",""1617""
""blur"",""204"",""266953""
""focus"",""204"",""267102""
","""event"",""trial"",""time""
""blur"",""204"",""266953""
","""event"",""trial"",""time""
""focus"",""204"",""267102""
","""event"",""trial"",""time""
""fullscreenenter"",""0"",""1617""
","
","null","run_exp/static/audio/clip_21_practice_again.m4a","null","","","","","<div class='center'><p>Oops. you missed at least one of these questions. Let's try practicing again. </p></div>","","",""
"","html-keyboard-response","227","379827","0.0-221.0-1.0","""event"",""trial"",""time""
""fullscreenenter"",""0"",""1617""
""blur"",""204"",""266953""
""focus"",""204"",""267102""
","""event"",""trial"",""time""
""blur"",""204"",""266953""
","""event"",""trial"",""time""
""focus"",""204"",""267102""
","""event"",""trial"",""time""
""fullscreenenter"",""0"",""1617""
","
","408","<div class='center'><p>Oops. you missed at least one of these questions. Let's try practicing again. </p><div><p><b>[Press the space bar to continue]</b></p></div>","32","","","","","","","",""
"","practice_q1","228","381979","0.0-221.0-2.0","""event"",""trial"",""time""
""fullscreenenter"",""0"",""1617""
""blur"",""204"",""266953""
""focus"",""204"",""267102""
","""event"",""trial"",""time""
""blur"",""204"",""266953""
","""event"",""trial"",""time""
""focus"",""204"",""267102""
","""event"",""trial"",""time""
""fullscreenenter"",""0"",""1617""
","
","2151.399999976158","run_exp/static/audio/clip_16_practice_question.m4a","86","","","","","","","",""
"","incorrect_q1","229","384818","0.0-222.0-0.0","""event"",""trial"",""time""
""fullscreenenter"",""0"",""1617""
""blur"",""204"",""266953""
""focus"",""204"",""267102""
","""event"",""trial"",""time""
""blur"",""204"",""266953""
","""event"",""trial"",""time""
""focus"",""204"",""267102""
","""event"",""trial"",""time""
""fullscreenenter"",""0"",""1617""
","
","null","run_exp/static/audio/clip_18_incorrect_new.m4a","null","","","","","<div class='center'><p>Thats incorrect. Its new.</p></div>","","",""
"","html-keyboard-response","230","385460","0.0-222.0-1.0","""event"",""trial"",""time""
""fullscreenenter"",""0"",""1617""
""blur"",""204"",""266953""
""focus"",""204"",""267102""
","""event"",""trial"",""time""
""blur"",""204"",""266953""
","""event"",""trial"",""time""
""focus"",""204"",""267102""
","""event"",""trial"",""time""
""fullscreenenter"",""0"",""1617""
","
","640.4000000357628","<div class='center'><p>Thats incorrect. Its new.</p><div><p><b>[Press the space bar to continue]</b></p></div>","32","","","","","","","",""
"","practice_q2","231","386404","0.0-222.0-2.0","""event"",""trial"",""time""
""fullscreenenter"",""0"",""1617""
""blur"",""204"",""266953""
""focus"",""204"",""267102""
","""event"",""trial"",""time""
""blur"",""204"",""266953""
","""event"",""trial"",""time""
""focus"",""204"",""267102""
","""event"",""trial"",""time""
""fullscreenenter"",""0"",""1617""
","
","943.4000000357628","run_exp/static/audio/clip_16_practice_question.m4a","86","","","","","","","",""
"","correct","232","388298","0.0-223.0-0.0","""event"",""trial"",""time""
""fullscreenenter"",""0"",""1617""
""blur"",""204"",""266953""
""focus"",""204"",""267102""
","""event"",""trial"",""time""
""blur"",""204"",""266953""
","""event"",""trial"",""time""
""focus"",""204"",""267102""
","""event"",""trial"",""time""
""fullscreenenter"",""0"",""1617""
","
","null","run_exp/static/audio/clip_17_correct.m4a","null","","","","","<div class='center'><p>That's correct!</p></div>","","",""
"","html-keyboard-response","233","388803","0.0-223.0-1.0","""event"",""trial"",""time""
""fullscreenenter"",""0"",""1617""
""blur"",""204"",""266953""
""focus"",""204"",""267102""
","""event"",""trial"",""time""
""blur"",""204"",""266953""
","""event"",""trial"",""time""
""focus"",""204"",""267102""
","""event"",""trial"",""time""
""fullscreenenter"",""0"",""1617""
","
","503.7000000476837","<div class='center'><p>That's correct!</p><div><p><b>[Press the space bar to continue]</b></p></div>","32","","","","","","","",""
"","practice_q3","234","390484","0.0-223.0-2.0","""event"",""trial"",""time""
""fullscreenenter"",""0"",""1617""
""blur"",""204"",""266953""
""focus"",""204"",""267102""
","""event"",""trial"",""time""
""blur"",""204"",""266953""
","""event"",""trial"",""time""
""focus"",""204"",""267102""
","""event"",""trial"",""time""
""fullscreenenter"",""0"",""1617""
","
","1680.1000000238419","run_exp/static/audio/clip_16_practice_question.m4a","66","","","","","","","",""
"","correct","235","392378","0.0-224.0-0.0","""event"",""trial"",""time""
""fullscreenenter"",""0"",""1617""
""blur"",""204"",""266953""
""focus"",""204"",""267102""
","""event"",""trial"",""time""
""blur"",""204"",""266953""
","""event"",""trial"",""time""
""focus"",""204"",""267102""
","""event"",""trial"",""time""
""fullscreenenter"",""0"",""1617""
","
","null","run_exp/static/audio/clip_17_correct.m4a","null","","","","","<div class='center'><p>That's correct!</p></div>","","",""
"","html-keyboard-response","236","392716","0.0-224.0-1.0","""event"",""trial"",""time""
""fullscreenenter"",""0"",""1617""
""blur"",""204"",""266953""
""focus"",""204"",""267102""
","""event"",""trial"",""time""
""blur"",""204"",""266953""
","""event"",""trial"",""time""
""focus"",""204"",""267102""
","""event"",""trial"",""time""
""fullscreenenter"",""0"",""1617""
","
","336.69999998807907","<div class='center'><p>That's correct!</p><div><p><b>[Press the space bar to continue]</b></p></div>","32","","","","","","","",""
"","repeat","237","397458","0.0-225.0-0.0","""event"",""trial"",""time""
""fullscreenenter"",""0"",""1617""
""blur"",""204"",""266953""
""focus"",""204"",""267102""
","""event"",""trial"",""time""
""blur"",""204"",""266953""
","""event"",""trial"",""time""
""focus"",""204"",""267102""
","""event"",""trial"",""time""
""fullscreenenter"",""0"",""1617""
","
","null","run_exp/static/audio/clip_21_practice_again.m4a","null","","","","","<div class='center'><p>Oops. you missed at least one of these questions. Let's try practicing again. </p></div>","","",""
"","html-keyboard-response","238","397564","0.0-225.0-1.0","""event"",""trial"",""time""
""fullscreenenter"",""0"",""1617""
""blur"",""204"",""266953""
""focus"",""204"",""267102""
","""event"",""trial"",""time""
""blur"",""204"",""266953""
","""event"",""trial"",""time""
""focus"",""204"",""267102""
","""event"",""trial"",""time""
""fullscreenenter"",""0"",""1617""
","
","104.89999997615814","<div class='center'><p>Oops. you missed at least one of these questions. Let's try practicing again. </p><div><p><b>[Press the space bar to continue]</b></p></div>","32","","","","","","","",""
"","practice_q1","239","398947","0.0-225.0-2.0","""event"",""trial"",""time""
""fullscreenenter"",""0"",""1617""
""blur"",""204"",""266953""
""focus"",""204"",""267102""
","""event"",""trial"",""time""
""blur"",""204"",""266953""
","""event"",""trial"",""time""
""focus"",""204"",""267102""
","""event"",""trial"",""time""
""fullscreenenter"",""0"",""1617""
","
","1382.0999999642372","run_exp/static/audio/clip_16_practice_question.m4a","78","","","","","","","",""
"","correct","240","400838","0.0-226.0-0.0","""event"",""trial"",""time""
""fullscreenenter"",""0"",""1617""
""blur"",""204"",""266953""
""focus"",""204"",""267102""
","""event"",""trial"",""time""
""blur"",""204"",""266953""
","""event"",""trial"",""time""
""focus"",""204"",""267102""
","""event"",""trial"",""time""
""fullscreenenter"",""0"",""1617""
","
","null","run_exp/static/audio/clip_17_correct.m4a","null","","","","","<div class='center'><p>That's correct!</p></div>","","",""
"","html-keyboard-response","241","401315","0.0-226.0-1.0","""event"",""trial"",""time""
""fullscreenenter"",""0"",""1617""
""blur"",""204"",""266953""
""focus"",""204"",""267102""
","""event"",""trial"",""time""
""blur"",""204"",""266953""
","""event"",""trial"",""time""
""focus"",""204"",""267102""
","""event"",""trial"",""time""
""fullscreenenter"",""0"",""1617""
","
","476.5","<div class='center'><p>That's correct!</p><div><p><b>[Press the space bar to continue]</b></p></div>","32","","","","","","","",""
"","practice_q2","242","401643","0.0-226.0-2.0","""event"",""trial"",""time""
""fullscreenenter"",""0"",""1617""
""blur"",""204"",""266953""
""focus"",""204"",""267102""
","""event"",""trial"",""time""
""blur"",""204"",""266953""
","""event"",""trial"",""time""
""focus"",""204"",""267102""
","""event"",""trial"",""time""
""fullscreenenter"",""0"",""1617""
","
","327.10000002384186","run_exp/static/audio/clip_16_practice_question.m4a","86","","","","","","","",""
"","correct","243","403538","0.0-227.0-0.0","""event"",""trial"",""time""
""fullscreenenter"",""0"",""1617""
""blur"",""204"",""266953""
""focus"",""204"",""267102""
","""event"",""trial"",""time""
""blur"",""204"",""266953""
","""event"",""trial"",""time""
""focus"",""204"",""267102""
","""event"",""trial"",""time""
""fullscreenenter"",""0"",""1617""
","
","null","run_exp/static/audio/clip_17_correct.m4a","null","","","","","<div class='center'><p>That's correct!</p></div>","","",""
"","html-keyboard-response","244","404219","0.0-227.0-1.0","""event"",""trial"",""time""
""fullscreenenter"",""0"",""1617""
""blur"",""204"",""266953""
""focus"",""204"",""267102""
","""event"",""trial"",""time""
""blur"",""204"",""266953""
","""event"",""trial"",""time""
""focus"",""204"",""267102""
","""event"",""trial"",""time""
""fullscreenenter"",""0"",""1617""
","
","680.3999999761581","<div class='center'><p>That's correct!</p><div><p><b>[Press the space bar to continue]</b></p></div>","32","","","","","","","",""
"","practice_q3","245","404563","0.0-227.0-2.0","""event"",""trial"",""time""
""fullscreenenter"",""0"",""1617""
""blur"",""204"",""266953""
""focus"",""204"",""267102""
","""event"",""trial"",""time""
""blur"",""204"",""266953""
","""event"",""trial"",""time""
""focus"",""204"",""267102""
","""event"",""trial"",""time""
""fullscreenenter"",""0"",""1617""
","
","342.89999997615814","run_exp/static/audio/clip_16_practice_question.m4a","66","","","","","","","",""
"","correct","246","406539","0.0-228.0-0.0","""event"",""trial"",""time""
""fullscreenenter"",""0"",""1617""
""blur"",""204"",""266953""
""focus"",""204"",""267102""
","""event"",""trial"",""time""
""blur"",""204"",""266953""
","""event"",""trial"",""time""
""focus"",""204"",""267102""
","""event"",""trial"",""time""
""fullscreenenter"",""0"",""1617""
","
","null","run_exp/static/audio/clip_17_correct.m4a","null","","","","","<div class='center'><p>That's correct!</p></div>","","",""
"","html-keyboard-response","247","407419","0.0-228.0-1.0","""event"",""trial"",""time""
""fullscreenenter"",""0"",""1617""
""blur"",""204"",""266953""
""focus"",""204"",""267102""
","""event"",""trial"",""time""
""blur"",""204"",""266953""
","""event"",""trial"",""time""
""focus"",""204"",""267102""
","""event"",""trial"",""time""
""fullscreenenter"",""0"",""1617""
","
","879.8000000119209","<div class='center'><p>That's correct!</p><div><p><b>[Press the space bar to continue]</b></p></div>","32","","","","","","","",""
"","begin_text","248","425898","0.0-229.0-0.0","""event"",""trial"",""time""
""fullscreenenter"",""0"",""1617""
""blur"",""204"",""266953""
""focus"",""204"",""267102""
","""event"",""trial"",""time""
""blur"",""204"",""266953""
","""event"",""trial"",""time""
""focus"",""204"",""267102""
","""event"",""trial"",""time""
""fullscreenenter"",""0"",""1617""
","
","null","run_exp/static/audio/clip_22_begin_test.m4a","null","","","","","<div class='center'><p>On to the real game where well test your memory of items from the indoor/outdoor game. For each item, you need to indicate if the item is <b>old</b> by pressing the <b>v</b> key, <b>similar</b> by pressing the <b>b</b> key, or <b>new</b> by pressing the <b>n</b> key. </p></div>","","",""
"","html-keyboard-response","249","426435","0.0-229.0-1.0","""event"",""trial"",""time""
""fullscreenenter"",""0"",""1617""
""blur"",""204"",""266953""
""focus"",""204"",""267102""
","""event"",""trial"",""time""
""blur"",""204"",""266953""
","""event"",""trial"",""time""
""focus"",""204"",""267102""
","""event"",""trial"",""time""
""fullscreenenter"",""0"",""1617""
","
","536.5","<div class='center'><p>On to the real game where well test your memory of items from the indoor/outdoor game. For each item, you need to indicate if the item is <b>old</b> by pressing the <b>v</b> key, <b>similar</b> by pressing the <b>b</b> key, or <b>new</b> by pressing the <b>n</b> key. </p><div><p><b>[Press the space bar to continue]</b></p></div>","32","","","","","","","",""
"","image","250","427996","0.0-230.0-0.0","""event"",""trial"",""time""
""fullscreenenter"",""0"",""1617""
""blur"",""204"",""266953""
""focus"",""204"",""267102""
","""event"",""trial"",""time""
""blur"",""204"",""266953""
","""event"",""trial"",""time""
""focus"",""204"",""267102""
","""event"",""trial"",""time""
""fullscreenenter"",""0"",""1617""
","
","1559.5","run_exp/static/images/Set 6_rs/105a.jpg","78","","","","","","test","TF","5"
"","show_choice","251","428505","0.0-230.0-1.0","""event"",""trial"",""time""
""fullscreenenter"",""0"",""1617""
""blur"",""204"",""266953""
""focus"",""204"",""267102""
","""event"",""trial"",""time""
""blur"",""204"",""266953""
","""event"",""trial"",""time""
""focus"",""204"",""267102""
","""event"",""trial"",""time""
""fullscreenenter"",""0"",""1617""
","
","null","run_exp/static/images/Set 6_rs/105a.jpg","null","","","","","","test","TF",""
"","html-keyboard-response","252","429008","0.0-230.0-2.0","""event"",""trial"",""time""
""fullscreenenter"",""0"",""1617""
""blur"",""204"",""266953""
""focus"",""204"",""267102""
","""event"",""trial"",""time""
""blur"",""204"",""266953""
","""event"",""trial"",""time""
""focus"",""204"",""267102""
","""event"",""trial"",""time""
""fullscreenenter"",""0"",""1617""
","
","null","<p></p>","null","","","","","","","",""
"","image","253","430675","0.0-231.0-0.0","""event"",""trial"",""time""
""fullscreenenter"",""0"",""1617""
""blur"",""204"",""266953""
""focus"",""204"",""267102""
","""event"",""trial"",""time""
""blur"",""204"",""266953""
","""event"",""trial"",""time""
""focus"",""204"",""267102""
","""event"",""trial"",""time""
""fullscreenenter"",""0"",""1617""
","
","1666.5","run_exp/static/images/Set 6_rs/005a.jpg","78","","","","","","test","TF","5"
"","show_choice","254","431179","0.0-231.0-1.0","""event"",""trial"",""time""
""fullscreenenter"",""0"",""1617""
""blur"",""204"",""266953""
""focus"",""204"",""267102""
","""event"",""trial"",""time""
""blur"",""204"",""266953""
","""event"",""trial"",""time""
""focus"",""204"",""267102""
","""event"",""trial"",""time""
""fullscreenenter"",""0"",""1617""
","
","null","run_exp/static/images/Set 6_rs/005a.jpg","null","","","","","","test","TF",""
"","html-keyboard-response","255","431681","0.0-231.0-2.0","""event"",""trial"",""time""
""fullscreenenter"",""0"",""1617""
""blur"",""204"",""266953""
""focus"",""204"",""267102""
","""event"",""trial"",""time""
""blur"",""204"",""266953""
","""event"",""trial"",""time""
""focus"",""204"",""267102""
","""event"",""trial"",""time""
""fullscreenenter"",""0"",""1617""
","
","null","<p></p>","null","","","","","","","",""
"","image","256","432932","0.0-232.0-0.0","""event"",""trial"",""time""
""fullscreenenter"",""0"",""1617""
""blur"",""204"",""266953""
""focus"",""204"",""267102""
","""event"",""trial"",""time""
""blur"",""204"",""266953""
","""event"",""trial"",""time""
""focus"",""204"",""267102""
","""event"",""trial"",""time""
""fullscreenenter"",""0"",""1617""
","
","1249.3999999761581","run_exp/static/images/Set 6_rs/191b.jpg","66","","","","","","test","TL","2"
"","show_choice","257","433447","0.0-232.0-1.0","""event"",""trial"",""time""
""fullscreenenter"",""0"",""1617""
""blur"",""204"",""266953""
""focus"",""204"",""267102""
","""event"",""trial"",""time""
""blur"",""204"",""266953""
","""event"",""trial"",""time""
""focus"",""204"",""267102""
","""event"",""trial"",""time""
""fullscreenenter"",""0"",""1617""
","
","null","run_exp/static/images/Set 6_rs/191b.jpg","null","","","","","","test","TL",""
"","html-keyboard-response","258","433947","0.0-232.0-2.0","""event"",""trial"",""time""
""fullscreenenter"",""0"",""1617""
""blur"",""204"",""266953""
""focus"",""204"",""267102""
","""event"",""trial"",""time""
""blur"",""204"",""266953""
","""event"",""trial"",""time""
""focus"",""204"",""267102""
","""event"",""trial"",""time""
""fullscreenenter"",""0"",""1617""
","
","null","<p></p>","null","","","","","","","",""
"","image","259","434819","0.0-233.0-0.0","""event"",""trial"",""time""
""fullscreenenter"",""0"",""1617""
""blur"",""204"",""266953""
""focus"",""204"",""267102""
","""event"",""trial"",""time""
""blur"",""204"",""266953""
","""event"",""trial"",""time""
""focus"",""204"",""267102""
","""event"",""trial"",""time""
""fullscreenenter"",""0"",""1617""
","
","870.8999999761581","run_exp/static/images/Set 6_rs/186a.jpg","86","","","","","","test","TR","5"
"","show_choice","260","435327","0.0-233.0-1.0","""event"",""trial"",""time""
""fullscreenenter"",""0"",""1617""
""blur"",""204"",""266953""
""focus"",""204"",""267102""
","""event"",""trial"",""time""
""blur"",""204"",""266953""
","""event"",""trial"",""time""
""focus"",""204"",""267102""
","""event"",""trial"",""time""
""fullscreenenter"",""0"",""1617""
","
","null","run_exp/static/images/Set 6_rs/186a.jpg","null","","","","","","test","TR",""
"","html-keyboard-response","261","435830","0.0-233.0-2.0","""event"",""trial"",""time""
""fullscreenenter"",""0"",""1617""
""blur"",""204"",""266953""
""focus"",""204"",""267102""
","""event"",""trial"",""time""
""blur"",""204"",""266953""
","""event"",""trial"",""time""
""focus"",""204"",""267102""
","""event"",""trial"",""time""
""fullscreenenter"",""0"",""1617""
","
","null","<p></p>","null","","","","","","","",""
"","image","262","437307","0.0-234.0-0.0","""event"",""trial"",""time""
""fullscreenenter"",""0"",""1617""
""blur"",""204"",""266953""
""focus"",""204"",""267102""
","""event"",""trial"",""time""
""blur"",""204"",""266953""
","""event"",""trial"",""time""
""focus"",""204"",""267102""
","""event"",""trial"",""time""
""fullscreenenter"",""0"",""1617""
","
","1476.300000011921","run_exp/static/images/Set 6_rs/155a.jpg","78","","","","","","test","TF","4"
"","show_choice","263","437819","0.0-234.0-1.0","""event"",""trial"",""time""
""fullscreenenter"",""0"",""1617""
""blur"",""204"",""266953""
""focus"",""204"",""267102""
","""event"",""trial"",""time""
""blur"",""204"",""266953""
","""event"",""trial"",""time""
""focus"",""204"",""267102""
","""event"",""trial"",""time""
""fullscreenenter"",""0"",""1617""
","
","null","run_exp/static/images/Set 6_rs/155a.jpg","null","","","","","","test","TF",""
"","html-keyboard-response","264","438321","0.0-234.0-2.0","""event"",""trial"",""time""
""fullscreenenter"",""0"",""1617""
""blur"",""204"",""266953""
""focus"",""204"",""267102""
","""event"",""trial"",""time""
""blur"",""204"",""266953""
","""event"",""trial"",""time""
""focus"",""204"",""267102""
","""event"",""trial"",""time""
""fullscreenenter"",""0"",""1617""
","
","null","<p></p>","null","","","","","","","",""
"","image","265","439476","0.0-235.0-0.0","""event"",""trial"",""time""
""fullscreenenter"",""0"",""1617""
""blur"",""204"",""266953""
""focus"",""204"",""267102""
","""event"",""trial"",""time""
""blur"",""204"",""266953""
","""event"",""trial"",""time""
""focus"",""204"",""267102""
","""event"",""trial"",""time""
""fullscreenenter"",""0"",""1617""
","
","1153.699999988079","run_exp/static/images/Set 6_rs/172a.jpg","66","","","","","","test","TR","1"
"","show_choice","266","439983","0.0-235.0-1.0","""event"",""trial"",""time""
""fullscreenenter"",""0"",""1617""
""blur"",""204"",""266953""
""focus"",""204"",""267102""
","""event"",""trial"",""time""
""blur"",""204"",""266953""
","""event"",""trial"",""time""
""focus"",""204"",""267102""
","""event"",""trial"",""time""
""fullscreenenter"",""0"",""1617""
","
","null","run_exp/static/images/Set 6_rs/172a.jpg","null","","","","","","test","TR",""
"","html-keyboard-response","267","440486","0.0-235.0-2.0","""event"",""trial"",""time""
""fullscreenenter"",""0"",""1617""
""blur"",""204"",""266953""
""focus"",""204"",""267102""
","""event"",""trial"",""time""
""blur"",""204"",""266953""
","""event"",""trial"",""time""
""focus"",""204"",""267102""
","""event"",""trial"",""time""
""fullscreenenter"",""0"",""1617""
","
","null","<p></p>","null","","","","","","","",""
"","image","268","441667","0.0-236.0-0.0","""event"",""trial"",""time""
""fullscreenenter"",""0"",""1617""
""blur"",""204"",""266953""
""focus"",""204"",""267102""
","""event"",""trial"",""time""
""blur"",""204"",""266953""
","""event"",""trial"",""time""
""focus"",""204"",""267102""
","""event"",""trial"",""time""
""fullscreenenter"",""0"",""1617""
","
","1180.2999999523163","run_exp/static/images/Set 6_rs/077a.jpg","78","","","","","","test","TF","3"
"","show_choice","269","442179","0.0-236.0-1.0","""event"",""trial"",""time""
""fullscreenenter"",""0"",""1617""
""blur"",""204"",""266953""
""focus"",""204"",""267102""
","""event"",""trial"",""time""
""blur"",""204"",""266953""
","""event"",""trial"",""time""
""focus"",""204"",""267102""
","""event"",""trial"",""time""
""fullscreenenter"",""0"",""1617""
","
","null","run_exp/static/images/Set 6_rs/077a.jpg","null","","","","","","test","TF",""
"","html-keyboard-response","270","442695","0.0-236.0-2.0","""event"",""trial"",""time""
""fullscreenenter"",""0"",""1617""
""blur"",""204"",""266953""
""focus"",""204"",""267102""
","""event"",""trial"",""time""
""blur"",""204"",""266953""
","""event"",""trial"",""time""
""focus"",""204"",""267102""
","""event"",""trial"",""time""
""fullscreenenter"",""0"",""1617""
","
","null","<p></p>","null","","","","","","","",""
"","image","271","443955","0.0-237.0-0.0","""event"",""trial"",""time""
""fullscreenenter"",""0"",""1617""
""blur"",""204"",""266953""
""focus"",""204"",""267102""
","""event"",""trial"",""time""
""blur"",""204"",""266953""
","""event"",""trial"",""time""
""focus"",""204"",""267102""
","""event"",""trial"",""time""
""fullscreenenter"",""0"",""1617""
","
","1259.1000000238419","run_exp/static/images/Set 6_rs/097a.jpg","78","","","","","","test","TF","5"
"","show_choice","272","444467","0.0-237.0-1.0","""event"",""trial"",""time""
""fullscreenenter"",""0"",""1617""
""blur"",""204"",""266953""
""focus"",""204"",""267102""
","""event"",""trial"",""time""
""blur"",""204"",""266953""
","""event"",""trial"",""time""
""focus"",""204"",""267102""
","""event"",""trial"",""time""
""fullscreenenter"",""0"",""1617""
","
","null","run_exp/static/images/Set 6_rs/097a.jpg","null","","","","","","test","TF",""
"","html-keyboard-response","273","444983","0.0-237.0-2.0","""event"",""trial"",""time""
""fullscreenenter"",""0"",""1617""
""blur"",""204"",""266953""
""focus"",""204"",""267102""
","""event"",""trial"",""time""
""blur"",""204"",""266953""
","""event"",""trial"",""time""
""focus"",""204"",""267102""
","""event"",""trial"",""time""
""fullscreenenter"",""0"",""1617""
","
","null","<p></p>","null","","","","","","","",""
"","image","274","446011","0.0-238.0-0.0","""event"",""trial"",""time""
""fullscreenenter"",""0"",""1617""
""blur"",""204"",""266953""
""focus"",""204"",""267102""
","""event"",""trial"",""time""
""blur"",""204"",""266953""
","""event"",""trial"",""time""
""focus"",""204"",""267102""
","""event"",""trial"",""time""
""fullscreenenter"",""0"",""1617""
","
","1026.5999999642372","run_exp/static/images/Set 6_rs/166a.jpg","86","","","","","","test","TR","1"
"","show_choice","275","446523","0.0-238.0-1.0","""event"",""trial"",""time""
""fullscreenenter"",""0"",""1617""
""blur"",""204"",""266953""
""focus"",""204"",""267102""
","""event"",""trial"",""time""
""blur"",""204"",""266953""
","""event"",""trial"",""time""
""focus"",""204"",""267102""
","""event"",""trial"",""time""
""fullscreenenter"",""0"",""1617""
","
","null","run_exp/static/images/Set 6_rs/166a.jpg","null","","","","","","test","TR",""
"","html-keyboard-response","276","447039","0.0-238.0-2.0","""event"",""trial"",""time""
""fullscreenenter"",""0"",""1617""
""blur"",""204"",""266953""
""focus"",""204"",""267102""
","""event"",""trial"",""time""
""blur"",""204"",""266953""
","""event"",""trial"",""time""
""focus"",""204"",""267102""
","""event"",""trial"",""time""
""fullscreenenter"",""0"",""1617""
","
","null","<p></p>","null","","","","","","","",""
"","image","277","447860","0.0-239.0-0.0","""event"",""trial"",""time""
""fullscreenenter"",""0"",""1617""
""blur"",""204"",""266953""
""focus"",""204"",""267102""
","""event"",""trial"",""time""
""blur"",""204"",""266953""
","""event"",""trial"",""time""
""focus"",""204"",""267102""
","""event"",""trial"",""time""
""fullscreenenter"",""0"",""1617""
","
","819.6999999880791","run_exp/static/images/Set 6_rs/063a.jpg","86","","","","","","test","TR","2"
"","show_choice","278","448366","0.0-239.0-1.0","""event"",""trial"",""time""
""fullscreenenter"",""0"",""1617""
""blur"",""204"",""266953""
""focus"",""204"",""267102""
","""event"",""trial"",""time""
""blur"",""204"",""266953""
","""event"",""trial"",""time""
""focus"",""204"",""267102""
","""event"",""trial"",""time""
""fullscreenenter"",""0"",""1617""
","
","null","run_exp/static/images/Set 6_rs/063a.jpg","null","","","","","","test","TR",""
"","html-keyboard-response","279","448871","0.0-239.0-2.0","""event"",""trial"",""time""
""fullscreenenter"",""0"",""1617""
""blur"",""204"",""266953""
""focus"",""204"",""267102""
","""event"",""trial"",""time""
""blur"",""204"",""266953""
","""event"",""trial"",""time""
""focus"",""204"",""267102""
","""event"",""trial"",""time""
""fullscreenenter"",""0"",""1617""
","
","null","<p></p>","null","","","","","","","",""
"","image","280","450403","0.0-240.0-0.0","""event"",""trial"",""time""
""fullscreenenter"",""0"",""1617""
""blur"",""204"",""266953""
""focus"",""204"",""267102""
","""event"",""trial"",""time""
""blur"",""204"",""266953""
","""event"",""trial"",""time""
""focus"",""204"",""267102""
","""event"",""trial"",""time""
""fullscreenenter"",""0"",""1617""
","
","1531.6000000238419","run_exp/static/images/Set 6_rs/050b.jpg","66","","","","","","test","TL","3"
"","show_choice","281","450911","0.0-240.0-1.0","""event"",""trial"",""time""
""fullscreenenter"",""0"",""1617""
""blur"",""204"",""266953""
""focus"",""204"",""267102""
","""event"",""trial"",""time""
""blur"",""204"",""266953""
","""event"",""trial"",""time""
""focus"",""204"",""267102""
","""event"",""trial"",""time""
""fullscreenenter"",""0"",""1617""
","
","null","run_exp/static/images/Set 6_rs/050b.jpg","null","","","","","","test","TL",""
"","html-keyboard-response","282","451413","0.0-240.0-2.0","""event"",""trial"",""time""
""fullscreenenter"",""0"",""1617""
""blur"",""204"",""266953""
""focus"",""204"",""267102""
","""event"",""trial"",""time""
""blur"",""204"",""266953""
","""event"",""trial"",""time""
""focus"",""204"",""267102""
","""event"",""trial"",""time""
""fullscreenenter"",""0"",""1617""
","
","null","<p></p>","null","","","","","","","",""
"","image","283","452683","0.0-241.0-0.0","""event"",""trial"",""time""
""fullscreenenter"",""0"",""1617""
""blur"",""204"",""266953""
""focus"",""204"",""267102""
","""event"",""trial"",""time""
""blur"",""204"",""266953""
","""event"",""trial"",""time""
""focus"",""204"",""267102""
","""event"",""trial"",""time""
""fullscreenenter"",""0"",""1617""
","
","1269.199999988079","run_exp/static/images/Set 6_rs/170a.jpg","78","","","","","","test","TF","2"
"","show_choice","284","453186","0.0-241.0-1.0","""event"",""trial"",""time""
""fullscreenenter"",""0"",""1617""
""blur"",""204"",""266953""
""focus"",""204"",""267102""
","""event"",""trial"",""time""
""blur"",""204"",""266953""
","""event"",""trial"",""time""
