"success","trial_type","trial_index","time_elapsed","internal_node_id","interactions","blur_events","focus_events","fullscreenenter_events","fullscreenexit_events","rt","stimulus","key_press","subject_id","participant_id","age","gender","prompt","phase","condition","lure_bin"
"true","fullscreen","0","4057","0.0-0.0","""event"",""trial"",""time""
""fullscreenenter"",""0"",""3060""
","
","
","""event"",""trial"",""time""
""fullscreenenter"",""0"",""3060""
","
","","","","","","","","","","",""
"","pavlovia","1","4064","0.0-1.0","""event"",""trial"",""time""
""fullscreenenter"",""0"",""3060""
","
","
","""event"",""trial"",""time""
""fullscreenenter"",""0"",""3060""
","
","","","","","","","","","","",""
"","welcome","2","38912","0.0-2.0","""event"",""trial"",""time""
""fullscreenenter"",""0"",""3060""
","
","
","""event"",""trial"",""time""
""fullscreenenter"",""0"",""3060""
","
","null","run_exp/static/audio/clip_1_welcome.m4a","null","1565","1708","20","Male","<div class='center'><p>Welcome to the third part of the study! First, you'll be shown pictures of items one at a time. For each picture, you have to decide if the item is typically found indoors or outdoors.</p><p>If you think it's usually found indoors, then press <b>v</b> key on your keyboard. If you think it's usually found outdoors, then press the <b>n</b> key.There will be reminders on the screen to help you remember which keys to press. </p><p>If you're not sure whether the item is an indoor item or an outdoor item, go ahead and take a guess but try your best not to skip that choice. </p></div>","","",""
"","html-keyboard-response","3","39517","0.0-3.0","""event"",""trial"",""time""
""fullscreenenter"",""0"",""3060""
","
","
","""event"",""trial"",""time""
""fullscreenenter"",""0"",""3060""
","
","602.2000000029802","<div class='center'><p>Welcome to the third part of the study! First, you'll be shown pictures of items one at a time. For each picture, you have to decide if the item is typically found indoors or outdoors.</p><p>If you think it's usually found indoors, then press <b>v</b> key on your keyboard. If you think it's usually found outdoors, then press the <b>n</b> key.There will be reminders on the screen to help you remember which keys to press. </p><p>If you're not sure whether the item is an indoor item or an outdoor item, go ahead and take a guess but try your best not to skip that choice. </p><div><p><b>[Press the space bar to continue]</b></p></div>","32","","","","","","","",""
"","image","4","40794","0.0-4.0","""event"",""trial"",""time""
""fullscreenenter"",""0"",""3060""
","
","
","""event"",""trial"",""time""
""fullscreenenter"",""0"",""3060""
","
","1275.3999999985099","run_exp/static/images/Set 6_rs/134a.jpg","86","","","","","","learn","SR",""
"","show_choice","5","41535","0.0-5.0","""event"",""trial"",""time""
""fullscreenenter"",""0"",""3060""
","
","
","""event"",""trial"",""time""
""fullscreenenter"",""0"",""3060""
","
","null","run_exp/static/images/Set 6_rs/134a.jpg","null","","","","","","learn","SR",""
"","html-keyboard-response","6","42041","0.0-6.0","""event"",""trial"",""time""
""fullscreenenter"",""0"",""3060""
","
","
","""event"",""trial"",""time""
""fullscreenenter"",""0"",""3060""
","
","null","<p></p>","null","","","","","","","",""
"","image","7","42969","0.0-7.0","""event"",""trial"",""time""
""fullscreenenter"",""0"",""3060""
","
","
","""event"",""trial"",""time""
""fullscreenenter"",""0"",""3060""
","
","926.3999999985099","run_exp/static/images/Set 6_rs/071a.jpg","78","","","","","","learn","SL",""
"","show_choice","8","44044","0.0-8.0","""event"",""trial"",""time""
""fullscreenenter"",""0"",""3060""
","
","
","""event"",""trial"",""time""
""fullscreenenter"",""0"",""3060""
","
","null","run_exp/static/images/Set 6_rs/071a.jpg","null","","","","","","learn","SL",""
"","html-keyboard-response","9","44551","0.0-9.0","""event"",""trial"",""time""
""fullscreenenter"",""0"",""3060""
","
","
","""event"",""trial"",""time""
""fullscreenenter"",""0"",""3060""
","
","null","<p></p>","null","","","","","","","",""
"","image","10","45463","0.0-10.0","""event"",""trial"",""time""
""fullscreenenter"",""0"",""3060""
","
","
","""event"",""trial"",""time""
""fullscreenenter"",""0"",""3060""
","
","910.8000000007451","run_exp/static/images/Set 6_rs/025a.jpg","78","","","","","","learn","SL",""
"","show_choice","11","46556","0.0-11.0","""event"",""trial"",""time""
""fullscreenenter"",""0"",""3060""
","
","
","""event"",""trial"",""time""
""fullscreenenter"",""0"",""3060""
","
","null","run_exp/static/images/Set 6_rs/025a.jpg","null","","","","","","learn","SL",""
"","html-keyboard-response","12","47061","0.0-12.0","""event"",""trial"",""time""
""fullscreenenter"",""0"",""3060""
","
","
","""event"",""trial"",""time""
""fullscreenenter"",""0"",""3060""
","
","null","<p></p>","null","","","","","","","",""
"","image","13","47893","0.0-13.0","""event"",""trial"",""time""
""fullscreenenter"",""0"",""3060""
","
","
","""event"",""trial"",""time""
""fullscreenenter"",""0"",""3060""
","
","830.0999999977648","run_exp/static/images/Set 6_rs/178a.jpg","78","","","","","","learn","SR",""
"","show_choice","14","49067","0.0-14.0","""event"",""trial"",""time""
""fullscreenenter"",""0"",""3060""
","
","
","""event"",""trial"",""time""
""fullscreenenter"",""0"",""3060""
","
","null","run_exp/static/images/Set 6_rs/178a.jpg","null","","","","","","learn","SR",""
"","html-keyboard-response","15","49570","0.0-15.0","""event"",""trial"",""time""
""fullscreenenter"",""0"",""3060""
","
","
","""event"",""trial"",""time""
""fullscreenenter"",""0"",""3060""
","
","null","<p></p>","null","","","","","","","",""
"","image","16","50199","0.0-16.0","""event"",""trial"",""time""
""fullscreenenter"",""0"",""3060""
","
","
","""event"",""trial"",""time""
""fullscreenenter"",""0"",""3060""
","
","628.6000000014901","run_exp/static/images/Set 6_rs/154a.jpg","86","","","","","","learn","SR",""
"","show_choice","17","51576","0.0-17.0","""event"",""trial"",""time""
""fullscreenenter"",""0"",""3060""
","
","
","""event"",""trial"",""time""
""fullscreenenter"",""0"",""3060""
","
","null","run_exp/static/images/Set 6_rs/154a.jpg","null","","","","","","learn","SR",""
"","html-keyboard-response","18","52082","0.0-18.0","""event"",""trial"",""time""
""fullscreenenter"",""0"",""3060""
","
","
","""event"",""trial"",""time""
""fullscreenenter"",""0"",""3060""
","
","null","<p></p>","null","","","","","","","",""
"","image","19","53000","0.0-19.0","""event"",""trial"",""time""
""fullscreenenter"",""0"",""3060""
","
","
","""event"",""trial"",""time""
""fullscreenenter"",""0"",""3060""
","
","916.5999999977648","run_exp/static/images/Set 6_rs/036a.jpg","86","","","","","","learn","SL",""
"","show_choice","20","54089","0.0-20.0","""event"",""trial"",""time""
""fullscreenenter"",""0"",""3060""
","
","
","""event"",""trial"",""time""
""fullscreenenter"",""0"",""3060""
","
","null","run_exp/static/images/Set 6_rs/036a.jpg","null","","","","","","learn","SL",""
"","html-keyboard-response","21","54595","0.0-21.0","""event"",""trial"",""time""
""fullscreenenter"",""0"",""3060""
","
","
","""event"",""trial"",""time""
""fullscreenenter"",""0"",""3060""
","
","null","<p></p>","null","","","","","","","",""
"","image","22","55558","0.0-22.0","""event"",""trial"",""time""
""fullscreenenter"",""0"",""3060""
","
","
","""event"",""trial"",""time""
""fullscreenenter"",""0"",""3060""
","
","961.0999999977648","run_exp/static/images/Set 6_rs/074a.jpg","78","","","","","","learn","SL",""
"","show_choice","23","56602","0.0-23.0","""event"",""trial"",""time""
""fullscreenenter"",""0"",""3060""
","
","
","""event"",""trial"",""time""
""fullscreenenter"",""0"",""3060""
","
","null","run_exp/static/images/Set 6_rs/074a.jpg","null","","","","","","learn","SL",""
"","html-keyboard-response","24","57108","0.0-24.0","""event"",""trial"",""time""
""fullscreenenter"",""0"",""3060""
","
","
","""event"",""trial"",""time""
""fullscreenenter"",""0"",""3060""
","
","null","<p></p>","null","","","","","","","",""
"","image","25","57880","0.0-25.0","""event"",""trial"",""time""
""fullscreenenter"",""0"",""3060""
","
","
","""event"",""trial"",""time""
""fullscreenenter"",""0"",""3060""
","
","770","run_exp/static/images/Set 6_rs/007a.jpg","86","","","","","","learn","SR",""
"","show_choice","26","59115","0.0-26.0","""event"",""trial"",""time""
""fullscreenenter"",""0"",""3060""
","
","
","""event"",""trial"",""time""
""fullscreenenter"",""0"",""3060""
","
","null","run_exp/static/images/Set 6_rs/007a.jpg","null","","","","","","learn","SR",""
"","html-keyboard-response","27","59621","0.0-27.0","""event"",""trial"",""time""
""fullscreenenter"",""0"",""3060""
","
","
","""event"",""trial"",""time""
""fullscreenenter"",""0"",""3060""
","
","null","<p></p>","null","","","","","","","",""
"","image","28","60569","0.0-28.0","""event"",""trial"",""time""
""fullscreenenter"",""0"",""3060""
","
","
","""event"",""trial"",""time""
""fullscreenenter"",""0"",""3060""
","
","946.4000000022352","run_exp/static/images/Set 6_rs/076a.jpg","78","","","","","","learn","SR",""
"","show_choice","29","61628","0.0-29.0","""event"",""trial"",""time""
""fullscreenenter"",""0"",""3060""
","
","
","""event"",""trial"",""time""
""fullscreenenter"",""0"",""3060""
","
","null","run_exp/static/images/Set 6_rs/076a.jpg","null","","","","","","learn","SR",""
"","html-keyboard-response","30","62130","0.0-30.0","""event"",""trial"",""time""
""fullscreenenter"",""0"",""3060""
","
","
","""event"",""trial"",""time""
""fullscreenenter"",""0"",""3060""
","
","null","<p></p>","null","","","","","","","",""
"","image","31","63447","0.0-31.0","""event"",""trial"",""time""
""fullscreenenter"",""0"",""3060""
","
","
","""event"",""trial"",""time""
""fullscreenenter"",""0"",""3060""
","
","1315.1000000014901","run_exp/static/images/Set 6_rs/167a.jpg","86","","","","","","learn","SL",""
"","show_choice","32","64136","0.0-32.0","""event"",""trial"",""time""
""fullscreenenter"",""0"",""3060""
","
","
","""event"",""trial"",""time""
""fullscreenenter"",""0"",""3060""
","
","null","run_exp/static/images/Set 6_rs/167a.jpg","null","","","","","","learn","SL",""
"","html-keyboard-response","33","64637","0.0-33.0","""event"",""trial"",""time""
""fullscreenenter"",""0"",""3060""
","
","
","""event"",""trial"",""time""
""fullscreenenter"",""0"",""3060""
","
","null","<p></p>","null","","","","","","","",""
"","image","34","65628","0.0-34.0","""event"",""trial"",""time""
""fullscreenenter"",""0"",""3060""
","
","
","""event"",""trial"",""time""
""fullscreenenter"",""0"",""3060""
","
","989.3000000007451","run_exp/static/images/Set 6_rs/089a.jpg","86","","","","","","learn","SL",""
"","show_choice","35","66640","0.0-35.0","""event"",""trial"",""time""
""fullscreenenter"",""0"",""3060""
","
","
","""event"",""trial"",""time""
""fullscreenenter"",""0"",""3060""
","
","null","run_exp/static/images/Set 6_rs/089a.jpg","null","","","","","","learn","SL",""
"","html-keyboard-response","36","67146","0.0-36.0","""event"",""trial"",""time""
""fullscreenenter"",""0"",""3060""
","
","
","""event"",""trial"",""time""
""fullscreenenter"",""0"",""3060""
","
","null","<p></p>","null","","","","","","","",""
"","image","37","67958","0.0-37.0","""event"",""trial"",""time""
""fullscreenenter"",""0"",""3060""
","
","
","""event"",""trial"",""time""
""fullscreenenter"",""0"",""3060""
","
","810","run_exp/static/images/Set 6_rs/129a.jpg","86","","","","","","learn","SL",""
"","show_choice","38","69153","0.0-38.0","""event"",""trial"",""time""
""fullscreenenter"",""0"",""3060""
","
","
","""event"",""trial"",""time""
""fullscreenenter"",""0"",""3060""
","
","null","run_exp/static/images/Set 6_rs/129a.jpg","null","","","","","","learn","SL",""
"","html-keyboard-response","39","69657","0.0-39.0","""event"",""trial"",""time""
""fullscreenenter"",""0"",""3060""
","
","
","""event"",""trial"",""time""
""fullscreenenter"",""0"",""3060""
","
","null","<p></p>","null","","","","","","","",""
"","image","40","70485","0.0-40.0","""event"",""trial"",""time""
""fullscreenenter"",""0"",""3060""
","
","
","""event"",""trial"",""time""
""fullscreenenter"",""0"",""3060""
","
","825.6999999992549","run_exp/static/images/Set 6_rs/010a.jpg","86","","","","","","learn","SR",""
"","show_choice","41","71664","0.0-41.0","""event"",""trial"",""time""
""fullscreenenter"",""0"",""3060""
","
","
","""event"",""trial"",""time""
""fullscreenenter"",""0"",""3060""
","
","null","run_exp/static/images/Set 6_rs/010a.jpg","null","","","","","","learn","SR",""
"","html-keyboard-response","42","72165","0.0-42.0","""event"",""trial"",""time""
""fullscreenenter"",""0"",""3060""
","
","
","""event"",""trial"",""time""
""fullscreenenter"",""0"",""3060""
","
","null","<p></p>","null","","","","","","","",""
"","image","43","73023","0.0-43.0","""event"",""trial"",""time""
""fullscreenenter"",""0"",""3060""
","
","
","""event"",""trial"",""time""
""fullscreenenter"",""0"",""3060""
","
","856.5999999977648","run_exp/static/images/Set 6_rs/186a.jpg","86","","","","","","learn","SR",""
"","show_choice","44","74171","0.0-44.0","""event"",""trial"",""time""
""fullscreenenter"",""0"",""3060""
","
","
","""event"",""trial"",""time""
""fullscreenenter"",""0"",""3060""
","
","null","run_exp/static/images/Set 6_rs/186a.jpg","null","","","","","","learn","SR",""
"","html-keyboard-response","45","74677","0.0-45.0","""event"",""trial"",""time""
""fullscreenenter"",""0"",""3060""
","
","
","""event"",""trial"",""time""
""fullscreenenter"",""0"",""3060""
","
","null","<p></p>","null","","","","","","","",""
"","image","46","75583","0.0-46.0","""event"",""trial"",""time""
""fullscreenenter"",""0"",""3060""
","
","
","""event"",""trial"",""time""
""fullscreenenter"",""0"",""3060""
","
","904.6000000014901","run_exp/static/images/Set 6_rs/172a.jpg","78","","","","","","learn","SR",""
"","show_choice","47","76684","0.0-47.0","""event"",""trial"",""time""
""fullscreenenter"",""0"",""3060""
","
","
","""event"",""trial"",""time""
""fullscreenenter"",""0"",""3060""
","
","null","run_exp/static/images/Set 6_rs/172a.jpg","null","","","","","","learn","SR",""
"","html-keyboard-response","48","77188","0.0-48.0","""event"",""trial"",""time""
""fullscreenenter"",""0"",""3060""
","
","
","""event"",""trial"",""time""
""fullscreenenter"",""0"",""3060""
","
","null","<p></p>","null","","","","","","","",""
"","image","49","78016","0.0-49.0","""event"",""trial"",""time""
""fullscreenenter"",""0"",""3060""
","
","
","""event"",""trial"",""time""
""fullscreenenter"",""0"",""3060""
","
","826.1999999992549","run_exp/static/images/Set 6_rs/088a.jpg","86","","","","","","learn","SR",""
"","show_choice","50","79194","0.0-50.0","""event"",""trial"",""time""
""fullscreenenter"",""0"",""3060""
","
","
","""event"",""trial"",""time""
""fullscreenenter"",""0"",""3060""
","
","null","run_exp/static/images/Set 6_rs/088a.jpg","null","","","","","","learn","SR",""
"","html-keyboard-response","51","79696","0.0-51.0","""event"",""trial"",""time""
""fullscreenenter"",""0"",""3060""
","
","
","""event"",""trial"",""time""
""fullscreenenter"",""0"",""3060""
","
","null","<p></p>","null","","","","","","","",""
"","image","52","80813","0.0-52.0","""event"",""trial"",""time""
""fullscreenenter"",""0"",""3060""
","
","
","""event"",""trial"",""time""
""fullscreenenter"",""0"",""3060""
","
","1116","run_exp/static/images/Set 6_rs/062a.jpg","78","","","","","","learn","SL",""
"","show_choice","53","81702","0.0-53.0","""event"",""trial"",""time""
""fullscreenenter"",""0"",""3060""
","
","
","""event"",""trial"",""time""
""fullscreenenter"",""0"",""3060""
","
","null","run_exp/static/images/Set 6_rs/062a.jpg","null","","","","","","learn","SL",""
"","html-keyboard-response","54","82208","0.0-54.0","""event"",""trial"",""time""
""fullscreenenter"",""0"",""3060""
","
","
","""event"",""trial"",""time""
""fullscreenenter"",""0"",""3060""
","
","null","<p></p>","null","","","","","","","",""
"","image","55","82928","0.0-55.0","""event"",""trial"",""time""
""fullscreenenter"",""0"",""3060""
","
","
","""event"",""trial"",""time""
""fullscreenenter"",""0"",""3060""
","
","719.1000000014901","run_exp/static/images/Set 6_rs/112a.jpg","86","","","","","","learn","SR",""
"","show_choice","56","84211","0.0-56.0","""event"",""trial"",""time""
""fullscreenenter"",""0"",""3060""
","
","
","""event"",""trial"",""time""
""fullscreenenter"",""0"",""3060""
","
","null","run_exp/static/images/Set 6_rs/112a.jpg","null","","","","","","learn","SR",""
"","html-keyboard-response","57","84717","0.0-57.0","""event"",""trial"",""time""
""fullscreenenter"",""0"",""3060""
","
","
","""event"",""trial"",""time""
""fullscreenenter"",""0"",""3060""
","
","null","<p></p>","null","","","","","","","",""
"","image","58","86702","0.0-58.0","""event"",""trial"",""time""
""fullscreenenter"",""0"",""3060""
","
","
","""event"",""trial"",""time""
""fullscreenenter"",""0"",""3060""
","
","1983.4000000022352","run_exp/static/images/Set 6_rs/122a.jpg","86","","","","","","learn","SR",""
"","show_choice","59","86721","0.0-59.0","""event"",""trial"",""time""
""fullscreenenter"",""0"",""3060""
","
","
","""event"",""trial"",""time""
""fullscreenenter"",""0"",""3060""
","
","null","run_exp/static/images/Set 6_rs/122a.jpg","null","","","","","","learn","SR",""
"","html-keyboard-response","60","87224","0.0-60.0","""event"",""trial"",""time""
""fullscreenenter"",""0"",""3060""
","
","
","""event"",""trial"",""time""
""fullscreenenter"",""0"",""3060""
","
","null","<p></p>","null","","","","","","","",""
"","image","61","88895","0.0-61.0","""event"",""trial"",""time""
""fullscreenenter"",""0"",""3060""
","
","
","""event"",""trial"",""time""
""fullscreenenter"",""0"",""3060""
","
","1669.2999999970198","run_exp/static/images/Set 6_rs/008a.jpg","86","","","","","","learn","SL",""
"","show_choice","62","89231","0.0-62.0","""event"",""trial"",""time""
""fullscreenenter"",""0"",""3060""
","
","
","""event"",""trial"",""time""
""fullscreenenter"",""0"",""3060""
","
","null","run_exp/static/images/Set 6_rs/008a.jpg","null","","","","","","learn","SL",""
"","html-keyboard-response","63","89734","0.0-63.0","""event"",""trial"",""time""
""fullscreenenter"",""0"",""3060""
","
","
","""event"",""trial"",""time""
""fullscreenenter"",""0"",""3060""
","
","null","<p></p>","null","","","","","","","",""
"","image","64","90897","0.0-64.0","""event"",""trial"",""time""
""fullscreenenter"",""0"",""3060""
","
","
","""event"",""trial"",""time""
""fullscreenenter"",""0"",""3060""
","
","1161.699999999255","run_exp/static/images/Set 6_rs/126a.jpg","78","","","","","","learn","SR",""
"","show_choice","65","91740","0.0-65.0","""event"",""trial"",""time""
""fullscreenenter"",""0"",""3060""
","
","
","""event"",""trial"",""time""
""fullscreenenter"",""0"",""3060""
","
","null","run_exp/static/images/Set 6_rs/126a.jpg","null","","","","","","learn","SR",""
"","html-keyboard-response","66","92246","0.0-66.0","""event"",""trial"",""time""
""fullscreenenter"",""0"",""3060""
","
","
","""event"",""trial"",""time""
""fullscreenenter"",""0"",""3060""
","
","null","<p></p>","null","","","","","","","",""
"","image","67","93467","0.0-67.0","""event"",""trial"",""time""
""fullscreenenter"",""0"",""3060""
","
","
","""event"",""trial"",""time""
""fullscreenenter"",""0"",""3060""
","
","1219.300000000745","run_exp/static/images/Set 6_rs/131a.jpg","86","","","","","","learn","SR",""
"","show_choice","68","94251","0.0-68.0","""event"",""trial"",""time""
""fullscreenenter"",""0"",""3060""
","
","
","""event"",""trial"",""time""
""fullscreenenter"",""0"",""3060""
","
","null","run_exp/static/images/Set 6_rs/131a.jpg","null","","","","","","learn","SR",""
"","html-keyboard-response","69","94757","0.0-69.0","""event"",""trial"",""time""
""fullscreenenter"",""0"",""3060""
","
","
","""event"",""trial"",""time""
""fullscreenenter"",""0"",""3060""
","
","null","<p></p>","null","","","","","","","",""
"","image","70","96481","0.0-70.0","""event"",""trial"",""time""
""fullscreenenter"",""0"",""3060""
","
","
","""event"",""trial"",""time""
""fullscreenenter"",""0"",""3060""
","
","1722.800000000745","run_exp/static/images/Set 6_rs/117a.jpg","86","","","","","","learn","SL",""
"","show_choice","71","96763","0.0-71.0","""event"",""trial"",""time""
""fullscreenenter"",""0"",""3060""
","
","
","""event"",""trial"",""time""
""fullscreenenter"",""0"",""3060""
","
","null","run_exp/static/images/Set 6_rs/117a.jpg","null","","","","","","learn","SL",""
"","html-keyboard-response","72","97267","0.0-72.0","""event"",""trial"",""time""
""fullscreenenter"",""0"",""3060""
","
","
","""event"",""trial"",""time""
""fullscreenenter"",""0"",""3060""
","
","null","<p></p>","null","","","","","","","",""
"","image","73","98371","0.0-73.0","""event"",""trial"",""time""
""fullscreenenter"",""0"",""3060""
","
","
","""event"",""trial"",""time""
""fullscreenenter"",""0"",""3060""
","
","1102.6000000014901","run_exp/static/images/Set 6_rs/116a.jpg","86","","","","","","learn","SL",""
"","show_choice","74","99269","0.0-74.0","""event"",""trial"",""time""
""fullscreenenter"",""0"",""3060""
","
","
","""event"",""trial"",""time""
""fullscreenenter"",""0"",""3060""
","
","null","run_exp/static/images/Set 6_rs/116a.jpg","null","","","","","","learn","SL",""
"","html-keyboard-response","75","99775","0.0-75.0","""event"",""trial"",""time""
""fullscreenenter"",""0"",""3060""
","
","
","""event"",""trial"",""time""
""fullscreenenter"",""0"",""3060""
","
","null","<p></p>","null","","","","","","","",""
"","image","76","101529","0.0-76.0","""event"",""trial"",""time""
""fullscreenenter"",""0"",""3060""
","
","
","""event"",""trial"",""time""
""fullscreenenter"",""0"",""3060""
","
","1752.6000000014901","run_exp/static/images/Set 6_rs/191a.jpg","78","","","","","","learn","SL",""
"","show_choice","77","101782","0.0-77.0","""event"",""trial"",""time""
""fullscreenenter"",""0"",""3060""
","
","
","""event"",""trial"",""time""
""fullscreenenter"",""0"",""3060""
","
","null","run_exp/static/images/Set 6_rs/191a.jpg","null","","","","","","learn","SL",""
"","html-keyboard-response","78","102288","0.0-78.0","""event"",""trial"",""time""
""fullscreenenter"",""0"",""3060""
","
","
","""event"",""trial"",""time""
""fullscreenenter"",""0"",""3060""
","
","null","<p></p>","null","","","","","","","",""
"","image","79","103371","0.0-79.0","""event"",""trial"",""time""
""fullscreenenter"",""0"",""3060""
","
","
","""event"",""trial"",""time""
""fullscreenenter"",""0"",""3060""
","
","1081.699999999255","run_exp/static/images/Set 6_rs/166a.jpg","86","","","","","","learn","SR",""
"","show_choice","80","104295","0.0-80.0","""event"",""trial"",""time""
""fullscreenenter"",""0"",""3060""
","
","
","""event"",""trial"",""time""
""fullscreenenter"",""0"",""3060""
","
","null","run_exp/static/images/Set 6_rs/166a.jpg","null","","","","","","learn","SR",""
"","html-keyboard-response","81","104796","0.0-81.0","""event"",""trial"",""time""
""fullscreenenter"",""0"",""3060""
","
","
","""event"",""trial"",""time""
""fullscreenenter"",""0"",""3060""
","
","null","<p></p>","null","","","","","","","",""
"","image","82","105778","0.0-82.0","""event"",""trial"",""time""
""fullscreenenter"",""0"",""3060""
","
","
","""event"",""trial"",""time""
""fullscreenenter"",""0"",""3060""
","
","981.1000000014901","run_exp/static/images/Set 6_rs/132a.jpg","86","","","","","","learn","SR",""
"","show_choice","83","106798","0.0-83.0","""event"",""trial"",""time""
""fullscreenenter"",""0"",""3060""
","
","
","""event"",""trial"",""time""
""fullscreenenter"",""0"",""3060""
","
","null","run_exp/static/images/Set 6_rs/132a.jpg","null","","","","","","learn","SR",""
"","html-keyboard-response","84","107304","0.0-84.0","""event"",""trial"",""time""
""fullscreenenter"",""0"",""3060""
","
","
","""event"",""trial"",""time""
""fullscreenenter"",""0"",""3060""
","
","null","<p></p>","null","","","","","","","",""
"","image","85","107939","0.0-85.0","""event"",""trial"",""time""
""fullscreenenter"",""0"",""3060""
","
","
","""event"",""trial"",""time""
""fullscreenenter"",""0"",""3060""
","
","633.1000000014901","run_exp/static/images/Set 6_rs/057a.jpg","86","","","","","","learn","SL",""
"","show_choice","86","109308","0.0-86.0","""event"",""trial"",""time""
""fullscreenenter"",""0"",""3060""
","
","
","""event"",""trial"",""time""
""fullscreenenter"",""0"",""3060""
","
","null","run_exp/static/images/Set 6_rs/057a.jpg","null","","","","","","learn","SL",""
"","html-keyboard-response","87","109814","0.0-87.0","""event"",""trial"",""time""
""fullscreenenter"",""0"",""3060""
","
","
","""event"",""trial"",""time""
""fullscreenenter"",""0"",""3060""
","
","null","<p></p>","null","","","","","","","",""
"","image","88","110782","0.0-88.0","""event"",""trial"",""time""
""fullscreenenter"",""0"",""3060""
","
","
","""event"",""trial"",""time""
""fullscreenenter"",""0"",""3060""
","
","966.1999999992549","run_exp/static/images/Set 6_rs/152a.jpg","86","","","","","","learn","SR",""
"","show_choice","89","111821","0.0-89.0","""event"",""trial"",""time""
""fullscreenenter"",""0"",""3060""
","
","
","""event"",""trial"",""time""
""fullscreenenter"",""0"",""3060""
","
","null","run_exp/static/images/Set 6_rs/152a.jpg","null","","","","","","learn","SR",""
"","html-keyboard-response","90","112327","0.0-90.0","""event"",""trial"",""time""
""fullscreenenter"",""0"",""3060""
","
","
","""event"",""trial"",""time""
""fullscreenenter"",""0"",""3060""
","
","null","<p></p>","null","","","","","","","",""
"","image","91","113015","0.0-91.0","""event"",""trial"",""time""
""fullscreenenter"",""0"",""3060""
","
","
","""event"",""trial"",""time""
""fullscreenenter"",""0"",""3060""
","
","686.4000000022352","run_exp/static/images/Set 6_rs/169a.jpg","78","","","","","","learn","SR",""
"","show_choice","92","114329","0.0-92.0","""event"",""trial"",""time""
""fullscreenenter"",""0"",""3060""
","
","
","""event"",""trial"",""time""
""fullscreenenter"",""0"",""3060""
","
","null","run_exp/static/images/Set 6_rs/169a.jpg","null","","","","","","learn","SR",""
"","html-keyboard-response","93","114835","0.0-93.0","""event"",""trial"",""time""
""fullscreenenter"",""0"",""3060""
","
","
","""event"",""trial"",""time""
""fullscreenenter"",""0"",""3060""
","
","null","<p></p>","null","","","","","","","",""
"","image","94","115465","0.0-94.0","""event"",""trial"",""time""
""fullscreenenter"",""0"",""3060""
","
","
","""event"",""trial"",""time""
""fullscreenenter"",""0"",""3060""
","
","628.6999999992549","run_exp/static/images/Set 6_rs/079a.jpg","86","","","","","","learn","SL",""
"","show_choice","95","116838","0.0-95.0","""event"",""trial"",""time""
""fullscreenenter"",""0"",""3060""
","
","
","""event"",""trial"",""time""
""fullscreenenter"",""0"",""3060""
","
","null","run_exp/static/images/Set 6_rs/079a.jpg","null","","","","","","learn","SL",""
"","html-keyboard-response","96","117344","0.0-96.0","""event"",""trial"",""time""
""fullscreenenter"",""0"",""3060""
","
","
","""event"",""trial"",""time""
""fullscreenenter"",""0"",""3060""
","
","null","<p></p>","null","","","","","","","",""
"","image","97","118256","0.0-97.0","""event"",""trial"",""time""
""fullscreenenter"",""0"",""3060""
","
","
","""event"",""trial"",""time""
""fullscreenenter"",""0"",""3060""
","
","910","run_exp/static/images/Set 6_rs/150a.jpg","86","","","","","","learn","SR",""
"","show_choice","98","119351","0.0-98.0","""event"",""trial"",""time""
""fullscreenenter"",""0"",""3060""
","
","
","""event"",""trial"",""time""
""fullscreenenter"",""0"",""3060""
","
","null","run_exp/static/images/Set 6_rs/150a.jpg","null","","","","","","learn","SR",""
"","html-keyboard-response","99","119857","0.0-99.0","""event"",""trial"",""time""
""fullscreenenter"",""0"",""3060""
","
","
","""event"",""trial"",""time""
""fullscreenenter"",""0"",""3060""
","
","null","<p></p>","null","","","","","","","",""
"","image","100","120762","0.0-100.0","""event"",""trial"",""time""
""fullscreenenter"",""0"",""3060""
","
","
","""event"",""trial"",""time""
""fullscreenenter"",""0"",""3060""
","
","900.6999999992549","run_exp/static/images/Set 6_rs/063a.jpg","86","","","","","","learn","SR",""
"","show_choice","101","121864","0.0-101.0","""event"",""trial"",""time""
""fullscreenenter"",""0"",""3060""
","
","
","""event"",""trial"",""time""
""fullscreenenter"",""0"",""3060""
","
","null","run_exp/static/images/Set 6_rs/063a.jpg","null","","","","","","learn","SR",""
"","html-keyboard-response","102","122369","0.0-102.0","""event"",""trial"",""time""
""fullscreenenter"",""0"",""3060""
","
","
","""event"",""trial"",""time""
""fullscreenenter"",""0"",""3060""
","
","null","<p></p>","null","","","","","","","",""
"","image","103","123650","0.0-103.0","""event"",""trial"",""time""
""fullscreenenter"",""0"",""3060""
","
","
","""event"",""trial"",""time""
""fullscreenenter"",""0"",""3060""
","
","1279.699999999255","run_exp/static/images/Set 6_rs/064a.jpg","86","","","","","","learn","SR",""
"","show_choice","104","124373","0.0-104.0","""event"",""trial"",""time""
""fullscreenenter"",""0"",""3060""
","
","
","""event"",""trial"",""time""
""fullscreenenter"",""0"",""3060""
","
","null","run_exp/static/images/Set 6_rs/064a.jpg","null","","","","","","learn","SR",""
"","html-keyboard-response","105","124879","0.0-105.0","""event"",""trial"",""time""
""fullscreenenter"",""0"",""3060""
","
","
","""event"",""trial"",""time""
""fullscreenenter"",""0"",""3060""
","
","null","<p></p>","null","","","","","","","",""
"","image","106","125554","0.0-106.0","""event"",""trial"",""time""
""fullscreenenter"",""0"",""3060""
","
","
","""event"",""trial"",""time""
""fullscreenenter"",""0"",""3060""
","
","673.4000000022352","run_exp/static/images/Set 6_rs/023a.jpg","86","","","","","","learn","SR",""
"","show_choice","107","126886","0.0-107.0","""event"",""trial"",""time""
""fullscreenenter"",""0"",""3060""
","
","
","""event"",""trial"",""time""
""fullscreenenter"",""0"",""3060""
","
","null","run_exp/static/images/Set 6_rs/023a.jpg","null","","","","","","learn","SR",""
"","html-keyboard-response","108","127392","0.0-108.0","""event"",""trial"",""time""
""fullscreenenter"",""0"",""3060""
","
","
","""event"",""trial"",""time""
""fullscreenenter"",""0"",""3060""
","
","null","<p></p>","null","","","","","","","",""
"","image","109","128185","0.0-109.0","""event"",""trial"",""time""
""fullscreenenter"",""0"",""3060""
","
","
","""event"",""trial"",""time""
""fullscreenenter"",""0"",""3060""
","
","791.5","run_exp/static/images/Set 6_rs/006a.jpg","86","","","","","","learn","SL",""
"","show_choice","110","129398","0.0-110.0","""event"",""trial"",""time""
""fullscreenenter"",""0"",""3060""
","
","
","""event"",""trial"",""time""
""fullscreenenter"",""0"",""3060""
","
","null","run_exp/static/images/Set 6_rs/006a.jpg","null","","","","","","learn","SL",""
"","html-keyboard-response","111","129905","0.0-111.0","""event"",""trial"",""time""
""fullscreenenter"",""0"",""3060""
","
","
","""event"",""trial"",""time""
""fullscreenenter"",""0"",""3060""
","
","null","<p></p>","null","","","","","","","",""
"","image","112","130797","0.0-112.0","""event"",""trial"",""time""
""fullscreenenter"",""0"",""3060""
","
","
","""event"",""trial"",""time""
""fullscreenenter"",""0"",""3060""
","
","891.4000000022352","run_exp/static/images/Set 6_rs/108a.jpg","86","","","","","","learn","SR",""
"","show_choice","113","131909","0.0-113.0","""event"",""trial"",""time""
""fullscreenenter"",""0"",""3060""
","
","
","""event"",""trial"",""time""
""fullscreenenter"",""0"",""3060""
","
","null","run_exp/static/images/Set 6_rs/108a.jpg","null","","","","","","learn","SR",""
"","html-keyboard-response","114","132413","0.0-114.0","""event"",""trial"",""time""
""fullscreenenter"",""0"",""3060""
","
","
","""event"",""trial"",""time""
""fullscreenenter"",""0"",""3060""
","
","null","<p></p>","null","","","","","","","",""
"","image","115","133129","0.0-115.0","""event"",""trial"",""time""
""fullscreenenter"",""0"",""3060""
","
","
","""event"",""trial"",""time""
""fullscreenenter"",""0"",""3060""
","
","715","run_exp/static/images/Set 6_rs/111a.jpg","86","","","","","","learn","SL",""
"","show_choice","116","134416","0.0-116.0","""event"",""trial"",""time""
""fullscreenenter"",""0"",""3060""
","
","
","""event"",""trial"",""time""
""fullscreenenter"",""0"",""3060""
","
","null","run_exp/static/images/Set 6_rs/111a.jpg","null","","","","","","learn","SL",""
"","html-keyboard-response","117","134922","0.0-117.0","""event"",""trial"",""time""
""fullscreenenter"",""0"",""3060""
","
","
","""event"",""trial"",""time""
""fullscreenenter"",""0"",""3060""
","
","null","<p></p>","null","","","","","","","",""
"","image","118","135651","0.0-118.0","""event"",""trial"",""time""
""fullscreenenter"",""0"",""3060""
","
","
","""event"",""trial"",""time""
""fullscreenenter"",""0"",""3060""
","
","727.8000000007451","run_exp/static/images/Set 6_rs/012a.jpg","86","","","","","","learn","SR",""
"","show_choice","119","136928","0.0-119.0","""event"",""trial"",""time""
""fullscreenenter"",""0"",""3060""
","
","
","""event"",""trial"",""time""
""fullscreenenter"",""0"",""3060""
","
","null","run_exp/static/images/Set 6_rs/012a.jpg","null","","","","","","learn","SR",""
"","html-keyboard-response","120","137434","0.0-120.0","""event"",""trial"",""time""
""fullscreenenter"",""0"",""3060""
","
","
","""event"",""trial"",""time""
""fullscreenenter"",""0"",""3060""
","
","null","<p></p>","null","","","","","","","",""
"","image","121","138086","0.0-121.0","""event"",""trial"",""time""
""fullscreenenter"",""0"",""3060""
","
","
","""event"",""trial"",""time""
""fullscreenenter"",""0"",""3060""
","
","650.3999999985099","run_exp/static/images/Set 6_rs/123a.jpg","86","","","","","","learn","SL",""
"","show_choice","122","139437","0.0-122.0","""event"",""trial"",""time""
""fullscreenenter"",""0"",""3060""
","
","
","""event"",""trial"",""time""
""fullscreenenter"",""0"",""3060""
","
","null","run_exp/static/images/Set 6_rs/123a.jpg","null","","","","","","learn","SL",""
"","html-keyboard-response","123","139943","0.0-123.0","""event"",""trial"",""time""
""fullscreenenter"",""0"",""3060""
","
","
","""event"",""trial"",""time""
""fullscreenenter"",""0"",""3060""
","
","null","<p></p>","null","","","","","","","",""
"","image","124","140555","0.0-124.0","""event"",""trial"",""time""
""fullscreenenter"",""0"",""3060""
","
","
","""event"",""trial"",""time""
""fullscreenenter"",""0"",""3060""
","
","610.3999999985099","run_exp/static/images/Set 6_rs/187a.jpg","86","","","","","","learn","SR",""
"","show_choice","125","141950","0.0-125.0","""event"",""trial"",""time""
""fullscreenenter"",""0"",""3060""
","
","
","""event"",""trial"",""time""
""fullscreenenter"",""0"",""3060""
","
","null","run_exp/static/images/Set 6_rs/187a.jpg","null","","","","","","learn","SR",""
"","html-keyboard-response","126","142451","0.0-126.0","""event"",""trial"",""time""
""fullscreenenter"",""0"",""3060""
","
","
","""event"",""trial"",""time""
""fullscreenenter"",""0"",""3060""
","
","null","<p></p>","null","","","","","","","",""
"","image","127","143158","0.0-127.0","""event"",""trial"",""time""
""fullscreenenter"",""0"",""3060""
","
","
","""event"",""trial"",""time""
""fullscreenenter"",""0"",""3060""
","
","705.6999999992549","run_exp/static/images/Set 6_rs/055a.jpg","86","","","","","","learn","SL",""
"","show_choice","128","144458","0.0-128.0","""event"",""trial"",""time""
""fullscreenenter"",""0"",""3060""
","
","
","""event"",""trial"",""time""
""fullscreenenter"",""0"",""3060""
","
","null","run_exp/static/images/Set 6_rs/055a.jpg","null","","","","","","learn","SL",""
"","html-keyboard-response","129","144964","0.0-129.0","""event"",""trial"",""time""
""fullscreenenter"",""0"",""3060""
","
","
","""event"",""trial"",""time""
""fullscreenenter"",""0"",""3060""
","
","null","<p></p>","null","","","","","","","",""
"","image","130","145769","0.0-130.0","""event"",""trial"",""time""
""fullscreenenter"",""0"",""3060""
","
","
","""event"",""trial"",""time""
""fullscreenenter"",""0"",""3060""
","
","803.5999999977648","run_exp/static/images/Set 6_rs/016a.jpg","86","","","","","","learn","SL",""
"","show_choice","131","146968","0.0-131.0","""event"",""trial"",""time""
""fullscreenenter"",""0"",""3060""
","
","
","""event"",""trial"",""time""
""fullscreenenter"",""0"",""3060""
","
","null","run_exp/static/images/Set 6_rs/016a.jpg","null","","","","","","learn","SL",""
"","html-keyboard-response","132","147474","0.0-132.0","""event"",""trial"",""time""
""fullscreenenter"",""0"",""3060""
","
","
","""event"",""trial"",""time""
""fullscreenenter"",""0"",""3060""
","
","null","<p></p>","null","","","","","","","",""
"","image","133","148870","0.0-133.0","""event"",""trial"",""time""
""fullscreenenter"",""0"",""3060""
","
","
","""event"",""trial"",""time""
""fullscreenenter"",""0"",""3060""
","
","1394","run_exp/static/images/Set 6_rs/144a.jpg","86","","","","","","learn","SL",""
"","show_choice","134","149481","0.0-134.0","""event"",""trial"",""time""
""fullscreenenter"",""0"",""3060""
","
","
","""event"",""trial"",""time""
""fullscreenenter"",""0"",""3060""
","
","null","run_exp/static/images/Set 6_rs/144a.jpg","null","","","","","","learn","SL",""
"","html-keyboard-response","135","149984","0.0-135.0","""event"",""trial"",""time""
""fullscreenenter"",""0"",""3060""
","
","
","""event"",""trial"",""time""
""fullscreenenter"",""0"",""3060""
","
","null","<p></p>","null","","","","","","","",""
"","image","136","151169","0.0-136.0","""event"",""trial"",""time""
""fullscreenenter"",""0"",""3060""
","
","
","""event"",""trial"",""time""
""fullscreenenter"",""0"",""3060""
","
","1183.7999999970198","run_exp/static/images/Set 6_rs/066a.jpg","86","","","","","","learn","SL",""
"","show_choice","137","151987","0.0-137.0","""event"",""trial"",""time""
""fullscreenenter"",""0"",""3060""
","
","
","""event"",""trial"",""time""
""fullscreenenter"",""0"",""3060""
","
","null","run_exp/static/images/Set 6_rs/066a.jpg","null","","","","","","learn","SL",""
"","html-keyboard-response","138","152493","0.0-138.0","""event"",""trial"",""time""
""fullscreenenter"",""0"",""3060""
","
","
","""event"",""trial"",""time""
""fullscreenenter"",""0"",""3060""
","
","null","<p></p>","null","","","","","","","",""
"","image","139","154263","0.0-139.0","""event"",""trial"",""time""
""fullscreenenter"",""0"",""3060""
","
","
","""event"",""trial"",""time""
""fullscreenenter"",""0"",""3060""
","
","1769.1000000014901","run_exp/static/images/Set 6_rs/168a.jpg","78","","","","","","learn","SL",""
"","show_choice","140","154496","0.0-140.0","""event"",""trial"",""time""
""fullscreenenter"",""0"",""3060""
","
","
","""event"",""trial"",""time""
""fullscreenenter"",""0"",""3060""
","
","null","run_exp/static/images/Set 6_rs/168a.jpg","null","","","","","","learn","SL",""
"","html-keyboard-response","141","155002","0.0-141.0","""event"",""trial"",""time""
""fullscreenenter"",""0"",""3060""
","
","
","""event"",""trial"",""time""
""fullscreenenter"",""0"",""3060""
","
","null","<p></p>","null","","","","","","","",""
"","image","142","155600","0.0-142.0","""event"",""trial"",""time""
""fullscreenenter"",""0"",""3060""
","
","
","""event"",""trial"",""time""
""fullscreenenter"",""0"",""3060""
","
","596.9000000022352","run_exp/static/images/Set 6_rs/073a.jpg","86","","","","","","learn","SL",""
"","show_choice","143","157005","0.0-143.0","""event"",""trial"",""time""
""fullscreenenter"",""0"",""3060""
","
","
","""event"",""trial"",""time""
""fullscreenenter"",""0"",""3060""
","
","null","run_exp/static/images/Set 6_rs/073a.jpg","null","","","","","","learn","SL",""
"","html-keyboard-response","144","157508","0.0-144.0","""event"",""trial"",""time""
""fullscreenenter"",""0"",""3060""
","
","
","""event"",""trial"",""time""
""fullscreenenter"",""0"",""3060""
","
","null","<p></p>","null","","","","","","","",""
"","image","145","158276","0.0-145.0","""event"",""trial"",""time""
""fullscreenenter"",""0"",""3060""
","
","
","""event"",""trial"",""time""
""fullscreenenter"",""0"",""3060""
","
","766.6999999992549","run_exp/static/images/Set 6_rs/019a.jpg","86","","","","","","learn","SL",""
"","show_choice","146","159514","0.0-146.0","""event"",""trial"",""time""
""fullscreenenter"",""0"",""3060""
","
","
","""event"",""trial"",""time""
""fullscreenenter"",""0"",""3060""
","
","null","run_exp/static/images/Set 6_rs/019a.jpg","null","","","","","","learn","SL",""
"","html-keyboard-response","147","160021","0.0-147.0","""event"",""trial"",""time""
""fullscreenenter"",""0"",""3060""
","
","
","""event"",""trial"",""time""
""fullscreenenter"",""0"",""3060""
","
","null","<p></p>","null","","","","","","","",""
"","image","148","161096","0.0-148.0","""event"",""trial"",""time""
""fullscreenenter"",""0"",""3060""
","
","
","""event"",""trial"",""time""
""fullscreenenter"",""0"",""3060""
","
","1073.6000000014901","run_exp/static/images/Set 6_rs/181a.jpg","78","","","","","","learn","SL",""
"","show_choice","149","162023","0.0-149.0","""event"",""trial"",""time""
""fullscreenenter"",""0"",""3060""
","
","
","""event"",""trial"",""time""
""fullscreenenter"",""0"",""3060""
","
","null","run_exp/static/images/Set 6_rs/181a.jpg","null","","","","","","learn","SL",""
"","html-keyboard-response","150","162529","0.0-150.0","""event"",""trial"",""time""
""fullscreenenter"",""0"",""3060""
","
","
","""event"",""trial"",""time""
""fullscreenenter"",""0"",""3060""
","
","null","<p></p>","null","","","","","","","",""
"","image","151","163552","0.0-151.0","""event"",""trial"",""time""
""fullscreenenter"",""0"",""3060""
","
","
","""event"",""trial"",""time""
""fullscreenenter"",""0"",""3060""
","
","1022.4000000022352","run_exp/static/images/Set 6_rs/075a.jpg","86","","","","","","learn","SR",""
"","show_choice","152","164531","0.0-152.0","""event"",""trial"",""time""
""fullscreenenter"",""0"",""3060""
","
","
","""event"",""trial"",""time""
""fullscreenenter"",""0"",""3060""
","
","null","run_exp/static/images/Set 6_rs/075a.jpg","null","","","","","","learn","SR",""
"","html-keyboard-response","153","165036","0.0-153.0","""event"",""trial"",""time""
""fullscreenenter"",""0"",""3060""
","
","
","""event"",""trial"",""time""
""fullscreenenter"",""0"",""3060""
","
","null","<p></p>","null","","","","","","","",""
"","image","154","165575","0.0-154.0","""event"",""trial"",""time""
""fullscreenenter"",""0"",""3060""
","
","
","""event"",""trial"",""time""
""fullscreenenter"",""0"",""3060""
","
","537.9000000022352","run_exp/static/images/Set 6_rs/070a.jpg","86","","","","","","learn","SR",""
"","show_choice","155","167043","0.0-155.0","""event"",""trial"",""time""
""fullscreenenter"",""0"",""3060""
","
","
","""event"",""trial"",""time""
""fullscreenenter"",""0"",""3060""
","
","null","run_exp/static/images/Set 6_rs/070a.jpg","null","","","","","","learn","SR",""
"","html-keyboard-response","156","167547","0.0-156.0","""event"",""trial"",""time""
""fullscreenenter"",""0"",""3060""
","
","
","""event"",""trial"",""time""
""fullscreenenter"",""0"",""3060""
","
","null","<p></p>","null","","","","","","","",""
"","image","157","168191","0.0-157.0","""event"",""trial"",""time""
""fullscreenenter"",""0"",""3060""
","
","
","""event"",""trial"",""time""
""fullscreenenter"",""0"",""3060""
","
","642.2000000029802","run_exp/static/images/Set 6_rs/050a.jpg","86","","","","","","learn","SL",""
"","show_choice","158","169551","0.0-158.0","""event"",""trial"",""time""
""fullscreenenter"",""0"",""3060""
","
","
","""event"",""trial"",""time""
""fullscreenenter"",""0"",""3060""
","
","null","run_exp/static/images/Set 6_rs/050a.jpg","null","","","","","","learn","SL",""
"","html-keyboard-response","159","170052","0.0-159.0","""event"",""trial"",""time""
""fullscreenenter"",""0"",""3060""
","
","
","""event"",""trial"",""time""
""fullscreenenter"",""0"",""3060""
","
","null","<p></p>","null","","","","","","","",""
"","image","160","171170","0.0-160.0","""event"",""trial"",""time""
""fullscreenenter"",""0"",""3060""
","
","
","""event"",""trial"",""time""
""fullscreenenter"",""0"",""3060""
","
","1116.5","run_exp/static/images/Set 6_rs/091a.jpg","78","","","","","","learn","SL",""
"","show_choice","161","172058","0.0-161.0","""event"",""trial"",""time""
""fullscreenenter"",""0"",""3060""
","
","
","""event"",""trial"",""time""
""fullscreenenter"",""0"",""3060""
","
","null","run_exp/static/images/Set 6_rs/091a.jpg","null","","","","","","learn","SL",""
"","html-keyboard-response","162","172562","0.0-162.0","""event"",""trial"",""time""
""fullscreenenter"",""0"",""3060""
","
","
","""event"",""trial"",""time""
""fullscreenenter"",""0"",""3060""
","
","null","<p></p>","null","","","","","","","",""
"","image","163","173395","0.0-163.0","""event"",""trial"",""time""
""fullscreenenter"",""0"",""3060""
","
","
","""event"",""trial"",""time""
""fullscreenenter"",""0"",""3060""
","
","832.0999999977648","run_exp/static/images/Set 6_rs/138a.jpg","78","","","","","","learn","SL",""
"","show_choice","164","174568","0.0-164.0","""event"",""trial"",""time""
""fullscreenenter"",""0"",""3060""
","
","
","""event"",""trial"",""time""
""fullscreenenter"",""0"",""3060""
","
","null","run_exp/static/images/Set 6_rs/138a.jpg","null","","","","","","learn","SL",""
"","html-keyboard-response","165","175071","0.0-165.0","""event"",""trial"",""time""
""fullscreenenter"",""0"",""3060""
","
","
","""event"",""trial"",""time""
""fullscreenenter"",""0"",""3060""
","
","null","<p></p>","null","","","","","","","",""
"","image","166","175678","0.0-166.0","""event"",""trial"",""time""
""fullscreenenter"",""0"",""3060""
","
","
","""event"",""trial"",""time""
""fullscreenenter"",""0"",""3060""
","
","605.8000000007451","run_exp/static/images/Set 6_rs/014a.jpg","86","","","","","","learn","SL",""
"","show_choice","167","177078","0.0-167.0","""event"",""trial"",""time""
""fullscreenenter"",""0"",""3060""
","
","
","""event"",""trial"",""time""
""fullscreenenter"",""0"",""3060""
","
","null","run_exp/static/images/Set 6_rs/014a.jpg","null","","","","","","learn","SL",""
"","html-keyboard-response","168","177582","0.0-168.0","""event"",""trial"",""time""
""fullscreenenter"",""0"",""3060""
","
","
","""event"",""trial"",""time""
""fullscreenenter"",""0"",""3060""
","
","null","<p></p>","null","","","","","","","",""
"","image","169","178211","0.0-169.0","""event"",""trial"",""time""
""fullscreenenter"",""0"",""3060""
","
","
","""event"",""trial"",""time""
""fullscreenenter"",""0"",""3060""
","
","627.3999999985099","run_exp/static/images/Set 6_rs/045a.jpg","86","","","","","","learn","SR",""
"","show_choice","170","179589","0.0-170.0","""event"",""trial"",""time""
""fullscreenenter"",""0"",""3060""
","
","
","""event"",""trial"",""time""
""fullscreenenter"",""0"",""3060""
","
","null","run_exp/static/images/Set 6_rs/045a.jpg","null","","","","","","learn","SR",""
"","html-keyboard-response","171","180095","0.0-171.0","""event"",""trial"",""time""
""fullscreenenter"",""0"",""3060""
","
","
","""event"",""trial"",""time""
""fullscreenenter"",""0"",""3060""
","
","null","<p></p>","null","","","","","","","",""
"","image","172","181800","0.0-172.0","""event"",""trial"",""time""
""fullscreenenter"",""0"",""3060""
","
","
","""event"",""trial"",""time""
""fullscreenenter"",""0"",""3060""
","
","1703.5","run_exp/static/images/Set 6_rs/141a.jpg","86","","","","","","learn","SR",""
"","show_choice","173","182100","0.0-173.0","""event"",""trial"",""time""
""fullscreenenter"",""0"",""3060""
","
","
","""event"",""trial"",""time""
""fullscreenenter"",""0"",""3060""
","
","null","run_exp/static/images/Set 6_rs/141a.jpg","null","","","","","","learn","SR",""
"","html-keyboard-response","174","182606","0.0-174.0","""event"",""trial"",""time""
""fullscreenenter"",""0"",""3060""
","
","
","""event"",""trial"",""time""
""fullscreenenter"",""0"",""3060""
","
","null","<p></p>","null","","","","","","","",""
"","image","175","183270","0.0-175.0","""event"",""trial"",""time""
""fullscreenenter"",""0"",""3060""
","
","
","""event"",""trial"",""time""
""fullscreenenter"",""0"",""3060""
","
","662.4000000022352","run_exp/static/images/Set 6_rs/177a.jpg","78","","","","","","learn","SR",""
"","show_choice","176","184613","0.0-176.0","""event"",""trial"",""time""
""fullscreenenter"",""0"",""3060""
","
","
","""event"",""trial"",""time""
""fullscreenenter"",""0"",""3060""
","
","null","run_exp/static/images/Set 6_rs/177a.jpg","null","","","","","","learn","SR",""
"","html-keyboard-response","177","185114","0.0-177.0","""event"",""trial"",""time""
""fullscreenenter"",""0"",""3060""
","
","
","""event"",""trial"",""time""
""fullscreenenter"",""0"",""3060""
","
","null","<p></p>","null","","","","","","","",""
"","image","178","186880","0.0-178.0","""event"",""trial"",""time""
""fullscreenenter"",""0"",""3060""
","
","
","""event"",""trial"",""time""
""fullscreenenter"",""0"",""3060""
","
","1764.0999999977648","run_exp/static/images/Set 6_rs/085a.jpg","78","","","","","","learn","SL",""
"","show_choice","179","187121","0.0-179.0","""event"",""trial"",""time""
""fullscreenenter"",""0"",""3060""
","
","
","""event"",""trial"",""time""
""fullscreenenter"",""0"",""3060""
","
","null","run_exp/static/images/Set 6_rs/085a.jpg","null","","","","","","learn","SL",""
"","html-keyboard-response","180","187627","0.0-180.0","""event"",""trial"",""time""
""fullscreenenter"",""0"",""3060""
","
","
","""event"",""trial"",""time""
""fullscreenenter"",""0"",""3060""
","
","null","<p></p>","null","","","","","","","",""
"","image","181","188706","0.0-181.0","""event"",""trial"",""time""
""fullscreenenter"",""0"",""3060""
","
","
","""event"",""trial"",""time""
""fullscreenenter"",""0"",""3060""
","
","1077.699999999255","run_exp/static/images/Set 6_rs/061a.jpg","78","","","","","","learn","SR",""
"","show_choice","182","189634","0.0-182.0","""event"",""trial"",""time""
""fullscreenenter"",""0"",""3060""
","
","
","""event"",""trial"",""time""
""fullscreenenter"",""0"",""3060""
","
","null","run_exp/static/images/Set 6_rs/061a.jpg","null","","","","","","learn","SR",""
"","html-keyboard-response","183","190137","0.0-183.0","""event"",""trial"",""time""
""fullscreenenter"",""0"",""3060""
","
","
","""event"",""trial"",""time""
""fullscreenenter"",""0"",""3060""
","
","null","<p></p>","null","","","","","","","",""
"","image","184","191960","0.0-184.0","""event"",""trial"",""time""
""fullscreenenter"",""0"",""3060""
","
","
","""event"",""trial"",""time""
""fullscreenenter"",""0"",""3060""
","
","1821.5","run_exp/static/images/Set 6_rs/017a.jpg","78","","","","","","learn","SL",""
"","show_choice","185","192143","0.0-185.0","""event"",""trial"",""time""
""fullscreenenter"",""0"",""3060""
","
","
","""event"",""trial"",""time""
""fullscreenenter"",""0"",""3060""
","
","null","run_exp/static/images/Set 6_rs/017a.jpg","null","","","","","","learn","SL",""
"","html-keyboard-response","186","192649","0.0-186.0","""event"",""trial"",""time""
""fullscreenenter"",""0"",""3060""
","
","
","""event"",""trial"",""time""
""fullscreenenter"",""0"",""3060""
","
","null","<p></p>","null","","","","","","","",""
"","image","187","193344","0.0-187.0","""event"",""trial"",""time""
""fullscreenenter"",""0"",""3060""
","
","
","""event"",""trial"",""time""
""fullscreenenter"",""0"",""3060""
","
","693.4000000022352","run_exp/static/images/Set 6_rs/024a.jpg","86","","","","","","learn","SR",""
"","show_choice","188","194653","0.0-188.0","""event"",""trial"",""time""
""fullscreenenter"",""0"",""3060""
","
","
","""event"",""trial"",""time""
""fullscreenenter"",""0"",""3060""
","
","null","run_exp/static/images/Set 6_rs/024a.jpg","null","","","","","","learn","SR",""
"","html-keyboard-response","189","195154","0.0-189.0","""event"",""trial"",""time""
""fullscreenenter"",""0"",""3060""
","
","
","""event"",""trial"",""time""
""fullscreenenter"",""0"",""3060""
","
","null","<p></p>","null","","","","","","","",""
"","image","190","195802","0.0-190.0","""event"",""trial"",""time""
""fullscreenenter"",""0"",""3060""
","
","
","""event"",""trial"",""time""
""fullscreenenter"",""0"",""3060""
","
","646.1999999992549","run_exp/static/images/Set 6_rs/095a.jpg","86","","","","","","learn","SL",""
"","show_choice","191","197156","0.0-191.0","""event"",""trial"",""time""
""fullscreenenter"",""0"",""3060""
","
","
","""event"",""trial"",""time""
""fullscreenenter"",""0"",""3060""
","
","null","run_exp/static/images/Set 6_rs/095a.jpg","null","","","","","","learn","SL",""
"","html-keyboard-response","192","197662","0.0-192.0","""event"",""trial"",""time""
""fullscreenenter"",""0"",""3060""
","
","
","""event"",""trial"",""time""
""fullscreenenter"",""0"",""3060""
","
","null","<p></p>","null","","","","","","","",""
"","image","193","199246","0.0-193.0","""event"",""trial"",""time""
""fullscreenenter"",""0"",""3060""
","
","
","""event"",""trial"",""time""
""fullscreenenter"",""0"",""3060""
","
","1582.699999999255","run_exp/static/images/Set 6_rs/121a.jpg","86","","","","","","learn","SR",""
"","show_choice","194","199668","0.0-194.0","""event"",""trial"",""time""
""fullscreenenter"",""0"",""3060""
","
","
","""event"",""trial"",""time""
""fullscreenenter"",""0"",""3060""
","
","null","run_exp/static/images/Set 6_rs/121a.jpg","null","","","","","","learn","SR",""
"","html-keyboard-response","195","200174","0.0-195.0","""event"",""trial"",""time""
""fullscreenenter"",""0"",""3060""
","
","
","""event"",""trial"",""time""
""fullscreenenter"",""0"",""3060""
","
","null","<p></p>","null","","","","","","","",""
"","test_intro","196","237025","0.0-196.0","""event"",""trial"",""time""
""fullscreenenter"",""0"",""3060""
","
","
","""event"",""trial"",""time""
""fullscreenenter"",""0"",""3060""
","
","null","run_exp/static/audio/clip_2_memory.m4a","null","","","","","<div class='center'><p>Now, lets see how much you remember about the items you just saw.  For each item, you need to indicate if it was <b>old</b> by pressing the <b>v</b> key, <b>similar</b> by pressing the <b>b</b> key, or <b>new</b> by pressing the <b>n</b> key.</p><p>Old refers to an item that you saw before in the indoor/outdoor game that you just played, new refers to an item you have <b>not</b> seen before within the indoor/outdoor game, and similar refers to an item that is similar to an item youve seen before but is not exactly the same. </p><p>Before we begin, lets go over some brief demonstrations to make sure you understand.</p></div>","","",""
"","html-keyboard-response","197","241691","0.0-197.0","""event"",""trial"",""time""
""fullscreenenter"",""0"",""3060""
","
","
","""event"",""trial"",""time""
""fullscreenenter"",""0"",""3060""
","
","4664.5","<div class='center'><p>Now, lets see how much you remember about the items you just saw.  For each item, you need to indicate if it was <b>old</b> by pressing the <b>v</b> key, <b>similar</b> by pressing the <b>b</b> key, or <b>new</b> by pressing the <b>n</b> key.</p><p>Old refers to an item that you saw before in the indoor/outdoor game that you just played, new refers to an item you have <b>not</b> seen before within the indoor/outdoor game, and similar refers to an item that is similar to an item youve seen before but is not exactly the same. </p><p>Before we begin, lets go over some brief demonstrations to make sure you understand.</p><div><p><b>[Press the space bar to continue]</b></p></div>","32","","","","","","","",""
"","items","198","249198","0.0-198.0","""event"",""trial"",""time""
""fullscreenenter"",""0"",""3060""
","
","
","""event"",""trial"",""time""
""fullscreenenter"",""0"",""3060""
","
","null","run_exp/static/audio/clip_3_items.m4a","null","","","","","","","",""
"","mop","199","253705","0.0-199.0","""event"",""trial"",""time""
""fullscreenenter"",""0"",""3060""
","
","
","""event"",""trial"",""time""
""fullscreenenter"",""0"",""3060""
","
","null","run_exp/static/audio/clip_4_mop.m4a","null","","","","","","","",""
"","baseball","200","257208","0.0-200.0","""event"",""trial"",""time""
""fullscreenenter"",""0"",""3060""
","
","
","""event"",""trial"",""time""
""fullscreenenter"",""0"",""3060""
","
","null","run_exp/static/audio/clip_5_baseball.m4a","null","","","","","","","",""
"","trumpet","201","260714","0.0-201.0","""event"",""trial"",""time""
""fullscreenenter"",""0"",""3060""
","
","
","""event"",""trial"",""time""
""fullscreenenter"",""0"",""3060""
","
","null","run_exp/static/audio/clip_6_trumpet.m4a","null","","","","","","","",""
"","gummies","202","264217","0.0-202.0","""event"",""trial"",""time""
""fullscreenenter"",""0"",""3060""
","
","
","""event"",""trial"",""time""
""fullscreenenter"",""0"",""3060""
","
","null","run_exp/static/audio/clip_7_gummies.m4a","null","","","","","","","",""
"","osn","203","268724","0.0-203.0","""event"",""trial"",""time""
""fullscreenenter"",""0"",""3060""
","
","
","""event"",""trial"",""time""
""fullscreenenter"",""0"",""3060""
","
","null","run_exp/static/audio/clip_8_osn.m4a","null","","","","","","","",""
"","old_1","204","275227","0.0-204.0","""event"",""trial"",""time""
""fullscreenenter"",""0"",""3060""
","
","
","""event"",""trial"",""time""
""fullscreenenter"",""0"",""3060""
","
","null","run_exp/static/audio/clip_9_old_trumpet.m4a","null","","","","","","","",""
"","new_1","205","282731","0.0-205.0","""event"",""trial"",""time""
""fullscreenenter"",""0"",""3060""
","
","
","""event"",""trial"",""time""
""fullscreenenter"",""0"",""3060""
","
","null","run_exp/static/audio/clip_10_new_balloon.m4a","null","","","","","","","",""
"","similar_1a","206","287237","0.0-206.0","""event"",""trial"",""time""
""fullscreenenter"",""0"",""3060""
","
","
","""event"",""trial"",""time""
""fullscreenenter"",""0"",""3060""
","
","null","run_exp/static/audio/clip_11a_similar_mop.m4a","null","","","","","","","",""
"","similar_1b","207","293744","0.0-207.0","""event"",""trial"",""time""
""fullscreenenter"",""0"",""3060""
","
","
","""event"",""trial"",""time""
""fullscreenenter"",""0"",""3060""
","
","null","run_exp/static/audio/clip_11b_similar_mop.m4a","null","","","","","","","",""
"","new_2","208","297250","0.0-208.0","""event"",""trial"",""time""
""fullscreenenter"",""0"",""3060""
","
","
","""event"",""trial"",""time""
""fullscreenenter"",""0"",""3060""
","
","null","run_exp/static/audio/clip_12_new_stoplight.m4a","null","","","","","","","",""
"","old_2","209","300757","0.0-209.0","""event"",""trial"",""time""
""fullscreenenter"",""0"",""3060""
","
","
","""event"",""trial"",""time""
""fullscreenenter"",""0"",""3060""
","
","null","run_exp/static/audio/clip_13_old_baseball.m4a","null","","","","","","","",""
"","similar_2a","210","304264","0.0-210.0","""event"",""trial"",""time""
""fullscreenenter"",""0"",""3060""
","
","
","""event"",""trial"",""time""
""fullscreenenter"",""0"",""3060""
","
","null","run_exp/static/audio/clip_14a_similar_gummies.m4a","null","","","","","","","",""
"","similar_2b","211","311771","0.0-211.0","""event"",""trial"",""time""
""fullscreenenter"",""0"",""3060""
","
","
","""event"",""trial"",""time""
""fullscreenenter"",""0"",""3060""
","
","null","run_exp/static/audio/clip_14b_similar_gummies.m4a","null","","","","","","","",""
"","practice","212","353891","0.0-212.0","""event"",""trial"",""time""
""fullscreenenter"",""0"",""3060""
","
","
","""event"",""trial"",""time""
""fullscreenenter"",""0"",""3060""
","
","null","run_exp/static/audio/clip_15_practice.m4a","null","","","","","<div class='center'><p>Lets practice a little to make sure you understand the difference between new, similar, and old. Lets say you saw these three items in the indoor/outdoor game.</p><p> Try your best to remember these images because youll soon be tested on them in a practice game. In the practice game, youll be shown images and youll have to say if they are old (one of the three images belows), similar (similar to one of the images below but not exactly the same), or new (are not one of the images below nor similar to them).</p><p>Once you press the space bar youll be shown these images again but one at time. Then youll begin the practice game.</p><p><img src='run_exp/static/images/tutorial/test/three_indoor_outdoor.png' height='300'></p></div>","","",""
"","html-keyboard-response","213","354778","0.0-213.0","""event"",""trial"",""time""
""fullscreenenter"",""0"",""3060""
","
","
","""event"",""trial"",""time""
""fullscreenenter"",""0"",""3060""
","
","883.5","<div class='center'><p>Lets practice a little to make sure you understand the difference between new, similar, and old. Lets say you saw these three items in the indoor/outdoor game.</p><p> Try your best to remember these images because youll soon be tested on them in a practice game. In the practice game, youll be shown images and youll have to say if they are old (one of the three images belows), similar (similar to one of the images below but not exactly the same), or new (are not one of the images below nor similar to them).</p><p>Once you press the space bar youll be shown these images again but one at time. Then youll begin the practice game.</p><p><img src='run_exp/static/images/tutorial/test/three_indoor_outdoor.png' height='300'></p><div><p><b>[Press the space bar to continue]</b></p></div>","32","","","","","","","",""
"","planet","214","356784","0.0-214.0","""event"",""trial"",""time""
""fullscreenenter"",""0"",""3060""
","
","
","""event"",""trial"",""time""
""fullscreenenter"",""0"",""3060""
","
","null","run_exp/static/images/tutorial/test/008a.jpg","null","","","","","","","",""
"","boot","215","358791","0.0-215.0","""event"",""trial"",""time""
""fullscreenenter"",""0"",""3060""
","
","
","""event"",""trial"",""time""
""fullscreenenter"",""0"",""3060""
","
","null","run_exp/static/images/tutorial/test/011a.jpg","null","","","","","","","",""
"","lemon","216","360797","0.0-216.0","""event"",""trial"",""time""
""fullscreenenter"",""0"",""3060""
","
","
","""event"",""trial"",""time""
""fullscreenenter"",""0"",""3060""
","
","null","run_exp/static/images/tutorial/test/018a.jpg","null","","","","","","","",""
"","practice_q1","217","362488","0.0-217.0","""event"",""trial"",""time""
""fullscreenenter"",""0"",""3060""
","
","
","""event"",""trial"",""time""
""fullscreenenter"",""0"",""3060""
","
","1688.5999999977648","run_exp/static/audio/clip_16_practice_question.m4a","78","","","","","","","",""
"","correct","218","364387","0.0-218.0-0.0","""event"",""trial"",""time""
""fullscreenenter"",""0"",""3060""
","
","
","""event"",""trial"",""time""
""fullscreenenter"",""0"",""3060""
","
","null","run_exp/static/audio/clip_17_correct.m4a","null","","","","","<div class='center'><p>That's correct!</p></div>","","",""
"","html-keyboard-response","219","365154","0.0-218.0-1.0","""event"",""trial"",""time""
""fullscreenenter"",""0"",""3060""
","
","
","""event"",""trial"",""time""
""fullscreenenter"",""0"",""3060""
","
","765.0999999977648","<div class='center'><p>That's correct!</p><div><p><b>[Press the space bar to continue]</b></p></div>","32","","","","","","","",""
"","practice_q2","220","366338","0.0-218.0-2.0","""event"",""trial"",""time""
""fullscreenenter"",""0"",""3060""
","
","
","""event"",""trial"",""time""
""fullscreenenter"",""0"",""3060""
","
","1182","run_exp/static/audio/clip_16_practice_question.m4a","86","","","","","","","",""
"","correct","221","368227","0.0-219.0-0.0","""event"",""trial"",""time""
""fullscreenenter"",""0"",""3060""
","
","
","""event"",""trial"",""time""
""fullscreenenter"",""0"",""3060""
","
","null","run_exp/static/audio/clip_17_correct.m4a","null","","","","","<div class='center'><p>That's correct!</p></div>","","",""
"","html-keyboard-response","222","368662","0.0-219.0-1.0","""event"",""trial"",""time""
""fullscreenenter"",""0"",""3060""
","
","
","""event"",""trial"",""time""
""fullscreenenter"",""0"",""3060""
","
","433.4000000022352","<div class='center'><p>That's correct!</p><div><p><b>[Press the space bar to continue]</b></p></div>","32","","","","","","","",""
"","practice_q3","223","370611","0.0-219.0-2.0","""event"",""trial"",""time""
""fullscreenenter"",""0"",""3060""
","
","
","""event"",""trial"",""time""
""fullscreenenter"",""0"",""3060""
","
","1948","run_exp/static/audio/clip_16_practice_question.m4a","66","","","","","","","",""
"","correct","224","372644","0.0-220.0-0.0","""event"",""trial"",""time""
""fullscreenenter"",""0"",""3060""
","
","
","""event"",""trial"",""time""
""fullscreenenter"",""0"",""3060""
","
","null","run_exp/static/audio/clip_17_correct.m4a","null","","","","","<div class='center'><p>That's correct!</p></div>","","",""
"","html-keyboard-response","225","373093","0.0-220.0-1.0","""event"",""trial"",""time""
""fullscreenenter"",""0"",""3060""
","
","
","""event"",""trial"",""time""
""fullscreenenter"",""0"",""3060""
","
","447.8999999985099","<div class='center'><p>That's correct!</p><div><p><b>[Press the space bar to continue]</b></p></div>","32","","","","","","","",""
"","begin_text","226","391567","0.0-221.0-0.0","""event"",""trial"",""time""
""fullscreenenter"",""0"",""3060""
","
","
","""event"",""trial"",""time""
""fullscreenenter"",""0"",""3060""
","
","null","run_exp/static/audio/clip_22_begin_test.m4a","null","","","","","<div class='center'><p>On to the real game where well test your memory of items from the indoor/outdoor game. For each item, you need to indicate if the item is <b>old</b> by pressing the <b>v</b> key, <b>similar</b> by pressing the <b>b</b> key, or <b>new</b> by pressing the <b>n</b> key. </p></div>","","",""
"","html-keyboard-response","227","392282","0.0-221.0-1.0","""event"",""trial"",""time""
""fullscreenenter"",""0"",""3060""
","
","
","""event"",""trial"",""time""
""fullscreenenter"",""0"",""3060""
","
","713.9000000022352","<div class='center'><p>On to the real game where well test your memory of items from the indoor/outdoor game. For each item, you need to indicate if the item is <b>old</b> by pressing the <b>v</b> key, <b>similar</b> by pressing the <b>b</b> key, or <b>new</b> by pressing the <b>n</b> key. </p><div><p><b>[Press the space bar to continue]</b></p></div>","32","","","","","","","",""
"","image","228","395286","0.0-222.0-0.0","""event"",""trial"",""time""
""fullscreenenter"",""0"",""3060""
","
","
","""event"",""trial"",""time""
""fullscreenenter"",""0"",""3060""
","
","null","run_exp/static/images/Set 6_rs/086a.jpg","null","","","","","","test","TF","1"
"","show_choice","229","395790","0.0-222.0-1.0","""event"",""trial"",""time""
""fullscreenenter"",""0"",""3060""
","
","
","""event"",""trial"",""time""
""fullscreenenter"",""0"",""3060""
","
","null","run_exp/static/images/Set 6_rs/086a.jpg","null","","","","","","test","TF",""
"","html-keyboard-response","230","396294","0.0-222.0-2.0","""event"",""trial"",""time""
""fullscreenenter"",""0"",""3060""
","
","
","""event"",""trial"",""time""
""fullscreenenter"",""0"",""3060""
","
","null","<p></p>","null","","","","","","","",""
"","image","231","397640","0.0-223.0-0.0","""event"",""trial"",""time""
""fullscreenenter"",""0"",""3060""
","
","
","""event"",""trial"",""time""
""fullscreenenter"",""0"",""3060""
","
","1344.5","run_exp/static/images/Set 6_rs/136a.jpg","78","","","","","","test","TF","4"
"","show_choice","232","398145","0.0-223.0-1.0","""event"",""trial"",""time""
""fullscreenenter"",""0"",""3060""
","
","
","""event"",""trial"",""time""
""fullscreenenter"",""0"",""3060""
","
","null","run_exp/static/images/Set 6_rs/136a.jpg","null","","","","","","test","TF",""
"","html-keyboard-response","233","398649","0.0-223.0-2.0","""event"",""trial"",""time""
""fullscreenenter"",""0"",""3060""
","
","
","""event"",""trial"",""time""
""fullscreenenter"",""0"",""3060""
","
","null","<p></p>","null","","","","","","","",""
"","image","234","399975","0.0-224.0-0.0","""event"",""trial"",""time""
""fullscreenenter"",""0"",""3060""
","
","
","""event"",""trial"",""time""
""fullscreenenter"",""0"",""3060""
","
","1324.800000000745","run_exp/static/images/Set 6_rs/056a.jpg","66","","","","","","test","TF","3"
"","show_choice","235","400480","0.0-224.0-1.0","""event"",""trial"",""time""
""fullscreenenter"",""0"",""3060""
","
","
","""event"",""trial"",""time""
""fullscreenenter"",""0"",""3060""
","
","null","run_exp/static/images/Set 6_rs/056a.jpg","null","","","","","","test","TF",""
"","html-keyboard-response","236","400983","0.0-224.0-2.0","""event"",""trial"",""time""
""fullscreenenter"",""0"",""3060""
","
","
","""event"",""trial"",""time""
""fullscreenenter"",""0"",""3060""
","
","null","<p></p>","null","","","","","","","",""
"","image","237","402334","0.0-225.0-0.0","""event"",""trial"",""time""
""fullscreenenter"",""0"",""3060""
","
","
","""event"",""trial"",""time""
""fullscreenenter"",""0"",""3060""
","
","1349.300000000745","run_exp/static/images/Set 6_rs/091b.jpg","86","","","","","","test","TL","3"
"","show_choice","238","402839","0.0-225.0-1.0","""event"",""trial"",""time""
""fullscreenenter"",""0"",""3060""
","
","
","""event"",""trial"",""time""
""fullscreenenter"",""0"",""3060""
","
","null","run_exp/static/images/Set 6_rs/091b.jpg","null","","","","","","test","TL",""
"","html-keyboard-response","239","403342","0.0-225.0-2.0","""event"",""trial"",""time""
""fullscreenenter"",""0"",""3060""
","
","
","""event"",""trial"",""time""
""fullscreenenter"",""0"",""3060""
","
","null","<p></p>","null","","","","","","","",""
"","image","240","404224","0.0-226.0-0.0","""event"",""trial"",""time""
""fullscreenenter"",""0"",""3060""
","
","
","""event"",""trial"",""time""
""fullscreenenter"",""0"",""3060""
","
","879.7999999970198","run_exp/static/images/Set 6_rs/023a.jpg","86","","","","","","test","TR","3"
"","show_choice","241","404725","0.0-226.0-1.0","""event"",""trial"",""time""
""fullscreenenter"",""0"",""3060""
","
","
","""event"",""trial"",""time""
""fullscreenenter"",""0"",""3060""
","
","null","run_exp/static/images/Set 6_rs/023a.jpg","null","","","","","","test","TR",""
"","html-keyboard-response","242","405231","0.0-226.0-2.0","""event"",""trial"",""time""
""fullscreenenter"",""0"",""3060""
","
","
","""event"",""trial"",""time""
""fullscreenenter"",""0"",""3060""
","
","null","<p></p>","null","","","","","","","",""
"","image","243","406630","0.0-227.0-0.0","""event"",""trial"",""time""
""fullscreenenter"",""0"",""3060""
","
","
","""event"",""trial"",""time""
""fullscreenenter"",""0"",""3060""
","
","1397.5","run_exp/static/images/Set 6_rs/077a.jpg","78","","","","","","test","TF","3"
"","show_choice","244","407132","0.0-227.0-1.0","""event"",""trial"",""time""
""fullscreenenter"",""0"",""3060""
","
","
","""event"",""trial"",""time""
""fullscreenenter"",""0"",""3060""
","
","null","run_exp/static/images/Set 6_rs/077a.jpg","null","","","","","","test","TF",""
"","html-keyboard-response","245","407635","0.0-227.0-2.0","""event"",""trial"",""time""
""fullscreenenter"",""0"",""3060""
","
","
","""event"",""trial"",""time""
""fullscreenenter"",""0"",""3060""
","
","null","<p></p>","null","","","","","","","",""
"","image","246","408453","0.0-228.0-0.0","""event"",""trial"",""time""
""fullscreenenter"",""0"",""3060""
","
","
","""event"",""trial"",""time""
""fullscreenenter"",""0"",""3060""
","
","817.5999999977648","run_exp/static/images/Set 6_rs/012a.jpg","86","","","","","","test","TR","1"
"","show_choice","247","408959","0.0-228.0-1.0","""event"",""trial"",""time""
""fullscreenenter"",""0"",""3060""
","
","
","""event"",""trial"",""time""
""fullscreenenter"",""0"",""3060""
","
","null","run_exp/static/images/Set 6_rs/012a.jpg","null","","","","","","test","TR",""
"","html-keyboard-response","248","409465","0.0-228.0-2.0","""event"",""trial"",""time""
""fullscreenenter"",""0"",""3060""
","
","
","""event"",""trial"",""time""
""fullscreenenter"",""0"",""3060""
","
","null","<p></p>","null","","","","","","","",""
"","image","249","410126","0.0-229.0-0.0","""event"",""trial"",""time""
""fullscreenenter"",""0"",""3060""
","
","
","""event"",""trial"",""time""
""fullscreenenter"",""0"",""3060""
","
","659.8999999985099","run_exp/static/images/Set 6_rs/007a.jpg","86","","","","","","test","TR","3"
"","show_choice","250","410630","0.0-229.0-1.0","""event"",""trial"",""time""
""fullscreenenter"",""0"",""3060""
","
","
","""event"",""trial"",""time""
""fullscreenenter"",""0"",""3060""
","
","null","run_exp/static/images/Set 6_rs/007a.jpg","null","","","","","","test","TR",""
"","html-keyboard-response","251","411135","0.0-229.0-2.0","""event"",""trial"",""time""
""fullscreenenter"",""0"",""3060""
","
","
","""event"",""trial"",""time""
""fullscreenenter"",""0"",""3060""
","
","null","<p></p>","null","","","","","","","",""
"","image","252","411697","0.0-230.0-0.0","""event"",""trial"",""time""
""fullscreenenter"",""0"",""3060""
","
","
","""event"",""trial"",""time""
""fullscreenenter"",""0"",""3060""
","
","560.3999999985099","run_exp/static/images/Set 6_rs/024a.jpg","86","","","","","","test","TR","5"
"","show_choice","253","412201","0.0-230.0-1.0","""event"",""trial"",""time""
""fullscreenenter"",""0"",""3060""
","
","
","""event"",""trial"",""time""
""fullscreenenter"",""0"",""3060""
","
","null","run_exp/static/images/Set 6_rs/024a.jpg","null","","","","","","test","TR",""
"","html-keyboard-response","254","412707","0.0-230.0-2.0","""event"",""trial"",""time""
""fullscreenenter"",""0"",""3060""
","
","
","""event"",""trial"",""time""
""fullscreenenter"",""0"",""3060""
","
","null","<p></p>","null","","","","","","","",""
"","image","255","413330","0.0-231.0-0.0","""event"",""trial"",""time""
""fullscreenenter"",""0"",""3060""
","
","
","""event"",""trial"",""time""
""fullscreenenter"",""0"",""3060""
","
","621.1000000014901","run_exp/static/images/Set 6_rs/166a.jpg","86","","","","","","test","TR","1"
"","show_choice","256","413833","0.0-231.0-1.0","""event"",""trial"",""time""
""fullscreenenter"",""0"",""3060""
","
","
","""event"",""trial"",""time""
""fullscreenenter"",""0"",""3060""
","
","null","run_exp/static/images/Set 6_rs/166a.jpg","null","","","","","","test","TR",""
"","html-keyboard-response","257","414337","0.0-231.0-2.0","""event"",""trial"",""time""
""fullscreenenter"",""0"",""3060""
","
","
","""event"",""trial"",""time""
""fullscreenenter"",""0"",""3060""
","
","null","<p></p>","null","","","","","","","",""
"","image","258","415513","0.0-232.0-0.0","""event"",""trial"",""time""
""fullscreenenter"",""0"",""3060""
","
","
","""event"",""trial"",""time""
""fullscreenenter"",""0"",""3060""
","
","1174.800000000745","run_exp/static/images/Set 6_rs/123b.jpg","66","","","","","","test","TL","2"
"","show_choice","259","416018","0.0-232.0-1.0","""event"",""trial"",""time""
""fullscreenenter"",""0"",""3060""
","
","
","""event"",""trial"",""time""
""fullscreenenter"",""0"",""3060""
","
","null","run_exp/static/images/Set 6_rs/123b.jpg","null","","","","","","test","TL",""
"","html-keyboard-response","260","416523","0.0-232.0-2.0","""event"",""trial"",""time""
""fullscreenenter"",""0"",""3060""
","
","
","""event"",""trial"",""time""
""fullscreenenter"",""0"",""3060""
","
","null","<p></p>","null","","","","","","","",""
"","image","261","417421","0.0-233.0-0.0","""event"",""trial"",""time""
""fullscreenenter"",""0"",""3060""
","
","
","""event"",""trial"",""time""
""fullscreenenter"",""0"",""3060""
","
","896.6000000014901","run_exp/static/images/Set 6_rs/176a.jpg","78","","","","","","test","TF","4"
"","show_choice","262","417926","0.0-233.0-1.0","""event"",""trial"",""time""
""fullscreenenter"",""0"",""3060""
","
","
","""event"",""trial"",""time""
""fullscreenenter"",""0"",""3060""
","
","null","run_exp/static/images/Set 6_rs/176a.jpg","null","","","","","","test","TF",""
"","html-keyboard-response","263","418430","0.0-233.0-2.0","""event"",""trial"",""time""
""fullscreenenter"",""0"",""3060""
","
","
","""event"",""trial"",""time""
""fullscreenenter"",""0"",""3060""
","
","null","<p></p>","null","","","","","","","",""
"","image","264","419636","0.0-234.0-0.0","""event"",""trial"",""time""
""fullscreenenter"",""0"",""3060""
","
","
","""event"",""trial"",""time""
""fullscreenenter"",""0"",""3060""
","
","1204.6000000014901","run_exp/static/images/Set 6_rs/168b.jpg","66","","","","","","test","TL","3"
"","show_choice","265","420141","0.0-234.0-1.0","""event"",""trial"",""time""
""fullscreenenter"",""0"",""3060""
","
","
","""event"",""trial"",""time""
""fullscreenenter"",""0"",""3060""
","
","null","run_exp/static/images/Set 6_rs/168b.jpg","null","","","","","","test","TL",""
"","html-keyboard-response","266","420647","0.0-234.0-2.0","""event"",""trial"",""time""
""fullscreenenter"",""0"",""3060""
","
","
","""event"",""trial"",""time""
""fullscreenenter"",""0"",""3060""
","
","null","<p></p>","null","","","","","","","",""
"","image","267","421895","0.0-235.0-0.0","""event"",""trial"",""time""
""fullscreenenter"",""0"",""3060""
","
","
","""event"",""trial"",""time""
""fullscreenenter"",""0"",""3060""
","
","1245.5","run_exp/static/images/Set 6_rs/021a.jpg","78","","","","","","test","TF","2"
"","show_choice","268","422400","0.0-235.0-1.0","""event"",""trial"",""time""
""fullscreenenter"",""0"",""3060""
","
","
","""event"",""trial"",""time""
""fullscreenenter"",""0"",""3060""
","
","null","run_exp/static/images/Set 6_rs/021a.jpg","null","","","","","","test","TF",""
"","html-keyboard-response","269","422902","0.0-235.0-2.0","""event"",""trial"",""time""
""fullscreenenter"",""0"",""3060""
","
","
","""event"",""trial"",""time""
""fullscreenenter"",""0"",""3060""
","
","null","<p></p>","null","","","","","","","",""
"","image","270","423971","0.0-236.0-0.0","""event"",""trial"",""time""
""fullscreenenter"",""0"",""3060""
","
","
","""event"",""trial"",""time""
""fullscreenenter"",""0"",""3060""
","
","1067.5","run_exp/static/images/Set 6_rs/172a.jpg","66","","","","","","test","TR","1"
"","show_choice","271","424474","0.0-236.0-1.0","""event"",""trial"",""time""
""fullscreenenter"",""0"",""3060""
","
","
","""event"",""trial"",""time""
""fullscreenenter"",""0"",""3060""
","
","null","run_exp/static/images/Set 6_rs/172a.jpg","null","","","","","","test","TR",""
"","html-keyboard-response","272","424980","0.0-236.0-2.0","""event"",""trial"",""time""
""fullscreenenter"",""0"",""3060""
","
","
","""event"",""trial"",""time""
""fullscreenenter"",""0"",""3060""
","
","null","<p></p>","null","","","","","","","",""
"","image","273","425923","0.0-237.0-0.0","""event"",""trial"",""time""
""fullscreenenter"",""0"",""3060""
","
","
","""event"",""trial"",""time""
""fullscreenenter"",""0"",""3060""
","
","941.1000000014901","run_exp/static/images/Set 6_rs/055b.jpg","66","","","","","","test","TL","4"
"","show_choice","274","426428","0.0-237.0-1.0","""event"",""trial"",""time""
""fullscreenenter"",""0"",""3060""
","
","
","""event"",""trial"",""time""
""fullscreenenter"",""0"",""3060""
","
","null","run_exp/static/images/Set 6_rs/055b.jpg","null","","","","","","test","TL",""
"","html-keyboard-response","275","426932","0.0-237.0-2.0","""event"",""trial"",""time""
""fullscreenenter"",""0"",""3060""
","
","
","""event"",""trial"",""time""
""fullscreenenter"",""0"",""3060""
","
","null","<p></p>","null","","","","","","","",""
"","image","276","428465","0.0-238.0-0.0","""event"",""trial"",""time""
""fullscreenenter"",""0"",""3060""
","
","
","""event"",""trial"",""time""
""fullscreenenter"",""0"",""3060""
","
","1531","run_exp/static/images/Set 6_rs/154a.jpg","66","","","","","","test","TR","3"
"","show_choice","277","428970","0.0-238.0-1.0","""event"",""trial"",""time""
""fullscreenenter"",""0"",""3060""
","
","
","""event"",""trial"",""time""
""fullscreenenter"",""0"",""3060""
","
","null","run_exp/static/images/Set 6_rs/154a.jpg","null","","","","","","test","TR",""
"","html-keyboard-response","278","429471","0.0-238.0-2.0","""event"",""trial"",""time""
""fullscreenenter"",""0"",""3060""
","
","
","""event"",""trial"",""time""
""fullscreenenter"",""0"",""3060""
","
","null","<p></p>","null","","","","","","","",""
"","image","279","430336","0.0-239.0-0.0","""event"",""trial"",""time""
""fullscreenenter"",""0"",""3060""
","
","
","""event"",""trial"",""time""
""fullscreenenter"",""0"",""3060""
","
","863.8999999985099","run_exp/static/images/Set 6_rs/108a.jpg","86","","","","","","test","TR","5"
"","show_choice","280","430841","0.0-239.0-1.0","""event"",""trial"",""time""
""fullscreenenter"",""0"",""3060""
","
","
","""event"",""trial"",""time""
""fullscreenenter"",""0"",""3060""
","
","null","run_exp/static/images/Set 6_rs/108a.jpg","null","","","","","","test","TR",""
"","html-keyboard-response","281","431347","0.0-239.0-2.0","""event"",""trial"",""time""
""fullscreenenter"",""0"",""3060""
","
","
","""event"",""trial"",""time""
""fullscreenenter"",""0"",""3060""
","
","null","<p></p>","null","","","","","","","",""
"","image","282","432947","0.0-240.0-0.0","""event"",""trial"",""time""
""fullscreenenter"",""0"",""3060""
","
","
","""event"",""trial"",""time""
""fullscreenenter"",""0"",""3060""
","
","1598.8999999985099","run_exp/static/images/Set 6_rs/085b.jpg","86","","","","","","test","TL","1"
"","show_choice","283","433453","0.0-240.0-1.0","""event"",""trial"",""time""
""fullscreenenter"",""0"",""3060""
","
","
","""event"",""trial"",""time""
""fullscreenenter"",""0"",""3060""
","
","null","run_exp/static/images/Set 6_rs/085b.jpg","null","","","","","","test","TL",""
"","html-keyboard-response","284","433954","0.0-240.0-2.0","""event"",""trial"",""time""
""fullscreenenter"",""0"",""3060""
","
","
","""event"",""trial"",""time""
""fullscreenenter"",""0"",""3060""
","
","null","<p></p>","null","","","","","","","",""
"","image","285","435237","0.0-241.0-0.0","""event"",""trial"",""time""
""fullscreenenter"",""0"",""3060""
","
","
","""event"",""trial"",""time""
""fullscreenenter"",""0"",""3060""
","
","1281.3999999985099","run_exp/static/images/Set 6_rs/155a.jpg","66","","","","","","test","TF","4"
"","show_choice","286","435742","0.0-241.0-1.0","""event"",""trial"",""time""
""fullscreenenter"",""0"",""3060""
","
","
","""event"",""trial"",""time""
""fullscreenenter"",""0"",""3060""
","
","null","run_exp/static/images/Set 6_rs/155a.jpg","null","","","","","","test","TF",""
"","html-keyboard-response","287","436244","0.0-241.0-2.0","""event"",""trial"",""time""
""fullscreenenter"",""0"",""3060""
","
","
","""event"",""trial"",""time""
""fullscreenenter"",""0"",""3060""
","
","null","<p></p>","null","","","","","","","",""
"","image","288","437043","0.0-242.0-0.0","""event"",""trial"",""time""
""fullscreenenter"",""0"",""3060""
","
","
","""event"",""trial"",""time""
""fullscreenenter"",""0"",""3060""
","
","798.4000000022352","run_exp/static/images/Set 6_rs/006b.jpg","86","","","","","","test","TL","2"
"","show_choice","289","437549","0.0-242.0-1.0","""event"",""trial"",""time""
""fullscreenenter"",""0"",""3060""
","
","
","""event"",""trial"",""time""
""fullscreenenter"",""0"",""3060""
","
","null","run_exp/static/images/Set 6_rs/006b.jpg","null","","","","","","test","TL",""
"","html-keyboard-response","290","438054","0.0-242.0-2.0","""event"",""trial"",""time""
""fullscreenenter"",""0"",""3060""
","
","
","""event"",""trial"",""time""
""fullscreenenter"",""0"",""3060""
","
","null","<p></p>","null","","","","","","","",""
"","image","291","439259","0.0-243.0-0.0","""event"",""trial"",""time""
""fullscreenenter"",""0"",""3060""
","
","
","""event"",""trial"",""time""
""fullscreenenter"",""0"",""3060""
","
","1203.300000000745","run_exp/static/images/Set 6_rs/017b.jpg","86","","","","","","test","TL","3"
"","show_choice","292","439762","0.0-243.0-1.0","""event"",""trial"",""time""
""fullscreenenter"",""0"",""3060""
","
","
","""event"",""trial"",""time""
""fullscreenenter"",""0"",""3060""
","
","null","run_exp/static/images/Set 6_rs/017b.jpg","null","","","","","","test","TL",""
"","html-keyboard-response","293","440264","0.0-243.0-2.0","""event"",""trial"",""time""
""fullscreenenter"",""0"",""3060""
","
","
","""event"",""trial"",""time""
""fullscreenenter"",""0"",""3060""
","
","null","<p></p>","null","","","","","","","",""
"","image","294","441369","0.0-244.0-0.0","""event"",""trial"",""time""
""fullscreenenter"",""0"",""3060""
","
","
","""event"",""trial"",""time""
""fullscreenenter"",""0"",""3060""
","
","1103.7000000029802","run_exp/static/images/Set 6_rs/050b.jpg","66","","","","","","test","TL","3"
"","show_choice","295","441874","0.0-244.0-1.0","""event"",""trial"",""time""
""fullscreenenter"",""0"",""3060""
","
","
","""event"",""trial"",""time""
""fullscreenenter"",""0"",""3060""
","
","null","run_exp/static/images/Set 6_rs/050b.jpg","null","","","","","","test","TL",""
"","html-keyboard-response","296","442376","0.0-244.0-2.0","""event"",""trial"",""time""
""fullscreenenter"",""0"",""3060""
","
","
","""event"",""trial"",""time""
""fullscreenenter"",""0"",""3060""
","
","null","<p></p>","null","","","","","","","",""
"","image","297","443714","0.0-245.0-0.0","""event"",""trial"",""time""
""fullscreenenter"",""0"",""3060""
","
","
","""event"",""trial"",""time""
""fullscreenenter"",""0"",""3060""
","
","1336.4000000022352","run_exp/static/images/Set 6_rs/052a.jpg","86","","","","","","test","TF","1"
"","show_choice","298","444219","0.0-245.0-1.0","""event"",""trial"",""time""
""fullscreenenter"",""0"",""3060""
","
","
","""event"",""trial"",""time""
""fullscreenenter"",""0"",""3060""
","
","null","run_exp/static/images/Set 6_rs/052a.jpg","null","","","","","","test","TF",""
"","html-keyboard-response","299","444720","0.0-245.0-2.0","""event"",""trial"",""time""
""fullscreenenter"",""0"",""3060""
","
","
","""event"",""trial"",""time""
""fullscreenenter"",""0"",""3060""
","
","null","<p></p>","null","","","","","","","",""
"","image","300","445656","0.0-246.0-0.0","""event"",""trial"",""time""
""fullscreenenter"",""0"",""3060""
","
","
","""event"",""trial"",""time""
""fullscreenenter"",""0"",""3060""
","
","933.6999999992549","run_exp/static/images/Set 6_rs/035a.jpg","78","","","","","","test","TF","4"
"","show_choice","301","446161","0.0-246.0-1.0","""event"",""trial"",""time""
""fullscreenenter"",""0"",""3060""
","
","
","""event"",""trial"",""time""
""fullscreenenter"",""0"",""3060""
","
","null","run_exp/static/images/Set 6_rs/035a.jpg","null","","","","","","test","TF",""
"","html-keyboard-response","302","446665","0.0-246.0-2.0","""event"",""trial"",""time""
""fullscreenenter"",""0"",""3060""
","
","
","""event"",""trial"",""time""
""fullscreenenter"",""0"",""3060""
","
","null","<p></p>","null","","","","","","","",""
"","image","303","447865","0.0-247.0-0.0","""event"",""trial"",""time""
""fullscreenenter"",""0"",""3060""
","
","
","""event"",""trial"",""time""
""fullscreenenter"",""0"",""3060""
","
","1198.2999999970198","run_exp/static/images/Set 6_rs/048a.jpg","78","","","","","","test","TF","4"
"","show_choice","304","448370","0.0-247.0-1.0","""event"",""trial"",""time""
""fullscreenenter"",""0"",""3060""
","
","
","""event"",""trial"",""time""
""fullscreenenter"",""0"",""3060""
","
","null","run_exp/static/images/Set 6_rs/048a.jpg","null","","","","","","test","TF",""
"","html-keyboard-response","305","448877","0.0-247.0-2.0","""event"",""trial"",""time""
""fullscreenenter"",""0"",""3060""
","
","
","""event"",""trial"",""time""
""fullscreenenter"",""0"",""3060""
","
","null","<p></p>","null","","","","","","","",""
"","image","306","449910","0.0-248.0-0.0","""event"",""trial"",""time""
""fullscreenenter"",""0"",""3060""
","
","
","""event"",""trial"",""time""
""fullscreenenter"",""0"",""3060""
","
","1031.199999999255","run_exp/static/images/Set 6_rs/149a.jpg","78","","","","","","test","TF","1"
"","show_choice","307","450415","0.0-248.0-1.0","""event"",""trial"",""time""
""fullscreenenter"",""0"",""3060""
","
","
","""event"",""trial"",""time""
""fullscreenenter"",""0"",""3060""
","
","null","run_exp/static/images/Set 6_rs/149a.jpg","null","","","","","","test","TF",""
"","html-keyboard-response","308","450916","0.0-248.0-2.0","""event"",""trial"",""time""
""fullscreenenter"",""0"",""3060""
","
","
","""event"",""trial"",""time""
""fullscreenenter"",""0"",""3060""
","
","null","<p></p>","null","","","","","","","",""
"","image","309","452062","0.0-249.0-0.0","""event"",""trial"",""time""
""fullscreenenter"",""0"",""3060""
","
","
","""event"",""trial"",""time""
""fullscreenenter"",""0"",""3060""
","
","1144.300000000745","run_exp/static/images/Set 6_rs/140a.jpg","78","","","","","","test","TF","1"
"","show_choice","310","452568","0.0-249.0-1.0","""event"",""trial"",""time""
""fullscreenenter"",""0"",""3060""
","
","
","""event"",""trial"",""time""
""fullscreenenter"",""0"",""3060""
","
","null","run_exp/static/images/Set 6_rs/140a.jpg","null","","","","","","test","TF",""
"","html-keyboard-response","311","453071","0.0-249.0-2.0","""event"",""trial"",""time""
""fullscreenenter"",""0"",""3060""
","
","
","""event"",""trial"",""time""
""fullscreenenter"",""0"",""3060""
","
","null","<p></p>","null","","","","","","","",""
"","image","312","454125","0.0-250.0-0.0","""event"",""trial"",""time""
""fullscreenenter"",""0"",""3060""
","
","
","""event"",""trial"",""time""
""fullscreenenter"",""0"",""3060""
","
","1052.6000000014901","run_exp/static/images/Set 6_rs/079b.jpg","66","","","","","","test","TL","5"
"","show_choice","313","454627","0.0-250.0-1.0","""event"",""trial"",""time""
""fullscreenenter"",""0"",""3060""
","
","
","""event"",""trial"",""time""
""fullscreenenter"",""0"",""3060""
","
","null","run_exp/static/images/Set 6_rs/079b.jpg","null","","","","","","test","TL",""
"","html-keyboard-response","314","455131","0.0-250.0-2.0","""event"",""trial"",""time""
""fullscreenenter"",""0"",""3060""
","
","
","""event"",""trial"",""time""
""fullscreenenter"",""0"",""3060""
","
","null","<p></p>","null","","","","","","","",""
"","image","315","455968","0.0-251.0-0.0","""event"",""trial"",""time""
""fullscreenenter"",""0"",""3060""
","
","
","""event"",""trial"",""time""
""fullscreenenter"",""0"",""3060""
","
","834.9000000022352","run_exp/static/images/Set 6_rs/150a.jpg","86","","","","","","test","TR","1"
"","show_choice","316","456471","0.0-251.0-1.0","""event"",""trial"",""time""
""fullscreenenter"",""0"",""3060""
","
","
","""event"",""trial"",""time""
""fullscreenenter"",""0"",""3060""
","
","null","run_exp/static/images/Set 6_rs/150a.jpg","null","","","","","","test","TR",""
"","html-keyboard-response","317","456977","0.0-251.0-2.0","""event"",""trial"",""time""
""fullscreenenter"",""0"",""3060""
","
","
","""event"",""trial"",""time""
""fullscreenenter"",""0"",""3060""
","
","null","<p></p>","null","","","","","","","",""
"","image","318","458014","0.0-252.0-0.0","""event"",""trial"",""time""
""fullscreenenter"",""0"",""3060""
","
","
","""event"",""trial"",""time""
""fullscreenenter"",""0"",""3060""
","
","1035.800000000745","run_exp/static/images/Set 6_rs/025b.jpg","66","","","","","","test","TL","5"
"","show_choice","319","458520","0.0-252.0-1.0","""event"",""trial"",""time""
""fullscreenenter"",""0"",""3060""
","
","
","""event"",""trial"",""time""
""fullscreenenter"",""0"",""3060""
","
","null","run_exp/static/images/Set 6_rs/025b.jpg","null","","","","","","test","TL",""
"","html-keyboard-response","320","459021","0.0-252.0-2.0","""event"",""trial"",""time""
""fullscreenenter"",""0"",""3060""
","
","
","""event"",""trial"",""time""
""fullscreenenter"",""0"",""3060""
","
","null","<p></p>","null","","","","","","","",""
"","image","321","460061","0.0-253.0-0.0","""event"",""trial"",""time""
""fullscreenenter"",""0"",""3060""
","
","
","""event"",""trial"",""time""
""fullscreenenter"",""0"",""3060""
","
","1038.8999999985099","run_exp/static/images/Set 6_rs/190a.jpg","78","","","","","","test","TF","3"
"","show_choice","322","460565","0.0-253.0-1.0","""event"",""trial"",""time""
""fullscreenenter"",""0"",""3060""
","
","
","""event"",""trial"",""time""
""fullscreenenter"",""0"",""3060""
","
","null","run_exp/static/images/Set 6_rs/190a.jpg","null","","","","","","test","TF",""
"","html-keyboard-response","323","461070","0.0-253.0-2.0","""event"",""trial"",""time""
""fullscreenenter"",""0"",""3060""
","
","
","""event"",""trial"",""time""
""fullscreenenter"",""0"",""3060""
","
","null","<p></p>","null","","","","","","","",""
"","image","324","462546","0.0-254.0-0.0","""event"",""trial"",""time""
""fullscreenenter"",""0"",""3060""
","
","
","""event"",""trial"",""time""
""fullscreenenter"",""0"",""3060""
","
","1474.2000000029802","run_exp/static/images/Set 6_rs/008b.jpg","66","","","","","","test","TL","2"
"","show_choice","325","463051","0.0-254.0-1.0","""event"",""trial"",""time""
""fullscreenenter"",""0"",""3060""
","
","
","""event"",""trial"",""time""
""fullscreenenter"",""0"",""3060""
","
","null","run_exp/static/images/Set 6_rs/008b.jpg","null","","","","","","test","TL",""
"","html-keyboard-response","326","463553","0.0-254.0-2.0","""event"",""trial"",""time""
""fullscreenenter"",""0"",""3060""
","
","
","""event"",""trial"",""time""
""fullscreenenter"",""0"",""3060""
","
","null","<p></p>","null","","","","","","","",""
"","image","327","464584","0.0-255.0-0.0","""event"",""trial"",""time""
""fullscreenenter"",""0"",""3060""
","
","
","""event"",""trial"",""time""
""fullscreenenter"",""0"",""3060""
","
","1029.0999999977648","run_exp/static/images/Set 6_rs/126a.jpg","86","","","","","","test","TR","2"
"","show_choice","328","465089","0.0-255.0-1.0","""event"",""trial"",""time""
""fullscreenenter"",""0"",""3060""
","
","
","""event"",""trial"",""time""
""fullscreenenter"",""0"",""3060""
","
","null","run_exp/static/images/Set 6_rs/126a.jpg","null","","","","","","test","TR",""
"","html-keyboard-response","329","465590","0.0-255.0-2.0","""event"",""trial"",""time""
""fullscreenenter"",""0"",""3060""
","
","
","""event"",""trial"",""time""
""fullscreenenter"",""0"",""3060""
","
","null","<p></p>","null","","","","","","","",""
"","image","330","466834","0.0-256.0-0.0","""event"",""trial"",""time""
""fullscreenenter"",""0"",""3060""
","
","
","""event"",""trial"",""time""
""fullscreenenter"",""0"",""3060""
","
","1241.3999999985099","run_exp/static/images/Set 6_rs/170a.jpg","78","","","","","","test","TF","2"
"","show_choice","331","467338","0.0-256.0-1.0","""event"",""trial"",""time""
""fullscreenenter"",""0"",""3060""
","
","
","""event"",""trial"",""time""
""fullscreenenter"",""0"",""3060""
","
","null","run_exp/static/images/Set 6_rs/170a.jpg","null","","","","","","test","TF",""
"","html-keyboard-response","332","467840","0.0-256.0-2.0","""event"",""trial"",""time""
""fullscreenenter"",""0"",""3060""
","
","
","""event"",""trial"",""time""
""fullscreenenter"",""0"",""3060""
","
","null","<p></p>","null","","","","","","","",""
"","image","333","468851","0.0-257.0-0.0","""event"",""trial"",""time""
""fullscreenenter"",""0"",""3060""
","
","
","""event"",""trial"",""time""
""fullscreenenter"",""0"",""3060""
","
","1009.6000000014901","run_exp/static/images/Set 6_rs/152a.jpg","86","","","","","","test","TR","2"
"","show_choice","334","469356","0.0-257.0-1.0","""event"",""trial"",""time""
""fullscreenenter"",""0"",""3060""
","
","
","""event"",""trial"",""time""
""fullscreenenter"",""0"",""3060""
","
","null","run_exp/static/images/Set 6_rs/152a.jpg","null","","","","","","test","TR",""
"","html-keyboard-response","335","469863","0.0-257.0-2.0","""event"",""trial"",""time""
""fullscreenenter"",""0"",""3060""
","
","
","""event"",""trial"",""time""
""fullscreenenter"",""0"",""3060""
","
","null","<p></p>","null","","","","","","","",""
"","image","336","471203","0.0-258.0-0.0","""event"",""trial"",""time""
""fullscreenenter"",""0"",""3060""
","
","
","""event"",""trial"",""time""
""fullscreenenter"",""0"",""3060""
","
","1338.9000000022352","run_exp/static/images/Set 6_rs/019b.jpg","66","","","","","","test","TL","2"
"","show_choice","337","471708","0.0-258.0-1.0","""event"",""trial"",""time""
""fullscreenenter"",""0"",""3060""
","
","
","""event"",""trial"",""time""
""fullscreenenter"",""0"",""3060""
","
","null","run_exp/static/images/Set 6_rs/019b.jpg","null","","","","","","test","TL",""
"","html-keyboard-response","338","472212","0.0-258.0-2.0","""event"",""trial"",""time""
""fullscreenenter"",""0"",""3060""
","
","
","""event"",""trial"",""time""
""fullscreenenter"",""0"",""3060""
","
","null","<p></p>","null","","","","","","","",""
"","image","339","473634","0.0-259.0-0.0","""event"",""trial"",""time""
""fullscreenenter"",""0"",""3060""
","
","
","""event"",""trial"",""time""
""fullscreenenter"",""0"",""3060""
","
","1421","run_exp/static/images/Set 6_rs/001a.jpg","78","","","","","","test","TF","1"
"","show_choice","340","474140","0.0-259.0-1.0","""event"",""trial"",""time""
""fullscreenenter"",""0"",""3060""
","
","
","""event"",""trial"",""time""
""fullscreenenter"",""0"",""3060""
","
","null","run_exp/static/images/Set 6_rs/001a.jpg","null","","","","","","test","TF",""
