"success","trial_type","trial_index","time_elapsed","internal_node_id","rt","stimulus","key_press","subject_id","participant_id","age","gender","prompt","phase","condition","lure_bin"
"true","fullscreen","0","6770","0.0-0.0","","","","","","","","","","",""
"","pavlovia","1","6777","0.0-1.0","","","","","","","","","","",""
"","welcome","2","42607","0.0-2.0","null","run_exp/static/audio/clip_1_welcome.m4a","null","63","3","12","female","<div class='center'><p>This is your last game of the experiment! First, you'll be shown pictures of items one at a time. For each picture, you have to decide if the item is typically found indoors or outdoors.</p><p>If you think it's usually found indoors, then press <b>v</b> key on your keyboard. If you think it's usually found outdoors, then press the <b>n</b> key.There will be reminders on the screen to help you remember which keys to press. </p><p>If you're not sure whether the item is an indoor item or outdoor item, go ahead and take a guess but try your best not to skip that choice. </p></div>","","",""
"","html-keyboard-response","3","44012","0.0-3.0","1403.5","<div class='center'><p>This is your last game of the experiment! First, you'll be shown pictures of items one at a time. For each picture, you have to decide if the item is typically found indoors or outdoors.</p><p>If you think it's usually found indoors, then press <b>v</b> key on your keyboard. If you think it's usually found outdoors, then press the <b>n</b> key.There will be reminders on the screen to help you remember which keys to press. </p><p>If you're not sure whether the item is an indoor item or outdoor item, go ahead and take a guess but try your best not to skip that choice. </p><div><p><b>[Press the space bar to continue]</b></p></div>","32","","","","","","","",""
"","image","4","45728","0.0-4.0","1712.7999999970198","run_exp/static/images/Set 6_rs/016a.jpg","86","","","","","","learn","SL",""
"","show_choice","5","46017","0.0-5.0","null","run_exp/static/images/Set 6_rs/016a.jpg","null","","","","","","learn","SL",""
"","html-keyboard-response","6","46523","0.0-6.0","null","<p></p>","null","","","","","","","",""
"","image","7","47819","0.0-7.0","1294.5","run_exp/static/images/Set 6_rs/076a.jpg","78","","","","","","learn","SR",""
"","show_choice","8","48527","0.0-8.0","null","run_exp/static/images/Set 6_rs/076a.jpg","null","","","","","","learn","SR",""
"","html-keyboard-response","9","49032","0.0-9.0","null","<p></p>","null","","","","","","","",""
"","image","10","50772","0.0-10.0","1738.0999999940395","run_exp/static/images/Set 6_rs/117a.jpg","78","","","","","","learn","SL",""
"","show_choice","11","51035","0.0-11.0","null","run_exp/static/images/Set 6_rs/117a.jpg","null","","","","","","learn","SL",""
"","html-keyboard-response","12","51540","0.0-12.0","null","<p></p>","null","","","","","","","",""
"","image","13","53014","0.0-13.0","1471.5999999940395","run_exp/static/images/Set 6_rs/079a.jpg","86","","","","","","learn","SL",""
"","show_choice","14","53547","0.0-14.0","null","run_exp/static/images/Set 6_rs/079a.jpg","null","","","","","","learn","SL",""
"","html-keyboard-response","15","54053","0.0-15.0","null","<p></p>","null","","","","","","","",""
"","image","16","54931","0.0-16.0","877.2999999970198","run_exp/static/images/Set 6_rs/178a.jpg","78","","","","","","learn","SR",""
"","show_choice","17","56057","0.0-17.0","null","run_exp/static/images/Set 6_rs/178a.jpg","null","","","","","","learn","SR",""
"","html-keyboard-response","18","56559","0.0-18.0","null","<p></p>","null","","","","","","","",""
"","image","19","57373","0.0-19.0","813.1000000089407","run_exp/static/images/Set 6_rs/095a.jpg","86","","","","","","learn","SL",""
"","show_choice","20","58562","0.0-20.0","null","run_exp/static/images/Set 6_rs/095a.jpg","null","","","","","","learn","SL",""
"","html-keyboard-response","21","59067","0.0-21.0","null","<p></p>","null","","","","","","","",""
"","image","22","59897","0.0-22.0","828.5","run_exp/static/images/Set 6_rs/024a.jpg","86","","","","","","learn","SR",""
"","show_choice","23","61074","0.0-23.0","null","run_exp/static/images/Set 6_rs/024a.jpg","null","","","","","","learn","SR",""
"","html-keyboard-response","24","61580","0.0-24.0","null","<p></p>","null","","","","","","","",""
"","image","25","62449","0.0-25.0","867.5","run_exp/static/images/Set 6_rs/064a.jpg","86","","","","","","learn","SR",""
"","show_choice","26","63584","0.0-26.0","null","run_exp/static/images/Set 6_rs/064a.jpg","null","","","","","","learn","SR",""
"","html-keyboard-response","27","64090","0.0-27.0","null","<p></p>","null","","","","","","","",""
"","image","28","65114","0.0-28.0","1022.4000000059605","run_exp/static/images/Set 6_rs/177a.jpg","78","","","","","","learn","SR",""
"","show_choice","29","66092","0.0-29.0","null","run_exp/static/images/Set 6_rs/177a.jpg","null","","","","","","learn","SR",""
"","html-keyboard-response","30","66598","0.0-30.0","null","<p></p>","null","","","","","","","",""
"","image","31","68249","0.0-31.0","1649.4000000059605","run_exp/static/images/Set 6_rs/019a.jpg","86","","","","","","learn","SL",""
"","show_choice","32","68600","0.0-32.0","null","run_exp/static/images/Set 6_rs/019a.jpg","null","","","","","","learn","SL",""
"","html-keyboard-response","33","69101","0.0-33.0","null","<p></p>","null","","","","","","","",""
"","image","34","70526","0.0-34.0","1424.199999988079","run_exp/static/images/Set 6_rs/144a.jpg","78","","","","","","learn","SL",""
"","show_choice","35","71104","0.0-35.0","null","run_exp/static/images/Set 6_rs/144a.jpg","null","","","","","","learn","SL",""
"","html-keyboard-response","36","71609","0.0-36.0","null","<p></p>","null","","","","","","","",""
"","image","37","73542","0.0-37.0","1931.2000000029802","run_exp/static/images/Set 6_rs/148a.jpg","86","","","","","","learn","SR",""
"","show_choice","38","73611","0.0-38.0","null","run_exp/static/images/Set 6_rs/148a.jpg","null","","","","","","learn","SR",""
"","html-keyboard-response","39","74116","0.0-39.0","null","<p></p>","null","","","","","","","",""
"","image","40","75986","0.0-40.0","1869","run_exp/static/images/Set 6_rs/008a.jpg","86","","","","","","learn","SL",""
"","show_choice","41","76122","0.0-41.0","null","run_exp/static/images/Set 6_rs/008a.jpg","null","","","","","","learn","SL",""
"","html-keyboard-response","42","76628","0.0-42.0","null","<p></p>","null","","","","","","","",""
"","image","43","78631","0.0-43.0","null","run_exp/static/images/Set 6_rs/167a.jpg","null","","","","","","learn","SL",""
"","show_choice","44","80637","0.0-44.0","null","run_exp/static/images/blank.png","null","","","","","","learn","SL",""
"","html-keyboard-response","45","81141","0.0-45.0","null","<p></p>","null","","","","","","","",""
"","image","46","82244","0.0-46.0","1101.7999999970198","run_exp/static/images/Set 6_rs/066a.jpg","78","","","","","","learn","SL",""
"","show_choice","47","83148","0.0-47.0","null","run_exp/static/images/Set 6_rs/066a.jpg","null","","","","","","learn","SL",""
"","html-keyboard-response","48","83653","0.0-48.0","null","<p></p>","null","","","","","","","",""
"","image","49","84756","0.0-49.0","1101.7000000029802","run_exp/static/images/Set 6_rs/129a.jpg","86","","","","","","learn","SL",""
"","show_choice","50","85657","0.0-50.0","null","run_exp/static/images/Set 6_rs/129a.jpg","null","","","","","","learn","SL",""
"","html-keyboard-response","51","86161","0.0-51.0","null","<p></p>","null","","","","","","","",""
"","image","52","87420","0.0-52.0","1257.7000000029802","run_exp/static/images/Set 6_rs/075a.jpg","86","","","","","","learn","SR",""
"","show_choice","53","88164","0.0-53.0","null","run_exp/static/images/Set 6_rs/075a.jpg","null","","","","","","learn","SR",""
"","html-keyboard-response","54","88670","0.0-54.0","null","<p></p>","null","","","","","","","",""
"","image","55","89678","0.0-55.0","1006.2999999970198","run_exp/static/images/Set 6_rs/006a.jpg","86","","","","","","learn","SL",""
"","show_choice","56","90677","0.0-56.0","null","run_exp/static/images/Set 6_rs/006a.jpg","null","","","","","","learn","SL",""
"","html-keyboard-response","57","91178","0.0-57.0","null","<p></p>","null","","","","","","","",""
"","image","58","92247","0.0-58.0","1067.7999999970198","run_exp/static/images/Set 6_rs/111a.jpg","86","","","","","","learn","SL",""
"","show_choice","59","93182","0.0-59.0","null","run_exp/static/images/Set 6_rs/111a.jpg","null","","","","","","learn","SL",""
"","html-keyboard-response","60","93688","0.0-60.0","null","<p></p>","null","","","","","","","",""
"","image","61","95304","0.0-61.0","1615.199999988079","run_exp/static/images/Set 6_rs/121a.jpg","78","","","","","","learn","SR",""
"","show_choice","62","95694","0.0-62.0","null","run_exp/static/images/Set 6_rs/121a.jpg","null","","","","","","learn","SR",""
"","html-keyboard-response","63","96200","0.0-63.0","null","<p></p>","null","","","","","","","",""
"","image","64","97378","0.0-64.0","1177","run_exp/static/images/Set 6_rs/150a.jpg","86","","","","","","learn","SR",""
"","show_choice","65","98204","0.0-65.0","null","run_exp/static/images/Set 6_rs/150a.jpg","null","","","","","","learn","SR",""
"","html-keyboard-response","66","98706","0.0-66.0","null","<p></p>","null","","","","","","","",""
"","image","67","100214","0.0-67.0","1506.5","run_exp/static/images/Set 6_rs/036a.jpg","86","","","","","","learn","SL",""
"","show_choice","68","100711","0.0-68.0","null","run_exp/static/images/Set 6_rs/036a.jpg","null","","","","","","learn","SL",""
"","html-keyboard-response","69","101215","0.0-69.0","null","<p></p>","null","","","","","","","",""
"","image","70","102446","0.0-70.0","1229.5999999940395","run_exp/static/images/Set 6_rs/108a.jpg","78","","","","","","learn","SR",""
"","show_choice","71","103219","0.0-71.0","null","run_exp/static/images/Set 6_rs/108a.jpg","null","","","","","","learn","SR",""
"","html-keyboard-response","72","103721","0.0-72.0","null","<p></p>","null","","","","","","","",""
"","image","73","104737","0.0-73.0","1015","run_exp/static/images/Set 6_rs/141a.jpg","78","","","","","","learn","SR",""
"","show_choice","74","105723","0.0-74.0","null","run_exp/static/images/Set 6_rs/141a.jpg","null","","","","","","learn","SR",""
"","html-keyboard-response","75","106229","0.0-75.0","null","<p></p>","null","","","","","","","",""
"","image","76","107085","0.0-76.0","854.5999999940395","run_exp/static/images/Set 6_rs/172a.jpg","78","","","","","","learn","SR",""
"","show_choice","77","108233","0.0-77.0","null","run_exp/static/images/Set 6_rs/172a.jpg","null","","","","","","learn","SR",""
"","html-keyboard-response","78","108739","0.0-78.0","null","<p></p>","null","","","","","","","",""
"","image","79","109639","0.0-79.0","898.8000000119209","run_exp/static/images/Set 6_rs/166a.jpg","86","","","","","","learn","SR",""
"","show_choice","80","110745","0.0-80.0","null","run_exp/static/images/Set 6_rs/166a.jpg","null","","","","","","learn","SR",""
"","html-keyboard-response","81","111249","0.0-81.0","null","<p></p>","null","","","","","","","",""
"","image","82","112649","0.0-82.0","1399","run_exp/static/images/Set 6_rs/085a.jpg","86","","","","","","learn","SL",""
"","show_choice","83","113252","0.0-83.0","null","run_exp/static/images/Set 6_rs/085a.jpg","null","","","","","","learn","SL",""
"","html-keyboard-response","84","113756","0.0-84.0","null","<p></p>","null","","","","","","","",""
"","image","85","115411","0.0-85.0","1654","run_exp/static/images/Set 6_rs/089a.jpg","78","","","","","","learn","SL",""
"","show_choice","86","115758","0.0-86.0","null","run_exp/static/images/Set 6_rs/089a.jpg","null","","","","","","learn","SL",""
"","html-keyboard-response","87","116261","0.0-87.0","null","<p></p>","null","","","","","","","",""
"","image","88","117485","0.0-88.0","1222.3999999910593","run_exp/static/images/Set 6_rs/123a.jpg","78","","","","","","learn","SL",""
"","show_choice","89","118263","0.0-89.0","null","run_exp/static/images/Set 6_rs/123a.jpg","null","","","","","","learn","SL",""
"","html-keyboard-response","90","118767","0.0-90.0","null","<p></p>","null","","","","","","","",""
"","image","91","120636","0.0-91.0","1867.2000000029802","run_exp/static/images/Set 6_rs/134a.jpg","86","","","","","","learn","SR",""
"","show_choice","92","120769","0.0-92.0","null","run_exp/static/images/Set 6_rs/134a.jpg","null","","","","","","learn","SR",""
"","html-keyboard-response","93","121275","0.0-93.0","null","<p></p>","null","","","","","","","",""
"","image","94","122642","0.0-94.0","1365.5","run_exp/static/images/Set 6_rs/063a.jpg","86","","","","","","learn","SR",""
"","show_choice","95","123277","0.0-95.0","null","run_exp/static/images/Set 6_rs/063a.jpg","null","","","","","","learn","SR",""
"","html-keyboard-response","96","123778","0.0-96.0","null","<p></p>","null","","","","","","","",""
"","image","97","125124","0.0-97.0","1345.199999988079","run_exp/static/images/Set 6_rs/091a.jpg","86","","","","","","learn","SL",""
"","show_choice","98","125784","0.0-98.0","null","run_exp/static/images/Set 6_rs/091a.jpg","null","","","","","","learn","SL",""
"","html-keyboard-response","99","126289","0.0-99.0","null","<p></p>","null","","","","","","","",""
"","image","100","127445","0.0-100.0","1155.0999999940395","run_exp/static/images/Set 6_rs/181a.jpg","78","","","","","","learn","SL",""
"","show_choice","101","128295","0.0-101.0","null","run_exp/static/images/Set 6_rs/181a.jpg","null","","","","","","learn","SL",""
"","html-keyboard-response","102","128801","0.0-102.0","null","<p></p>","null","","","","","","","",""
"","image","103","130132","0.0-103.0","1329.4000000059605","run_exp/static/images/Set 6_rs/126a.jpg","86","","","","","","learn","SR",""
"","show_choice","104","130806","0.0-104.0","null","run_exp/static/images/Set 6_rs/126a.jpg","null","","","","","","learn","SR",""
"","html-keyboard-response","105","131307","0.0-105.0","null","<p></p>","null","","","","","","","",""
"","image","106","132658","0.0-106.0","1349.7000000029802","run_exp/static/images/Set 6_rs/023a.jpg","86","","","","","","learn","SR",""
"","show_choice","107","133314","0.0-107.0","null","run_exp/static/images/Set 6_rs/023a.jpg","null","","","","","","learn","SR",""
"","html-keyboard-response","108","133818","0.0-108.0","null","<p></p>","null","","","","","","","",""
"","image","109","135209","0.0-109.0","1390.3999999910593","run_exp/static/images/Set 6_rs/122a.jpg","78","","","","","","learn","SR",""
"","show_choice","110","135824","0.0-110.0","null","run_exp/static/images/Set 6_rs/122a.jpg","null","","","","","","learn","SR",""
"","html-keyboard-response","111","136330","0.0-111.0","null","<p></p>","null","","","","","","","",""
"","image","112","137597","0.0-112.0","1266.0999999940395","run_exp/static/images/Set 6_rs/017a.jpg","86","","","","","","learn","SL",""
"","show_choice","113","138335","0.0-113.0","null","run_exp/static/images/Set 6_rs/017a.jpg","null","","","","","","learn","SL",""
"","html-keyboard-response","114","138839","0.0-114.0","null","<p></p>","null","","","","","","","",""
"","image","115","139971","0.0-115.0","1130.7999999970198","run_exp/static/images/Set 6_rs/169a.jpg","78","","","","","","learn","SR",""
"","show_choice","116","140845","0.0-116.0","null","run_exp/static/images/Set 6_rs/169a.jpg","null","","","","","","learn","SR",""
"","html-keyboard-response","117","141349","0.0-117.0","null","<p></p>","null","","","","","","","",""
"","image","118","142559","0.0-118.0","1208.3999999910593","run_exp/static/images/Set 6_rs/061a.jpg","78","","","","","","learn","SR",""
"","show_choice","119","143356","0.0-119.0","null","run_exp/static/images/Set 6_rs/061a.jpg","null","","","","","","learn","SR",""
"","html-keyboard-response","120","143860","0.0-120.0","null","<p></p>","null","","","","","","","",""
"","image","121","144667","0.0-121.0","805.3999999910593","run_exp/static/images/Set 6_rs/057a.jpg","86","","","","","","learn","SL",""
"","show_choice","122","145862","0.0-122.0","null","run_exp/static/images/Set 6_rs/057a.jpg","null","","","","","","learn","SL",""
"","html-keyboard-response","123","146365","0.0-123.0","null","<p></p>","null","","","","","","","",""
"","image","124","147550","0.0-124.0","1184.1000000089407","run_exp/static/images/Set 6_rs/055a.jpg","78","","","","","","learn","SL",""
"","show_choice","125","148367","0.0-125.0","null","run_exp/static/images/Set 6_rs/055a.jpg","null","","","","","","learn","SL",""
"","html-keyboard-response","126","148868","0.0-126.0","null","<p></p>","null","","","","","","","",""
"","image","127","149913","0.0-127.0","1043.800000011921","run_exp/static/images/Set 6_rs/060a.jpg","86","","","","","","learn","SL",""
"","show_choice","128","150871","0.0-128.0","null","run_exp/static/images/Set 6_rs/060a.jpg","null","","","","","","learn","SL",""
"","html-keyboard-response","129","151376","0.0-129.0","null","<p></p>","null","","","","","","","",""
"","image","130","152052","0.0-130.0","674.2999999970198","run_exp/static/images/Set 6_rs/152a.jpg","86","","","","","","learn","SR",""
"","show_choice","131","153383","0.0-131.0","null","run_exp/static/images/Set 6_rs/152a.jpg","null","","","","","","learn","SR",""
"","html-keyboard-response","132","153884","0.0-132.0","null","<p></p>","null","","","","","","","",""
"","image","133","154618","0.0-133.0","732.1000000089407","run_exp/static/images/Set 6_rs/073a.jpg","86","","","","","","learn","SL",""
"","show_choice","134","155891","0.0-134.0","null","run_exp/static/images/Set 6_rs/073a.jpg","null","","","","","","learn","SL",""
"","html-keyboard-response","135","156397","0.0-135.0","null","<p></p>","null","","","","","","","",""
"","image","136","157094","0.0-136.0","696.6000000089407","run_exp/static/images/Set 6_rs/112a.jpg","86","","","","","","learn","SR",""
"","show_choice","137","158403","0.0-137.0","null","run_exp/static/images/Set 6_rs/112a.jpg","null","","","","","","learn","SR",""
"","html-keyboard-response","138","158909","0.0-138.0","null","<p></p>","null","","","","","","","",""
"","image","139","159919","0.0-139.0","1008.5","run_exp/static/images/Set 6_rs/138a.jpg","78","","","","","","learn","SL",""
"","show_choice","140","160916","0.0-140.0","null","run_exp/static/images/Set 6_rs/138a.jpg","null","","","","","","learn","SL",""
"","html-keyboard-response","141","161418","0.0-141.0","null","<p></p>","null","","","","","","","",""
"","image","142","162136","0.0-142.0","716.7000000029802","run_exp/static/images/Set 6_rs/186a.jpg","86","","","","","","learn","SR",""
"","show_choice","143","163422","0.0-143.0","null","run_exp/static/images/Set 6_rs/186a.jpg","null","","","","","","learn","SR",""
"","html-keyboard-response","144","163925","0.0-144.0","null","<p></p>","null","","","","","","","",""
"","image","145","165248","0.0-145.0","1321.6000000089407","run_exp/static/images/Set 6_rs/116a.jpg","78","","","","","","learn","SL",""
"","show_choice","146","165928","0.0-146.0","null","run_exp/static/images/Set 6_rs/116a.jpg","null","","","","","","learn","SL",""
"","html-keyboard-response","147","166433","0.0-147.0","null","<p></p>","null","","","","","","","",""
"","image","148","167374","0.0-148.0","940.5","run_exp/static/images/Set 6_rs/045a.jpg","86","","","","","","learn","SR",""
"","show_choice","149","168439","0.0-149.0","null","run_exp/static/images/Set 6_rs/045a.jpg","null","","","","","","learn","SR",""
"","html-keyboard-response","150","168945","0.0-150.0","null","<p></p>","null","","","","","","","",""
"","image","151","170542","0.0-151.0","1596.2999999970198","run_exp/static/images/Set 6_rs/025a.jpg","78","","","","","","learn","SL",""
"","show_choice","152","170951","0.0-152.0","null","run_exp/static/images/Set 6_rs/025a.jpg","null","","","","","","learn","SL",""
"","html-keyboard-response","153","171457","0.0-153.0","null","<p></p>","null","","","","","","","",""
"","image","154","172720","0.0-154.0","1261.7000000029802","run_exp/static/images/Set 6_rs/191a.jpg","78","","","","","","learn","SL",""
"","show_choice","155","173464","0.0-155.0","null","run_exp/static/images/Set 6_rs/191a.jpg","null","","","","","","learn","SL",""
"","html-keyboard-response","156","173965","0.0-156.0","null","<p></p>","null","","","","","","","",""
"","image","157","175066","0.0-157.0","1100.1000000089407","run_exp/static/images/Set 6_rs/088a.jpg","86","","","","","","learn","SR",""
"","show_choice","158","175970","0.0-158.0","null","run_exp/static/images/Set 6_rs/088a.jpg","null","","","","","","learn","SR",""
"","html-keyboard-response","159","176474","0.0-159.0","null","<p></p>","null","","","","","","","",""
"","image","160","177540","0.0-160.0","1065.2000000029802","run_exp/static/images/Set 6_rs/007a.jpg","86","","","","","","learn","SR",""
"","show_choice","161","178476","0.0-161.0","null","run_exp/static/images/Set 6_rs/007a.jpg","null","","","","","","learn","SR",""
"","html-keyboard-response","162","178981","0.0-162.0","null","<p></p>","null","","","","","","","",""
"","image","163","180116","0.0-163.0","1133.0999999940395","run_exp/static/images/Set 6_rs/187a.jpg","86","","","","","","learn","SR",""
"","show_choice","164","180988","0.0-164.0","null","run_exp/static/images/Set 6_rs/187a.jpg","null","","","","","","learn","SR",""
"","html-keyboard-response","165","181493","0.0-165.0","null","<p></p>","null","","","","","","","",""
"","image","166","182717","0.0-166.0","1222.5","run_exp/static/images/Set 6_rs/012a.jpg","86","","","","","","learn","SR",""
"","show_choice","167","183497","0.0-167.0","null","run_exp/static/images/Set 6_rs/012a.jpg","null","","","","","","learn","SR",""
"","html-keyboard-response","168","184003","0.0-168.0","null","<p></p>","null","","","","","","","",""
"","image","169","185922","0.0-169.0","1917.300000011921","run_exp/static/images/Set 6_rs/131a.jpg","78","","","","","","learn","SR",""
"","show_choice","170","186010","0.0-170.0","null","run_exp/static/images/Set 6_rs/131a.jpg","null","","","","","","learn","SR",""
"","html-keyboard-response","171","186517","0.0-171.0","null","<p></p>","null","","","","","","","",""
"","image","172","187608","0.0-172.0","1090.2999999970198","run_exp/static/images/Set 6_rs/010a.jpg","86","","","","","","learn","SR",""
"","show_choice","173","188519","0.0-173.0","null","run_exp/static/images/Set 6_rs/010a.jpg","null","","","","","","learn","SR",""
"","html-keyboard-response","174","189025","0.0-174.0","null","<p></p>","null","","","","","","","",""
"","image","175","189754","0.0-175.0","727.5","run_exp/static/images/Set 6_rs/154a.jpg","86","","","","","","learn","SR",""
"","show_choice","176","191030","0.0-176.0","null","run_exp/static/images/Set 6_rs/154a.jpg","null","","","","","","learn","SR",""
"","html-keyboard-response","177","191536","0.0-177.0","null","<p></p>","null","","","","","","","",""
"","image","178","192421","0.0-178.0","883.5","run_exp/static/images/Set 6_rs/132a.jpg","86","","","","","","learn","SR",""
"","show_choice","179","193539","0.0-179.0","null","run_exp/static/images/Set 6_rs/132a.jpg","null","","","","","","learn","SR",""
"","html-keyboard-response","180","194045","0.0-180.0","null","<p></p>","null","","","","","","","",""
"","image","181","195104","0.0-181.0","1057.1000000089407","run_exp/static/images/Set 6_rs/168a.jpg","86","","","","","","learn","SL",""
"","show_choice","182","196051","0.0-182.0","null","run_exp/static/images/Set 6_rs/168a.jpg","null","","","","","","learn","SL",""
"","html-keyboard-response","183","196557","0.0-183.0","null","<p></p>","null","","","","","","","",""
"","image","184","198018","0.0-184.0","1460.0999999940395","run_exp/static/images/Set 6_rs/071a.jpg","78","","","","","","learn","SL",""
"","show_choice","185","198562","0.0-185.0","null","run_exp/static/images/Set 6_rs/071a.jpg","null","","","","","","learn","SL",""
"","html-keyboard-response","186","199063","0.0-186.0","null","<p></p>","null","","","","","","","",""
"","image","187","200646","0.0-187.0","1582.0999999940395","run_exp/static/images/Set 6_rs/067a.jpg","78","","","","","","learn","SL",""
"","show_choice","188","201070","0.0-188.0","null","run_exp/static/images/Set 6_rs/067a.jpg","null","","","","","","learn","SL",""
"","html-keyboard-response","189","201571","0.0-189.0","null","<p></p>","null","","","","","","","",""
"","image","190","203176","0.0-190.0","1604","run_exp/static/images/Set 6_rs/062a.jpg","86","","","","","","learn","SL",""
"","show_choice","191","203577","0.0-191.0","null","run_exp/static/images/Set 6_rs/062a.jpg","null","","","","","","learn","SL",""
"","html-keyboard-response","192","204080","0.0-192.0","null","<p></p>","null","","","","","","","",""
"","image","193","205909","0.0-193.0","1827.2999999970198","run_exp/static/images/Set 6_rs/074a.jpg","78","","","","","","learn","SL",""
"","show_choice","194","206082","0.0-194.0","null","run_exp/static/images/Set 6_rs/074a.jpg","null","","","","","","learn","SL",""
"","html-keyboard-response","195","206588","0.0-195.0","null","<p></p>","null","","","","","","","",""
"","test_intro","196","248079","0.0-196.0","null","run_exp/static/audio/clip_2_memory.m4a","null","","","","","<div class='center'><p>Now, let’s see how much you remember about the items you just saw.  For each item, you need to indicate if it was <b>old</b> by pressing the <b>v</b> key, <b>similar</b> by pressing the <b>b</b> key, or <b>new</b> by pressing the <b>n</b> key.</p><p>Old refers to an item that you saw before in the indoor/outdoor game that you just played, new refers to an item you have <b>not</b> seen before within the indoor/outdoor game, and similar refers to an item that is similar to an item you’ve seen before but is not exactly the same. </p><p>Before we begin, let’s go over some brief demonstrations to make sure you understand.</p></div>","","",""
"","html-keyboard-response","197","249055","0.0-197.0","975.2000000029802","<div class='center'><p>Now, let’s see how much you remember about the items you just saw.  For each item, you need to indicate if it was <b>old</b> by pressing the <b>v</b> key, <b>similar</b> by pressing the <b>b</b> key, or <b>new</b> by pressing the <b>n</b> key.</p><p>Old refers to an item that you saw before in the indoor/outdoor game that you just played, new refers to an item you have <b>not</b> seen before within the indoor/outdoor game, and similar refers to an item that is similar to an item you’ve seen before but is not exactly the same. </p><p>Before we begin, let’s go over some brief demonstrations to make sure you understand.</p><div><p><b>[Press the space bar to continue]</b></p></div>","32","","","","","","","",""
"","items","198","256561","0.0-198.0","null","run_exp/static/audio/clip_3_items.m4a","null","","","","","","","",""
"","mop","199","261065","0.0-199.0","null","run_exp/static/audio/clip_4_mop.m4a","null","","","","","","","",""
"","baseball","200","264572","0.0-200.0","null","run_exp/static/audio/clip_5_baseball.m4a","null","","","","","","","",""
"","trumpet","201","268077","0.0-201.0","null","run_exp/static/audio/clip_6_trumpet.m4a","null","","","","","","","",""
"","gummies","202","271579","0.0-202.0","null","run_exp/static/audio/clip_7_gummies.m4a","null","","","","","","","",""
"","osn","203","276082","0.0-203.0","null","run_exp/static/audio/clip_8_osn.m4a","null","","","","","","","",""
"","old_1","204","282584","0.0-204.0","null","run_exp/static/audio/clip_9_old_trumpet.m4a","null","","","","","","","",""
"","new_1","205","290090","0.0-205.0","null","run_exp/static/audio/clip_10_new_balloon.m4a","null","","","","","","","",""
"","similar_1a","206","294595","0.0-206.0","null","run_exp/static/audio/clip_11a_similar_mop.m4a","null","","","","","","","",""
"","similar_1b","207","301101","0.0-207.0","null","run_exp/static/audio/clip_11b_similar_mop.m4a","null","","","","","","","",""
"","new_2","208","304605","0.0-208.0","null","run_exp/static/audio/clip_12_new_stoplight.m4a","null","","","","","","","",""
"","old_2","209","308108","0.0-209.0","null","run_exp/static/audio/clip_13_old_baseball.m4a","null","","","","","","","",""
"","similar_2a","210","311610","0.0-210.0","null","run_exp/static/audio/clip_14a_similar_gummies.m4a","null","","","","","","","",""
"","similar_2b","211","319117","0.0-211.0","null","run_exp/static/audio/clip_14b_similar_gummies.m4a","null","","","","","","","",""
"","practice","212","334831","0.0-212.0","null","run_exp/static/audio/clip_15_practice.m4a","null","","","","","<div class='center'><p>Ok, let’s practice a little to make sure you understand the difference between new, similar, and old. Let’s say you saw these three items in the indoor/outdoor game. Study these because you’ll be tested on them soon in this practice game. </p><p><img src='run_exp/static/images/tutorial/test/three_indoor_outdoor.png' height='300'></p></div>","","",""
"","html-keyboard-response","213","343351","0.0-213.0","8519","<div class='center'><p>Ok, let’s practice a little to make sure you understand the difference between new, similar, and old. Let’s say you saw these three items in the indoor/outdoor game. Study these because you’ll be tested on them soon in this practice game. </p><p><img src='run_exp/static/images/tutorial/test/three_indoor_outdoor.png' height='300'></p><div><p><b>[Press the space bar to continue]</b></p></div>","32","","","","","","","",""
"","practice_q1","214","348696","0.0-214.0","5342.5","run_exp/static/audio/clip_16_practice_question.m4a","78","","","","","","","",""
"","correct","215","350575","0.0-215.0-0.0","null","run_exp/static/audio/clip_17_correct.m4a","null","","","","","<div class='center'><p>That's correct!</p></div>","","",""
"","html-keyboard-response","216","351761","0.0-215.0-1.0","1185.1000000089407","<div class='center'><p>That's correct!</p><div><p><b>[Press the space bar to continue]</b></p></div>","32","","","","","","","",""
"","practice_q2","217","354123","0.0-215.0-2.0","2360.7999999970198","run_exp/static/audio/clip_16_practice_question.m4a","86","","","","","","","",""
"","correct","218","356008","0.0-216.0-0.0","null","run_exp/static/audio/clip_17_correct.m4a","null","","","","","<div class='center'><p>That's correct!</p></div>","","",""
"","html-keyboard-response","219","356617","0.0-216.0-1.0","608.2999999970198","<div class='center'><p>That's correct!</p><div><p><b>[Press the space bar to continue]</b></p></div>","32","","","","","","","",""
"","practice_q3","220","358469","0.0-216.0-2.0","1850.8999999910593","run_exp/static/audio/clip_16_practice_question.m4a","66","","","","","","","",""
"","correct","221","360536","0.0-217.0-0.0","null","run_exp/static/audio/clip_17_correct.m4a","null","","","","","<div class='center'><p>That's correct!</p></div>","","",""
"","html-keyboard-response","222","361273","0.0-217.0-1.0","736.0999999940395","<div class='center'><p>That's correct!</p><div><p><b>[Press the space bar to continue]</b></p></div>","32","","","","","","","",""
"","begin_text","223","376326","0.0-218.0-0.0","null","run_exp/static/audio/clip_22_begin_test.m4a","null","","","","","<div class='center'><p>Now it’s your turn. For each item, you need to indicate if the item is <b>old</b> by pressing the <b>v</b> key, <b>similar</b> by pressing the <b>b</b> key, or <b>new</b> by pressing the <b>n</b> key. </p></div>","","",""
"","html-keyboard-response","224","376930","0.0-218.0-1.0","603","<div class='center'><p>Now it’s your turn. For each item, you need to indicate if the item is <b>old</b> by pressing the <b>v</b> key, <b>similar</b> by pressing the <b>b</b> key, or <b>new</b> by pressing the <b>n</b> key. </p><div><p><b>[Press the space bar to continue]</b></p></div>","32","","","","","","","",""
"","image","225","378294","0.0-219.0-0.0","1362.800000011921","run_exp/static/images/Set 6_rs/028a.jpg","78","","","","","","test","TF","1"
"","show_choice","226","378797","0.0-219.0-1.0","null","run_exp/static/images/Set 6_rs/028a.jpg","null","","","","","","test","TF",""
"","html-keyboard-response","227","379301","0.0-219.0-2.0","null","<p></p>","null","","","","","","","",""
"","image","228","380586","0.0-220.0-0.0","1283.699999988079","run_exp/static/images/Set 6_rs/057b.jpg","86","","","","","","test","TL","1"
"","show_choice","229","381088","0.0-220.0-1.0","null","run_exp/static/images/Set 6_rs/057b.jpg","null","","","","","","test","TL",""
"","html-keyboard-response","230","381592","0.0-220.0-2.0","null","<p></p>","null","","","","","","","",""
"","image","231","382916","0.0-221.0-0.0","1323.0999999940395","run_exp/static/images/Set 6_rs/117b.jpg","86","","","","","","test","TL","5"
"","show_choice","232","383421","0.0-221.0-1.0","null","run_exp/static/images/Set 6_rs/117b.jpg","null","","","","","","test","TL",""
"","html-keyboard-response","233","383927","0.0-221.0-2.0","null","<p></p>","null","","","","","","","",""
"","image","234","384875","0.0-222.0-0.0","946.8999999910593","run_exp/static/images/Set 6_rs/166a.jpg","86","","","","","","test","TR","1"
"","show_choice","235","385380","0.0-222.0-1.0","null","run_exp/static/images/Set 6_rs/166a.jpg","null","","","","","","test","TR",""
"","html-keyboard-response","236","385882","0.0-222.0-2.0","null","<p></p>","null","","","","","","","",""
"","image","237","387347","0.0-223.0-0.0","1463.8999999910593","run_exp/static/images/Set 6_rs/111b.jpg","66","","","","","","test","TL","3"
"","show_choice","238","387852","0.0-223.0-1.0","null","run_exp/static/images/Set 6_rs/111b.jpg","null","","","","","","test","TL",""
"","html-keyboard-response","239","388355","0.0-223.0-2.0","null","<p></p>","null","","","","","","","",""
"","image","240","389214","0.0-224.0-0.0","857.7000000029802","run_exp/static/images/Set 6_rs/012a.jpg","86","","","","","","test","TR","1"
"","show_choice","241","389718","0.0-224.0-1.0","null","run_exp/static/images/Set 6_rs/012a.jpg","null","","","","","","test","TR",""
"","html-keyboard-response","242","390224","0.0-224.0-2.0","null","<p></p>","null","","","","","","","",""
"","image","243","391353","0.0-225.0-0.0","1127.4000000059605","run_exp/static/images/Set 6_rs/176a.jpg","78","","","","","","test","TF","4"
"","show_choice","244","391856","0.0-225.0-1.0","null","run_exp/static/images/Set 6_rs/176a.jpg","null","","","","","","test","TF",""
"","html-keyboard-response","245","392360","0.0-225.0-2.0","null","<p></p>","null","","","","","","","",""
"","image","246","393561","0.0-226.0-0.0","1199.699999988079","run_exp/static/images/Set 6_rs/085b.jpg","86","","","","","","test","TL","1"
"","show_choice","247","394063","0.0-226.0-1.0","null","run_exp/static/images/Set 6_rs/085b.jpg","null","","","","","","test","TL",""
"","html-keyboard-response","248","394569","0.0-226.0-2.0","null","<p></p>","null","","","","","","","",""
"","image","249","395893","0.0-227.0-0.0","1322.2000000029802","run_exp/static/images/Set 6_rs/056a.jpg","78","","","","","","test","TF","3"
"","show_choice","250","396394","0.0-227.0-1.0","null","run_exp/static/images/Set 6_rs/056a.jpg","null","","","","","","test","TF",""
"","html-keyboard-response","251","396898","0.0-227.0-2.0","null","<p></p>","null","","","","","","","",""
"","image","252","397907","0.0-228.0-0.0","1008.0999999940395","run_exp/static/images/Set 6_rs/116b.jpg","66","","","","","","test","TL","2"
"","show_choice","253","398412","0.0-228.0-1.0","null","run_exp/static/images/Set 6_rs/116b.jpg","null","","","","","","test","TL",""
"","html-keyboard-response","254","398913","0.0-228.0-2.0","null","<p></p>","null","","","","","","","",""
"","image","255","399906","0.0-229.0-0.0","991.0999999940395","run_exp/static/images/Set 6_rs/010a.jpg","86","","","","","","test","TR","5"
"","show_choice","256","400409","0.0-229.0-1.0","null","run_exp/static/images/Set 6_rs/010a.jpg","null","","","","","","test","TR",""
"","html-keyboard-response","257","400910","0.0-229.0-2.0","null","<p></p>","null","","","","","","","",""
"","image","258","402104","0.0-230.0-0.0","1192.5999999940395","run_exp/static/images/Set 6_rs/021a.jpg","78","","","","","","test","TF","2"
"","show_choice","259","402607","0.0-230.0-1.0","null","run_exp/static/images/Set 6_rs/021a.jpg","null","","","","","","test","TF",""
"","html-keyboard-response","260","403109","0.0-230.0-2.0","null","<p></p>","null","","","","","","","",""
"","image","261","404549","0.0-231.0-0.0","1438.9000000059605","run_exp/static/images/Set 6_rs/045a.jpg","86","","","","","","test","TR","2"
"","show_choice","262","405050","0.0-231.0-1.0","null","run_exp/static/images/Set 6_rs/045a.jpg","null","","","","","","test","TR",""
"","html-keyboard-response","263","405553","0.0-231.0-2.0","null","<p></p>","null","","","","","","","",""
"","image","264","406621","0.0-232.0-0.0","1066.199999988079","run_exp/static/images/Set 6_rs/126a.jpg","86","","","","","","test","TR","2"
"","show_choice","265","407126","0.0-232.0-1.0","null","run_exp/static/images/Set 6_rs/126a.jpg","null","","","","","","test","TR",""
"","html-keyboard-response","266","407629","0.0-232.0-2.0","null","<p></p>","null","","","","","","","",""
"","image","267","408478","0.0-233.0-0.0","847.2999999970198","run_exp/static/images/Set 6_rs/152a.jpg","86","","","","","","test","TR","2"
"","show_choice","268","408982","0.0-233.0-1.0","null","run_exp/static/images/Set 6_rs/152a.jpg","null","","","","","","test","TR",""
"","html-keyboard-response","269","409483","0.0-233.0-2.0","null","<p></p>","null","","","","","","","",""
"","image","270","410827","0.0-234.0-0.0","1341.5","run_exp/static/images/Set 6_rs/006b.jpg","86","","","","","","test","TL","2"
"","show_choice","271","411328","0.0-234.0-1.0","null","run_exp/static/images/Set 6_rs/006b.jpg","null","","","","","","test","TL",""
"","html-keyboard-response","272","411831","0.0-234.0-2.0","null","<p></p>","null","","","","","","","",""
"","image","273","413839","0.0-235.0-0.0","2006.1000000089407","run_exp/static/images/Set 6_rs/061a.jpg","86","","","","","","test","TR","5"
"","show_choice","274","414344","0.0-235.0-1.0","null","run_exp/static/images/Set 6_rs/061a.jpg","null","","","","","","test","TR",""
"","html-keyboard-response","275","414845","0.0-235.0-2.0","null","<p></p>","null","","","","","","","",""
"","image","276","417013","0.0-236.0-0.0","2166.6000000089407","run_exp/static/images/Set 6_rs/149a.jpg","78","","","","","","test","TF","1"
"","show_choice","277","417517","0.0-236.0-1.0","null","run_exp/static/images/Set 6_rs/149a.jpg","null","","","","","","test","TF",""
"","html-keyboard-response","278","418020","0.0-236.0-2.0","null","<p></p>","null","","","","","","","",""
"","image","279","419449","0.0-237.0-0.0","1428","run_exp/static/images/Set 6_rs/025b.jpg","66","","","","","","test","TL","5"
"","show_choice","280","419954","0.0-237.0-1.0","null","run_exp/static/images/Set 6_rs/025b.jpg","null","","","","","","test","TL",""
"","html-keyboard-response","281","420460","0.0-237.0-2.0","null","<p></p>","null","","","","","","","",""
"","image","282","421664","0.0-238.0-0.0","1202.7999999970198","run_exp/static/images/Set 6_rs/154a.jpg","86","","","","","","test","TR","3"
"","show_choice","283","422169","0.0-238.0-1.0","null","run_exp/static/images/Set 6_rs/154a.jpg","null","","","","","","test","TR",""
"","html-keyboard-response","284","422675","0.0-238.0-2.0","null","<p></p>","null","","","","","","","",""
"","image","285","423737","0.0-239.0-0.0","1060.5999999940395","run_exp/static/images/Set 6_rs/169a.jpg","66","","","","","","test","TR","4"
"","show_choice","286","424238","0.0-239.0-1.0","null","run_exp/static/images/Set 6_rs/169a.jpg","null","","","","","","test","TR",""
"","html-keyboard-response","287","424742","0.0-239.0-2.0","null","<p></p>","null","","","","","","","",""
"","image","288","426271","0.0-240.0-0.0","1527.5","run_exp/static/images/Set 6_rs/090a.jpg","78","","","","","","test","TF","5"
"","show_choice","289","426775","0.0-240.0-1.0","null","run_exp/static/images/Set 6_rs/090a.jpg","null","","","","","","test","TF",""
"","html-keyboard-response","290","427276","0.0-240.0-2.0","null","<p></p>","null","","","","","","","",""
"","image","291","428607","0.0-241.0-0.0","1329.0999999940395","run_exp/static/images/Set 6_rs/134a.jpg","86","","","","","","test","TR","3"
"","show_choice","292","429109","0.0-241.0-1.0","null","run_exp/static/images/Set 6_rs/134a.jpg","null","","","","","","test","TR",""
"","html-keyboard-response","293","429612","0.0-241.0-2.0","null","<p></p>","null","","","","","","","",""
"","image","294","431109","0.0-242.0-0.0","1495.0999999940395","run_exp/static/images/Set 6_rs/008b.jpg","86","","","","","","test","TL","2"
"","show_choice","295","431612","0.0-242.0-1.0","null","run_exp/static/images/Set 6_rs/008b.jpg","null","","","","","","test","TL",""
"","html-keyboard-response","296","432116","0.0-242.0-2.0","null","<p></p>","null","","","","","","","",""
"","image","297","433460","0.0-243.0-0.0","1342.6000000089407","run_exp/static/images/Set 6_rs/188a.jpg","78","","","","","","test","TF","3"
"","show_choice","298","433961","0.0-243.0-1.0","null","run_exp/static/images/Set 6_rs/188a.jpg","null","","","","","","test","TF",""
"","html-keyboard-response","299","434465","0.0-243.0-2.0","null","<p></p>","null","","","","","","","",""
"","image","300","435430","0.0-244.0-0.0","962.9000000059605","run_exp/static/images/Set 6_rs/121a.jpg","86","","","","","","test","TR","4"
"","show_choice","301","435934","0.0-244.0-1.0","null","run_exp/static/images/Set 6_rs/121a.jpg","null","","","","","","test","TR",""
"","html-keyboard-response","302","436437","0.0-244.0-2.0","null","<p></p>","null","","","","","","","",""
"","image","303","437652","0.0-245.0-0.0","1214.300000011921","run_exp/static/images/Set 6_rs/136a.jpg","66","","","","","","test","TF","4"
"","show_choice","304","438158","0.0-245.0-1.0","null","run_exp/static/images/Set 6_rs/136a.jpg","null","","","","","","test","TF",""
"","html-keyboard-response","305","438659","0.0-245.0-2.0","null","<p></p>","null","","","","","","","",""
"","image","306","439843","0.0-246.0-0.0","1183.2000000029802","run_exp/static/images/Set 6_rs/181b.jpg","86","","","","","","test","TL","1"
"","show_choice","307","440349","0.0-246.0-1.0","null","run_exp/static/images/Set 6_rs/181b.jpg","null","","","","","","test","TL",""
"","html-keyboard-response","308","440855","0.0-246.0-2.0","null","<p></p>","null","","","","","","","",""
"","image","309","441863","0.0-247.0-0.0","1006.8999999910593","run_exp/static/images/Set 6_rs/170a.jpg","78","","","","","","test","TF","2"
"","show_choice","310","442367","0.0-247.0-1.0","null","run_exp/static/images/Set 6_rs/170a.jpg","null","","","","","","test","TF",""
"","html-keyboard-response","311","442868","0.0-247.0-2.0","null","<p></p>","null","","","","","","","",""
"","image","312","444072","0.0-248.0-0.0","1202.5","run_exp/static/images/Set 6_rs/066b.jpg","66","","","","","","test","TL","5"
"","show_choice","313","444578","0.0-248.0-1.0","null","run_exp/static/images/Set 6_rs/066b.jpg","null","","","","","","test","TL",""
"","html-keyboard-response","314","445084","0.0-248.0-2.0","null","<p></p>","null","","","","","","","",""
"","image","315","446273","0.0-249.0-0.0","1188.4000000059605","run_exp/static/images/Set 6_rs/140a.jpg","66","","","","","","test","TF","1"
"","show_choice","316","446778","0.0-249.0-1.0","null","run_exp/static/images/Set 6_rs/140a.jpg","null","","","","","","test","TF",""
"","html-keyboard-response","317","447282","0.0-249.0-2.0","null","<p></p>","null","","","","","","","",""
"","image","318","449109","0.0-250.0-0.0","1826","run_exp/static/images/Set 6_rs/076a.jpg","86","","","","","","test","TR","4"
"","show_choice","319","449614","0.0-250.0-1.0","null","run_exp/static/images/Set 6_rs/076a.jpg","null","","","","","","test","TR",""
"","html-keyboard-response","320","450117","0.0-250.0-2.0","null","<p></p>","null","","","","","","","",""
"","image","321","451435","0.0-251.0-0.0","1316.5","run_exp/static/images/Set 6_rs/131a.jpg","86","","","","","","test","TR","5"
"","show_choice","322","451940","0.0-251.0-1.0","null","run_exp/static/images/Set 6_rs/131a.jpg","null","","","","","","test","TR",""
"","html-keyboard-response","323","452442","0.0-251.0-2.0","null","<p></p>","null","","","","","","","",""
"","image","324","453592","0.0-252.0-0.0","1148.2000000029802","run_exp/static/images/Set 6_rs/079b.jpg","66","","","","","","test","TL","5"
"","show_choice","325","454095","0.0-252.0-1.0","null","run_exp/static/images/Set 6_rs/079b.jpg","null","","","","","","test","TL",""
"","html-keyboard-response","326","454599","0.0-252.0-2.0","null","<p></p>","null","","","","","","","",""
"","image","327","455702","0.0-253.0-0.0","1101.300000011921","run_exp/static/images/Set 6_rs/138b.jpg","66","","","","","","test","TL","1"
"","show_choice","328","456204","0.0-253.0-1.0","null","run_exp/static/images/Set 6_rs/138b.jpg","null","","","","","","test","TL",""
"","html-keyboard-response","329","456705","0.0-253.0-2.0","null","<p></p>","null","","","","","","","",""
"","image","330","458580","0.0-254.0-0.0","1873.2999999970198","run_exp/static/images/Set 6_rs/011a.jpg","66","","","","","","test","TF","3"
"","show_choice","331","459085","0.0-254.0-1.0","null","run_exp/static/images/Set 6_rs/011a.jpg","null","","","","","","test","TF",""
"","html-keyboard-response","332","459587","0.0-254.0-2.0","null","<p></p>","null","","","","","","","",""
"","image","333","460897","0.0-255.0-0.0","1308.8999999910593","run_exp/static/images/Set 6_rs/122a.jpg","86","","","","","","test","TR","5"
"","show_choice","334","461401","0.0-255.0-1.0","null","run_exp/static/images/Set 6_rs/122a.jpg","null","","","","","","test","TR",""
"","html-keyboard-response","335","461902","0.0-255.0-2.0","null","<p></p>","null","","","","","","","",""
"","image","336","463251","0.0-256.0-0.0","1347.5999999940395","run_exp/static/images/Set 6_rs/055b.jpg","66","","","","","","test","TL","4"
"","show_choice","337","463756","0.0-256.0-1.0","null","run_exp/static/images/Set 6_rs/055b.jpg","null","","","","","","test","TL",""
"","html-keyboard-response","338","464258","0.0-256.0-2.0","null","<p></p>","null","","","","","","","",""
"","image","339","465596","0.0-257.0-0.0","1336.7999999970198","run_exp/static/images/Set 6_rs/133a.jpg","78","","","","","","test","TF","4"
"","show_choice","340","466097","0.0-257.0-1.0","null","run_exp/static/images/Set 6_rs/133a.jpg","null","","","","","","test","TF",""
"","html-keyboard-response","341","466602","0.0-257.0-2.0","null","<p></p>","null","","","","","","","",""
"","image","342","467783","0.0-258.0-0.0","1178.8999999910593","run_exp/static/images/Set 6_rs/144b.jpg","86","","","","","","test","TL","4"
"","show_choice","343","468288","0.0-258.0-1.0","null","run_exp/static/images/Set 6_rs/144b.jpg","null","","","","","","test","TL",""
"","html-keyboard-response","344","468789","0.0-258.0-2.0","null","<p></p>","null","","","","","","","",""
"","image","345","470439","0.0-259.0-0.0","1647.9000000059605","run_exp/static/images/Set 6_rs/088a.jpg","66","","","","","","test","TR","2"
"","show_choice","346","470944","0.0-259.0-1.0","null","run_exp/static/images/Set 6_rs/088a.jpg","null","","","","","","test","TR",""
"","html-keyboard-response","347","471449","0.0-259.0-2.0","null","<p></p>","null","","","","","","","",""
"","image","348","472867","0.0-260.0-0.0","1416.5","run_exp/static/images/Set 6_rs/073b.jpg","66","","","","","","test","TL","3"
"","show_choice","349","473368","0.0-260.0-1.0","null","run_exp/static/images/Set 6_rs/073b.jpg","null","","","","","","test","TL",""
"","html-keyboard-response","350","473872","0.0-260.0-2.0","null","<p></p>","null","","","","","","","",""
"","image","351","474833","0.0-261.0-0.0","959","run_exp/static/images/Set 6_rs/187a.jpg","86","","","","","","test","TR","3"
"","show_choice","352","475338","0.0-261.0-1.0","null","run_exp/static/images/Set 6_rs/187a.jpg","null","","","","","","test","TR",""
"","html-keyboard-response","353","475840","0.0-261.0-2.0","null","<p></p>","null","","","","","","","",""
"","image","354","476803","0.0-262.0-0.0","961.8999999910593","run_exp/static/images/Set 6_rs/108a.jpg","86","","","","","","test","TR","5"
"","show_choice","355","477305","0.0-262.0-1.0","null","run_exp/static/images/Set 6_rs/108a.jpg","null","","","","","","test","TR",""
"","html-keyboard-response","356","477809","0.0-262.0-2.0","null","<p></p>","null","","","","","","","",""
"","image","357","478897","0.0-263.0-0.0","1085.7000000029802","run_exp/static/images/Set 6_rs/148a.jpg","86","","","","","","test","TR","2"
"","show_choice","358","479398","0.0-263.0-1.0","null","run_exp/static/images/Set 6_rs/148a.jpg","null","","","","","","test","TR",""
"","html-keyboard-response","359","479899","0.0-263.0-2.0","null","<p></p>","null","","","","","","","",""
"","image","360","480944","0.0-264.0-0.0","1044","run_exp/static/images/Set 6_rs/178a.jpg","86","","","","","","test","TR","3"
"","show_choice","361","481449","0.0-264.0-1.0","null","run_exp/static/images/Set 6_rs/178a.jpg","null","","","","","","test","TR",""
"","html-keyboard-response","362","481950","0.0-264.0-2.0","null","<p></p>","null","","","","","","","",""
"","image","363","483044","0.0-265.0-0.0","1092.4000000059605","run_exp/static/images/Set 6_rs/086a.jpg","78","","","","","","test","TF","1"
"","show_choice","364","483547","0.0-265.0-1.0","null","run_exp/static/images/Set 6_rs/086a.jpg","null","","","","","","test","TF",""
"","html-keyboard-response","365","484049","0.0-265.0-2.0","null","<p></p>","null","","","","","","","",""
"","image","366","485048","0.0-266.0-0.0","997.5","run_exp/static/images/Set 6_rs/123b.jpg","86","","","","","","test","TL","2"
"","show_choice","367","485553","0.0-266.0-1.0","null","run_exp/static/images/Set 6_rs/123b.jpg","null","","","","","","test","TL",""
"","html-keyboard-response","368","486057","0.0-266.0-2.0","null","<p></p>","null","","","","","","","",""
"","image","369","487273","0.0-267.0-0.0","1214.5999999940395","run_exp/static/images/Set 6_rs/065a.jpg","78","","","","","","test","TF","3"
"","show_choice","370","487776","0.0-267.0-1.0","null","run_exp/static/images/Set 6_rs/065a.jpg","null","","","","","","test","TF",""
"","html-keyboard-response","371","488278","0.0-267.0-2.0","null","<p></p>","null","","","","","","","",""
"","image","372","489382","0.0-268.0-0.0","1102.7000000029802","run_exp/static/images/Set 6_rs/022a.jpg","86","","","","","","test","TF","4"
"","show_choice","373","489885","0.0-268.0-1.0","null","run_exp/static/images/Set 6_rs/022a.jpg","null","","","","","","test","TF",""
"","html-keyboard-response","374","490387","0.0-268.0-2.0","null","<p></p>","null","","","","","","","",""
"","image","375","491817","0.0-269.0-0.0","1429","run_exp/static/images/Set 6_rs/048a.jpg","78","","","","","","test","TF","4"
"","show_choice","376","492319","0.0-269.0-1.0","null","run_exp/static/images/Set 6_rs/048a.jpg","null","","","","","","test","TF",""
"","html-keyboard-response","377","492825","0.0-269.0-2.0","null","<p></p>","null","","","","","","","",""
"","image","378","493792","0.0-270.0-0.0","965.0999999940395","run_exp/static/images/Set 6_rs/109a.jpg","78","","","","","","test","TF","5"
"","show_choice","379","494297","0.0-270.0-1.0","null","run_exp/static/images/Set 6_rs/109a.jpg","null","","","","","","test","TF",""
"","html-keyboard-response","380","494803","0.0-270.0-2.0","null","<p></p>","null","","","","","","","",""
"","image","381","495780","0.0-271.0-0.0","975.2999999970198","run_exp/static/images/Set 6_rs/100a.jpg","78","","","","","","test","TF","2"
"","show_choice","382","496285","0.0-271.0-1.0","null","run_exp/static/images/Set 6_rs/100a.jpg","null","","","","","","test","TF",""
"","html-keyboard-response","383","496791","0.0-271.0-2.0","null","<p></p>","null","","","","","","","",""
"","image","384","497652","0.0-272.0-0.0","859.7000000029802","run_exp/static/images/Set 6_rs/155a.jpg","78","","","","","","test","TF","4"
"","show_choice","385","498157","0.0-272.0-1.0","null","run_exp/static/images/Set 6_rs/155a.jpg","null","","","","","","test","TF",""
"","html-keyboard-response","386","498662","0.0-272.0-2.0","null","<p></p>","null","","","","","","","",""
"","image","387","499992","0.0-273.0-0.0","1328.5","run_exp/static/images/Set 6_rs/017b.jpg","66","","","","","","test","TL","3"
"","show_choice","388","500497","0.0-273.0-1.0","null","run_exp/static/images/Set 6_rs/017b.jpg","null","","","","","","test","TL",""
"","html-keyboard-response","389","501000","0.0-273.0-2.0","null","<p></p>","null","","","","","","","",""
"","image","390","501990","0.0-274.0-0.0","988.2000000029802","run_exp/static/images/Set 6_rs/167b.jpg","86","","","","","","test","TL","2"
"","show_choice","391","502491","0.0-274.0-1.0","null","run_exp/static/images/Set 6_rs/167b.jpg","null","","","","","","test","TL",""
"","html-keyboard-response","392","502993","0.0-274.0-2.0","null","<p></p>","null","","","","","","","",""
"","image","393","505146","0.0-275.0-0.0","2151.3999999910593","run_exp/static/images/Set 6_rs/019b.jpg","66","","","","","","test","TL","2"
"","show_choice","394","505648","0.0-275.0-1.0","null","run_exp/static/images/Set 6_rs/019b.jpg","null","","","","","","test","TL",""
"","html-keyboard-response","395","506151","0.0-275.0-2.0","null","<p></p>","null","","","","","","","",""
"","image","396","507232","0.0-276.0-0.0","1079.5999999940395","run_exp/static/images/Set 6_rs/036b.jpg","66","","","","","","test","TL","4"
"","show_choice","397","507737","0.0-276.0-1.0","null","run_exp/static/images/Set 6_rs/036b.jpg","null","","","","","","test","TL",""
"","html-keyboard-response","398","508241","0.0-276.0-2.0","null","<p></p>","null","","","","","","","",""
"","image","399","509568","0.0-277.0-0.0","1326","run_exp/static/images/Set 6_rs/007a.jpg","86","","","","","","test","TR","3"
"","show_choice","400","510073","0.0-277.0-1.0","null","run_exp/static/images/Set 6_rs/007a.jpg","null","","","","","","test","TR",""
"","html-keyboard-response","401","510578","0.0-277.0-2.0","null","<p></p>","null","","","","","","","",""
"","image","402","511781","0.0-278.0-0.0","1201.5","run_exp/static/images/Set 6_rs/095b.jpg","66","","","","","","test","TL","5"
"","show_choice","403","512286","0.0-278.0-1.0","null","run_exp/static/images/Set 6_rs/095b.jpg","null","","","","","","test","TL",""
"","html-keyboard-response","404","512792","0.0-278.0-2.0","null","<p></p>","null","","","","","","","",""
"","image","405","514054","0.0-279.0-0.0","1261.0999999940395","run_exp/static/images/Set 6_rs/141a.jpg","86","","","","","","test","TR","2"
"","show_choice","406","514558","0.0-279.0-1.0","null","run_exp/static/images/Set 6_rs/141a.jpg","null","","","","","","test","TR",""
"","html-keyboard-response","407","515064","0.0-279.0-2.0","null","<p></p>","null","","","","","","","",""
"","image","408","516209","0.0-280.0-0.0","1143.6000000089407","run_exp/static/images/Set 6_rs/015a.jpg","78","","","","","","test","TF","4"
"","show_choice","409","516714","0.0-280.0-1.0","null","run_exp/static/images/Set 6_rs/015a.jpg","null","","","","","","test","TF",""
"","html-keyboard-response","410","517216","0.0-280.0-2.0","null","<p></p>","null","","","","","","","",""
"","image","411","518307","0.0-281.0-0.0","1090.3999999910593","run_exp/static/images/Set 6_rs/118a.jpg","86","","","","","","test","TF","5"
"","show_choice","412","518809","0.0-281.0-1.0","null","run_exp/static/images/Set 6_rs/118a.jpg","null","","","","","","test","TF",""
"","html-keyboard-response","413","519312","0.0-281.0-2.0","null","<p></p>","null","","","","","","","",""
"","image","414","520577","0.0-282.0-0.0","1263.7999999970198","run_exp/static/images/Set 6_rs/047a.jpg","78","","","","","","test","TF","3"
"","show_choice","415","521083","0.0-282.0-1.0","null","run_exp/static/images/Set 6_rs/047a.jpg","null","","","","","","test","TF",""
"","html-keyboard-response","416","521589","0.0-282.0-2.0","null","<p></p>","null","","","","","","","",""
"","image","417","523395","0.0-283.0-0.0","1805.1000000089407","run_exp/static/images/Set 6_rs/189a.jpg","78","","","","","","test","TF","5"
"","show_choice","418","523897","0.0-283.0-1.0","null","run_exp/static/images/Set 6_rs/189a.jpg","null","","","","","","test","TF",""
"","html-keyboard-response","419","524402","0.0-283.0-2.0","null","<p></p>","null","","","","","","","",""
"","image","420","525336","0.0-284.0-0.0","933","run_exp/static/images/Set 6_rs/186a.jpg","86","","","","","","test","TR","5"
"","show_choice","421","525839","0.0-284.0-1.0","null","run_exp/static/images/Set 6_rs/186a.jpg","null","","","","","","test","TR",""
"","html-keyboard-response","422","526342","0.0-284.0-2.0","null","<p></p>","null","","","","","","","",""
"","image","423","528266","0.0-285.0-0.0","1922.5","run_exp/static/images/Set 6_rs/016b.jpg","66","","","","","","test","TL","1"
"","show_choice","424","528771","0.0-285.0-1.0","null","run_exp/static/images/Set 6_rs/016b.jpg","null","","","","","","test","TL",""
"","html-keyboard-response","425","529273","0.0-285.0-2.0","null","<p></p>","null","","","","","","","",""
"","image","426","530812","0.0-286.0-0.0","1538.4000000059605","run_exp/static/images/Set 6_rs/089b.jpg","66","","","","","","test","TL","4"
"","show_choice","427","531317","0.0-286.0-1.0","null","run_exp/static/images/Set 6_rs/089b.jpg","null","","","","","","test","TL",""
"","html-keyboard-response","428","531823","0.0-286.0-2.0","null","<p></p>","null","","","","","","","",""
"","image","429","532925","0.0-287.0-0.0","1100.0999999940395","run_exp/static/images/Set 6_rs/132a.jpg","86","","","","","","test","TR","5"
"","show_choice","430","533430","0.0-287.0-1.0","null","run_exp/static/images/Set 6_rs/132a.jpg","null","","","","","","test","TR",""
"","html-keyboard-response","431","533936","0.0-287.0-2.0","null","<p></p>","null","","","","","","","",""
"","image","432","535016","0.0-288.0-0.0","1078.2999999970198","run_exp/static/images/Set 6_rs/035a.jpg","78","","","","","","test","TF","4"
"","show_choice","433","535521","0.0-288.0-1.0","null","run_exp/static/images/Set 6_rs/035a.jpg","null","","","","","","test","TF",""
"","html-keyboard-response","434","536027","0.0-288.0-2.0","null","<p></p>","null","","","","","","","",""
"","image","435","537604","0.0-289.0-0.0","1575.199999988079","run_exp/static/images/Set 6_rs/129b.jpg","66","","","","","","test","TL","1"
"","show_choice","436","538109","0.0-289.0-1.0","null","run_exp/static/images/Set 6_rs/129b.jpg","null","","","","","","test","TL",""
"","html-keyboard-response","437","538612","0.0-289.0-2.0","null","<p></p>","null","","","","","","","",""
"","image","438","539525","0.0-290.0-0.0","911.7999999970198","run_exp/static/images/Set 6_rs/024a.jpg","86","","","","","","test","TR","5"
"","show_choice","439","540027","0.0-290.0-1.0","null","run_exp/static/images/Set 6_rs/024a.jpg","null","","","","","","test","TR",""
"","html-keyboard-response","440","540529","0.0-290.0-2.0","null","<p></p>","null","","","","","","","",""
"","image","441","541936","0.0-291.0-0.0","1405.199999988079","run_exp/static/images/Set 6_rs/052a.jpg","78","","","","","","test","TF","1"
"","show_choice","442","542441","0.0-291.0-1.0","null","run_exp/static/images/Set 6_rs/052a.jpg","null","","","","","","test","TF",""
"","html-keyboard-response","443","542942","0.0-291.0-2.0","null","<p></p>","null","","","","","","","",""
"","image","444","543966","0.0-292.0-0.0","1022.0999999940395","run_exp/static/images/Set 6_rs/075a.jpg","86","","","","","","test","TR","1"
"","show_choice","445","544471","0.0-292.0-1.0","null","run_exp/static/images/Set 6_rs/075a.jpg","null","","","","","","test","TR",""
"","html-keyboard-response","446","544977","0.0-292.0-2.0","null","<p></p>","null","","","","","","","",""
"","image","447","546119","0.0-293.0-0.0","1141.3999999910593","run_exp/static/images/Set 6_rs/191b.jpg","78","","","","","","test","TL","2"
"","show_choice","448","546625","0.0-293.0-1.0","null","run_exp/static/images/Set 6_rs/191b.jpg","null","","","","","","test","TL",""
"","html-keyboard-response","449","547131","0.0-293.0-2.0","null","<p></p>","null","","","","","","","",""
"","image","450","548226","0.0-294.0-0.0","1094.4000000059605","run_exp/static/images/Set 6_rs/097a.jpg","86","","","","","","test","TF","5"
"","show_choice","451","548732","0.0-294.0-1.0","null","run_exp/static/images/Set 6_rs/097a.jpg","null","","","","","","test","TF",""
"","html-keyboard-response","452","549234","0.0-294.0-2.0","null","<p></p>","null","","","","","","","",""
"","image","453","550777","0.0-295.0-0.0","1541.7999999970198","run_exp/static/images/Set 6_rs/064a.jpg","78","","","","","","test","TR","5"
"","show_choice","454","551282","0.0-295.0-1.0","null","run_exp/static/images/Set 6_rs/064a.jpg","null","","","","","","test","TR",""
"","html-keyboard-response","455","551788","0.0-295.0-2.0","null","<p></p>","null","","","","","","","",""
"","image","456","553226","0.0-296.0-0.0","1436.5","run_exp/static/images/Set 6_rs/074b.jpg","66","","","","","","test","TL","4"
"","show_choice","457","553732","0.0-296.0-1.0","null","run_exp/static/images/Set 6_rs/074b.jpg","null","","","","","","test","TL",""
"","html-keyboard-response","458","554233","0.0-296.0-2.0","null","<p></p>","null","","","","","","","",""
"","image","459","555166","0.0-297.0-0.0","931.8000000119209","run_exp/static/images/Set 6_rs/023a.jpg","86","","","","","","test","TR","3"
"","show_choice","460","555671","0.0-297.0-1.0","null","run_exp/static/images/Set 6_rs/023a.jpg","null","","","","","","test","TR",""
"","html-keyboard-response","461","556173","0.0-297.0-2.0","null","<p></p>","null","","","","","","","",""
"","image","462","557030","0.0-298.0-0.0","855.8000000119209","run_exp/static/images/Set 6_rs/177a.jpg","86","","","","","","test","TR","5"
"","show_choice","463","557535","0.0-298.0-1.0","null","run_exp/static/images/Set 6_rs/177a.jpg","null","","","","","","test","TR",""
"","html-keyboard-response","464","558041","0.0-298.0-2.0","null","<p></p>","null","","","","","","","",""
"","image","465","558833","0.0-299.0-0.0","790.2000000029802","run_exp/static/images/Set 6_rs/112a.jpg","86","","","","","","test","TR","5"
"","show_choice","466","559335","0.0-299.0-1.0","null","run_exp/static/images/Set 6_rs/112a.jpg","null","","","","","","test","TR",""
"","html-keyboard-response","467","559840","0.0-299.0-2.0","null","<p></p>","null","","","","","","","",""
"","image","468","561789","0.0-300.0-0.0","1947.2000000029802","run_exp/static/images/Set 6_rs/062b.jpg","86","","","","","","test","TL","1"
"","show_choice","469","562291","0.0-300.0-1.0","null","run_exp/static/images/Set 6_rs/062b.jpg","null","","","","","","test","TL",""
"","html-keyboard-response","470","562795","0.0-300.0-2.0","null","<p></p>","null","","","","","","","",""
"","image","471","563733","0.0-301.0-0.0","936.9000000059605","run_exp/static/images/Set 6_rs/150a.jpg","86","","","","","","test","TR","1"
"","show_choice","472","564237","0.0-301.0-1.0","null","run_exp/static/images/Set 6_rs/150a.jpg","null","","","","","","test","TR",""
"","html-keyboard-response","473","564740","0.0-301.0-2.0","null","<p></p>","null","","","","","","","",""
"","image","474","565949","0.0-302.0-0.0","1207.2000000029802","run_exp/static/images/Set 6_rs/077a.jpg","78","","","","","","test","TF","3"
"","show_choice","475","566454","0.0-302.0-1.0","null","run_exp/static/images/Set 6_rs/077a.jpg","null","","","","","","test","TF",""
"","html-keyboard-response","476","566955","0.0-302.0-2.0","null","<p></p>","null","","","","","","","",""
"","image","477","568123","0.0-303.0-0.0","1166.5999999940395","run_exp/static/images/Set 6_rs/168b.jpg","66","","","","","","test","TL","3"
"","show_choice","478","568625","0.0-303.0-1.0","null","run_exp/static/images/Set 6_rs/168b.jpg","null","","","","","","test","TL",""
"","html-keyboard-response","479","569128","0.0-303.0-2.0","null","<p></p>","null","","","","","","","",""
"","image","480","570598","0.0-304.0-0.0","1468.3999999910593","run_exp/static/images/Set 6_rs/063a.jpg","86","","","","","","test","TR","2"
"","show_choice","481","571102","0.0-304.0-1.0","null","run_exp/static/images/Set 6_rs/063a.jpg","null","","","","","","test","TR",""
"","html-keyboard-response","482","571603","0.0-304.0-2.0","null","<p></p>","null","","","","","","","",""
"","image","483","572605","0.0-305.0-0.0","1000.6999999880791","run_exp/static/images/Set 6_rs/071b.jpg","66","","","","","","test","TL","4"
"","show_choice","484","573110","0.0-305.0-1.0","null","run_exp/static/images/Set 6_rs/071b.jpg","null","","","","","","test","TL",""
"","html-keyboard-response","485","573611","0.0-305.0-2.0","null","<p></p>","null","","","","","","","",""
"","image","486","574817","0.0-306.0-0.0","1204.5999999940395","run_exp/static/images/Set 6_rs/190a.jpg","78","","","","","","test","TF","3"
"","show_choice","487","575322","0.0-306.0-1.0","null","run_exp/static/images/Set 6_rs/190a.jpg","null","","","","","","test","TF",""
"","html-keyboard-response","488","575828","0.0-306.0-2.0","null","<p></p>","null","","","","","","","",""
"","image","489","577672","0.0-307.0-0.0","1842.0999999940395","run_exp/static/images/Set 6_rs/001a.jpg","86","","","","","","test","TF","1"
"","show_choice","490","578177","0.0-307.0-1.0","null","run_exp/static/images/Set 6_rs/001a.jpg","null","","","","","","test","TF",""
"","html-keyboard-response","491","578680","0.0-307.0-2.0","null","<p></p>","null","","","","","","","",""
"","image","492","579940","0.0-308.0-0.0","1258.5","run_exp/static/images/Set 6_rs/067b.jpg","66","","","","","","test","TL","5"
"","show_choice","493","580445","0.0-308.0-1.0","null","run_exp/static/images/Set 6_rs/067b.jpg","null","","","","","","test","TL",""
"","html-keyboard-response","494","580950","0.0-308.0-2.0","null","<p></p>","null","","","","","","","",""
"","image","495","582379","0.0-309.0-0.0","1426.9000000059605","run_exp/static/images/Set 6_rs/091b.jpg","66","","","","","","test","TL","3"
"","show_choice","496","582882","0.0-309.0-1.0","null","run_exp/static/images/Set 6_rs/091b.jpg","null","","","","","","test","TL",""
"","html-keyboard-response","497","583386","0.0-309.0-2.0","null","<p></p>","null","","","","","","","",""
"","image","498","584691","0.0-310.0-0.0","1304","run_exp/static/images/Set 6_rs/060b.jpg","86","","","","","","test","TL","3"
"","show_choice","499","585197","0.0-310.0-1.0","null","run_exp/static/images/Set 6_rs/060b.jpg","null","","","","","","test","TL",""
"","html-keyboard-response","500","585698","0.0-310.0-2.0","null","<p></p>","null","","","","","","","",""
"","image","501","587736","0.0-311.0-0.0","2036.7000000029802","run_exp/static/images/Set 6_rs/171a.jpg","78","","","","","","test","TF","1"
"","show_choice","502","588241","0.0-311.0-1.0","null","run_exp/static/images/Set 6_rs/171a.jpg","null","","","","","","test","TF",""
"","html-keyboard-response","503","588744","0.0-311.0-2.0","null","<p></p>","null","","","","","","","",""
"","image","504","590474","0.0-312.0-0.0","1729.2000000029802","run_exp/static/images/Set 6_rs/105a.jpg","78","","","","","","test","TF","5"
"","show_choice","505","590976","0.0-312.0-1.0","null","run_exp/static/images/Set 6_rs/105a.jpg","null","","","","","","test","TF",""
"","html-keyboard-response","506","591479","0.0-312.0-2.0","null","<p></p>","null","","","","","","","",""
"","image","507","592507","0.0-313.0-0.0","1026.9000000059605","run_exp/static/images/Set 6_rs/078a.jpg","78","","","","","","test","TF","1"
"","show_choice","508","593009","0.0-313.0-1.0","null","run_exp/static/images/Set 6_rs/078a.jpg","null","","","","","","test","TF",""
"","html-keyboard-response","509","593511","0.0-313.0-2.0","null","<p></p>","null","","","","","","","",""
"","image","510","594813","0.0-314.0-0.0","1301.2000000029802","run_exp/static/images/Set 6_rs/172a.jpg","86","","","","","","test","TR","1"
"","show_choice","511","595319","0.0-314.0-1.0","null","run_exp/static/images/Set 6_rs/172a.jpg","null","","","","","","test","TR",""
"","html-keyboard-response","512","595821","0.0-314.0-2.0","null","<p></p>","null","","","","","","","",""
"","all_done","513","602898","0.0-315.0-0.0","null","run_exp/static/audio/clip_23_all_done.m4a","null","","","","","<div class='center'><p>You are finished with all three parts of the experiment! You can press the space bar to end the game now. </p></div>","","",""
"","html-keyboard-response","514","603472","0.0-315.0-1.0","573.7000000029802","<div class='center'><p>You are finished with all three parts of the experiment! You can press the space bar to end the game now. </p><div><p><b>[Press the space bar to continue]</b></p></div>","32","","","","","","","",""
