"success","trial_type","trial_index","time_elapsed","internal_node_id","interactions","blur_events","focus_events","fullscreenenter_events","fullscreenexit_events","rt","stimulus","key_press","subject_id","participant_id","age","gender","prompt","phase","condition","lure_bin"
"true","fullscreen","0","2414","0.0-0.0","""event"",""trial"",""time""
""fullscreenenter"",""0"",""1430""
","
","
","""event"",""trial"",""time""
""fullscreenenter"",""0"",""1430""
","
","","","","","","","","","","",""
"","pavlovia","1","2416","0.0-1.0","""event"",""trial"",""time""
""fullscreenenter"",""0"",""1430""
","
","
","""event"",""trial"",""time""
""fullscreenenter"",""0"",""1430""
","
","","","","","","","","","","",""
"","welcome","2","37217","0.0-2.0","""event"",""trial"",""time""
""fullscreenenter"",""0"",""1430""
","
","
","""event"",""trial"",""time""
""fullscreenenter"",""0"",""1430""
","
","null","run_exp/static/audio/clip_1_welcome.m4a","null","3020","2712","23","Male","<div class='center'><p>Welcome to the third part of the study! First, you'll be shown pictures of items one at a time. For each picture, you have to decide if the item is typically found indoors or outdoors.</p><p>If you think it's usually found indoors, then press <b>v</b> key on your keyboard. If you think it's usually found outdoors, then press the <b>n</b> key.There will be reminders on the screen to help you remember which keys to press. </p><p>If you're not sure whether the item is an indoor item or an outdoor item, go ahead and take a guess but try your best not to skip that choice. </p></div>","","",""
"","html-keyboard-response","3","38464","0.0-3.0","""event"",""trial"",""time""
""fullscreenenter"",""0"",""1430""
","
","
","""event"",""trial"",""time""
""fullscreenenter"",""0"",""1430""
","
","1243.1000000014901","<div class='center'><p>Welcome to the third part of the study! First, you'll be shown pictures of items one at a time. For each picture, you have to decide if the item is typically found indoors or outdoors.</p><p>If you think it's usually found indoors, then press <b>v</b> key on your keyboard. If you think it's usually found outdoors, then press the <b>n</b> key.There will be reminders on the screen to help you remember which keys to press. </p><p>If you're not sure whether the item is an indoor item or an outdoor item, go ahead and take a guess but try your best not to skip that choice. </p><div><p><b>[Press the space bar to continue]</b></p></div>","32","","","","","","","",""
"","image","4","40016","0.0-4.0","""event"",""trial"",""time""
""fullscreenenter"",""0"",""1430""
","
","
","""event"",""trial"",""time""
""fullscreenenter"",""0"",""1430""
","
","1551.5","run_exp/static/images/Set 6_rs/024a.jpg","86","","","","","","learn","SR",""
"","show_choice","5","40467","0.0-5.0","""event"",""trial"",""time""
""fullscreenenter"",""0"",""1430""
","
","
","""event"",""trial"",""time""
""fullscreenenter"",""0"",""1430""
","
","null","run_exp/static/images/Set 6_rs/024a.jpg","null","","","","","","learn","SR",""
"","html-keyboard-response","6","40968","0.0-6.0","""event"",""trial"",""time""
""fullscreenenter"",""0"",""1430""
","
","
","""event"",""trial"",""time""
""fullscreenenter"",""0"",""1430""
","
","null","<p></p>","null","","","","","","","",""
"","image","7","42888","0.0-7.0","""event"",""trial"",""time""
""fullscreenenter"",""0"",""1430""
","
","
","""event"",""trial"",""time""
""fullscreenenter"",""0"",""1430""
","
","1918.699999999255","run_exp/static/images/Set 6_rs/108a.jpg","78","","","","","","learn","SR",""
"","show_choice","8","42972","0.0-8.0","""event"",""trial"",""time""
""fullscreenenter"",""0"",""1430""
","
","
","""event"",""trial"",""time""
""fullscreenenter"",""0"",""1430""
","
","null","run_exp/static/images/Set 6_rs/108a.jpg","null","","","","","","learn","SR",""
"","html-keyboard-response","9","43474","0.0-9.0","""event"",""trial"",""time""
""fullscreenenter"",""0"",""1430""
","
","
","""event"",""trial"",""time""
""fullscreenenter"",""0"",""1430""
","
","null","<p></p>","null","","","","","","","",""
"","image","10","45478","0.0-10.0","""event"",""trial"",""time""
""fullscreenenter"",""0"",""1430""
","
","
","""event"",""trial"",""time""
""fullscreenenter"",""0"",""1430""
","
","null","run_exp/static/images/Set 6_rs/006a.jpg","null","","","","","","learn","SL",""
"","show_choice","11","47484","0.0-11.0","""event"",""trial"",""time""
""fullscreenenter"",""0"",""1430""
","
","
","""event"",""trial"",""time""
""fullscreenenter"",""0"",""1430""
","
","null","run_exp/static/images/blank.png","null","","","","","","learn","SL",""
"","html-keyboard-response","12","47986","0.0-12.0","""event"",""trial"",""time""
""fullscreenenter"",""0"",""1430""
","
","
","""event"",""trial"",""time""
""fullscreenenter"",""0"",""1430""
","
","null","<p></p>","null","","","","","","","",""
"","image","13","48697","0.0-13.0","""event"",""trial"",""time""
""fullscreenenter"",""0"",""1430""
","
","
","""event"",""trial"",""time""
""fullscreenenter"",""0"",""1430""
","
","710.3000000007451","run_exp/static/images/Set 6_rs/154a.jpg","86","","","","","","learn","SR",""
"","show_choice","14","49992","0.0-14.0","""event"",""trial"",""time""
""fullscreenenter"",""0"",""1430""
","
","
","""event"",""trial"",""time""
""fullscreenenter"",""0"",""1430""
","
","null","run_exp/static/images/Set 6_rs/154a.jpg","null","","","","","","learn","SR",""
"","html-keyboard-response","15","50493","0.0-15.0","""event"",""trial"",""time""
""fullscreenenter"",""0"",""1430""
","
","
","""event"",""trial"",""time""
""fullscreenenter"",""0"",""1430""
","
","null","<p></p>","null","","","","","","","",""
"","image","16","51133","0.0-16.0","""event"",""trial"",""time""
""fullscreenenter"",""0"",""1430""
","
","
","""event"",""trial"",""time""
""fullscreenenter"",""0"",""1430""
","
","639.3999999985099","run_exp/static/images/Set 6_rs/073a.jpg","86","","","","","","learn","SL",""
"","show_choice","17","52500","0.0-17.0","""event"",""trial"",""time""
""fullscreenenter"",""0"",""1430""
","
","
","""event"",""trial"",""time""
""fullscreenenter"",""0"",""1430""
","
","null","run_exp/static/images/Set 6_rs/073a.jpg","null","","","","","","learn","SL",""
"","html-keyboard-response","18","53004","0.0-18.0","""event"",""trial"",""time""
""fullscreenenter"",""0"",""1430""
","
","
","""event"",""trial"",""time""
""fullscreenenter"",""0"",""1430""
","
","null","<p></p>","null","","","","","","","",""
"","image","19","53894","0.0-19.0","""event"",""trial"",""time""
""fullscreenenter"",""0"",""1430""
","
","
","""event"",""trial"",""time""
""fullscreenenter"",""0"",""1430""
","
","888.9000000022352","run_exp/static/images/Set 6_rs/075a.jpg","86","","","","","","learn","SR",""
"","show_choice","20","55006","0.0-20.0","""event"",""trial"",""time""
""fullscreenenter"",""0"",""1430""
","
","
","""event"",""trial"",""time""
""fullscreenenter"",""0"",""1430""
","
","null","run_exp/static/images/Set 6_rs/075a.jpg","null","","","","","","learn","SR",""
"","html-keyboard-response","21","55512","0.0-21.0","""event"",""trial"",""time""
""fullscreenenter"",""0"",""1430""
","
","
","""event"",""trial"",""time""
""fullscreenenter"",""0"",""1430""
","
","null","<p></p>","null","","","","","","","",""
"","image","22","56354","0.0-22.0","""event"",""trial"",""time""
""fullscreenenter"",""0"",""1430""
","
","
","""event"",""trial"",""time""
""fullscreenenter"",""0"",""1430""
","
","841.3000000007451","run_exp/static/images/Set 6_rs/177a.jpg","78","","","","","","learn","SR",""
"","show_choice","23","57515","0.0-23.0","""event"",""trial"",""time""
""fullscreenenter"",""0"",""1430""
","
","
","""event"",""trial"",""time""
""fullscreenenter"",""0"",""1430""
","
","null","run_exp/static/images/Set 6_rs/177a.jpg","null","","","","","","learn","SR",""
"","html-keyboard-response","24","58020","0.0-24.0","""event"",""trial"",""time""
""fullscreenenter"",""0"",""1430""
","
","
","""event"",""trial"",""time""
""fullscreenenter"",""0"",""1430""
","
","null","<p></p>","null","","","","","","","",""
"","image","25","59149","0.0-25.0","""event"",""trial"",""time""
""fullscreenenter"",""0"",""1430""
","
","
","""event"",""trial"",""time""
""fullscreenenter"",""0"",""1430""
","
","1128","run_exp/static/images/Set 6_rs/122a.jpg","86","","","","","","learn","SR",""
"","show_choice","26","60027","0.0-26.0","""event"",""trial"",""time""
""fullscreenenter"",""0"",""1430""
","
","
","""event"",""trial"",""time""
""fullscreenenter"",""0"",""1430""
","
","null","run_exp/static/images/Set 6_rs/122a.jpg","null","","","","","","learn","SR",""
"","html-keyboard-response","27","60528","0.0-27.0","""event"",""trial"",""time""
""fullscreenenter"",""0"",""1430""
","
","
","""event"",""trial"",""time""
""fullscreenenter"",""0"",""1430""
","
","null","<p></p>","null","","","","","","","",""
"","image","28","62264","0.0-28.0","""event"",""trial"",""time""
""fullscreenenter"",""0"",""1430""
","
","
","""event"",""trial"",""time""
""fullscreenenter"",""0"",""1430""
","
","1734.800000000745","run_exp/static/images/Set 6_rs/167a.jpg","78","","","","","","learn","SL",""
"","show_choice","29","62534","0.0-29.0","""event"",""trial"",""time""
""fullscreenenter"",""0"",""1430""
","
","
","""event"",""trial"",""time""
""fullscreenenter"",""0"",""1430""
","
","null","run_exp/static/images/Set 6_rs/167a.jpg","null","","","","","","learn","SL",""
"","html-keyboard-response","30","63040","0.0-30.0","""event"",""trial"",""time""
""fullscreenenter"",""0"",""1430""
","
","
","""event"",""trial"",""time""
""fullscreenenter"",""0"",""1430""
","
","null","<p></p>","null","","","","","","","",""
"","image","31","63877","0.0-31.0","""event"",""trial"",""time""
""fullscreenenter"",""0"",""1430""
","
","
","""event"",""trial"",""time""
""fullscreenenter"",""0"",""1430""
","
","836.1999999992549","run_exp/static/images/Set 6_rs/055a.jpg","86","","","","","","learn","SL",""
"","show_choice","32","65046","0.0-32.0","""event"",""trial"",""time""
""fullscreenenter"",""0"",""1430""
","
","
","""event"",""trial"",""time""
""fullscreenenter"",""0"",""1430""
","
","null","run_exp/static/images/Set 6_rs/055a.jpg","null","","","","","","learn","SL",""
"","html-keyboard-response","33","65549","0.0-33.0","""event"",""trial"",""time""
""fullscreenenter"",""0"",""1430""
","
","
","""event"",""trial"",""time""
""fullscreenenter"",""0"",""1430""
","
","null","<p></p>","null","","","","","","","",""
"","image","34","66918","0.0-34.0","""event"",""trial"",""time""
""fullscreenenter"",""0"",""1430""
","
","
","""event"",""trial"",""time""
""fullscreenenter"",""0"",""1430""
","
","1367.8999999985099","run_exp/static/images/Set 6_rs/117a.jpg","78","","","","","","learn","SL",""
"","show_choice","35","67556","0.0-35.0","""event"",""trial"",""time""
""fullscreenenter"",""0"",""1430""
","
","
","""event"",""trial"",""time""
""fullscreenenter"",""0"",""1430""
","
","null","run_exp/static/images/Set 6_rs/117a.jpg","null","","","","","","learn","SL",""
"","html-keyboard-response","36","68057","0.0-36.0","""event"",""trial"",""time""
""fullscreenenter"",""0"",""1430""
","
","
","""event"",""trial"",""time""
""fullscreenenter"",""0"",""1430""
","
","null","<p></p>","null","","","","","","","",""
"","image","37","69680","0.0-37.0","""event"",""trial"",""time""
""fullscreenenter"",""0"",""1430""
","
","
","""event"",""trial"",""time""
""fullscreenenter"",""0"",""1430""
","
","1622.300000000745","run_exp/static/images/Set 6_rs/121a.jpg","86","","","","","","learn","SR",""
"","show_choice","38","70058","0.0-38.0","""event"",""trial"",""time""
""fullscreenenter"",""0"",""1430""
","
","
","""event"",""trial"",""time""
""fullscreenenter"",""0"",""1430""
","
","null","run_exp/static/images/Set 6_rs/121a.jpg","null","","","","","","learn","SR",""
"","html-keyboard-response","39","70563","0.0-39.0","""event"",""trial"",""time""
""fullscreenenter"",""0"",""1430""
","
","
","""event"",""trial"",""time""
""fullscreenenter"",""0"",""1430""
","
","null","<p></p>","null","","","","","","","",""
"","image","40","72027","0.0-40.0","""event"",""trial"",""time""
""fullscreenenter"",""0"",""1430""
","
","
","""event"",""trial"",""time""
""fullscreenenter"",""0"",""1430""
","
","1463.800000000745","run_exp/static/images/Set 6_rs/066a.jpg","86","","","","","","learn","SL",""
"","show_choice","41","72567","0.0-41.0","""event"",""trial"",""time""
""fullscreenenter"",""0"",""1430""
","
","
","""event"",""trial"",""time""
""fullscreenenter"",""0"",""1430""
","
","null","run_exp/static/images/Set 6_rs/066a.jpg","null","","","","","","learn","SL",""
"","html-keyboard-response","42","73074","0.0-42.0","""event"",""trial"",""time""
""fullscreenenter"",""0"",""1430""
","
","
","""event"",""trial"",""time""
""fullscreenenter"",""0"",""1430""
","
","null","<p></p>","null","","","","","","","",""
"","image","43","74171","0.0-43.0","""event"",""trial"",""time""
""fullscreenenter"",""0"",""1430""
","
","
","""event"",""trial"",""time""
""fullscreenenter"",""0"",""1430""
","
","1096.4000000022352","run_exp/static/images/Set 6_rs/091a.jpg","86","","","","","","learn","SL",""
"","show_choice","44","75080","0.0-44.0","""event"",""trial"",""time""
""fullscreenenter"",""0"",""1430""
","
","
","""event"",""trial"",""time""
""fullscreenenter"",""0"",""1430""
","
","null","run_exp/static/images/Set 6_rs/091a.jpg","null","","","","","","learn","SL",""
"","html-keyboard-response","45","75586","0.0-45.0","""event"",""trial"",""time""
""fullscreenenter"",""0"",""1430""
","
","
","""event"",""trial"",""time""
""fullscreenenter"",""0"",""1430""
","
","null","<p></p>","null","","","","","","","",""
"","image","46","76753","0.0-46.0","""event"",""trial"",""time""
""fullscreenenter"",""0"",""1430""
","
","
","""event"",""trial"",""time""
""fullscreenenter"",""0"",""1430""
","
","1165.5","run_exp/static/images/Set 6_rs/045a.jpg","86","","","","","","learn","SR",""
"","show_choice","47","77593","0.0-47.0","""event"",""trial"",""time""
""fullscreenenter"",""0"",""1430""
","
","
","""event"",""trial"",""time""
""fullscreenenter"",""0"",""1430""
","
","null","run_exp/static/images/Set 6_rs/045a.jpg","null","","","","","","learn","SR",""
"","html-keyboard-response","48","78094","0.0-48.0","""event"",""trial"",""time""
""fullscreenenter"",""0"",""1430""
","
","
","""event"",""trial"",""time""
""fullscreenenter"",""0"",""1430""
","
","null","<p></p>","null","","","","","","","",""
"","image","49","78868","0.0-49.0","""event"",""trial"",""time""
""fullscreenenter"",""0"",""1430""
","
","
","""event"",""trial"",""time""
""fullscreenenter"",""0"",""1430""
","
","772","run_exp/static/images/Set 6_rs/019a.jpg","86","","","","","","learn","SL",""
"","show_choice","50","80102","0.0-50.0","""event"",""trial"",""time""
""fullscreenenter"",""0"",""1430""
","
","
","""event"",""trial"",""time""
""fullscreenenter"",""0"",""1430""
","
","null","run_exp/static/images/Set 6_rs/019a.jpg","null","","","","","","learn","SL",""
"","html-keyboard-response","51","80608","0.0-51.0","""event"",""trial"",""time""
""fullscreenenter"",""0"",""1430""
","
","
","""event"",""trial"",""time""
""fullscreenenter"",""0"",""1430""
","
","null","<p></p>","null","","","","","","","",""
"","image","52","81572","0.0-52.0","""event"",""trial"",""time""
""fullscreenenter"",""0"",""1430""
","
","
","""event"",""trial"",""time""
""fullscreenenter"",""0"",""1430""
","
","962.8999999985099","run_exp/static/images/Set 6_rs/085a.jpg","86","","","","","","learn","SL",""
"","show_choice","53","82609","0.0-53.0","""event"",""trial"",""time""
""fullscreenenter"",""0"",""1430""
","
","
","""event"",""trial"",""time""
""fullscreenenter"",""0"",""1430""
","
","null","run_exp/static/images/Set 6_rs/085a.jpg","null","","","","","","learn","SL",""
"","html-keyboard-response","54","83115","0.0-54.0","""event"",""trial"",""time""
""fullscreenenter"",""0"",""1430""
","
","
","""event"",""trial"",""time""
""fullscreenenter"",""0"",""1430""
","
","null","<p></p>","null","","","","","","","",""
"","image","55","83799","0.0-55.0","""event"",""trial"",""time""
""fullscreenenter"",""0"",""1430""
","
","
","""event"",""trial"",""time""
""fullscreenenter"",""0"",""1430""
","
","683.1000000014901","run_exp/static/images/Set 6_rs/095a.jpg","86","","","","","","learn","SL",""
"","show_choice","56","85121","0.0-56.0","""event"",""trial"",""time""
""fullscreenenter"",""0"",""1430""
","
","
","""event"",""trial"",""time""
""fullscreenenter"",""0"",""1430""
","
","null","run_exp/static/images/Set 6_rs/095a.jpg","null","","","","","","learn","SL",""
"","html-keyboard-response","57","85627","0.0-57.0","""event"",""trial"",""time""
""fullscreenenter"",""0"",""1430""
","
","
","""event"",""trial"",""time""
""fullscreenenter"",""0"",""1430""
","
","null","<p></p>","null","","","","","","","",""
"","image","58","86254","0.0-58.0","""event"",""trial"",""time""
""fullscreenenter"",""0"",""1430""
","
","
","""event"",""trial"",""time""
""fullscreenenter"",""0"",""1430""
","
","626.4000000022352","run_exp/static/images/Set 6_rs/014a.jpg","86","","","","","","learn","SL",""
"","show_choice","59","87633","0.0-59.0","""event"",""trial"",""time""
""fullscreenenter"",""0"",""1430""
","
","
","""event"",""trial"",""time""
""fullscreenenter"",""0"",""1430""
","
","null","run_exp/static/images/Set 6_rs/014a.jpg","null","","","","","","learn","SL",""
"","html-keyboard-response","60","88139","0.0-60.0","""event"",""trial"",""time""
""fullscreenenter"",""0"",""1430""
","
","
","""event"",""trial"",""time""
""fullscreenenter"",""0"",""1430""
","
","null","<p></p>","null","","","","","","","",""
"","image","61","88855","0.0-61.0","""event"",""trial"",""time""
""fullscreenenter"",""0"",""1430""
","
","
","""event"",""trial"",""time""
""fullscreenenter"",""0"",""1430""
","
","714.8000000007451","run_exp/static/images/Set 6_rs/088a.jpg","86","","","","","","learn","SR",""
"","show_choice","62","90144","0.0-62.0","""event"",""trial"",""time""
""fullscreenenter"",""0"",""1430""
","
","
","""event"",""trial"",""time""
""fullscreenenter"",""0"",""1430""
","
","null","run_exp/static/images/Set 6_rs/088a.jpg","null","","","","","","learn","SR",""
"","html-keyboard-response","63","90648","0.0-63.0","""event"",""trial"",""time""
""fullscreenenter"",""0"",""1430""
","
","
","""event"",""trial"",""time""
""fullscreenenter"",""0"",""1430""
","
","null","<p></p>","null","","","","","","","",""
"","image","64","91820","0.0-64.0","""event"",""trial"",""time""
""fullscreenenter"",""0"",""1430""
","
","
","""event"",""trial"",""time""
""fullscreenenter"",""0"",""1430""
","
","1170.199999999255","run_exp/static/images/Set 6_rs/169a.jpg","78","","","","","","learn","SR",""
"","show_choice","65","92651","0.0-65.0","""event"",""trial"",""time""
""fullscreenenter"",""0"",""1430""
","
","
","""event"",""trial"",""time""
""fullscreenenter"",""0"",""1430""
","
","null","run_exp/static/images/Set 6_rs/169a.jpg","null","","","","","","learn","SR",""
"","html-keyboard-response","66","93157","0.0-66.0","""event"",""trial"",""time""
""fullscreenenter"",""0"",""1430""
","
","
","""event"",""trial"",""time""
""fullscreenenter"",""0"",""1430""
","
","null","<p></p>","null","","","","","","","",""
"","image","67","93884","0.0-67.0","""event"",""trial"",""time""
""fullscreenenter"",""0"",""1430""
","
","
","""event"",""trial"",""time""
""fullscreenenter"",""0"",""1430""
","
","726.6999999992549","run_exp/static/images/Set 6_rs/064a.jpg","86","","","","","","learn","SR",""
"","show_choice","68","95161","0.0-68.0","""event"",""trial"",""time""
""fullscreenenter"",""0"",""1430""
","
","
","""event"",""trial"",""time""
""fullscreenenter"",""0"",""1430""
","
","null","run_exp/static/images/Set 6_rs/064a.jpg","null","","","","","","learn","SR",""
"","html-keyboard-response","69","95664","0.0-69.0","""event"",""trial"",""time""
""fullscreenenter"",""0"",""1430""
","
","
","""event"",""trial"",""time""
""fullscreenenter"",""0"",""1430""
","
","null","<p></p>","null","","","","","","","",""
"","image","70","96623","0.0-70.0","""event"",""trial"",""time""
""fullscreenenter"",""0"",""1430""
","
","
","""event"",""trial"",""time""
""fullscreenenter"",""0"",""1430""
","
","958.5","run_exp/static/images/Set 6_rs/186a.jpg","86","","","","","","learn","SR",""
"","show_choice","71","97670","0.0-71.0","""event"",""trial"",""time""
""fullscreenenter"",""0"",""1430""
","
","
","""event"",""trial"",""time""
""fullscreenenter"",""0"",""1430""
","
","null","run_exp/static/images/Set 6_rs/186a.jpg","null","","","","","","learn","SR",""
"","html-keyboard-response","72","98176","0.0-72.0","""event"",""trial"",""time""
""fullscreenenter"",""0"",""1430""
","
","
","""event"",""trial"",""time""
""fullscreenenter"",""0"",""1430""
","
","null","<p></p>","null","","","","","","","",""
"","image","73","98962","0.0-73.0","""event"",""trial"",""time""
""fullscreenenter"",""0"",""1430""
","
","
","""event"",""trial"",""time""
""fullscreenenter"",""0"",""1430""
","
","784.8000000007451","run_exp/static/images/Set 6_rs/123a.jpg","86","","","","","","learn","SL",""
"","show_choice","74","100183","0.0-74.0","""event"",""trial"",""time""
""fullscreenenter"",""0"",""1430""
","
","
","""event"",""trial"",""time""
""fullscreenenter"",""0"",""1430""
","
","null","run_exp/static/images/Set 6_rs/123a.jpg","null","","","","","","learn","SL",""
"","html-keyboard-response","75","100688","0.0-75.0","""event"",""trial"",""time""
""fullscreenenter"",""0"",""1430""
","
","
","""event"",""trial"",""time""
""fullscreenenter"",""0"",""1430""
","
","null","<p></p>","null","","","","","","","",""
"","image","76","101456","0.0-76.0","""event"",""trial"",""time""
""fullscreenenter"",""0"",""1430""
","
","
","""event"",""trial"",""time""
""fullscreenenter"",""0"",""1430""
","
","766.3999999985099","run_exp/static/images/Set 6_rs/070a.jpg","86","","","","","","learn","SR",""
"","show_choice","77","102690","0.0-77.0","""event"",""trial"",""time""
""fullscreenenter"",""0"",""1430""
","
","
","""event"",""trial"",""time""
""fullscreenenter"",""0"",""1430""
","
","null","run_exp/static/images/Set 6_rs/070a.jpg","null","","","","","","learn","SR",""
"","html-keyboard-response","78","103196","0.0-78.0","""event"",""trial"",""time""
""fullscreenenter"",""0"",""1430""
","
","
","""event"",""trial"",""time""
""fullscreenenter"",""0"",""1430""
","
","null","<p></p>","null","","","","","","","",""
"","image","79","104129","0.0-79.0","""event"",""trial"",""time""
""fullscreenenter"",""0"",""1430""
","
","
","""event"",""trial"",""time""
""fullscreenenter"",""0"",""1430""
","
","931.8000000007451","run_exp/static/images/Set 6_rs/079a.jpg","86","","","","","","learn","SL",""
"","show_choice","80","105203","0.0-80.0","""event"",""trial"",""time""
""fullscreenenter"",""0"",""1430""
","
","
","""event"",""trial"",""time""
""fullscreenenter"",""0"",""1430""
","
","null","run_exp/static/images/Set 6_rs/079a.jpg","null","","","","","","learn","SL",""
"","html-keyboard-response","81","105709","0.0-81.0","""event"",""trial"",""time""
""fullscreenenter"",""0"",""1430""
","
","
","""event"",""trial"",""time""
""fullscreenenter"",""0"",""1430""
","
","null","<p></p>","null","","","","","","","",""
"","image","82","106842","0.0-82.0","""event"",""trial"",""time""
""fullscreenenter"",""0"",""1430""
","
","
","""event"",""trial"",""time""
""fullscreenenter"",""0"",""1430""
","
","1132.1000000014901","run_exp/static/images/Set 6_rs/181a.jpg","78","","","","","","learn","SL",""
"","show_choice","83","107716","0.0-83.0","""event"",""trial"",""time""
""fullscreenenter"",""0"",""1430""
","
","
","""event"",""trial"",""time""
""fullscreenenter"",""0"",""1430""
","
","null","run_exp/static/images/Set 6_rs/181a.jpg","null","","","","","","learn","SL",""
"","html-keyboard-response","84","108222","0.0-84.0","""event"",""trial"",""time""
""fullscreenenter"",""0"",""1430""
","
","
","""event"",""trial"",""time""
""fullscreenenter"",""0"",""1430""
","
","null","<p></p>","null","","","","","","","",""
"","image","85","109435","0.0-85.0","""event"",""trial"",""time""
""fullscreenenter"",""0"",""1430""
","
","
","""event"",""trial"",""time""
""fullscreenenter"",""0"",""1430""
","
","1212.7999999970198","run_exp/static/images/Set 6_rs/061a.jpg","78","","","","","","learn","SR",""
"","show_choice","86","110228","0.0-86.0","""event"",""trial"",""time""
""fullscreenenter"",""0"",""1430""
","
","
","""event"",""trial"",""time""
""fullscreenenter"",""0"",""1430""
","
","null","run_exp/static/images/Set 6_rs/061a.jpg","null","","","","","","learn","SR",""
"","html-keyboard-response","87","110729","0.0-87.0","""event"",""trial"",""time""
""fullscreenenter"",""0"",""1430""
","
","
","""event"",""trial"",""time""
""fullscreenenter"",""0"",""1430""
","
","null","<p></p>","null","","","","","","","",""
"","image","88","111453","0.0-88.0","""event"",""trial"",""time""
""fullscreenenter"",""0"",""1430""
","
","
","""event"",""trial"",""time""
""fullscreenenter"",""0"",""1430""
","
","723.0999999977648","run_exp/static/images/Set 6_rs/129a.jpg","86","","","","","","learn","SL",""
"","show_choice","89","112731","0.0-89.0","""event"",""trial"",""time""
""fullscreenenter"",""0"",""1430""
","
","
","""event"",""trial"",""time""
""fullscreenenter"",""0"",""1430""
","
","null","run_exp/static/images/Set 6_rs/129a.jpg","null","","","","","","learn","SL",""
"","html-keyboard-response","90","113237","0.0-90.0","""event"",""trial"",""time""
""fullscreenenter"",""0"",""1430""
","
","
","""event"",""trial"",""time""
""fullscreenenter"",""0"",""1430""
","
","null","<p></p>","null","","","","","","","",""
"","image","91","114913","0.0-91.0","""event"",""trial"",""time""
""fullscreenenter"",""0"",""1430""
","
","
","""event"",""trial"",""time""
""fullscreenenter"",""0"",""1430""
","
","1675.5","run_exp/static/images/Set 6_rs/131a.jpg","78","","","","","","learn","SR",""
"","show_choice","92","115243","0.0-92.0","""event"",""trial"",""time""
""fullscreenenter"",""0"",""1430""
","
","
","""event"",""trial"",""time""
""fullscreenenter"",""0"",""1430""
","
","null","run_exp/static/images/Set 6_rs/131a.jpg","null","","","","","","learn","SR",""
"","html-keyboard-response","93","115749","0.0-93.0","""event"",""trial"",""time""
""fullscreenenter"",""0"",""1430""
","
","
","""event"",""trial"",""time""
""fullscreenenter"",""0"",""1430""
","
","null","<p></p>","null","","","","","","","",""
"","image","94","116997","0.0-94.0","""event"",""trial"",""time""
""fullscreenenter"",""0"",""1430""
","
","
","""event"",""trial"",""time""
""fullscreenenter"",""0"",""1430""
","
","1247","run_exp/static/images/Set 6_rs/152a.jpg","86","","","","","","learn","SR",""
"","show_choice","95","117754","0.0-95.0","""event"",""trial"",""time""
""fullscreenenter"",""0"",""1430""
","
","
","""event"",""trial"",""time""
""fullscreenenter"",""0"",""1430""
","
","null","run_exp/static/images/Set 6_rs/152a.jpg","null","","","","","","learn","SR",""
"","html-keyboard-response","96","118260","0.0-96.0","""event"",""trial"",""time""
""fullscreenenter"",""0"",""1430""
","
","
","""event"",""trial"",""time""
""fullscreenenter"",""0"",""1430""
","
","null","<p></p>","null","","","","","","","",""
"","image","97","119775","0.0-97.0","""event"",""trial"",""time""
""fullscreenenter"",""0"",""1430""
","
","
","""event"",""trial"",""time""
""fullscreenenter"",""0"",""1430""
","
","1514.0999999977648","run_exp/static/images/Set 6_rs/017a.jpg","86","","","","","","learn","SL",""
"","show_choice","98","120262","0.0-98.0","""event"",""trial"",""time""
""fullscreenenter"",""0"",""1430""
","
","
","""event"",""trial"",""time""
""fullscreenenter"",""0"",""1430""
","
","null","run_exp/static/images/Set 6_rs/017a.jpg","null","","","","","","learn","SL",""
"","html-keyboard-response","99","120768","0.0-99.0","""event"",""trial"",""time""
""fullscreenenter"",""0"",""1430""
","
","
","""event"",""trial"",""time""
""fullscreenenter"",""0"",""1430""
","
","null","<p></p>","null","","","","","","","",""
"","image","100","121565","0.0-100.0","""event"",""trial"",""time""
""fullscreenenter"",""0"",""1430""
","
","
","""event"",""trial"",""time""
""fullscreenenter"",""0"",""1430""
","
","795.5","run_exp/static/images/Set 6_rs/178a.jpg","78","","","","","","learn","SR",""
"","show_choice","101","122774","0.0-101.0","""event"",""trial"",""time""
""fullscreenenter"",""0"",""1430""
","
","
","""event"",""trial"",""time""
""fullscreenenter"",""0"",""1430""
","
","null","run_exp/static/images/Set 6_rs/178a.jpg","null","","","","","","learn","SR",""
"","html-keyboard-response","102","123280","0.0-102.0","""event"",""trial"",""time""
""fullscreenenter"",""0"",""1430""
","
","
","""event"",""trial"",""time""
""fullscreenenter"",""0"",""1430""
","
","null","<p></p>","null","","","","","","","",""
"","image","103","124707","0.0-103.0","""event"",""trial"",""time""
""fullscreenenter"",""0"",""1430""
","
","
","""event"",""trial"",""time""
""fullscreenenter"",""0"",""1430""
","
","1425.199999999255","run_exp/static/images/Set 6_rs/116a.jpg","78","","","","","","learn","SL",""
"","show_choice","104","125285","0.0-104.0","""event"",""trial"",""time""
""fullscreenenter"",""0"",""1430""
","
","
","""event"",""trial"",""time""
""fullscreenenter"",""0"",""1430""
","
","null","run_exp/static/images/Set 6_rs/116a.jpg","null","","","","","","learn","SL",""
"","html-keyboard-response","105","125791","0.0-105.0","""event"",""trial"",""time""
""fullscreenenter"",""0"",""1430""
","
","
","""event"",""trial"",""time""
""fullscreenenter"",""0"",""1430""
","
","null","<p></p>","null","","","","","","","",""
"","image","106","126911","0.0-106.0","""event"",""trial"",""time""
""fullscreenenter"",""0"",""1430""
","
","
","""event"",""trial"",""time""
""fullscreenenter"",""0"",""1430""
","
","1118.5","run_exp/static/images/Set 6_rs/010a.jpg","86","","","","","","learn","SR",""
"","show_choice","107","127798","0.0-107.0","""event"",""trial"",""time""
""fullscreenenter"",""0"",""1430""
","
","
","""event"",""trial"",""time""
""fullscreenenter"",""0"",""1430""
","
","null","run_exp/static/images/Set 6_rs/010a.jpg","null","","","","","","learn","SR",""
"","html-keyboard-response","108","128302","0.0-108.0","""event"",""trial"",""time""
""fullscreenenter"",""0"",""1430""
","
","
","""event"",""trial"",""time""
""fullscreenenter"",""0"",""1430""
","
","null","<p></p>","null","","","","","","","",""
"","image","109","129425","0.0-109.0","""event"",""trial"",""time""
""fullscreenenter"",""0"",""1430""
","
","
","""event"",""trial"",""time""
""fullscreenenter"",""0"",""1430""
","
","1122.0999999977648","run_exp/static/images/Set 6_rs/126a.jpg","78","","","","","","learn","SR",""
"","show_choice","110","130308","0.0-110.0","""event"",""trial"",""time""
""fullscreenenter"",""0"",""1430""
","
","
","""event"",""trial"",""time""
""fullscreenenter"",""0"",""1430""
","
","null","run_exp/static/images/Set 6_rs/126a.jpg","null","","","","","","learn","SR",""
"","html-keyboard-response","111","130809","0.0-111.0","""event"",""trial"",""time""
""fullscreenenter"",""0"",""1430""
","
","
","""event"",""trial"",""time""
""fullscreenenter"",""0"",""1430""
","
","null","<p></p>","null","","","","","","","",""
"","image","112","132050","0.0-112.0","""event"",""trial"",""time""
""fullscreenenter"",""0"",""1430""
","
","
","""event"",""trial"",""time""
""fullscreenenter"",""0"",""1430""
","
","1239.699999999255","run_exp/static/images/Set 6_rs/141a.jpg","86","","","","","","learn","SR",""
"","show_choice","113","132815","0.0-113.0","""event"",""trial"",""time""
""fullscreenenter"",""0"",""1430""
","
","
","""event"",""trial"",""time""
""fullscreenenter"",""0"",""1430""
","
","null","run_exp/static/images/Set 6_rs/141a.jpg","null","","","","","","learn","SR",""
"","html-keyboard-response","114","133320","0.0-114.0","""event"",""trial"",""time""
""fullscreenenter"",""0"",""1430""
","
","
","""event"",""trial"",""time""
""fullscreenenter"",""0"",""1430""
","
","null","<p></p>","null","","","","","","","",""
"","image","115","134605","0.0-115.0","""event"",""trial"",""time""
""fullscreenenter"",""0"",""1430""
","
","
","""event"",""trial"",""time""
""fullscreenenter"",""0"",""1430""
","
","1283","run_exp/static/images/Set 6_rs/012a.jpg","86","","","","","","learn","SR",""
"","show_choice","116","135323","0.0-116.0","""event"",""trial"",""time""
""fullscreenenter"",""0"",""1430""
","
","
","""event"",""trial"",""time""
""fullscreenenter"",""0"",""1430""
","
","null","run_exp/static/images/Set 6_rs/012a.jpg","null","","","","","","learn","SR",""
"","html-keyboard-response","117","135826","0.0-117.0","""event"",""trial"",""time""
""fullscreenenter"",""0"",""1430""
","
","
","""event"",""trial"",""time""
""fullscreenenter"",""0"",""1430""
","
","null","<p></p>","null","","","","","","","",""
"","image","118","137229","0.0-118.0","""event"",""trial"",""time""
""fullscreenenter"",""0"",""1430""
","
","
","""event"",""trial"",""time""
""fullscreenenter"",""0"",""1430""
","
","1402.4000000022352","run_exp/static/images/Set 6_rs/134a.jpg","86","","","","","","learn","SR",""
"","show_choice","119","137828","0.0-119.0","""event"",""trial"",""time""
""fullscreenenter"",""0"",""1430""
","
","
","""event"",""trial"",""time""
""fullscreenenter"",""0"",""1430""
","
","null","run_exp/static/images/Set 6_rs/134a.jpg","null","","","","","","learn","SR",""
"","html-keyboard-response","120","138332","0.0-120.0","""event"",""trial"",""time""
""fullscreenenter"",""0"",""1430""
","
","
","""event"",""trial"",""time""
""fullscreenenter"",""0"",""1430""
","
","null","<p></p>","null","","","","","","","",""
"","image","121","139029","0.0-121.0","""event"",""trial"",""time""
""fullscreenenter"",""0"",""1430""
","
","
","""event"",""trial"",""time""
""fullscreenenter"",""0"",""1430""
","
","696.4000000022352","run_exp/static/images/Set 6_rs/112a.jpg","86","","","","","","learn","SR",""
"","show_choice","122","140338","0.0-122.0","""event"",""trial"",""time""
""fullscreenenter"",""0"",""1430""
","
","
","""event"",""trial"",""time""
""fullscreenenter"",""0"",""1430""
","
","null","run_exp/static/images/Set 6_rs/112a.jpg","null","","","","","","learn","SR",""
"","html-keyboard-response","123","140844","0.0-123.0","""event"",""trial"",""time""
""fullscreenenter"",""0"",""1430""
","
","
","""event"",""trial"",""time""
""fullscreenenter"",""0"",""1430""
","
","null","<p></p>","null","","","","","","","",""
"","image","124","141745","0.0-124.0","""event"",""trial"",""time""
""fullscreenenter"",""0"",""1430""
","
","
","""event"",""trial"",""time""
""fullscreenenter"",""0"",""1430""
","
","900.1000000014901","run_exp/static/images/Set 6_rs/062a.jpg","86","","","","","","learn","SL",""
"","show_choice","125","142850","0.0-125.0","""event"",""trial"",""time""
""fullscreenenter"",""0"",""1430""
","
","
","""event"",""trial"",""time""
""fullscreenenter"",""0"",""1430""
","
","null","run_exp/static/images/Set 6_rs/062a.jpg","null","","","","","","learn","SL",""
"","html-keyboard-response","126","143354","0.0-126.0","""event"",""trial"",""time""
""fullscreenenter"",""0"",""1430""
","
","
","""event"",""trial"",""time""
""fullscreenenter"",""0"",""1430""
","
","null","<p></p>","null","","","","","","","",""
"","image","127","144477","0.0-127.0","""event"",""trial"",""time""
""fullscreenenter"",""0"",""1430""
","
","
","""event"",""trial"",""time""
""fullscreenenter"",""0"",""1430""
","
","1121.6000000014901","run_exp/static/images/Set 6_rs/071a.jpg","78","","","","","","learn","SL",""
"","show_choice","128","145361","0.0-128.0","""event"",""trial"",""time""
""fullscreenenter"",""0"",""1430""
","
","
","""event"",""trial"",""time""
""fullscreenenter"",""0"",""1430""
","
","null","run_exp/static/images/Set 6_rs/071a.jpg","null","","","","","","learn","SL",""
"","html-keyboard-response","129","145865","0.0-129.0","""event"",""trial"",""time""
""fullscreenenter"",""0"",""1430""
","
","
","""event"",""trial"",""time""
""fullscreenenter"",""0"",""1430""
","
","null","<p></p>","null","","","","","","","",""
"","image","130","146597","0.0-130.0","""event"",""trial"",""time""
""fullscreenenter"",""0"",""1430""
","
","
","""event"",""trial"",""time""
""fullscreenenter"",""0"",""1430""
","
","731.2999999970198","run_exp/static/images/Set 6_rs/166a.jpg","86","","","","","","learn","SR",""
"","show_choice","131","147868","0.0-131.0","""event"",""trial"",""time""
""fullscreenenter"",""0"",""1430""
","
","
","""event"",""trial"",""time""
""fullscreenenter"",""0"",""1430""
","
","null","run_exp/static/images/Set 6_rs/166a.jpg","null","","","","","","learn","SR",""
"","html-keyboard-response","132","148369","0.0-132.0","""event"",""trial"",""time""
""fullscreenenter"",""0"",""1430""
","
","
","""event"",""trial"",""time""
""fullscreenenter"",""0"",""1430""
","
","null","<p></p>","null","","","","","","","",""
"","image","133","149172","0.0-133.0","""event"",""trial"",""time""
""fullscreenenter"",""0"",""1430""
","
","
","""event"",""trial"",""time""
""fullscreenenter"",""0"",""1430""
","
","801.8999999985099","run_exp/static/images/Set 6_rs/057a.jpg","86","","","","","","learn","SL",""
"","show_choice","134","150375","0.0-134.0","""event"",""trial"",""time""
""fullscreenenter"",""0"",""1430""
","
","
","""event"",""trial"",""time""
""fullscreenenter"",""0"",""1430""
","
","null","run_exp/static/images/Set 6_rs/057a.jpg","null","","","","","","learn","SL",""
"","html-keyboard-response","135","150881","0.0-135.0","""event"",""trial"",""time""
""fullscreenenter"",""0"",""1430""
","
","
","""event"",""trial"",""time""
""fullscreenenter"",""0"",""1430""
","
","null","<p></p>","null","","","","","","","",""
"","image","136","151663","0.0-136.0","""event"",""trial"",""time""
""fullscreenenter"",""0"",""1430""
","
","
","""event"",""trial"",""time""
""fullscreenenter"",""0"",""1430""
","
","780.3999999985099","run_exp/static/images/Set 6_rs/016a.jpg","86","","","","","","learn","SL",""
"","show_choice","137","152887","0.0-137.0","""event"",""trial"",""time""
""fullscreenenter"",""0"",""1430""
","
","
","""event"",""trial"",""time""
""fullscreenenter"",""0"",""1430""
","
","null","run_exp/static/images/Set 6_rs/016a.jpg","null","","","","","","learn","SL",""
"","html-keyboard-response","138","153391","0.0-138.0","""event"",""trial"",""time""
""fullscreenenter"",""0"",""1430""
","
","
","""event"",""trial"",""time""
""fullscreenenter"",""0"",""1430""
","
","null","<p></p>","null","","","","","","","",""
"","image","139","154408","0.0-139.0","""event"",""trial"",""time""
""fullscreenenter"",""0"",""1430""
","
","
","""event"",""trial"",""time""
""fullscreenenter"",""0"",""1430""
","
","1016.6000000014901","run_exp/static/images/Set 6_rs/074a.jpg","78","","","","","","learn","SL",""
"","show_choice","140","155397","0.0-140.0","""event"",""trial"",""time""
""fullscreenenter"",""0"",""1430""
","
","
","""event"",""trial"",""time""
""fullscreenenter"",""0"",""1430""
","
","null","run_exp/static/images/Set 6_rs/074a.jpg","null","","","","","","learn","SL",""
"","html-keyboard-response","141","155901","0.0-141.0","""event"",""trial"",""time""
""fullscreenenter"",""0"",""1430""
","
","
","""event"",""trial"",""time""
""fullscreenenter"",""0"",""1430""
","
","null","<p></p>","null","","","","","","","",""
"","image","142","157216","0.0-142.0","""event"",""trial"",""time""
""fullscreenenter"",""0"",""1430""
","
","
","""event"",""trial"",""time""
""fullscreenenter"",""0"",""1430""
","
","1314","run_exp/static/images/Set 6_rs/008a.jpg","86","","","","","","learn","SL",""
"","show_choice","143","157908","0.0-143.0","""event"",""trial"",""time""
""fullscreenenter"",""0"",""1430""
","
","
","""event"",""trial"",""time""
""fullscreenenter"",""0"",""1430""
","
","null","run_exp/static/images/Set 6_rs/008a.jpg","null","","","","","","learn","SL",""
"","html-keyboard-response","144","158412","0.0-144.0","""event"",""trial"",""time""
""fullscreenenter"",""0"",""1430""
","
","
","""event"",""trial"",""time""
""fullscreenenter"",""0"",""1430""
","
","null","<p></p>","null","","","","","","","",""
"","image","145","159584","0.0-145.0","""event"",""trial"",""time""
""fullscreenenter"",""0"",""1430""
","
","
","""event"",""trial"",""time""
""fullscreenenter"",""0"",""1430""
","
","1170.0999999977648","run_exp/static/images/Set 6_rs/050a.jpg","86","","","","","","learn","SL",""
"","show_choice","146","160418","0.0-146.0","""event"",""trial"",""time""
""fullscreenenter"",""0"",""1430""
","
","
","""event"",""trial"",""time""
""fullscreenenter"",""0"",""1430""
","
","null","run_exp/static/images/Set 6_rs/050a.jpg","null","","","","","","learn","SL",""
"","html-keyboard-response","147","160924","0.0-147.0","""event"",""trial"",""time""
""fullscreenenter"",""0"",""1430""
","
","
","""event"",""trial"",""time""
""fullscreenenter"",""0"",""1430""
","
","null","<p></p>","null","","","","","","","",""
"","image","148","162627","0.0-148.0","""event"",""trial"",""time""
""fullscreenenter"",""0"",""1430""
","
","
","""event"",""trial"",""time""
""fullscreenenter"",""0"",""1430""
","
","1702.0999999977648","run_exp/static/images/Set 6_rs/168a.jpg","78","","","","","","learn","SL",""
"","show_choice","149","162929","0.0-149.0","""event"",""trial"",""time""
""fullscreenenter"",""0"",""1430""
","
","
","""event"",""trial"",""time""
""fullscreenenter"",""0"",""1430""
","
","null","run_exp/static/images/Set 6_rs/168a.jpg","null","","","","","","learn","SL",""
"","html-keyboard-response","150","163431","0.0-150.0","""event"",""trial"",""time""
""fullscreenenter"",""0"",""1430""
","
","
","""event"",""trial"",""time""
""fullscreenenter"",""0"",""1430""
","
","null","<p></p>","null","","","","","","","",""
"","image","151","164083","0.0-151.0","""event"",""trial"",""time""
""fullscreenenter"",""0"",""1430""
","
","
","""event"",""trial"",""time""
""fullscreenenter"",""0"",""1430""
","
","650.8000000007451","run_exp/static/images/Set 6_rs/187a.jpg","86","","","","","","learn","SR",""
"","show_choice","152","165438","0.0-152.0","""event"",""trial"",""time""
""fullscreenenter"",""0"",""1430""
","
","
","""event"",""trial"",""time""
""fullscreenenter"",""0"",""1430""
","
","null","run_exp/static/images/Set 6_rs/187a.jpg","null","","","","","","learn","SR",""
"","html-keyboard-response","153","165942","0.0-153.0","""event"",""trial"",""time""
""fullscreenenter"",""0"",""1430""
","
","
","""event"",""trial"",""time""
""fullscreenenter"",""0"",""1430""
","
","null","<p></p>","null","","","","","","","",""
"","image","154","166681","0.0-154.0","""event"",""trial"",""time""
""fullscreenenter"",""0"",""1430""
","
","
","""event"",""trial"",""time""
""fullscreenenter"",""0"",""1430""
","
","737.6000000014901","run_exp/static/images/Set 6_rs/007a.jpg","86","","","","","","learn","SR",""
"","show_choice","155","167949","0.0-155.0","""event"",""trial"",""time""
""fullscreenenter"",""0"",""1430""
","
","
","""event"",""trial"",""time""
""fullscreenenter"",""0"",""1430""
","
","null","run_exp/static/images/Set 6_rs/007a.jpg","null","","","","","","learn","SR",""
"","html-keyboard-response","156","168449","0.0-156.0","""event"",""trial"",""time""
""fullscreenenter"",""0"",""1430""
","
","
","""event"",""trial"",""time""
""fullscreenenter"",""0"",""1430""
","
","null","<p></p>","null","","","","","","","",""
"","image","157","170110","0.0-157.0","""event"",""trial"",""time""
""fullscreenenter"",""0"",""1430""
","
","
","""event"",""trial"",""time""
""fullscreenenter"",""0"",""1430""
","
","1659.699999999255","run_exp/static/images/Set 6_rs/089a.jpg","86","","","","","","learn","SL",""
"","show_choice","158","170454","0.0-158.0","""event"",""trial"",""time""
""fullscreenenter"",""0"",""1430""
","
","
","""event"",""trial"",""time""
""fullscreenenter"",""0"",""1430""
","
","null","run_exp/static/images/Set 6_rs/089a.jpg","null","","","","","","learn","SL",""
"","html-keyboard-response","159","170960","0.0-159.0","""event"",""trial"",""time""
""fullscreenenter"",""0"",""1430""
","
","
","""event"",""trial"",""time""
""fullscreenenter"",""0"",""1430""
","
","null","<p></p>","null","","","","","","","",""
"","image","160","171962","0.0-160.0","""event"",""trial"",""time""
""fullscreenenter"",""0"",""1430""
","
","
","""event"",""trial"",""time""
""fullscreenenter"",""0"",""1430""
","
","1001.6999999992549","run_exp/static/images/Set 6_rs/144a.jpg","86","","","","","","learn","SL",""
"","show_choice","161","172966","0.0-161.0","""event"",""trial"",""time""
""fullscreenenter"",""0"",""1430""
","
","
","""event"",""trial"",""time""
""fullscreenenter"",""0"",""1430""
","
","null","run_exp/static/images/Set 6_rs/144a.jpg","null","","","","","","learn","SL",""
"","html-keyboard-response","162","173469","0.0-162.0","""event"",""trial"",""time""
""fullscreenenter"",""0"",""1430""
","
","
","""event"",""trial"",""time""
""fullscreenenter"",""0"",""1430""
","
","null","<p></p>","null","","","","","","","",""
"","image","163","174231","0.0-163.0","""event"",""trial"",""time""
""fullscreenenter"",""0"",""1430""
","
","
","""event"",""trial"",""time""
""fullscreenenter"",""0"",""1430""
","
","761.2000000029802","run_exp/static/images/Set 6_rs/111a.jpg","86","","","","","","learn","SL",""
"","show_choice","164","175472","0.0-164.0","""event"",""trial"",""time""
""fullscreenenter"",""0"",""1430""
","
","
","""event"",""trial"",""time""
""fullscreenenter"",""0"",""1430""
","
","null","run_exp/static/images/Set 6_rs/111a.jpg","null","","","","","","learn","SL",""
"","html-keyboard-response","165","175975","0.0-165.0","""event"",""trial"",""time""
""fullscreenenter"",""0"",""1430""
","
","
","""event"",""trial"",""time""
""fullscreenenter"",""0"",""1430""
","
","null","<p></p>","null","","","","","","","",""
"","image","166","177031","0.0-166.0","""event"",""trial"",""time""
""fullscreenenter"",""0"",""1430""
","
","
","""event"",""trial"",""time""
""fullscreenenter"",""0"",""1430""
","
","1054.800000000745","run_exp/static/images/Set 6_rs/138a.jpg","78","","","","","","learn","SL",""
"","show_choice","167","177977","0.0-167.0","""event"",""trial"",""time""
""fullscreenenter"",""0"",""1430""
","
","
","""event"",""trial"",""time""
""fullscreenenter"",""0"",""1430""
","
","null","run_exp/static/images/Set 6_rs/138a.jpg","null","","","","","","learn","SL",""
"","html-keyboard-response","168","178483","0.0-168.0","""event"",""trial"",""time""
""fullscreenenter"",""0"",""1430""
","
","
","""event"",""trial"",""time""
""fullscreenenter"",""0"",""1430""
","
","null","<p></p>","null","","","","","","","",""
"","image","169","179165","0.0-169.0","""event"",""trial"",""time""
""fullscreenenter"",""0"",""1430""
","
","
","""event"",""trial"",""time""
""fullscreenenter"",""0"",""1430""
","
","680.6999999992549","run_exp/static/images/Set 6_rs/036a.jpg","86","","","","","","learn","SL",""
"","show_choice","170","180488","0.0-170.0","""event"",""trial"",""time""
""fullscreenenter"",""0"",""1430""
","
","
","""event"",""trial"",""time""
""fullscreenenter"",""0"",""1430""
","
","null","run_exp/static/images/Set 6_rs/036a.jpg","null","","","","","","learn","SL",""
"","html-keyboard-response","171","180991","0.0-171.0","""event"",""trial"",""time""
""fullscreenenter"",""0"",""1430""
","
","
","""event"",""trial"",""time""
""fullscreenenter"",""0"",""1430""
","
","null","<p></p>","null","","","","","","","",""
"","image","172","182180","0.0-172.0","""event"",""trial"",""time""
""fullscreenenter"",""0"",""1430""
","
","
","""event"",""trial"",""time""
""fullscreenenter"",""0"",""1430""
","
","1188.199999999255","run_exp/static/images/Set 6_rs/076a.jpg","78","","","","","","learn","SR",""
"","show_choice","173","182996","0.0-173.0","""event"",""trial"",""time""
""fullscreenenter"",""0"",""1430""
","
","
","""event"",""trial"",""time""
""fullscreenenter"",""0"",""1430""
","
","null","run_exp/static/images/Set 6_rs/076a.jpg","null","","","","","","learn","SR",""
"","html-keyboard-response","174","183498","0.0-174.0","""event"",""trial"",""time""
""fullscreenenter"",""0"",""1430""
","
","
","""event"",""trial"",""time""
""fullscreenenter"",""0"",""1430""
","
","null","<p></p>","null","","","","","","","",""
"","image","175","185180","0.0-175.0","""event"",""trial"",""time""
""fullscreenenter"",""0"",""1430""
","
","
","""event"",""trial"",""time""
""fullscreenenter"",""0"",""1430""
","
","1680.7000000029802","run_exp/static/images/Set 6_rs/191a.jpg","78","","","","","","learn","SL",""
"","show_choice","176","185502","0.0-176.0","""event"",""trial"",""time""
""fullscreenenter"",""0"",""1430""
","
","
","""event"",""trial"",""time""
""fullscreenenter"",""0"",""1430""
","
","null","run_exp/static/images/Set 6_rs/191a.jpg","null","","","","","","learn","SL",""
"","html-keyboard-response","177","186009","0.0-177.0","""event"",""trial"",""time""
""fullscreenenter"",""0"",""1430""
","
","
","""event"",""trial"",""time""
""fullscreenenter"",""0"",""1430""
","
","null","<p></p>","null","","","","","","","",""
"","image","178","187263","0.0-178.0","""event"",""trial"",""time""
""fullscreenenter"",""0"",""1430""
","
","
","""event"",""trial"",""time""
""fullscreenenter"",""0"",""1430""
","
","1253","run_exp/static/images/Set 6_rs/132a.jpg","78","","","","","","learn","SR",""
"","show_choice","179","188011","0.0-179.0","""event"",""trial"",""time""
""fullscreenenter"",""0"",""1430""
","
","
","""event"",""trial"",""time""
""fullscreenenter"",""0"",""1430""
","
","null","run_exp/static/images/Set 6_rs/132a.jpg","null","","","","","","learn","SR",""
"","html-keyboard-response","180","188517","0.0-180.0","""event"",""trial"",""time""
""fullscreenenter"",""0"",""1430""
","
","
","""event"",""trial"",""time""
""fullscreenenter"",""0"",""1430""
","
","null","<p></p>","null","","","","","","","",""
"","image","181","189495","0.0-181.0","""event"",""trial"",""time""
""fullscreenenter"",""0"",""1430""
","
","
","""event"",""trial"",""time""
""fullscreenenter"",""0"",""1430""
","
","976.8000000007451","run_exp/static/images/Set 6_rs/063a.jpg","86","","","","","","learn","SR",""
"","show_choice","182","190519","0.0-182.0","""event"",""trial"",""time""
""fullscreenenter"",""0"",""1430""
","
","
","""event"",""trial"",""time""
""fullscreenenter"",""0"",""1430""
","
","null","run_exp/static/images/Set 6_rs/063a.jpg","null","","","","","","learn","SR",""
"","html-keyboard-response","183","191025","0.0-183.0","""event"",""trial"",""time""
""fullscreenenter"",""0"",""1430""
","
","
","""event"",""trial"",""time""
""fullscreenenter"",""0"",""1430""
","
","null","<p></p>","null","","","","","","","",""
"","image","184","191909","0.0-184.0","""event"",""trial"",""time""
""fullscreenenter"",""0"",""1430""
","
","
","""event"",""trial"",""time""
""fullscreenenter"",""0"",""1430""
","
","882.6000000014901","run_exp/static/images/Set 6_rs/023a.jpg","86","","","","","","learn","SR",""
"","show_choice","185","193032","0.0-185.0","""event"",""trial"",""time""
""fullscreenenter"",""0"",""1430""
","
","
","""event"",""trial"",""time""
""fullscreenenter"",""0"",""1430""
","
","null","run_exp/static/images/Set 6_rs/023a.jpg","null","","","","","","learn","SR",""
"","html-keyboard-response","186","193537","0.0-186.0","""event"",""trial"",""time""
""fullscreenenter"",""0"",""1430""
","
","
","""event"",""trial"",""time""
""fullscreenenter"",""0"",""1430""
","
","null","<p></p>","null","","","","","","","",""
"","image","187","194786","0.0-187.0","""event"",""trial"",""time""
""fullscreenenter"",""0"",""1430""
","
","
","""event"",""trial"",""time""
""fullscreenenter"",""0"",""1430""
","
","1246.9000000022352","run_exp/static/images/Set 6_rs/172a.jpg","78","","","","","","learn","SR",""
"","show_choice","188","195540","0.0-188.0","""event"",""trial"",""time""
""fullscreenenter"",""0"",""1430""
","
","
","""event"",""trial"",""time""
""fullscreenenter"",""0"",""1430""
","
","null","run_exp/static/images/Set 6_rs/172a.jpg","null","","","","","","learn","SR",""
"","html-keyboard-response","189","196046","0.0-189.0","""event"",""trial"",""time""
""fullscreenenter"",""0"",""1430""
","
","
","""event"",""trial"",""time""
""fullscreenenter"",""0"",""1430""
","
","null","<p></p>","null","","","","","","","",""
"","image","190","196998","0.0-190.0","""event"",""trial"",""time""
""fullscreenenter"",""0"",""1430""
","
","
","""event"",""trial"",""time""
""fullscreenenter"",""0"",""1430""
","
","950.5999999977648","run_exp/static/images/Set 6_rs/025a.jpg","78","","","","","","learn","SL",""
"","show_choice","191","198050","0.0-191.0","""event"",""trial"",""time""
""fullscreenenter"",""0"",""1430""
","
","
","""event"",""trial"",""time""
""fullscreenenter"",""0"",""1430""
","
","null","run_exp/static/images/Set 6_rs/025a.jpg","null","","","","","","learn","SL",""
"","html-keyboard-response","192","198556","0.0-192.0","""event"",""trial"",""time""
""fullscreenenter"",""0"",""1430""
","
","
","""event"",""trial"",""time""
""fullscreenenter"",""0"",""1430""
","
","null","<p></p>","null","","","","","","","",""
"","image","193","200563","0.0-193.0","""event"",""trial"",""time""
""fullscreenenter"",""0"",""1430""
","
","
","""event"",""trial"",""time""
""fullscreenenter"",""0"",""1430""
","
","null","run_exp/static/images/Set 6_rs/150a.jpg","null","","","","","","learn","SR",""
"","show_choice","194","202569","0.0-194.0","""event"",""trial"",""time""
""fullscreenenter"",""0"",""1430""
","
","
","""event"",""trial"",""time""
""fullscreenenter"",""0"",""1430""
","
","null","run_exp/static/images/blank.png","null","","","","","","learn","SR",""
"","html-keyboard-response","195","203070","0.0-195.0","""event"",""trial"",""time""
""fullscreenenter"",""0"",""1430""
","
","
","""event"",""trial"",""time""
""fullscreenenter"",""0"",""1430""
","
","null","<p></p>","null","","","","","","","",""
"","test_intro","196","240081","0.0-196.0","""event"",""trial"",""time""
""fullscreenenter"",""0"",""1430""
","
","
","""event"",""trial"",""time""
""fullscreenenter"",""0"",""1430""
","
","null","run_exp/static/audio/clip_2_memory.m4a","null","","","","","<div class='center'><p>Now, lets see how much you remember about the items you just saw.  For each item, you need to indicate if it was <b>old</b> by pressing the <b>v</b> key, <b>similar</b> by pressing the <b>b</b> key, or <b>new</b> by pressing the <b>n</b> key.</p><p>Old refers to an item that you saw before in the indoor/outdoor game that you just played, new refers to an item you have <b>not</b> seen before within the indoor/outdoor game, and similar refers to an item that is similar to an item youve seen before but is not exactly the same. </p><p>Before we begin, lets go over some brief demonstrations to make sure you understand.</p></div>","","",""
"","html-keyboard-response","197","241609","0.0-197.0","""event"",""trial"",""time""
""fullscreenenter"",""0"",""1430""
","
","
","""event"",""trial"",""time""
""fullscreenenter"",""0"",""1430""
","
","1527","<div class='center'><p>Now, lets see how much you remember about the items you just saw.  For each item, you need to indicate if it was <b>old</b> by pressing the <b>v</b> key, <b>similar</b> by pressing the <b>b</b> key, or <b>new</b> by pressing the <b>n</b> key.</p><p>Old refers to an item that you saw before in the indoor/outdoor game that you just played, new refers to an item you have <b>not</b> seen before within the indoor/outdoor game, and similar refers to an item that is similar to an item youve seen before but is not exactly the same. </p><p>Before we begin, lets go over some brief demonstrations to make sure you understand.</p><div><p><b>[Press the space bar to continue]</b></p></div>","32","","","","","","","",""
"","items","198","249113","0.0-198.0","""event"",""trial"",""time""
""fullscreenenter"",""0"",""1430""
","
","
","""event"",""trial"",""time""
""fullscreenenter"",""0"",""1430""
","
","null","run_exp/static/audio/clip_3_items.m4a","null","","","","","","","",""
"","mop","199","253618","0.0-199.0","""event"",""trial"",""time""
""fullscreenenter"",""0"",""1430""
","
","
","""event"",""trial"",""time""
""fullscreenenter"",""0"",""1430""
","
","null","run_exp/static/audio/clip_4_mop.m4a","null","","","","","","","",""
"","baseball","200","257124","0.0-200.0","""event"",""trial"",""time""
""fullscreenenter"",""0"",""1430""
","
","
","""event"",""trial"",""time""
""fullscreenenter"",""0"",""1430""
","
","null","run_exp/static/audio/clip_5_baseball.m4a","null","","","","","","","",""
"","trumpet","201","260630","0.0-201.0","""event"",""trial"",""time""
""fullscreenenter"",""0"",""1430""
","
","
","""event"",""trial"",""time""
""fullscreenenter"",""0"",""1430""
","
","null","run_exp/static/audio/clip_6_trumpet.m4a","null","","","","","","","",""
"","gummies","202","264132","0.0-202.0","""event"",""trial"",""time""
""fullscreenenter"",""0"",""1430""
","
","
","""event"",""trial"",""time""
""fullscreenenter"",""0"",""1430""
","
","null","run_exp/static/audio/clip_7_gummies.m4a","null","","","","","","","",""
"","osn","203","268634","0.0-203.0","""event"",""trial"",""time""
""fullscreenenter"",""0"",""1430""
","
","
","""event"",""trial"",""time""
""fullscreenenter"",""0"",""1430""
","
","null","run_exp/static/audio/clip_8_osn.m4a","null","","","","","","","",""
"","old_1","204","275139","0.0-204.0","""event"",""trial"",""time""
""fullscreenenter"",""0"",""1430""
","
","
","""event"",""trial"",""time""
""fullscreenenter"",""0"",""1430""
","
","null","run_exp/static/audio/clip_9_old_trumpet.m4a","null","","","","","","","",""
"","new_1","205","282644","0.0-205.0","""event"",""trial"",""time""
""fullscreenenter"",""0"",""1430""
","
","
","""event"",""trial"",""time""
""fullscreenenter"",""0"",""1430""
","
","null","run_exp/static/audio/clip_10_new_balloon.m4a","null","","","","","","","",""
"","similar_1a","206","287148","0.0-206.0","""event"",""trial"",""time""
""fullscreenenter"",""0"",""1430""
","
","
","""event"",""trial"",""time""
""fullscreenenter"",""0"",""1430""
","
","null","run_exp/static/audio/clip_11a_similar_mop.m4a","null","","","","","","","",""
"","similar_1b","207","293651","0.0-207.0","""event"",""trial"",""time""
""fullscreenenter"",""0"",""1430""
","
","
","""event"",""trial"",""time""
""fullscreenenter"",""0"",""1430""
","
","null","run_exp/static/audio/clip_11b_similar_mop.m4a","null","","","","","","","",""
"","new_2","208","297156","0.0-208.0","""event"",""trial"",""time""
""fullscreenenter"",""0"",""1430""
","
","
","""event"",""trial"",""time""
""fullscreenenter"",""0"",""1430""
","
","null","run_exp/static/audio/clip_12_new_stoplight.m4a","null","","","","","","","",""
"","old_2","209","300659","0.0-209.0","""event"",""trial"",""time""
""fullscreenenter"",""0"",""1430""
","
","
","""event"",""trial"",""time""
""fullscreenenter"",""0"",""1430""
","
","null","run_exp/static/audio/clip_13_old_baseball.m4a","null","","","","","","","",""
"","similar_2a","210","304163","0.0-210.0","""event"",""trial"",""time""
""fullscreenenter"",""0"",""1430""
","
","
","""event"",""trial"",""time""
""fullscreenenter"",""0"",""1430""
","
","null","run_exp/static/audio/clip_14a_similar_gummies.m4a","null","","","","","","","",""
"","similar_2b","211","311669","0.0-211.0","""event"",""trial"",""time""
""fullscreenenter"",""0"",""1430""
","
","
","""event"",""trial"",""time""
""fullscreenenter"",""0"",""1430""
","
","null","run_exp/static/audio/clip_14b_similar_gummies.m4a","null","","","","","","","",""
"","practice","212","353792","0.0-212.0","""event"",""trial"",""time""
""fullscreenenter"",""0"",""1430""
","
","
","""event"",""trial"",""time""
""fullscreenenter"",""0"",""1430""
","
","null","run_exp/static/audio/clip_15_practice.m4a","null","","","","","<div class='center'><p>Lets practice a little to make sure you understand the difference between new, similar, and old. Lets say you saw these three items in the indoor/outdoor game.</p><p> Try your best to remember these images because youll soon be tested on them in a practice game. In the practice game, youll be shown images and youll have to say if they are old (one of the three images belows), similar (similar to one of the images below but not exactly the same), or new (are not one of the images below nor similar to them).</p><p>Once you press the space bar youll be shown these images again but one at time. Then youll begin the practice game.</p><p><img src='run_exp/static/images/tutorial/test/three_indoor_outdoor.png' height='300'></p></div>","","",""
"","html-keyboard-response","213","355550","0.0-213.0","""event"",""trial"",""time""
""fullscreenenter"",""0"",""1430""
","
","
","""event"",""trial"",""time""
""fullscreenenter"",""0"",""1430""
","
","1755.699999999255","<div class='center'><p>Lets practice a little to make sure you understand the difference between new, similar, and old. Lets say you saw these three items in the indoor/outdoor game.</p><p> Try your best to remember these images because youll soon be tested on them in a practice game. In the practice game, youll be shown images and youll have to say if they are old (one of the three images belows), similar (similar to one of the images below but not exactly the same), or new (are not one of the images below nor similar to them).</p><p>Once you press the space bar youll be shown these images again but one at time. Then youll begin the practice game.</p><p><img src='run_exp/static/images/tutorial/test/three_indoor_outdoor.png' height='300'></p><div><p><b>[Press the space bar to continue]</b></p></div>","32","","","","","","","",""
"","planet","214","357553","0.0-214.0","""event"",""trial"",""time""
""fullscreenenter"",""0"",""1430""
","
","
","""event"",""trial"",""time""
""fullscreenenter"",""0"",""1430""
","
","null","run_exp/static/images/tutorial/test/008a.jpg","null","","","","","","","",""
"","boot","215","359558","0.0-215.0","""event"",""trial"",""time""
""fullscreenenter"",""0"",""1430""
","
","
","""event"",""trial"",""time""
""fullscreenenter"",""0"",""1430""
","
","null","run_exp/static/images/tutorial/test/011a.jpg","null","","","","","","","",""
"","lemon","216","361560","0.0-216.0","""event"",""trial"",""time""
""fullscreenenter"",""0"",""1430""
","
","
","""event"",""trial"",""time""
""fullscreenenter"",""0"",""1430""
","
","null","run_exp/static/images/tutorial/test/018a.jpg","null","","","","","","","",""
"","practice_q1","217","367184","0.0-217.0","""event"",""trial"",""time""
""fullscreenenter"",""0"",""1430""
","
","
","""event"",""trial"",""time""
""fullscreenenter"",""0"",""1430""
","
","5622.300000000745","run_exp/static/audio/clip_16_practice_question.m4a","78","","","","","","","",""
"","correct","218","369071","0.0-218.0-0.0","""event"",""trial"",""time""
""fullscreenenter"",""0"",""1430""
","
","
","""event"",""trial"",""time""
""fullscreenenter"",""0"",""1430""
","
","null","run_exp/static/audio/clip_17_correct.m4a","null","","","","","<div class='center'><p>That's correct!</p></div>","","",""
"","html-keyboard-response","219","370873","0.0-218.0-1.0","""event"",""trial"",""time""
""fullscreenenter"",""0"",""1430""
","
","
","""event"",""trial"",""time""
""fullscreenenter"",""0"",""1430""
","
","1801.4000000022352","<div class='center'><p>That's correct!</p><div><p><b>[Press the space bar to continue]</b></p></div>","32","","","","","","","",""
"","practice_q2","220","372290","0.0-218.0-2.0","""event"",""trial"",""time""
""fullscreenenter"",""0"",""1430""
","
","
","""event"",""trial"",""time""
""fullscreenenter"",""0"",""1430""
","
","1416.300000000745","run_exp/static/audio/clip_16_practice_question.m4a","86","","","","","","","",""
"","correct","221","374155","0.0-219.0-0.0","""event"",""trial"",""time""
""fullscreenenter"",""0"",""1430""
","
","
","""event"",""trial"",""time""
""fullscreenenter"",""0"",""1430""
","
","null","run_exp/static/audio/clip_17_correct.m4a","null","","","","","<div class='center'><p>That's correct!</p></div>","","",""
"","html-keyboard-response","222","374968","0.0-219.0-1.0","""event"",""trial"",""time""
""fullscreenenter"",""0"",""1430""
","
","
","""event"",""trial"",""time""
""fullscreenenter"",""0"",""1430""
","
","811.5999999977648","<div class='center'><p>That's correct!</p><div><p><b>[Press the space bar to continue]</b></p></div>","32","","","","","","","",""
"","practice_q3","223","376690","0.0-219.0-2.0","""event"",""trial"",""time""
""fullscreenenter"",""0"",""1430""
","
","
","""event"",""trial"",""time""
""fullscreenenter"",""0"",""1430""
","
","1720.9000000022352","run_exp/static/audio/clip_16_practice_question.m4a","66","","","","","","","",""
"","correct","224","378684","0.0-220.0-0.0","""event"",""trial"",""time""
""fullscreenenter"",""0"",""1430""
","
","
","""event"",""trial"",""time""
""fullscreenenter"",""0"",""1430""
","
","null","run_exp/static/audio/clip_17_correct.m4a","null","","","","","<div class='center'><p>That's correct!</p></div>","","",""
"","html-keyboard-response","225","379575","0.0-220.0-1.0","""event"",""trial"",""time""
""fullscreenenter"",""0"",""1430""
","
","
","""event"",""trial"",""time""
""fullscreenenter"",""0"",""1430""
","
","890.1000000014901","<div class='center'><p>That's correct!</p><div><p><b>[Press the space bar to continue]</b></p></div>","32","","","","","","","",""
"","begin_text","226","398050","0.0-221.0-0.0","""event"",""trial"",""time""
""fullscreenenter"",""0"",""1430""
","
","
","""event"",""trial"",""time""
""fullscreenenter"",""0"",""1430""
","
","null","run_exp/static/audio/clip_22_begin_test.m4a","null","","","","","<div class='center'><p>On to the real game where well test your memory of items from the indoor/outdoor game. For each item, you need to indicate if the item is <b>old</b> by pressing the <b>v</b> key, <b>similar</b> by pressing the <b>b</b> key, or <b>new</b> by pressing the <b>n</b> key. </p></div>","","",""
"","html-keyboard-response","227","399198","0.0-221.0-1.0","""event"",""trial"",""time""
""fullscreenenter"",""0"",""1430""
","
","
","""event"",""trial"",""time""
""fullscreenenter"",""0"",""1430""
","
","1147.3999999985099","<div class='center'><p>On to the real game where well test your memory of items from the indoor/outdoor game. For each item, you need to indicate if the item is <b>old</b> by pressing the <b>v</b> key, <b>similar</b> by pressing the <b>b</b> key, or <b>new</b> by pressing the <b>n</b> key. </p><div><p><b>[Press the space bar to continue]</b></p></div>","32","","","","","","","",""
"","image","228","402200","0.0-222.0-0.0","""event"",""trial"",""time""
""fullscreenenter"",""0"",""1430""
","
","
","""event"",""trial"",""time""
""fullscreenenter"",""0"",""1430""
","
","null","run_exp/static/images/Set 6_rs/005a.jpg","null","","","","","","test","TF","5"
"","show_choice","229","402707","0.0-222.0-1.0","""event"",""trial"",""time""
""fullscreenenter"",""0"",""1430""
","
","
","""event"",""trial"",""time""
""fullscreenenter"",""0"",""1430""
","
","null","run_exp/static/images/Set 6_rs/005a.jpg","null","","","","","","test","TF",""
"","html-keyboard-response","230","403209","0.0-222.0-2.0","""event"",""trial"",""time""
""fullscreenenter"",""0"",""1430""
","
","
","""event"",""trial"",""time""
""fullscreenenter"",""0"",""1430""
","
","null","<p></p>","null","","","","","","","",""
"","image","231","404862","0.0-223.0-0.0","""event"",""trial"",""time""
""fullscreenenter"",""0"",""1430""
","
","
","""event"",""trial"",""time""
""fullscreenenter"",""0"",""1430""
","
","1652","run_exp/static/images/Set 6_rs/078a.jpg","78","","","","","","test","TF","1"
"","show_choice","232","405367","0.0-223.0-1.0","""event"",""trial"",""time""
""fullscreenenter"",""0"",""1430""
","
","
","""event"",""trial"",""time""
""fullscreenenter"",""0"",""1430""
","
","null","run_exp/static/images/Set 6_rs/078a.jpg","null","","","","","","test","TF",""
"","html-keyboard-response","233","405868","0.0-223.0-2.0","""event"",""trial"",""time""
""fullscreenenter"",""0"",""1430""
","
","
","""event"",""trial"",""time""
""fullscreenenter"",""0"",""1430""
","
","null","<p></p>","null","","","","","","","",""
"","image","234","407914","0.0-224.0-0.0","""event"",""trial"",""time""
""fullscreenenter"",""0"",""1430""
","
","
","""event"",""trial"",""time""
""fullscreenenter"",""0"",""1430""
","
","2044.199999999255","run_exp/static/images/Set 6_rs/167b.jpg","66","","","","","","test","TL","2"
"","show_choice","235","408415","0.0-224.0-1.0","""event"",""trial"",""time""
""fullscreenenter"",""0"",""1430""
","
","
","""event"",""trial"",""time""
""fullscreenenter"",""0"",""1430""
","
","null","run_exp/static/images/Set 6_rs/167b.jpg","null","","","","","","test","TL",""
"","html-keyboard-response","236","408920","0.0-224.0-2.0","""event"",""trial"",""time""
""fullscreenenter"",""0"",""1430""
","
","
","""event"",""trial"",""time""
""fullscreenenter"",""0"",""1430""
","
","null","<p></p>","null","","","","","","","",""
"","image","237","410147","0.0-225.0-0.0","""event"",""trial"",""time""
""fullscreenenter"",""0"",""1430""
","
","
","""event"",""trial"",""time""
""fullscreenenter"",""0"",""1430""
","
","1226.5","run_exp/static/images/Set 6_rs/006b.jpg","86","","","","","","test","TL","2"
"","show_choice","238","410653","0.0-225.0-1.0","""event"",""trial"",""time""
""fullscreenenter"",""0"",""1430""
","
","
","""event"",""trial"",""time""
""fullscreenenter"",""0"",""1430""
","
","null","run_exp/static/images/Set 6_rs/006b.jpg","null","","","","","","test","TL",""
"","html-keyboard-response","239","411159","0.0-225.0-2.0","""event"",""trial"",""time""
""fullscreenenter"",""0"",""1430""
","
","
","""event"",""trial"",""time""
""fullscreenenter"",""0"",""1430""
","
","null","<p></p>","null","","","","","","","",""
"","image","240","412459","0.0-226.0-0.0","""event"",""trial"",""time""
""fullscreenenter"",""0"",""1430""
","
","
","""event"",""trial"",""time""
""fullscreenenter"",""0"",""1430""
","
","1298.1000000014901","run_exp/static/images/Set 6_rs/057b.jpg","86","","","","","","test","TL","1"
"","show_choice","241","412962","0.0-226.0-1.0","""event"",""trial"",""time""
""fullscreenenter"",""0"",""1430""
","
","
","""event"",""trial"",""time""
""fullscreenenter"",""0"",""1430""
","
","null","run_exp/static/images/Set 6_rs/057b.jpg","null","","","","","","test","TL",""
"","html-keyboard-response","242","413464","0.0-226.0-2.0","""event"",""trial"",""time""
""fullscreenenter"",""0"",""1430""
","
","
","""event"",""trial"",""time""
""fullscreenenter"",""0"",""1430""
","
","null","<p></p>","null","","","","","","","",""
"","image","243","414365","0.0-227.0-0.0","""event"",""trial"",""time""
""fullscreenenter"",""0"",""1430""
","
","
","""event"",""trial"",""time""
""fullscreenenter"",""0"",""1430""
","
","899.5","run_exp/static/images/Set 6_rs/152a.jpg","86","","","","","","test","TR","2"
"","show_choice","244","414866","0.0-227.0-1.0","""event"",""trial"",""time""
""fullscreenenter"",""0"",""1430""
","
","
","""event"",""trial"",""time""
""fullscreenenter"",""0"",""1430""
","
","null","run_exp/static/images/Set 6_rs/152a.jpg","null","","","","","","test","TR",""
"","html-keyboard-response","245","415370","0.0-227.0-2.0","""event"",""trial"",""time""
""fullscreenenter"",""0"",""1430""
","
","
","""event"",""trial"",""time""
""fullscreenenter"",""0"",""1430""
","
","null","<p></p>","null","","","","","","","",""
"","image","246","417365","0.0-228.0-0.0","""event"",""trial"",""time""
""fullscreenenter"",""0"",""1430""
","
","
","""event"",""trial"",""time""
""fullscreenenter"",""0"",""1430""
","
","1994.2999999970198","run_exp/static/images/Set 6_rs/187a.jpg","86","","","","","","test","TR","3"
"","show_choice","247","417870","0.0-228.0-1.0","""event"",""trial"",""time""
""fullscreenenter"",""0"",""1430""
","
","
","""event"",""trial"",""time""
""fullscreenenter"",""0"",""1430""
","
","null","run_exp/static/images/Set 6_rs/187a.jpg","null","","","","","","test","TR",""
"","html-keyboard-response","248","418371","0.0-228.0-2.0","""event"",""trial"",""time""
""fullscreenenter"",""0"",""1430""
","
","
","""event"",""trial"",""time""
""fullscreenenter"",""0"",""1430""
","
","null","<p></p>","null","","","","","","","",""
"","image","249","420135","0.0-229.0-0.0","""event"",""trial"",""time""
""fullscreenenter"",""0"",""1430""
","
","
","""event"",""trial"",""time""
""fullscreenenter"",""0"",""1430""
","
","1763.6000000014901","run_exp/static/images/Set 6_rs/144b.jpg","66","","","","","","test","TL","4"
"","show_choice","250","420637","0.0-229.0-1.0","""event"",""trial"",""time""
""fullscreenenter"",""0"",""1430""
","
","
","""event"",""trial"",""time""
""fullscreenenter"",""0"",""1430""
","
","null","run_exp/static/images/Set 6_rs/144b.jpg","null","","","","","","test","TL",""
"","html-keyboard-response","251","421140","0.0-229.0-2.0","""event"",""trial"",""time""
""fullscreenenter"",""0"",""1430""
","
","
","""event"",""trial"",""time""
""fullscreenenter"",""0"",""1430""
","
","null","<p></p>","null","","","","","","","",""
"","image","252","422656","0.0-230.0-0.0","""event"",""trial"",""time""
""fullscreenenter"",""0"",""1430""
","
","
","""event"",""trial"",""time""
""fullscreenenter"",""0"",""1430""
","
","1514.699999999255","run_exp/static/images/Set 6_rs/061a.jpg","66","","","","","","test","TR","5"
"","show_choice","253","423162","0.0-230.0-1.0","""event"",""trial"",""time""
""fullscreenenter"",""0"",""1430""
","
","
","""event"",""trial"",""time""
""fullscreenenter"",""0"",""1430""
","
","null","run_exp/static/images/Set 6_rs/061a.jpg","null","","","","","","test","TR",""
"","html-keyboard-response","254","423663","0.0-230.0-2.0","""event"",""trial"",""time""
""fullscreenenter"",""0"",""1430""
","
","
","""event"",""trial"",""time""
""fullscreenenter"",""0"",""1430""
","
","null","<p></p>","null","","","","","","","",""
"","image","255","425054","0.0-231.0-0.0","""event"",""trial"",""time""
""fullscreenenter"",""0"",""1430""
","
","
","""event"",""trial"",""time""
""fullscreenenter"",""0"",""1430""
","
","1390.300000000745","run_exp/static/images/Set 6_rs/064a.jpg","86","","","","","","test","TR","5"
"","show_choice","256","425560","0.0-231.0-1.0","""event"",""trial"",""time""
""fullscreenenter"",""0"",""1430""
","
","
","""event"",""trial"",""time""
""fullscreenenter"",""0"",""1430""
","
","null","run_exp/static/images/Set 6_rs/064a.jpg","null","","","","","","test","TR",""
"","html-keyboard-response","257","426066","0.0-231.0-2.0","""event"",""trial"",""time""
""fullscreenenter"",""0"",""1430""
","
","
","""event"",""trial"",""time""
""fullscreenenter"",""0"",""1430""
","
","null","<p></p>","null","","","","","","","",""
"","image","258","426916","0.0-232.0-0.0","""event"",""trial"",""time""
""fullscreenenter"",""0"",""1430""
","
","
","""event"",""trial"",""time""
""fullscreenenter"",""0"",""1430""
","
","848.7999999970198","run_exp/static/images/Set 6_rs/172a.jpg","86","","","","","","test","TR","1"
"","show_choice","259","427417","0.0-232.0-1.0","""event"",""trial"",""time""
""fullscreenenter"",""0"",""1430""
","
","
","""event"",""trial"",""time""
""fullscreenenter"",""0"",""1430""
","
","null","run_exp/static/images/Set 6_rs/172a.jpg","null","","","","","","test","TR",""
"","html-keyboard-response","260","427923","0.0-232.0-2.0","""event"",""trial"",""time""
""fullscreenenter"",""0"",""1430""
","
","
","""event"",""trial"",""time""
""fullscreenenter"",""0"",""1430""
","
","null","<p></p>","null","","","","","","","",""
"","image","261","428910","0.0-233.0-0.0","""event"",""trial"",""time""
""fullscreenenter"",""0"",""1430""
","
","
","""event"",""trial"",""time""
""fullscreenenter"",""0"",""1430""
","
","985.6999999992549","run_exp/static/images/Set 6_rs/019b.jpg","66","","","","","","test","TL","2"
"","show_choice","262","429415","0.0-233.0-1.0","""event"",""trial"",""time""
""fullscreenenter"",""0"",""1430""
","
","
","""event"",""trial"",""time""
""fullscreenenter"",""0"",""1430""
","
","null","run_exp/static/images/Set 6_rs/019b.jpg","null","","","","","","test","TL",""
"","html-keyboard-response","263","429916","0.0-233.0-2.0","""event"",""trial"",""time""
""fullscreenenter"",""0"",""1430""
","
","
","""event"",""trial"",""time""
""fullscreenenter"",""0"",""1430""
","
","null","<p></p>","null","","","","","","","",""
"","image","264","431056","0.0-234.0-0.0","""event"",""trial"",""time""
""fullscreenenter"",""0"",""1430""
","
","
","""event"",""trial"",""time""
""fullscreenenter"",""0"",""1430""
","
","1138.9000000022352","run_exp/static/images/Set 6_rs/138b.jpg","86","","","","","","test","TL","1"
"","show_choice","265","431561","0.0-234.0-1.0","""event"",""trial"",""time""
""fullscreenenter"",""0"",""1430""
","
","
","""event"",""trial"",""time""
""fullscreenenter"",""0"",""1430""
","
","null","run_exp/static/images/Set 6_rs/138b.jpg","null","","","","","","test","TL",""
"","html-keyboard-response","266","432068","0.0-234.0-2.0","""event"",""trial"",""time""
""fullscreenenter"",""0"",""1430""
","
","
","""event"",""trial"",""time""
""fullscreenenter"",""0"",""1430""
","
","null","<p></p>","null","","","","","","","",""
"","image","267","434624","0.0-235.0-0.0","""event"",""trial"",""time""
""fullscreenenter"",""0"",""1430""
","
","
","""event"",""trial"",""time""
""fullscreenenter"",""0"",""1430""
","
","2554.400000002235","run_exp/static/images/Set 6_rs/149a.jpg","66","","","","","","test","TF","1"
"","show_choice","268","435129","0.0-235.0-1.0","""event"",""trial"",""time""
""fullscreenenter"",""0"",""1430""
","
","
","""event"",""trial"",""time""
""fullscreenenter"",""0"",""1430""
","
","null","run_exp/static/images/Set 6_rs/149a.jpg","null","","","","","","test","TF",""
"","html-keyboard-response","269","435631","0.0-235.0-2.0","""event"",""trial"",""time""
""fullscreenenter"",""0"",""1430""
","
","
","""event"",""trial"",""time""
""fullscreenenter"",""0"",""1430""
","
","null","<p></p>","null","","","","","","","",""
"","image","270","436816","0.0-236.0-0.0","""event"",""trial"",""time""
""fullscreenenter"",""0"",""1430""
","
","
","""event"",""trial"",""time""
""fullscreenenter"",""0"",""1430""
","
","1184.6000000014901","run_exp/static/images/Set 6_rs/140a.jpg","78","","","","","","test","TF","1"
"","show_choice","271","437319","0.0-236.0-1.0","""event"",""trial"",""time""
""fullscreenenter"",""0"",""1430""
","
","
","""event"",""trial"",""time""
""fullscreenenter"",""0"",""1430""
","
","null","run_exp/static/images/Set 6_rs/140a.jpg","null","","","","","","test","TF",""
"","html-keyboard-response","272","437820","0.0-236.0-2.0","""event"",""trial"",""time""
""fullscreenenter"",""0"",""1430""
","
","
","""event"",""trial"",""time""
""fullscreenenter"",""0"",""1430""
","
","null","<p></p>","null","","","","","","","",""
"","image","273","439329","0.0-237.0-0.0","""event"",""trial"",""time""
""fullscreenenter"",""0"",""1430""
","
","
","""event"",""trial"",""time""
""fullscreenenter"",""0"",""1430""
","
","1507.4000000022352","run_exp/static/images/Set 6_rs/134a.jpg","86","","","","","","test","TR","3"
"","show_choice","274","439834","0.0-237.0-1.0","""event"",""trial"",""time""
""fullscreenenter"",""0"",""1430""
","
","
","""event"",""trial"",""time""
""fullscreenenter"",""0"",""1430""
","
","null","run_exp/static/images/Set 6_rs/134a.jpg","null","","","","","","test","TR",""
"","html-keyboard-response","275","440335","0.0-237.0-2.0","""event"",""trial"",""time""
""fullscreenenter"",""0"",""1430""
","
","
","""event"",""trial"",""time""
""fullscreenenter"",""0"",""1430""
","
","null","<p></p>","null","","","","","","","",""
"","image","276","441287","0.0-238.0-0.0","""event"",""trial"",""time""
""fullscreenenter"",""0"",""1430""
","
","
","""event"",""trial"",""time""
""fullscreenenter"",""0"",""1430""
","
","950.1999999992549","run_exp/static/images/Set 6_rs/112a.jpg","86","","","","","","test","TR","5"
"","show_choice","277","441792","0.0-238.0-1.0","""event"",""trial"",""time""
""fullscreenenter"",""0"",""1430""
","
","
","""event"",""trial"",""time""
""fullscreenenter"",""0"",""1430""
","
","null","run_exp/static/images/Set 6_rs/112a.jpg","null","","","","","","test","TR",""
"","html-keyboard-response","278","442295","0.0-238.0-2.0","""event"",""trial"",""time""
""fullscreenenter"",""0"",""1430""
","
","
","""event"",""trial"",""time""
""fullscreenenter"",""0"",""1430""
","
","null","<p></p>","null","","","","","","","",""
"","image","279","443639","0.0-239.0-0.0","""event"",""trial"",""time""
""fullscreenenter"",""0"",""1430""
","
","
","""event"",""trial"",""time""
""fullscreenenter"",""0"",""1430""
","
","1342.1000000014901","run_exp/static/images/Set 6_rs/097a.jpg","78","","","","","","test","TF","5"
"","show_choice","280","444140","0.0-239.0-1.0","""event"",""trial"",""time""
""fullscreenenter"",""0"",""1430""
","
","
","""event"",""trial"",""time""
""fullscreenenter"",""0"",""1430""
","
","null","run_exp/static/images/Set 6_rs/097a.jpg","null","","","","","","test","TF",""
"","html-keyboard-response","281","444646","0.0-239.0-2.0","""event"",""trial"",""time""
""fullscreenenter"",""0"",""1430""
","
","
","""event"",""trial"",""time""
""fullscreenenter"",""0"",""1430""
","
","null","<p></p>","null","","","","","","","",""
"","image","282","446170","0.0-240.0-0.0","""event"",""trial"",""time""
""fullscreenenter"",""0"",""1430""
","
","
","""event"",""trial"",""time""
""fullscreenenter"",""0"",""1430""
","
","1523.199999999255","run_exp/static/images/Set 6_rs/191b.jpg","66","","","","","","test","TL","2"
"","show_choice","283","446675","0.0-240.0-1.0","""event"",""trial"",""time""
""fullscreenenter"",""0"",""1430""
","
","
","""event"",""trial"",""time""
""fullscreenenter"",""0"",""1430""
","
","null","run_exp/static/images/Set 6_rs/191b.jpg","null","","","","","","test","TL",""
"","html-keyboard-response","284","447177","0.0-240.0-2.0","""event"",""trial"",""time""
""fullscreenenter"",""0"",""1430""
","
","
","""event"",""trial"",""time""
""fullscreenenter"",""0"",""1430""
","
","null","<p></p>","null","","","","","","","",""
"","image","285","449147","0.0-241.0-0.0","""event"",""trial"",""time""
""fullscreenenter"",""0"",""1430""
","
","
","""event"",""trial"",""time""
""fullscreenenter"",""0"",""1430""
","
","1968.5999999977648","run_exp/static/images/Set 6_rs/109a.jpg","78","","","","","","test","TF","5"
"","show_choice","286","449649","0.0-241.0-1.0","""event"",""trial"",""time""
""fullscreenenter"",""0"",""1430""
","
","
","""event"",""trial"",""time""
""fullscreenenter"",""0"",""1430""
","
","null","run_exp/static/images/Set 6_rs/109a.jpg","null","","","","","","test","TF",""
"","html-keyboard-response","287","450152","0.0-241.0-2.0","""event"",""trial"",""time""
""fullscreenenter"",""0"",""1430""
","
","
","""event"",""trial"",""time""
""fullscreenenter"",""0"",""1430""
","
","null","<p></p>","null","","","","","","","",""
"","image","288","451434","0.0-242.0-0.0","""event"",""trial"",""time""
""fullscreenenter"",""0"",""1430""
","
","
","""event"",""trial"",""time""
""fullscreenenter"",""0"",""1430""
","
","1279.4000000022352","run_exp/static/images/Set 6_rs/188a.jpg","78","","","","","","test","TF","3"
"","show_choice","289","451935","0.0-242.0-1.0","""event"",""trial"",""time""
""fullscreenenter"",""0"",""1430""
","
","
","""event"",""trial"",""time""
""fullscreenenter"",""0"",""1430""
","
","null","run_exp/static/images/Set 6_rs/188a.jpg","null","","","","","","test","TF",""
"","html-keyboard-response","290","452439","0.0-242.0-2.0","""event"",""trial"",""time""
""fullscreenenter"",""0"",""1430""
","
","
","""event"",""trial"",""time""
""fullscreenenter"",""0"",""1430""
","
","null","<p></p>","null","","","","","","","",""
"","image","291","453396","0.0-243.0-0.0","""event"",""trial"",""time""
""fullscreenenter"",""0"",""1430""
","
","
","""event"",""trial"",""time""
""fullscreenenter"",""0"",""1430""
","
","956.4000000022352","run_exp/static/images/Set 6_rs/066b.jpg","78","","","","","","test","TL","5"
"","show_choice","292","453902","0.0-243.0-1.0","""event"",""trial"",""time""
""fullscreenenter"",""0"",""1430""
","
","
","""event"",""trial"",""time""
""fullscreenenter"",""0"",""1430""
","
","null","run_exp/static/images/Set 6_rs/066b.jpg","null","","","","","","test","TL",""
"","html-keyboard-response","293","454403","0.0-243.0-2.0","""event"",""trial"",""time""
""fullscreenenter"",""0"",""1430""
","
","
","""event"",""trial"",""time""
""fullscreenenter"",""0"",""1430""
","
","null","<p></p>","null","","","","","","","",""
"","image","294","456061","0.0-244.0-0.0","""event"",""trial"",""time""
""fullscreenenter"",""0"",""1430""
","
","
","""event"",""trial"",""time""
""fullscreenenter"",""0"",""1430""
","
","1657.5999999977648","run_exp/static/images/Set 6_rs/121a.jpg","66","","","","","","test","TR","4"
"","show_choice","295","456566","0.0-244.0-1.0","""event"",""trial"",""time""
""fullscreenenter"",""0"",""1430""
","
","
","""event"",""trial"",""time""
""fullscreenenter"",""0"",""1430""
","
","null","run_exp/static/images/Set 6_rs/121a.jpg","null","","","","","","test","TR",""
"","html-keyboard-response","296","457067","0.0-244.0-2.0","""event"",""trial"",""time""
""fullscreenenter"",""0"",""1430""
","
","
","""event"",""trial"",""time""
""fullscreenenter"",""0"",""1430""
","
","null","<p></p>","null","","","","","","","",""
"","image","297","458067","0.0-245.0-0.0","""event"",""trial"",""time""
""fullscreenenter"",""0"",""1430""
","
","
","""event"",""trial"",""time""
""fullscreenenter"",""0"",""1430""
","
","998.9000000022352","run_exp/static/images/Set 6_rs/190a.jpg","78","","","","","","test","TF","3"
"","show_choice","298","458568","0.0-245.0-1.0","""event"",""trial"",""time""
""fullscreenenter"",""0"",""1430""
","
","
","""event"",""trial"",""time""
""fullscreenenter"",""0"",""1430""
","
","null","run_exp/static/images/Set 6_rs/190a.jpg","null","","","","","","test","TF",""
"","html-keyboard-response","299","459074","0.0-245.0-2.0","""event"",""trial"",""time""
""fullscreenenter"",""0"",""1430""
","
","
","""event"",""trial"",""time""
""fullscreenenter"",""0"",""1430""
","
","null","<p></p>","null","","","","","","","",""
"","image","300","460204","0.0-246.0-0.0","""event"",""trial"",""time""
""fullscreenenter"",""0"",""1430""
","
","
","""event"",""trial"",""time""
""fullscreenenter"",""0"",""1430""
","
","1129.0999999977648","run_exp/static/images/Set 6_rs/116b.jpg","66","","","","","","test","TL","2"
"","show_choice","301","460707","0.0-246.0-1.0","""event"",""trial"",""time""
""fullscreenenter"",""0"",""1430""
","
","
","""event"",""trial"",""time""
""fullscreenenter"",""0"",""1430""
","
","null","run_exp/static/images/Set 6_rs/116b.jpg","null","","","","","","test","TL",""
"","html-keyboard-response","302","461209","0.0-246.0-2.0","""event"",""trial"",""time""
""fullscreenenter"",""0"",""1430""
","
","
","""event"",""trial"",""time""
""fullscreenenter"",""0"",""1430""
","
","null","<p></p>","null","","","","","","","",""
"","image","303","462285","0.0-247.0-0.0","""event"",""trial"",""time""
""fullscreenenter"",""0"",""1430""
","
","
","""event"",""trial"",""time""
""fullscreenenter"",""0"",""1430""
","
","1075.5","run_exp/static/images/Set 6_rs/052a.jpg","78","","","","","","test","TF","1"
"","show_choice","304","462788","0.0-247.0-1.0","""event"",""trial"",""time""
""fullscreenenter"",""0"",""1430""
","
","
","""event"",""trial"",""time""
""fullscreenenter"",""0"",""1430""
","
","null","run_exp/static/images/Set 6_rs/052a.jpg","null","","","","","","test","TF",""
"","html-keyboard-response","305","463291","0.0-247.0-2.0","""event"",""trial"",""time""
""fullscreenenter"",""0"",""1430""
","
","
","""event"",""trial"",""time""
""fullscreenenter"",""0"",""1430""
","
","null","<p></p>","null","","","","","","","",""
"","image","306","464550","0.0-248.0-0.0","""event"",""trial"",""time""
""fullscreenenter"",""0"",""1430""
","
","
","""event"",""trial"",""time""
""fullscreenenter"",""0"",""1430""
","
","1258","run_exp/static/images/Set 6_rs/126a.jpg","86","","","","","","test","TR","2"
"","show_choice","307","465055","0.0-248.0-1.0","""event"",""trial"",""time""
""fullscreenenter"",""0"",""1430""
","
","
","""event"",""trial"",""time""
""fullscreenenter"",""0"",""1430""
","
","null","run_exp/static/images/Set 6_rs/126a.jpg","null","","","","","","test","TR",""
"","html-keyboard-response","308","465557","0.0-248.0-2.0","""event"",""trial"",""time""
""fullscreenenter"",""0"",""1430""
","
","
","""event"",""trial"",""time""
""fullscreenenter"",""0"",""1430""
","
","null","<p></p>","null","","","","","","","",""
"","image","309","466855","0.0-249.0-0.0","""event"",""trial"",""time""
""fullscreenenter"",""0"",""1430""
","
","
","""event"",""trial"",""time""
""fullscreenenter"",""0"",""1430""
","
","1296.4000000022352","run_exp/static/images/Set 6_rs/017b.jpg","66","","","","","","test","TL","3"
"","show_choice","310","467364","0.0-249.0-1.0","""event"",""trial"",""time""
""fullscreenenter"",""0"",""1430""
","
","
","""event"",""trial"",""time""
""fullscreenenter"",""0"",""1430""
","
","null","run_exp/static/images/Set 6_rs/017b.jpg","null","","","","","","test","TL",""
"","html-keyboard-response","311","467870","0.0-249.0-2.0","""event"",""trial"",""time""
""fullscreenenter"",""0"",""1430""
","
","
","""event"",""trial"",""time""
""fullscreenenter"",""0"",""1430""
","
","null","<p></p>","null","","","","","","","",""
"","image","312","469767","0.0-250.0-0.0","""event"",""trial"",""time""
""fullscreenenter"",""0"",""1430""
","
","
","""event"",""trial"",""time""
""fullscreenenter"",""0"",""1430""
","
","1895.8999999985099","run_exp/static/images/Set 6_rs/024a.jpg","66","","","","","","test","TR","5"
"","show_choice","313","470270","0.0-250.0-1.0","""event"",""trial"",""time""
""fullscreenenter"",""0"",""1430""
","
","
","""event"",""trial"",""time""
""fullscreenenter"",""0"",""1430""
","
","null","run_exp/static/images/Set 6_rs/024a.jpg","null","","","","","","test","TR",""
"","html-keyboard-response","314","470774","0.0-250.0-2.0","""event"",""trial"",""time""
""fullscreenenter"",""0"",""1430""
","
","
","""event"",""trial"",""time""
""fullscreenenter"",""0"",""1430""
","
","null","<p></p>","null","","","","","","","",""
"","image","315","471814","0.0-251.0-0.0","""event"",""trial"",""time""
""fullscreenenter"",""0"",""1430""
","
","
","""event"",""trial"",""time""
""fullscreenenter"",""0"",""1430""
","
","1039.6000000014901","run_exp/static/images/Set 6_rs/136a.jpg","78","","","","","","test","TF","4"
"","show_choice","316","472315","0.0-251.0-1.0","""event"",""trial"",""time""
""fullscreenenter"",""0"",""1430""
","
","
","""event"",""trial"",""time""
""fullscreenenter"",""0"",""1430""
","
","null","run_exp/static/images/Set 6_rs/136a.jpg","null","","","","","","test","TF",""
"","html-keyboard-response","317","472820","0.0-251.0-2.0","""event"",""trial"",""time""
""fullscreenenter"",""0"",""1430""
","
","
","""event"",""trial"",""time""
""fullscreenenter"",""0"",""1430""
","
","null","<p></p>","null","","","","","","","",""
"","image","318","474647","0.0-252.0-0.0","""event"",""trial"",""time""
""fullscreenenter"",""0"",""1430""
","
","
","""event"",""trial"",""time""
""fullscreenenter"",""0"",""1430""
","
","1825.699999999255","run_exp/static/images/Set 6_rs/178a.jpg","66","","","","","","test","TR","3"
"","show_choice","319","475149","0.0-252.0-1.0","""event"",""trial"",""time""
""fullscreenenter"",""0"",""1430""
","
","
","""event"",""trial"",""time""
""fullscreenenter"",""0"",""1430""
","
","null","run_exp/static/images/Set 6_rs/178a.jpg","null","","","","","","test","TR",""
"","html-keyboard-response","320","475653","0.0-252.0-2.0","""event"",""trial"",""time""
""fullscreenenter"",""0"",""1430""
","
","
","""event"",""trial"",""time""
""fullscreenenter"",""0"",""1430""
","
","null","<p></p>","null","","","","","","","",""
"","image","321","476941","0.0-253.0-0.0","""event"",""trial"",""time""
""fullscreenenter"",""0"",""1430""
","
","
","""event"",""trial"",""time""
""fullscreenenter"",""0"",""1430""
","
","1287.4000000022352","run_exp/static/images/Set 6_rs/091b.jpg","66","","","","","","test","TL","3"
"","show_choice","322","477444","0.0-253.0-1.0","""event"",""trial"",""time""
""fullscreenenter"",""0"",""1430""
","
","
","""event"",""trial"",""time""
""fullscreenenter"",""0"",""1430""
","
","null","run_exp/static/images/Set 6_rs/091b.jpg","null","","","","","","test","TL",""
"","html-keyboard-response","323","477948","0.0-253.0-2.0","""event"",""trial"",""time""
""fullscreenenter"",""0"",""1430""
","
","
","""event"",""trial"",""time""
""fullscreenenter"",""0"",""1430""
","
","null","<p></p>","null","","","","","","","",""
"","image","324","479046","0.0-254.0-0.0","""event"",""trial"",""time""
""fullscreenenter"",""0"",""1430""
","
","
","""event"",""trial"",""time""
""fullscreenenter"",""0"",""1430""
","
","1096.800000000745","run_exp/static/images/Set 6_rs/028a.jpg","78","","","","","","test","TF","1"
"","show_choice","325","479551","0.0-254.0-1.0","""event"",""trial"",""time""
""fullscreenenter"",""0"",""1430""
","
","
","""event"",""trial"",""time""
""fullscreenenter"",""0"",""1430""
","
","null","run_exp/static/images/Set 6_rs/028a.jpg","null","","","","","","test","TF",""
"","html-keyboard-response","326","480056","0.0-254.0-2.0","""event"",""trial"",""time""
""fullscreenenter"",""0"",""1430""
","
","
","""event"",""trial"",""time""
""fullscreenenter"",""0"",""1430""
","
","null","<p></p>","null","","","","","","","",""
"","image","327","481321","0.0-255.0-0.0","""event"",""trial"",""time""
""fullscreenenter"",""0"",""1430""
","
","
","""event"",""trial"",""time""
""fullscreenenter"",""0"",""1430""
","
","1263.6000000014901","run_exp/static/images/Set 6_rs/086a.jpg","78","","","","","","test","TF","1"
"","show_choice","328","481823","0.0-255.0-1.0","""event"",""trial"",""time""
""fullscreenenter"",""0"",""1430""
","
","
","""event"",""trial"",""time""
""fullscreenenter"",""0"",""1430""
","
","null","run_exp/static/images/Set 6_rs/086a.jpg","null","","","","","","test","TF",""
"","html-keyboard-response","329","482326","0.0-255.0-2.0","""event"",""trial"",""time""
""fullscreenenter"",""0"",""1430""
","
","
","""event"",""trial"",""time""
""fullscreenenter"",""0"",""1430""
","
","null","<p></p>","null","","","","","","","",""
"","image","330","483298","0.0-256.0-0.0","""event"",""trial"",""time""
""fullscreenenter"",""0"",""1430""
","
","
","""event"",""trial"",""time""
""fullscreenenter"",""0"",""1430""
","
","970.1000000014901","run_exp/static/images/Set 6_rs/062b.jpg","66","","","","","","test","TL","1"
"","show_choice","331","483803","0.0-256.0-1.0","""event"",""trial"",""time""
""fullscreenenter"",""0"",""1430""
","
","
","""event"",""trial"",""time""
""fullscreenenter"",""0"",""1430""
","
","null","run_exp/static/images/Set 6_rs/062b.jpg","null","","","","","","test","TL",""
"","html-keyboard-response","332","484305","0.0-256.0-2.0","""event"",""trial"",""time""
""fullscreenenter"",""0"",""1430""
","
","
","""event"",""trial"",""time""
""fullscreenenter"",""0"",""1430""
","
","null","<p></p>","null","","","","","","","",""
"","image","333","485476","0.0-257.0-0.0","""event"",""trial"",""time""
""fullscreenenter"",""0"",""1430""
","
","
","""event"",""trial"",""time""
""fullscreenenter"",""0"",""1430""
","
","1170.300000000745","run_exp/static/images/Set 6_rs/108a.jpg","86","","","","","","test","TR","5"
"","show_choice","334","485977","0.0-257.0-1.0","""event"",""trial"",""time""
""fullscreenenter"",""0"",""1430""
","
","
","""event"",""trial"",""time""
""fullscreenenter"",""0"",""1430""
","
","null","run_exp/static/images/Set 6_rs/108a.jpg","null","","","","","","test","TR",""
"","html-keyboard-response","335","486484","0.0-257.0-2.0","""event"",""trial"",""time""
""fullscreenenter"",""0"",""1430""
","
","
","""event"",""trial"",""time""
""fullscreenenter"",""0"",""1430""
","
","null","<p></p>","null","","","","","","","",""
"","image","336","487823","0.0-258.0-0.0","""event"",""trial"",""time""
""fullscreenenter"",""0"",""1430""
","
","
","""event"",""trial"",""time""
""fullscreenenter"",""0"",""1430""
","
","1337.8999999985099","run_exp/static/images/Set 6_rs/131a.jpg","86","","","","","","test","TR","5"
"","show_choice","337","488324","0.0-258.0-1.0","""event"",""trial"",""time""
""fullscreenenter"",""0"",""1430""
","
","
","""event"",""trial"",""time""
""fullscreenenter"",""0"",""1430""
","
","null","run_exp/static/images/Set 6_rs/131a.jpg","null","","","","","","test","TR",""
"","html-keyboard-response","338","488828","0.0-258.0-2.0","""event"",""trial"",""time""
""fullscreenenter"",""0"",""1430""
","
","
","""event"",""trial"",""time""
""fullscreenenter"",""0"",""1430""
","
","null","<p></p>","null","","","","","","","",""
"","image","339","489433","0.0-259.0-0.0","""event"",""trial"",""time""
""fullscreenenter"",""0"",""1430""
","
","
","""event"",""trial"",""time""
""fullscreenenter"",""0"",""1430""
","
","604.1999999992549","run_exp/static/images/Set 6_rs/150a.jpg","86","","","","","","test","TR","1"
"","show_choice","340","489935","0.0-259.0-1.0","""event"",""trial"",""time""
""fullscreenenter"",""0"",""1430""
","
","
","""event"",""trial"",""time""
""fullscreenenter"",""0"",""1430""
","
","null","run_exp/static/images/Set 6_rs/150a.jpg","null","","","","","","test","TR",""
