"success","trial_type","trial_index","time_elapsed","internal_node_id","interactions","blur_events","focus_events","fullscreenenter_events","fullscreenexit_events","rt","stimulus","key_press","subject_id","participant_id","age","gender","prompt","phase","condition","lure_bin"
"true","fullscreen","0","152533","0.0-0.0","""event"",""trial"",""time""
""fullscreenenter"",""0"",""151556""
","
","
","""event"",""trial"",""time""
""fullscreenenter"",""0"",""151556""
","
","","","","","","","","","","",""
"","pavlovia","1","152536","0.0-1.0","""event"",""trial"",""time""
""fullscreenenter"",""0"",""151556""
","
","
","""event"",""trial"",""time""
""fullscreenenter"",""0"",""151556""
","
","","","","","","","","","","",""
"","welcome","2","187325","0.0-2.0","""event"",""trial"",""time""
""fullscreenenter"",""0"",""151556""
","
","
","""event"",""trial"",""time""
""fullscreenenter"",""0"",""151556""
","
","null","run_exp/static/audio/clip_1_welcome.m4a","null","1562","1488","17","Male","<div class='center'><p>Welcome to the third part of the study! First, you'll be shown pictures of items one at a time. For each picture, you have to decide if the item is typically found indoors or outdoors.</p><p>If you think it's usually found indoors, then press <b>v</b> key on your keyboard. If you think it's usually found outdoors, then press the <b>n</b> key.There will be reminders on the screen to help you remember which keys to press. </p><p>If you're not sure whether the item is an indoor item or an outdoor item, go ahead and take a guess but try your best not to skip that choice. </p></div>","","",""
"","html-keyboard-response","3","228043","0.0-3.0","""event"",""trial"",""time""
""fullscreenenter"",""0"",""151556""
","
","
","""event"",""trial"",""time""
""fullscreenenter"",""0"",""151556""
","
","40717","<div class='center'><p>Welcome to the third part of the study! First, you'll be shown pictures of items one at a time. For each picture, you have to decide if the item is typically found indoors or outdoors.</p><p>If you think it's usually found indoors, then press <b>v</b> key on your keyboard. If you think it's usually found outdoors, then press the <b>n</b> key.There will be reminders on the screen to help you remember which keys to press. </p><p>If you're not sure whether the item is an indoor item or an outdoor item, go ahead and take a guess but try your best not to skip that choice. </p><div><p><b>[Press the space bar to continue]</b></p></div>","32","","","","","","","",""
"","image","4","230048","0.0-4.0","""event"",""trial"",""time""
""fullscreenenter"",""0"",""151556""
","
","
","""event"",""trial"",""time""
""fullscreenenter"",""0"",""151556""
","
","null","run_exp/static/images/Set 6_rs/154a.jpg","null","","","","","","learn","SR",""
"","show_choice","5","232060","0.0-5.0","""event"",""trial"",""time""
""fullscreenenter"",""0"",""151556""
","
","
","""event"",""trial"",""time""
""fullscreenenter"",""0"",""151556""
","
","null","run_exp/static/images/blank.png","null","","","","","","learn","SR",""
"","html-keyboard-response","6","232577","0.0-6.0","""event"",""trial"",""time""
""fullscreenenter"",""0"",""151556""
","
","
","""event"",""trial"",""time""
""fullscreenenter"",""0"",""151556""
","
","null","<p></p>","null","","","","","","","",""
"","image","7","234211","0.0-7.0","""event"",""trial"",""time""
""fullscreenenter"",""0"",""151556""
","
","
","""event"",""trial"",""time""
""fullscreenenter"",""0"",""151556""
","
","1633.0999999642372","run_exp/static/images/Set 6_rs/025a.jpg","78","","","","","","learn","SL",""
"","show_choice","8","234586","0.0-8.0","""event"",""trial"",""time""
""fullscreenenter"",""0"",""151556""
","
","
","""event"",""trial"",""time""
""fullscreenenter"",""0"",""151556""
","
","null","run_exp/static/images/Set 6_rs/025a.jpg","null","","","","","","learn","SL",""
"","html-keyboard-response","9","235099","0.0-9.0","""event"",""trial"",""time""
""fullscreenenter"",""0"",""151556""
","
","
","""event"",""trial"",""time""
""fullscreenenter"",""0"",""151556""
","
","null","<p></p>","null","","","","","","","",""
"","image","10","236434","0.0-10.0","""event"",""trial"",""time""
""fullscreenenter"",""0"",""151556""
","
","
","""event"",""trial"",""time""
""fullscreenenter"",""0"",""151556""
","
","1333.8999999761581","run_exp/static/images/Set 6_rs/017a.jpg","86","","","","","","learn","SL",""
"","show_choice","11","237106","0.0-11.0","""event"",""trial"",""time""
""fullscreenenter"",""0"",""151556""
","
","
","""event"",""trial"",""time""
""fullscreenenter"",""0"",""151556""
","
","null","run_exp/static/images/Set 6_rs/017a.jpg","null","","","","","","learn","SL",""
"","html-keyboard-response","12","237619","0.0-12.0","""event"",""trial"",""time""
""fullscreenenter"",""0"",""151556""
","
","
","""event"",""trial"",""time""
""fullscreenenter"",""0"",""151556""
","
","null","<p></p>","null","","","","","","","",""
"","image","13","238883","0.0-13.0","""event"",""trial"",""time""
""fullscreenenter"",""0"",""151556""
","
","
","""event"",""trial"",""time""
""fullscreenenter"",""0"",""151556""
","
","1262.5","run_exp/static/images/Set 6_rs/075a.jpg","86","","","","","","learn","SR",""
"","show_choice","14","239627","0.0-14.0","""event"",""trial"",""time""
""fullscreenenter"",""0"",""151556""
","
","
","""event"",""trial"",""time""
""fullscreenenter"",""0"",""151556""
","
","null","run_exp/static/images/Set 6_rs/075a.jpg","null","","","","","","learn","SR",""
"","html-keyboard-response","15","240141","0.0-15.0","""event"",""trial"",""time""
""fullscreenenter"",""0"",""151556""
","
","
","""event"",""trial"",""time""
""fullscreenenter"",""0"",""151556""
","
","null","<p></p>","null","","","","","","","",""
"","image","16","241362","0.0-16.0","""event"",""trial"",""time""
""fullscreenenter"",""0"",""151556""
","
","
","""event"",""trial"",""time""
""fullscreenenter"",""0"",""151556""
","
","1220.6000000238419","run_exp/static/images/Set 6_rs/089a.jpg","86","","","","","","learn","SL",""
"","show_choice","17","242146","0.0-17.0","""event"",""trial"",""time""
""fullscreenenter"",""0"",""151556""
","
","
","""event"",""trial"",""time""
""fullscreenenter"",""0"",""151556""
","
","null","run_exp/static/images/Set 6_rs/089a.jpg","null","","","","","","learn","SL",""
"","html-keyboard-response","18","242660","0.0-18.0","""event"",""trial"",""time""
""fullscreenenter"",""0"",""151556""
","
","
","""event"",""trial"",""time""
""fullscreenenter"",""0"",""151556""
","
","null","<p></p>","null","","","","","","","",""
"","image","19","243339","0.0-19.0","""event"",""trial"",""time""
""fullscreenenter"",""0"",""151556""
","
","
","""event"",""trial"",""time""
""fullscreenenter"",""0"",""151556""
","
","677.5999999642372","run_exp/static/images/Set 6_rs/024a.jpg","86","","","","","","learn","SR",""
"","show_choice","20","244670","0.0-20.0","""event"",""trial"",""time""
""fullscreenenter"",""0"",""151556""
","
","
","""event"",""trial"",""time""
""fullscreenenter"",""0"",""151556""
","
","null","run_exp/static/images/Set 6_rs/024a.jpg","null","","","","","","learn","SR",""
"","html-keyboard-response","21","245181","0.0-21.0","""event"",""trial"",""time""
""fullscreenenter"",""0"",""151556""
","
","
","""event"",""trial"",""time""
""fullscreenenter"",""0"",""151556""
","
","null","<p></p>","null","","","","","","","",""
"","image","22","246258","0.0-22.0","""event"",""trial"",""time""
""fullscreenenter"",""0"",""151556""
","
","
","""event"",""trial"",""time""
""fullscreenenter"",""0"",""151556""
","
","1075.800000011921","run_exp/static/images/Set 6_rs/006a.jpg","86","","","","","","learn","SL",""
"","show_choice","23","247191","0.0-23.0","""event"",""trial"",""time""
""fullscreenenter"",""0"",""151556""
","
","
","""event"",""trial"",""time""
""fullscreenenter"",""0"",""151556""
","
","null","run_exp/static/images/Set 6_rs/006a.jpg","null","","","","","","learn","SL",""
"","html-keyboard-response","24","247705","0.0-24.0","""event"",""trial"",""time""
""fullscreenenter"",""0"",""151556""
","
","
","""event"",""trial"",""time""
""fullscreenenter"",""0"",""151556""
","
","null","<p></p>","null","","","","","","","",""
"","image","25","248994","0.0-25.0","""event"",""trial"",""time""
""fullscreenenter"",""0"",""151556""
","
","
","""event"",""trial"",""time""
""fullscreenenter"",""0"",""151556""
","
","1288.199999988079","run_exp/static/images/Set 6_rs/172a.jpg","78","","","","","","learn","SR",""
"","show_choice","26","249720","0.0-26.0","""event"",""trial"",""time""
""fullscreenenter"",""0"",""151556""
","
","
","""event"",""trial"",""time""
""fullscreenenter"",""0"",""151556""
","
","null","run_exp/static/images/Set 6_rs/172a.jpg","null","","","","","","learn","SR",""
"","html-keyboard-response","27","250234","0.0-27.0","""event"",""trial"",""time""
""fullscreenenter"",""0"",""151556""
","
","
","""event"",""trial"",""time""
""fullscreenenter"",""0"",""151556""
","
","null","<p></p>","null","","","","","","","",""
"","image","28","251555","0.0-28.0","""event"",""trial"",""time""
""fullscreenenter"",""0"",""151556""
","
","
","""event"",""trial"",""time""
""fullscreenenter"",""0"",""151556""
","
","1320.1000000238419","run_exp/static/images/Set 6_rs/167a.jpg","78","","","","","","learn","SL",""
"","show_choice","29","252238","0.0-29.0","""event"",""trial"",""time""
""fullscreenenter"",""0"",""151556""
","
","
","""event"",""trial"",""time""
""fullscreenenter"",""0"",""151556""
","
","null","run_exp/static/images/Set 6_rs/167a.jpg","null","","","","","","learn","SL",""
"","html-keyboard-response","30","252752","0.0-30.0","""event"",""trial"",""time""
""fullscreenenter"",""0"",""151556""
","
","
","""event"",""trial"",""time""
""fullscreenenter"",""0"",""151556""
","
","null","<p></p>","null","","","","","","","",""
"","image","31","254402","0.0-31.0","""event"",""trial"",""time""
""fullscreenenter"",""0"",""151556""
","
","
","""event"",""trial"",""time""
""fullscreenenter"",""0"",""151556""
","
","1650","run_exp/static/images/Set 6_rs/062a.jpg","78","","","","","","learn","SL",""
"","show_choice","32","254764","0.0-32.0","""event"",""trial"",""time""
""fullscreenenter"",""0"",""151556""
","
","
","""event"",""trial"",""time""
""fullscreenenter"",""0"",""151556""
","
","null","run_exp/static/images/Set 6_rs/062a.jpg","null","","","","","","learn","SL",""
"","html-keyboard-response","33","255278","0.0-33.0","""event"",""trial"",""time""
""fullscreenenter"",""0"",""151556""
","
","
","""event"",""trial"",""time""
""fullscreenenter"",""0"",""151556""
","
","null","<p></p>","null","","","","","","","",""
"","image","34","256227","0.0-34.0","""event"",""trial"",""time""
""fullscreenenter"",""0"",""151556""
","
","
","""event"",""trial"",""time""
""fullscreenenter"",""0"",""151556""
","
","947.5999999642372","run_exp/static/images/Set 6_rs/045a.jpg","86","","","","","","learn","SR",""
"","show_choice","35","257285","0.0-35.0","""event"",""trial"",""time""
""fullscreenenter"",""0"",""151556""
","
","
","""event"",""trial"",""time""
""fullscreenenter"",""0"",""151556""
","
","null","run_exp/static/images/Set 6_rs/045a.jpg","null","","","","","","learn","SR",""
"","html-keyboard-response","36","257800","0.0-36.0","""event"",""trial"",""time""
""fullscreenenter"",""0"",""151556""
","
","
","""event"",""trial"",""time""
""fullscreenenter"",""0"",""151556""
","
","null","<p></p>","null","","","","","","","",""
"","image","37","258890","0.0-37.0","""event"",""trial"",""time""
""fullscreenenter"",""0"",""151556""
","
","
","""event"",""trial"",""time""
""fullscreenenter"",""0"",""151556""
","
","1089.1000000238419","run_exp/static/images/Set 6_rs/126a.jpg","78","","","","","","learn","SR",""
"","show_choice","38","259813","0.0-38.0","""event"",""trial"",""time""
""fullscreenenter"",""0"",""151556""
","
","
","""event"",""trial"",""time""
""fullscreenenter"",""0"",""151556""
","
","null","run_exp/static/images/Set 6_rs/126a.jpg","null","","","","","","learn","SR",""
"","html-keyboard-response","39","260324","0.0-39.0","""event"",""trial"",""time""
""fullscreenenter"",""0"",""151556""
","
","
","""event"",""trial"",""time""
""fullscreenenter"",""0"",""151556""
","
","null","<p></p>","null","","","","","","","",""
"","image","40","261402","0.0-40.0","""event"",""trial"",""time""
""fullscreenenter"",""0"",""151556""
","
","
","""event"",""trial"",""time""
""fullscreenenter"",""0"",""151556""
","
","1077.6000000238419","run_exp/static/images/Set 6_rs/066a.jpg","86","","","","","","learn","SL",""
"","show_choice","41","262332","0.0-41.0","""event"",""trial"",""time""
""fullscreenenter"",""0"",""151556""
","
","
","""event"",""trial"",""time""
""fullscreenenter"",""0"",""151556""
","
","null","run_exp/static/images/Set 6_rs/066a.jpg","null","","","","","","learn","SL",""
"","html-keyboard-response","42","262843","0.0-42.0","""event"",""trial"",""time""
""fullscreenenter"",""0"",""151556""
","
","
","""event"",""trial"",""time""
""fullscreenenter"",""0"",""151556""
","
","null","<p></p>","null","","","","","","","",""
"","image","43","263826","0.0-43.0","""event"",""trial"",""time""
""fullscreenenter"",""0"",""151556""
","
","
","""event"",""trial"",""time""
""fullscreenenter"",""0"",""151556""
","
","982","run_exp/static/images/Set 6_rs/019a.jpg","86","","","","","","learn","SL",""
"","show_choice","44","264847","0.0-44.0","""event"",""trial"",""time""
""fullscreenenter"",""0"",""151556""
","
","
","""event"",""trial"",""time""
""fullscreenenter"",""0"",""151556""
","
","null","run_exp/static/images/Set 6_rs/019a.jpg","null","","","","","","learn","SL",""
"","html-keyboard-response","45","265359","0.0-45.0","""event"",""trial"",""time""
""fullscreenenter"",""0"",""151556""
","
","
","""event"",""trial"",""time""
""fullscreenenter"",""0"",""151556""
","
","null","<p></p>","null","","","","","","","",""
"","image","46","266899","0.0-46.0","""event"",""trial"",""time""
""fullscreenenter"",""0"",""151556""
","
","
","""event"",""trial"",""time""
""fullscreenenter"",""0"",""151556""
","
","1538.800000011921","run_exp/static/images/Set 6_rs/085a.jpg","78","","","","","","learn","SL",""
"","show_choice","47","267364","0.0-47.0","""event"",""trial"",""time""
""fullscreenenter"",""0"",""151556""
","
","
","""event"",""trial"",""time""
""fullscreenenter"",""0"",""151556""
","
","null","run_exp/static/images/Set 6_rs/085a.jpg","null","","","","","","learn","SL",""
"","html-keyboard-response","48","267874","0.0-48.0","""event"",""trial"",""time""
""fullscreenenter"",""0"",""151556""
","
","
","""event"",""trial"",""time""
""fullscreenenter"",""0"",""151556""
","
","null","<p></p>","null","","","","","","","",""
"","image","49","269474","0.0-49.0","""event"",""trial"",""time""
""fullscreenenter"",""0"",""151556""
","
","
","""event"",""trial"",""time""
""fullscreenenter"",""0"",""151556""
","
","1599.2000000476837","run_exp/static/images/Set 6_rs/141a.jpg","78","","","","","","learn","SR",""
"","show_choice","50","269876","0.0-50.0","""event"",""trial"",""time""
""fullscreenenter"",""0"",""151556""
","
","
","""event"",""trial"",""time""
""fullscreenenter"",""0"",""151556""
","
","null","run_exp/static/images/Set 6_rs/141a.jpg","null","","","","","","learn","SR",""
"","html-keyboard-response","51","270388","0.0-51.0","""event"",""trial"",""time""
""fullscreenenter"",""0"",""151556""
","
","
","""event"",""trial"",""time""
""fullscreenenter"",""0"",""151556""
","
","null","<p></p>","null","","","","","","","",""
"","image","52","271691","0.0-52.0","""event"",""trial"",""time""
""fullscreenenter"",""0"",""151556""
","
","
","""event"",""trial"",""time""
""fullscreenenter"",""0"",""151556""
","
","1301.9000000357628","run_exp/static/images/Set 6_rs/131a.jpg","86","","","","","","learn","SR",""
"","show_choice","53","272395","0.0-53.0","""event"",""trial"",""time""
""fullscreenenter"",""0"",""151556""
","
","
","""event"",""trial"",""time""
""fullscreenenter"",""0"",""151556""
","
","null","run_exp/static/images/Set 6_rs/131a.jpg","null","","","","","","learn","SR",""
"","html-keyboard-response","54","272909","0.0-54.0","""event"",""trial"",""time""
""fullscreenenter"",""0"",""151556""
","
","
","""event"",""trial"",""time""
""fullscreenenter"",""0"",""151556""
","
","null","<p></p>","null","","","","","","","",""
"","image","55","274106","0.0-55.0","""event"",""trial"",""time""
""fullscreenenter"",""0"",""151556""
","
","
","""event"",""trial"",""time""
""fullscreenenter"",""0"",""151556""
","
","1196","run_exp/static/images/Set 6_rs/191a.jpg","78","","","","","","learn","SL",""
"","show_choice","56","274915","0.0-56.0","""event"",""trial"",""time""
""fullscreenenter"",""0"",""151556""
","
","
","""event"",""trial"",""time""
""fullscreenenter"",""0"",""151556""
","
","null","run_exp/static/images/Set 6_rs/191a.jpg","null","","","","","","learn","SL",""
"","html-keyboard-response","57","275417","0.0-57.0","""event"",""trial"",""time""
""fullscreenenter"",""0"",""151556""
","
","
","""event"",""trial"",""time""
""fullscreenenter"",""0"",""151556""
","
","null","<p></p>","null","","","","","","","",""
"","image","58","276210","0.0-58.0","""event"",""trial"",""time""
""fullscreenenter"",""0"",""151556""
","
","
","""event"",""trial"",""time""
""fullscreenenter"",""0"",""151556""
","
","792.5","run_exp/static/images/Set 6_rs/181a.jpg","86","","","","","","learn","SL",""
"","show_choice","59","277430","0.0-59.0","""event"",""trial"",""time""
""fullscreenenter"",""0"",""151556""
","
","
","""event"",""trial"",""time""
""fullscreenenter"",""0"",""151556""
","
","null","run_exp/static/images/Set 6_rs/181a.jpg","null","","","","","","learn","SL",""
"","html-keyboard-response","60","277945","0.0-60.0","""event"",""trial"",""time""
""fullscreenenter"",""0"",""151556""
","
","
","""event"",""trial"",""time""
""fullscreenenter"",""0"",""151556""
","
","null","<p></p>","null","","","","","","","",""
"","image","61","278938","0.0-61.0","""event"",""trial"",""time""
""fullscreenenter"",""0"",""151556""
","
","
","""event"",""trial"",""time""
""fullscreenenter"",""0"",""151556""
","
","992.3000000119209","run_exp/static/images/Set 6_rs/073a.jpg","86","","","","","","learn","SL",""
"","show_choice","62","279949","0.0-62.0","""event"",""trial"",""time""
""fullscreenenter"",""0"",""151556""
","
","
","""event"",""trial"",""time""
""fullscreenenter"",""0"",""151556""
","
","null","run_exp/static/images/Set 6_rs/073a.jpg","null","","","","","","learn","SL",""
"","html-keyboard-response","63","280466","0.0-63.0","""event"",""trial"",""time""
""fullscreenenter"",""0"",""151556""
","
","
","""event"",""trial"",""time""
""fullscreenenter"",""0"",""151556""
","
","null","<p></p>","null","","","","","","","",""
"","image","64","281235","0.0-64.0","""event"",""trial"",""time""
""fullscreenenter"",""0"",""151556""
","
","
","""event"",""trial"",""time""
""fullscreenenter"",""0"",""151556""
","
","767.1999999880791","run_exp/static/images/Set 6_rs/010a.jpg","86","","","","","","learn","SR",""
"","show_choice","65","282472","0.0-65.0","""event"",""trial"",""time""
""fullscreenenter"",""0"",""151556""
","
","
","""event"",""trial"",""time""
""fullscreenenter"",""0"",""151556""
","
","null","run_exp/static/images/Set 6_rs/010a.jpg","null","","","","","","learn","SR",""
"","html-keyboard-response","66","282974","0.0-66.0","""event"",""trial"",""time""
""fullscreenenter"",""0"",""151556""
","
","
","""event"",""trial"",""time""
""fullscreenenter"",""0"",""151556""
","
","null","<p></p>","null","","","","","","","",""
"","image","67","283930","0.0-67.0","""event"",""trial"",""time""
""fullscreenenter"",""0"",""151556""
","
","
","""event"",""trial"",""time""
""fullscreenenter"",""0"",""151556""
","
","954.7999999523163","run_exp/static/images/Set 6_rs/108a.jpg","78","","","","","","learn","SR",""
"","show_choice","68","284978","0.0-68.0","""event"",""trial"",""time""
""fullscreenenter"",""0"",""151556""
","
","
","""event"",""trial"",""time""
""fullscreenenter"",""0"",""151556""
","
","null","run_exp/static/images/Set 6_rs/108a.jpg","null","","","","","","learn","SR",""
"","html-keyboard-response","69","285492","0.0-69.0","""event"",""trial"",""time""
""fullscreenenter"",""0"",""151556""
","
","
","""event"",""trial"",""time""
""fullscreenenter"",""0"",""151556""
","
","null","<p></p>","null","","","","","","","",""
"","image","70","287330","0.0-70.0","""event"",""trial"",""time""
""fullscreenenter"",""0"",""151556""
","
","
","""event"",""trial"",""time""
""fullscreenenter"",""0"",""151556""
","
","1837.300000011921","run_exp/static/images/Set 6_rs/168a.jpg","78","","","","","","learn","SL",""
"","show_choice","71","287500","0.0-71.0","""event"",""trial"",""time""
""fullscreenenter"",""0"",""151556""
","
","
","""event"",""trial"",""time""
""fullscreenenter"",""0"",""151556""
","
","null","run_exp/static/images/Set 6_rs/168a.jpg","null","","","","","","learn","SL",""
"","html-keyboard-response","72","288002","0.0-72.0","""event"",""trial"",""time""
""fullscreenenter"",""0"",""151556""
","
","
","""event"",""trial"",""time""
""fullscreenenter"",""0"",""151556""
","
","null","<p></p>","null","","","","","","","",""
"","image","73","288715","0.0-73.0","""event"",""trial"",""time""
""fullscreenenter"",""0"",""151556""
","
","
","""event"",""trial"",""time""
""fullscreenenter"",""0"",""151556""
","
","711.5999999642372","run_exp/static/images/Set 6_rs/095a.jpg","86","","","","","","learn","SL",""
"","show_choice","74","290006","0.0-74.0","""event"",""trial"",""time""
""fullscreenenter"",""0"",""151556""
","
","
","""event"",""trial"",""time""
""fullscreenenter"",""0"",""151556""
","
","null","run_exp/static/images/Set 6_rs/095a.jpg","null","","","","","","learn","SL",""
"","html-keyboard-response","75","290520","0.0-75.0","""event"",""trial"",""time""
""fullscreenenter"",""0"",""151556""
","
","
","""event"",""trial"",""time""
""fullscreenenter"",""0"",""151556""
","
","null","<p></p>","null","","","","","","","",""
"","image","76","291699","0.0-76.0","""event"",""trial"",""time""
""fullscreenenter"",""0"",""151556""
","
","
","""event"",""trial"",""time""
""fullscreenenter"",""0"",""151556""
","
","1177.800000011921","run_exp/static/images/Set 6_rs/123a.jpg","78","","","","","","learn","SL",""
"","show_choice","77","292530","0.0-77.0","""event"",""trial"",""time""
""fullscreenenter"",""0"",""151556""
","
","
","""event"",""trial"",""time""
""fullscreenenter"",""0"",""151556""
","
","null","run_exp/static/images/Set 6_rs/123a.jpg","null","","","","","","learn","SL",""
"","html-keyboard-response","78","293043","0.0-78.0","""event"",""trial"",""time""
""fullscreenenter"",""0"",""151556""
","
","
","""event"",""trial"",""time""
""fullscreenenter"",""0"",""151556""
","
","null","<p></p>","null","","","","","","","",""
"","image","79","294003","0.0-79.0","""event"",""trial"",""time""
""fullscreenenter"",""0"",""151556""
","
","
","""event"",""trial"",""time""
""fullscreenenter"",""0"",""151556""
","
","959.2999999523163","run_exp/static/images/Set 6_rs/014a.jpg","86","","","","","","learn","SL",""
"","show_choice","80","295054","0.0-80.0","""event"",""trial"",""time""
""fullscreenenter"",""0"",""151556""
","
","
","""event"",""trial"",""time""
""fullscreenenter"",""0"",""151556""
","
","null","run_exp/static/images/Set 6_rs/014a.jpg","null","","","","","","learn","SL",""
"","html-keyboard-response","81","295565","0.0-81.0","""event"",""trial"",""time""
""fullscreenenter"",""0"",""151556""
","
","
","""event"",""trial"",""time""
""fullscreenenter"",""0"",""151556""
","
","null","<p></p>","null","","","","","","","",""
"","image","82","296891","0.0-82.0","""event"",""trial"",""time""
""fullscreenenter"",""0"",""151556""
","
","
","""event"",""trial"",""time""
""fullscreenenter"",""0"",""151556""
","
","1324.300000011921","run_exp/static/images/Set 6_rs/178a.jpg","78","","","","","","learn","SR",""
"","show_choice","83","297582","0.0-83.0","""event"",""trial"",""time""
""fullscreenenter"",""0"",""151556""
","
","
","""event"",""trial"",""time""
""fullscreenenter"",""0"",""151556""
","
","null","run_exp/static/images/Set 6_rs/178a.jpg","null","","","","","","learn","SR",""
"","html-keyboard-response","84","298096","0.0-84.0","""event"",""trial"",""time""
""fullscreenenter"",""0"",""151556""
","
","
","""event"",""trial"",""time""
""fullscreenenter"",""0"",""151556""
","
","null","<p></p>","null","","","","","","","",""
"","image","85","299339","0.0-85.0","""event"",""trial"",""time""
""fullscreenenter"",""0"",""151556""
","
","
","""event"",""trial"",""time""
""fullscreenenter"",""0"",""151556""
","
","1242.199999988079","run_exp/static/images/Set 6_rs/063a.jpg","86","","","","","","learn","SR",""
"","show_choice","86","300101","0.0-86.0","""event"",""trial"",""time""
""fullscreenenter"",""0"",""151556""
","
","
","""event"",""trial"",""time""
""fullscreenenter"",""0"",""151556""
","
","null","run_exp/static/images/Set 6_rs/063a.jpg","null","","","","","","learn","SR",""
"","html-keyboard-response","87","300615","0.0-87.0","""event"",""trial"",""time""
""fullscreenenter"",""0"",""151556""
","
","
","""event"",""trial"",""time""
""fullscreenenter"",""0"",""151556""
","
","null","<p></p>","null","","","","","","","",""
"","image","88","302068","0.0-88.0","""event"",""trial"",""time""
""fullscreenenter"",""0"",""151556""
","
","
","""event"",""trial"",""time""
""fullscreenenter"",""0"",""151556""
","
","1451.8999999761581","run_exp/static/images/Set 6_rs/007a.jpg","86","","","","","","learn","SR",""
"","show_choice","89","302627","0.0-89.0","""event"",""trial"",""time""
""fullscreenenter"",""0"",""151556""
","
","
","""event"",""trial"",""time""
""fullscreenenter"",""0"",""151556""
","
","null","run_exp/static/images/Set 6_rs/007a.jpg","null","","","","","","learn","SR",""
"","html-keyboard-response","90","303141","0.0-90.0","""event"",""trial"",""time""
""fullscreenenter"",""0"",""151556""
","
","
","""event"",""trial"",""time""
""fullscreenenter"",""0"",""151556""
","
","null","<p></p>","null","","","","","","","",""
"","image","91","305003","0.0-91.0","""event"",""trial"",""time""
""fullscreenenter"",""0"",""151556""
","
","
","""event"",""trial"",""time""
""fullscreenenter"",""0"",""151556""
","
","1861","run_exp/static/images/Set 6_rs/152a.jpg","78","","","","","","learn","SR",""
"","show_choice","92","305154","0.0-92.0","""event"",""trial"",""time""
""fullscreenenter"",""0"",""151556""
","
","
","""event"",""trial"",""time""
""fullscreenenter"",""0"",""151556""
","
","null","run_exp/static/images/Set 6_rs/152a.jpg","null","","","","","","learn","SR",""
"","html-keyboard-response","93","305669","0.0-93.0","""event"",""trial"",""time""
""fullscreenenter"",""0"",""151556""
","
","
","""event"",""trial"",""time""
""fullscreenenter"",""0"",""151556""
","
","null","<p></p>","null","","","","","","","",""
"","image","94","306539","0.0-94.0","""event"",""trial"",""time""
""fullscreenenter"",""0"",""151556""
","
","
","""event"",""trial"",""time""
""fullscreenenter"",""0"",""151556""
","
","868.8000000119209","run_exp/static/images/Set 6_rs/166a.jpg","86","","","","","","learn","SR",""
"","show_choice","95","307683","0.0-95.0","""event"",""trial"",""time""
""fullscreenenter"",""0"",""151556""
","
","
","""event"",""trial"",""time""
""fullscreenenter"",""0"",""151556""
","
","null","run_exp/static/images/Set 6_rs/166a.jpg","null","","","","","","learn","SR",""
"","html-keyboard-response","96","308197","0.0-96.0","""event"",""trial"",""time""
""fullscreenenter"",""0"",""151556""
","
","
","""event"",""trial"",""time""
""fullscreenenter"",""0"",""151556""
","
","null","<p></p>","null","","","","","","","",""
"","image","97","309459","0.0-97.0","""event"",""trial"",""time""
""fullscreenenter"",""0"",""151556""
","
","
","""event"",""trial"",""time""
""fullscreenenter"",""0"",""151556""
","
","1261.300000011921","run_exp/static/images/Set 6_rs/134a.jpg","86","","","","","","learn","SR",""
"","show_choice","98","310208","0.0-98.0","""event"",""trial"",""time""
""fullscreenenter"",""0"",""151556""
","
","
","""event"",""trial"",""time""
""fullscreenenter"",""0"",""151556""
","
","null","run_exp/static/images/Set 6_rs/134a.jpg","null","","","","","","learn","SR",""
"","html-keyboard-response","99","310720","0.0-99.0","""event"",""trial"",""time""
""fullscreenenter"",""0"",""151556""
","
","
","""event"",""trial"",""time""
""fullscreenenter"",""0"",""151556""
","
","null","<p></p>","null","","","","","","","",""
"","image","100","312725","0.0-100.0","""event"",""trial"",""time""
""fullscreenenter"",""0"",""151556""
","
","
","""event"",""trial"",""time""
""fullscreenenter"",""0"",""151556""
","
","null","run_exp/static/images/Set 6_rs/144a.jpg","null","","","","","","learn","SL",""
"","show_choice","101","314738","0.0-101.0","""event"",""trial"",""time""
""fullscreenenter"",""0"",""151556""
","
","
","""event"",""trial"",""time""
""fullscreenenter"",""0"",""151556""
","
","null","run_exp/static/images/blank.png","null","","","","","","learn","SL",""
"","html-keyboard-response","102","315252","0.0-102.0","""event"",""trial"",""time""
""fullscreenenter"",""0"",""151556""
","
","
","""event"",""trial"",""time""
""fullscreenenter"",""0"",""151556""
","
","null","<p></p>","null","","","","","","","",""
"","image","103","316099","0.0-103.0","""event"",""trial"",""time""
""fullscreenenter"",""0"",""151556""
","
","
","""event"",""trial"",""time""
""fullscreenenter"",""0"",""151556""
","
","845.3999999761581","run_exp/static/images/Set 6_rs/111a.jpg","86","","","","","","learn","SL",""
"","show_choice","104","317267","0.0-104.0","""event"",""trial"",""time""
""fullscreenenter"",""0"",""151556""
","
","
","""event"",""trial"",""time""
""fullscreenenter"",""0"",""151556""
","
","null","run_exp/static/images/Set 6_rs/111a.jpg","null","","","","","","learn","SL",""
"","html-keyboard-response","105","317781","0.0-105.0","""event"",""trial"",""time""
""fullscreenenter"",""0"",""151556""
","
","
","""event"",""trial"",""time""
""fullscreenenter"",""0"",""151556""
","
","null","<p></p>","null","","","","","","","",""
"","image","106","318419","0.0-106.0","""event"",""trial"",""time""
""fullscreenenter"",""0"",""151556""
","
","
","""event"",""trial"",""time""
""fullscreenenter"",""0"",""151556""
","
","636.7999999523163","run_exp/static/images/Set 6_rs/121a.jpg","86","","","","","","learn","SR",""
"","show_choice","107","319787","0.0-107.0","""event"",""trial"",""time""
""fullscreenenter"",""0"",""151556""
","
","
","""event"",""trial"",""time""
""fullscreenenter"",""0"",""151556""
","
","null","run_exp/static/images/Set 6_rs/121a.jpg","null","","","","","","learn","SR",""
"","html-keyboard-response","108","320302","0.0-108.0","""event"",""trial"",""time""
""fullscreenenter"",""0"",""151556""
","
","
","""event"",""trial"",""time""
""fullscreenenter"",""0"",""151556""
","
","null","<p></p>","null","","","","","","","",""
"","image","109","320835","0.0-109.0","""event"",""trial"",""time""
""fullscreenenter"",""0"",""151556""
","
","
","""event"",""trial"",""time""
""fullscreenenter"",""0"",""151556""
","
","531.2000000476837","run_exp/static/images/Set 6_rs/070a.jpg","86","","","","","","learn","SR",""
"","show_choice","110","322309","0.0-110.0","""event"",""trial"",""time""
""fullscreenenter"",""0"",""151556""
","
","
","""event"",""trial"",""time""
""fullscreenenter"",""0"",""151556""
","
","null","run_exp/static/images/Set 6_rs/070a.jpg","null","","","","","","learn","SR",""
"","html-keyboard-response","111","322822","0.0-111.0","""event"",""trial"",""time""
""fullscreenenter"",""0"",""151556""
","
","
","""event"",""trial"",""time""
""fullscreenenter"",""0"",""151556""
","
","null","<p></p>","null","","","","","","","",""
"","image","112","323715","0.0-112.0","""event"",""trial"",""time""
""fullscreenenter"",""0"",""151556""
","
","
","""event"",""trial"",""time""
""fullscreenenter"",""0"",""151556""
","
","892.4000000357628","run_exp/static/images/Set 6_rs/091a.jpg","86","","","","","","learn","SL",""
"","show_choice","113","324836","0.0-113.0","""event"",""trial"",""time""
""fullscreenenter"",""0"",""151556""
","
","
","""event"",""trial"",""time""
""fullscreenenter"",""0"",""151556""
","
","null","run_exp/static/images/Set 6_rs/091a.jpg","null","","","","","","learn","SL",""
"","html-keyboard-response","114","325348","0.0-114.0","""event"",""trial"",""time""
""fullscreenenter"",""0"",""151556""
","
","
","""event"",""trial"",""time""
""fullscreenenter"",""0"",""151556""
","
","null","<p></p>","null","","","","","","","",""
"","image","115","326875","0.0-115.0","""event"",""trial"",""time""
""fullscreenenter"",""0"",""151556""
","
","
","""event"",""trial"",""time""
""fullscreenenter"",""0"",""151556""
","
","1526","run_exp/static/images/Set 6_rs/057a.jpg","86","","","","","","learn","SL",""
"","show_choice","116","327351","0.0-116.0","""event"",""trial"",""time""
""fullscreenenter"",""0"",""151556""
","
","
","""event"",""trial"",""time""
""fullscreenenter"",""0"",""151556""
","
","null","run_exp/static/images/Set 6_rs/057a.jpg","null","","","","","","learn","SL",""
"","html-keyboard-response","117","327864","0.0-117.0","""event"",""trial"",""time""
""fullscreenenter"",""0"",""151556""
","
","
","""event"",""trial"",""time""
""fullscreenenter"",""0"",""151556""
","
","null","<p></p>","null","","","","","","","",""
"","image","118","329091","0.0-118.0","""event"",""trial"",""time""
""fullscreenenter"",""0"",""151556""
","
","
","""event"",""trial"",""time""
""fullscreenenter"",""0"",""151556""
","
","1225.8999999761581","run_exp/static/images/Set 6_rs/061a.jpg","78","","","","","","learn","SR",""
"","show_choice","119","329879","0.0-119.0","""event"",""trial"",""time""
""fullscreenenter"",""0"",""151556""
","
","
","""event"",""trial"",""time""
""fullscreenenter"",""0"",""151556""
","
","null","run_exp/static/images/Set 6_rs/061a.jpg","null","","","","","","learn","SR",""
"","html-keyboard-response","120","330393","0.0-120.0","""event"",""trial"",""time""
""fullscreenenter"",""0"",""151556""
","
","
","""event"",""trial"",""time""
""fullscreenenter"",""0"",""151556""
","
","null","<p></p>","null","","","","","","","",""
"","image","121","331763","0.0-121.0","""event"",""trial"",""time""
""fullscreenenter"",""0"",""151556""
","
","
","""event"",""trial"",""time""
""fullscreenenter"",""0"",""151556""
","
","1368.699999988079","run_exp/static/images/Set 6_rs/008a.jpg","78","","","","","","learn","SL",""
"","show_choice","122","332401","0.0-122.0","""event"",""trial"",""time""
""fullscreenenter"",""0"",""151556""
","
","
","""event"",""trial"",""time""
""fullscreenenter"",""0"",""151556""
","
","null","run_exp/static/images/Set 6_rs/008a.jpg","null","","","","","","learn","SL",""
"","html-keyboard-response","123","332914","0.0-123.0","""event"",""trial"",""time""
""fullscreenenter"",""0"",""151556""
","
","
","""event"",""trial"",""time""
""fullscreenenter"",""0"",""151556""
","
","null","<p></p>","null","","","","","","","",""
"","image","124","334163","0.0-124.0","""event"",""trial"",""time""
""fullscreenenter"",""0"",""151556""
","
","
","""event"",""trial"",""time""
""fullscreenenter"",""0"",""151556""
","
","1248.199999988079","run_exp/static/images/Set 6_rs/023a.jpg","86","","","","","","learn","SR",""
"","show_choice","125","334926","0.0-125.0","""event"",""trial"",""time""
""fullscreenenter"",""0"",""151556""
","
","
","""event"",""trial"",""time""
""fullscreenenter"",""0"",""151556""
","
","null","run_exp/static/images/Set 6_rs/023a.jpg","null","","","","","","learn","SR",""
"","html-keyboard-response","126","335442","0.0-126.0","""event"",""trial"",""time""
""fullscreenenter"",""0"",""151556""
","
","
","""event"",""trial"",""time""
""fullscreenenter"",""0"",""151556""
","
","null","<p></p>","null","","","","","","","",""
"","image","127","337187","0.0-127.0","""event"",""trial"",""time""
""fullscreenenter"",""0"",""151556""
","
","
","""event"",""trial"",""time""
""fullscreenenter"",""0"",""151556""
","
","1744.3999999761581","run_exp/static/images/Set 6_rs/187a.jpg","86","","","","","","learn","SR",""
"","show_choice","128","337448","0.0-128.0","""event"",""trial"",""time""
""fullscreenenter"",""0"",""151556""
","
","
","""event"",""trial"",""time""
""fullscreenenter"",""0"",""151556""
","
","null","run_exp/static/images/Set 6_rs/187a.jpg","null","","","","","","learn","SR",""
"","html-keyboard-response","129","337960","0.0-129.0","""event"",""trial"",""time""
""fullscreenenter"",""0"",""151556""
","
","
","""event"",""trial"",""time""
""fullscreenenter"",""0"",""151556""
","
","null","<p></p>","null","","","","","","","",""
"","image","130","339795","0.0-130.0","""event"",""trial"",""time""
""fullscreenenter"",""0"",""151556""
","
","
","""event"",""trial"",""time""
""fullscreenenter"",""0"",""151556""
","
","1834","run_exp/static/images/Set 6_rs/112a.jpg","86","","","","","","learn","SR",""
"","show_choice","131","339963","0.0-131.0","""event"",""trial"",""time""
""fullscreenenter"",""0"",""151556""
","
","
","""event"",""trial"",""time""
""fullscreenenter"",""0"",""151556""
","
","null","run_exp/static/images/Set 6_rs/112a.jpg","null","","","","","","learn","SR",""
"","html-keyboard-response","132","340479","0.0-132.0","""event"",""trial"",""time""
""fullscreenenter"",""0"",""151556""
","
","
","""event"",""trial"",""time""
""fullscreenenter"",""0"",""151556""
","
","null","<p></p>","null","","","","","","","",""
"","image","133","341275","0.0-133.0","""event"",""trial"",""time""
""fullscreenenter"",""0"",""151556""
","
","
","""event"",""trial"",""time""
""fullscreenenter"",""0"",""151556""
","
","795.1999999880791","run_exp/static/images/Set 6_rs/076a.jpg","78","","","","","","learn","SR",""
"","show_choice","134","342490","0.0-134.0","""event"",""trial"",""time""
""fullscreenenter"",""0"",""151556""
","
","
","""event"",""trial"",""time""
""fullscreenenter"",""0"",""151556""
","
","null","run_exp/static/images/Set 6_rs/076a.jpg","null","","","","","","learn","SR",""
"","html-keyboard-response","135","343000","0.0-135.0","""event"",""trial"",""time""
""fullscreenenter"",""0"",""151556""
","
","
","""event"",""trial"",""time""
""fullscreenenter"",""0"",""151556""
","
","null","<p></p>","null","","","","","","","",""
"","image","136","344683","0.0-136.0","""event"",""trial"",""time""
""fullscreenenter"",""0"",""151556""
","
","
","""event"",""trial"",""time""
""fullscreenenter"",""0"",""151556""
","
","1681.9000000357628","run_exp/static/images/Set 6_rs/169a.jpg","78","","","","","","learn","SR",""
"","show_choice","137","345006","0.0-137.0","""event"",""trial"",""time""
""fullscreenenter"",""0"",""151556""
","
","
","""event"",""trial"",""time""
""fullscreenenter"",""0"",""151556""
","
","null","run_exp/static/images/Set 6_rs/169a.jpg","null","","","","","","learn","SR",""
"","html-keyboard-response","138","345520","0.0-138.0","""event"",""trial"",""time""
""fullscreenenter"",""0"",""151556""
","
","
","""event"",""trial"",""time""
""fullscreenenter"",""0"",""151556""
","
","null","<p></p>","null","","","","","","","",""
"","image","139","346299","0.0-139.0","""event"",""trial"",""time""
""fullscreenenter"",""0"",""151556""
","
","
","""event"",""trial"",""time""
""fullscreenenter"",""0"",""151556""
","
","777.5999999642372","run_exp/static/images/Set 6_rs/138a.jpg","78","","","","","","learn","SL",""
"","show_choice","140","347536","0.0-140.0","""event"",""trial"",""time""
""fullscreenenter"",""0"",""151556""
","
","
","""event"",""trial"",""time""
""fullscreenenter"",""0"",""151556""
","
","null","run_exp/static/images/Set 6_rs/138a.jpg","null","","","","","","learn","SL",""
"","html-keyboard-response","141","348051","0.0-141.0","""event"",""trial"",""time""
""fullscreenenter"",""0"",""151556""
","
","
","""event"",""trial"",""time""
""fullscreenenter"",""0"",""151556""
","
","null","<p></p>","null","","","","","","","",""
"","image","142","349339","0.0-142.0","""event"",""trial"",""time""
""fullscreenenter"",""0"",""151556""
","
","
","""event"",""trial"",""time""
""fullscreenenter"",""0"",""151556""
","
","1288","run_exp/static/images/Set 6_rs/050a.jpg","78","","","","","","learn","SL",""
"","show_choice","143","350055","0.0-143.0","""event"",""trial"",""time""
""fullscreenenter"",""0"",""151556""
","
","
","""event"",""trial"",""time""
""fullscreenenter"",""0"",""151556""
","
","null","run_exp/static/images/Set 6_rs/050a.jpg","null","","","","","","learn","SL",""
"","html-keyboard-response","144","350570","0.0-144.0","""event"",""trial"",""time""
""fullscreenenter"",""0"",""151556""
","
","
","""event"",""trial"",""time""
""fullscreenenter"",""0"",""151556""
","
","null","<p></p>","null","","","","","","","",""
"","image","145","352283","0.0-145.0","""event"",""trial"",""time""
""fullscreenenter"",""0"",""151556""
","
","
","""event"",""trial"",""time""
""fullscreenenter"",""0"",""151556""
","
","1711.5","run_exp/static/images/Set 6_rs/036a.jpg","78","","","","","","learn","SL",""
"","show_choice","146","352581","0.0-146.0","""event"",""trial"",""time""
""fullscreenenter"",""0"",""151556""
","
","
","""event"",""trial"",""time""
""fullscreenenter"",""0"",""151556""
","
","null","run_exp/static/images/Set 6_rs/036a.jpg","null","","","","","","learn","SL",""
"","html-keyboard-response","147","353094","0.0-147.0","""event"",""trial"",""time""
""fullscreenenter"",""0"",""151556""
","
","
","""event"",""trial"",""time""
""fullscreenenter"",""0"",""151556""
","
","null","<p></p>","null","","","","","","","",""
"","image","148","354043","0.0-148.0","""event"",""trial"",""time""
""fullscreenenter"",""0"",""151556""
","
","
","""event"",""trial"",""time""
""fullscreenenter"",""0"",""151556""
","
","947.9000000357628","run_exp/static/images/Set 6_rs/088a.jpg","86","","","","","","learn","SR",""
"","show_choice","149","355105","0.0-149.0","""event"",""trial"",""time""
""fullscreenenter"",""0"",""151556""
","
","
","""event"",""trial"",""time""
""fullscreenenter"",""0"",""151556""
","
","null","run_exp/static/images/Set 6_rs/088a.jpg","null","","","","","","learn","SR",""
"","html-keyboard-response","150","355618","0.0-150.0","""event"",""trial"",""time""
""fullscreenenter"",""0"",""151556""
","
","
","""event"",""trial"",""time""
""fullscreenenter"",""0"",""151556""
","
","null","<p></p>","null","","","","","","","",""
"","image","151","356634","0.0-151.0","""event"",""trial"",""time""
""fullscreenenter"",""0"",""151556""
","
","
","""event"",""trial"",""time""
""fullscreenenter"",""0"",""151556""
","
","1015.8000000119209","run_exp/static/images/Set 6_rs/186a.jpg","78","","","","","","learn","SR",""
"","show_choice","152","357620","0.0-152.0","""event"",""trial"",""time""
""fullscreenenter"",""0"",""151556""
","
","
","""event"",""trial"",""time""
""fullscreenenter"",""0"",""151556""
","
","null","run_exp/static/images/Set 6_rs/186a.jpg","null","","","","","","learn","SR",""
"","html-keyboard-response","153","358122","0.0-153.0","""event"",""trial"",""time""
""fullscreenenter"",""0"",""151556""
","
","
","""event"",""trial"",""time""
""fullscreenenter"",""0"",""151556""
","
","null","<p></p>","null","","","","","","","",""
"","image","154","360019","0.0-154.0","""event"",""trial"",""time""
""fullscreenenter"",""0"",""151556""
","
","
","""event"",""trial"",""time""
""fullscreenenter"",""0"",""151556""
","
","1895.800000011921","run_exp/static/images/Set 6_rs/074a.jpg","78","","","","","","learn","SL",""
"","show_choice","155","360128","0.0-155.0","""event"",""trial"",""time""
""fullscreenenter"",""0"",""151556""
","
","
","""event"",""trial"",""time""
""fullscreenenter"",""0"",""151556""
","
","null","run_exp/static/images/Set 6_rs/074a.jpg","null","","","","","","learn","SL",""
"","html-keyboard-response","156","360641","0.0-156.0","""event"",""trial"",""time""
""fullscreenenter"",""0"",""151556""
","
","
","""event"",""trial"",""time""
""fullscreenenter"",""0"",""151556""
","
","null","<p></p>","null","","","","","","","",""
"","image","157","361635","0.0-157.0","""event"",""trial"",""time""
""fullscreenenter"",""0"",""151556""
","
","
","""event"",""trial"",""time""
""fullscreenenter"",""0"",""151556""
","
","992.8999999761581","run_exp/static/images/Set 6_rs/177a.jpg","78","","","","","","learn","SR",""
"","show_choice","158","362651","0.0-158.0","""event"",""trial"",""time""
""fullscreenenter"",""0"",""151556""
","
","
","""event"",""trial"",""time""
""fullscreenenter"",""0"",""151556""
","
","null","run_exp/static/images/Set 6_rs/177a.jpg","null","","","","","","learn","SR",""
"","html-keyboard-response","159","363163","0.0-159.0","""event"",""trial"",""time""
""fullscreenenter"",""0"",""151556""
","
","
","""event"",""trial"",""time""
""fullscreenenter"",""0"",""151556""
","
","null","<p></p>","null","","","","","","","",""
"","image","160","363955","0.0-160.0","""event"",""trial"",""time""
""fullscreenenter"",""0"",""151556""
","
","
","""event"",""trial"",""time""
""fullscreenenter"",""0"",""151556""
","
","790.7999999523163","run_exp/static/images/Set 6_rs/064a.jpg","86","","","","","","learn","SR",""
"","show_choice","161","365170","0.0-161.0","""event"",""trial"",""time""
""fullscreenenter"",""0"",""151556""
","
","
","""event"",""trial"",""time""
""fullscreenenter"",""0"",""151556""
","
","null","run_exp/static/images/Set 6_rs/064a.jpg","null","","","","","","learn","SR",""
"","html-keyboard-response","162","365684","0.0-162.0","""event"",""trial"",""time""
""fullscreenenter"",""0"",""151556""
","
","
","""event"",""trial"",""time""
""fullscreenenter"",""0"",""151556""
","
","null","<p></p>","null","","","","","","","",""
"","image","163","367291","0.0-163.0","""event"",""trial"",""time""
""fullscreenenter"",""0"",""151556""
","
","
","""event"",""trial"",""time""
""fullscreenenter"",""0"",""151556""
","
","1606.199999988079","run_exp/static/images/Set 6_rs/012a.jpg","86","","","","","","learn","SR",""
"","show_choice","164","367694","0.0-164.0","""event"",""trial"",""time""
""fullscreenenter"",""0"",""151556""
","
","
","""event"",""trial"",""time""
""fullscreenenter"",""0"",""151556""
","
","null","run_exp/static/images/Set 6_rs/012a.jpg","null","","","","","","learn","SR",""
"","html-keyboard-response","165","368205","0.0-165.0","""event"",""trial"",""time""
""fullscreenenter"",""0"",""151556""
","
","
","""event"",""trial"",""time""
""fullscreenenter"",""0"",""151556""
","
","null","<p></p>","null","","","","","","","",""
"","image","166","369011","0.0-166.0","""event"",""trial"",""time""
""fullscreenenter"",""0"",""151556""
","
","
","""event"",""trial"",""time""
""fullscreenenter"",""0"",""151556""
","
","804.6999999880791","run_exp/static/images/Set 6_rs/150a.jpg","86","","","","","","learn","SR",""
"","show_choice","167","370212","0.0-167.0","""event"",""trial"",""time""
""fullscreenenter"",""0"",""151556""
","
","
","""event"",""trial"",""time""
""fullscreenenter"",""0"",""151556""
","
","null","run_exp/static/images/Set 6_rs/150a.jpg","null","","","","","","learn","SR",""
"","html-keyboard-response","168","370724","0.0-168.0","""event"",""trial"",""time""
""fullscreenenter"",""0"",""151556""
","
","
","""event"",""trial"",""time""
""fullscreenenter"",""0"",""151556""
","
","null","<p></p>","null","","","","","","","",""
"","image","169","372099","0.0-169.0","""event"",""trial"",""time""
""fullscreenenter"",""0"",""151556""
","
","
","""event"",""trial"",""time""
""fullscreenenter"",""0"",""151556""
","
","1373.5999999642372","run_exp/static/images/Set 6_rs/132a.jpg","78","","","","","","learn","SR",""
"","show_choice","170","372738","0.0-170.0","""event"",""trial"",""time""
""fullscreenenter"",""0"",""151556""
","
","
","""event"",""trial"",""time""
""fullscreenenter"",""0"",""151556""
","
","null","run_exp/static/images/Set 6_rs/132a.jpg","null","","","","","","learn","SR",""
"","html-keyboard-response","171","373253","0.0-171.0","""event"",""trial"",""time""
""fullscreenenter"",""0"",""151556""
","
","
","""event"",""trial"",""time""
""fullscreenenter"",""0"",""151556""
","
","null","<p></p>","null","","","","","","","",""
"","image","172","374147","0.0-172.0","""event"",""trial"",""time""
""fullscreenenter"",""0"",""151556""
","
","
","""event"",""trial"",""time""
""fullscreenenter"",""0"",""151556""
","
","892.7000000476837","run_exp/static/images/Set 6_rs/129a.jpg","86","","","","","","learn","SL",""
"","show_choice","173","375261","0.0-173.0","""event"",""trial"",""time""
""fullscreenenter"",""0"",""151556""
","
","
","""event"",""trial"",""time""
""fullscreenenter"",""0"",""151556""
","
","null","run_exp/static/images/Set 6_rs/129a.jpg","null","","","","","","learn","SL",""
"","html-keyboard-response","174","375775","0.0-174.0","""event"",""trial"",""time""
""fullscreenenter"",""0"",""151556""
","
","
","""event"",""trial"",""time""
""fullscreenenter"",""0"",""151556""
","
","null","<p></p>","null","","","","","","","",""
"","image","175","377315","0.0-175.0","""event"",""trial"",""time""
""fullscreenenter"",""0"",""151556""
","
","
","""event"",""trial"",""time""
""fullscreenenter"",""0"",""151556""
","
","1538.5","run_exp/static/images/Set 6_rs/116a.jpg","86","","","","","","learn","SL",""
"","show_choice","176","377785","0.0-176.0","""event"",""trial"",""time""
""fullscreenenter"",""0"",""151556""
","
","
","""event"",""trial"",""time""
""fullscreenenter"",""0"",""151556""
","
","null","run_exp/static/images/Set 6_rs/116a.jpg","null","","","","","","learn","SL",""
"","html-keyboard-response","177","378299","0.0-177.0","""event"",""trial"",""time""
""fullscreenenter"",""0"",""151556""
","
","
","""event"",""trial"",""time""
""fullscreenenter"",""0"",""151556""
","
","null","<p></p>","null","","","","","","","",""
"","image","178","380310","0.0-178.0","""event"",""trial"",""time""
""fullscreenenter"",""0"",""151556""
","
","
","""event"",""trial"",""time""
""fullscreenenter"",""0"",""151556""
","
","null","run_exp/static/images/Set 6_rs/122a.jpg","null","","","","","","learn","SR",""
"","show_choice","179","382315","0.0-179.0","""event"",""trial"",""time""
""fullscreenenter"",""0"",""151556""
","
","
","""event"",""trial"",""time""
""fullscreenenter"",""0"",""151556""
","
","null","run_exp/static/images/blank.png","null","","","","","","learn","SR",""
"","html-keyboard-response","180","382831","0.0-180.0","""event"",""trial"",""time""
""fullscreenenter"",""0"",""151556""
","
","
","""event"",""trial"",""time""
""fullscreenenter"",""0"",""151556""
","
","null","<p></p>","null","","","","","","","",""
"","image","181","384838","0.0-181.0","""event"",""trial"",""time""
""fullscreenenter"",""0"",""151556""
","
","
","""event"",""trial"",""time""
""fullscreenenter"",""0"",""151556""
","
","null","run_exp/static/images/Set 6_rs/055a.jpg","null","","","","","","learn","SL",""
"","show_choice","182","386842","0.0-182.0","""event"",""trial"",""time""
""fullscreenenter"",""0"",""151556""
","
","
","""event"",""trial"",""time""
""fullscreenenter"",""0"",""151556""
","
","null","run_exp/static/images/blank.png","null","","","","","","learn","SL",""
"","html-keyboard-response","183","387347","0.0-183.0","""event"",""trial"",""time""
""fullscreenenter"",""0"",""151556""
","
","
","""event"",""trial"",""time""
""fullscreenenter"",""0"",""151556""
","
","null","<p></p>","null","","","","","","","",""
"","image","184","388115","0.0-184.0","""event"",""trial"",""time""
""fullscreenenter"",""0"",""151556""
","
","
","""event"",""trial"",""time""
""fullscreenenter"",""0"",""151556""
","
","766.8999999761581","run_exp/static/images/Set 6_rs/079a.jpg","86","","","","","","learn","SL",""
"","show_choice","185","389352","0.0-185.0","""event"",""trial"",""time""
""fullscreenenter"",""0"",""151556""
","
","
","""event"",""trial"",""time""
""fullscreenenter"",""0"",""151556""
","
","null","run_exp/static/images/Set 6_rs/079a.jpg","null","","","","","","learn","SL",""
"","html-keyboard-response","186","389867","0.0-186.0","""event"",""trial"",""time""
""fullscreenenter"",""0"",""151556""
","
","
","""event"",""trial"",""time""
""fullscreenenter"",""0"",""151556""
","
","null","<p></p>","null","","","","","","","",""
"","image","187","390986","0.0-187.0","""event"",""trial"",""time""
""fullscreenenter"",""0"",""151556""
","
","
","""event"",""trial"",""time""
""fullscreenenter"",""0"",""151556""
","
","1117.800000011921","run_exp/static/images/Set 6_rs/117a.jpg","78","","","","","","learn","SL",""
"","show_choice","188","391876","0.0-188.0","""event"",""trial"",""time""
""fullscreenenter"",""0"",""151556""
","
","
","""event"",""trial"",""time""
""fullscreenenter"",""0"",""151556""
","
","null","run_exp/static/images/Set 6_rs/117a.jpg","null","","","","","","learn","SL",""
"","html-keyboard-response","189","392388","0.0-189.0","""event"",""trial"",""time""
""fullscreenenter"",""0"",""151556""
","
","
","""event"",""trial"",""time""
""fullscreenenter"",""0"",""151556""
","
","null","<p></p>","null","","","","","","","",""
"","image","190","393427","0.0-190.0","""event"",""trial"",""time""
""fullscreenenter"",""0"",""151556""
","
","
","""event"",""trial"",""time""
""fullscreenenter"",""0"",""151556""
","
","1038.2000000476837","run_exp/static/images/Set 6_rs/016a.jpg","86","","","","","","learn","SL",""
"","show_choice","191","394395","0.0-191.0","""event"",""trial"",""time""
""fullscreenenter"",""0"",""151556""
","
","
","""event"",""trial"",""time""
""fullscreenenter"",""0"",""151556""
","
","null","run_exp/static/images/Set 6_rs/016a.jpg","null","","","","","","learn","SL",""
"","html-keyboard-response","192","394910","0.0-192.0","""event"",""trial"",""time""
""fullscreenenter"",""0"",""151556""
","
","
","""event"",""trial"",""time""
""fullscreenenter"",""0"",""151556""
","
","null","<p></p>","null","","","","","","","",""
"","image","193","396394","0.0-193.0","""event"",""trial"",""time""
""fullscreenenter"",""0"",""151556""
","
","
","""event"",""trial"",""time""
""fullscreenenter"",""0"",""151556""
","
","1483.5","run_exp/static/images/Set 6_rs/071a.jpg","86","","","","","","learn","SL",""
"","show_choice","194","396914","0.0-194.0","""event"",""trial"",""time""
""fullscreenenter"",""0"",""151556""
","
","
","""event"",""trial"",""time""
""fullscreenenter"",""0"",""151556""
","
","null","run_exp/static/images/Set 6_rs/071a.jpg","null","","","","","","learn","SL",""
"","html-keyboard-response","195","397426","0.0-195.0","""event"",""trial"",""time""
""fullscreenenter"",""0"",""151556""
","
","
","""event"",""trial"",""time""
""fullscreenenter"",""0"",""151556""
","
","null","<p></p>","null","","","","","","","",""
"","test_intro","196","434253","0.0-196.0","""event"",""trial"",""time""
""fullscreenenter"",""0"",""151556""
","
","
","""event"",""trial"",""time""
""fullscreenenter"",""0"",""151556""
","
","null","run_exp/static/audio/clip_2_memory.m4a","null","","","","","<div class='center'><p>Now, lets see how much you remember about the items you just saw.  For each item, you need to indicate if it was <b>old</b> by pressing the <b>v</b> key, <b>similar</b> by pressing the <b>b</b> key, or <b>new</b> by pressing the <b>n</b> key.</p><p>Old refers to an item that you saw before in the indoor/outdoor game that you just played, new refers to an item you have <b>not</b> seen before within the indoor/outdoor game, and similar refers to an item that is similar to an item youve seen before but is not exactly the same. </p><p>Before we begin, lets go over some brief demonstrations to make sure you understand.</p></div>","","",""
"","html-keyboard-response","197","436106","0.0-197.0","""event"",""trial"",""time""
""fullscreenenter"",""0"",""151556""
","
","
","""event"",""trial"",""time""
""fullscreenenter"",""0"",""151556""
","
","1852","<div class='center'><p>Now, lets see how much you remember about the items you just saw.  For each item, you need to indicate if it was <b>old</b> by pressing the <b>v</b> key, <b>similar</b> by pressing the <b>b</b> key, or <b>new</b> by pressing the <b>n</b> key.</p><p>Old refers to an item that you saw before in the indoor/outdoor game that you just played, new refers to an item you have <b>not</b> seen before within the indoor/outdoor game, and similar refers to an item that is similar to an item youve seen before but is not exactly the same. </p><p>Before we begin, lets go over some brief demonstrations to make sure you understand.</p><div><p><b>[Press the space bar to continue]</b></p></div>","32","","","","","","","",""
"","items","198","443621","0.0-198.0","""event"",""trial"",""time""
""fullscreenenter"",""0"",""151556""
","
","
","""event"",""trial"",""time""
""fullscreenenter"",""0"",""151556""
","
","null","run_exp/static/audio/clip_3_items.m4a","null","","","","","","","",""
"","mop","199","448130","0.0-199.0","""event"",""trial"",""time""
""fullscreenenter"",""0"",""151556""
","
","
","""event"",""trial"",""time""
""fullscreenenter"",""0"",""151556""
","
","null","run_exp/static/audio/clip_4_mop.m4a","null","","","","","","","",""
"","baseball","200","451633","0.0-200.0","""event"",""trial"",""time""
""fullscreenenter"",""0"",""151556""
","
","
","""event"",""trial"",""time""
""fullscreenenter"",""0"",""151556""
","
","null","run_exp/static/audio/clip_5_baseball.m4a","null","","","","","","","",""
"","trumpet","201","455136","0.0-201.0","""event"",""trial"",""time""
""fullscreenenter"",""0"",""151556""
","
","
","""event"",""trial"",""time""
""fullscreenenter"",""0"",""151556""
","
","null","run_exp/static/audio/clip_6_trumpet.m4a","null","","","","","","","",""
"","gummies","202","458649","0.0-202.0","""event"",""trial"",""time""
""fullscreenenter"",""0"",""151556""
","
","
","""event"",""trial"",""time""
""fullscreenenter"",""0"",""151556""
","
","null","run_exp/static/audio/clip_7_gummies.m4a","null","","","","","","","",""
"","osn","203","463153","0.0-203.0","""event"",""trial"",""time""
""fullscreenenter"",""0"",""151556""
","
","
","""event"",""trial"",""time""
""fullscreenenter"",""0"",""151556""
","
","null","run_exp/static/audio/clip_8_osn.m4a","null","","","","","","","",""
"","old_1","204","469662","0.0-204.0","""event"",""trial"",""time""
""fullscreenenter"",""0"",""151556""
","
","
","""event"",""trial"",""time""
""fullscreenenter"",""0"",""151556""
","
","null","run_exp/static/audio/clip_9_old_trumpet.m4a","null","","","","","","","",""
"","new_1","205","477166","0.0-205.0","""event"",""trial"",""time""
""fullscreenenter"",""0"",""151556""
","
","
","""event"",""trial"",""time""
""fullscreenenter"",""0"",""151556""
","
","null","run_exp/static/audio/clip_10_new_balloon.m4a","null","","","","","","","",""
"","similar_1a","206","481673","0.0-206.0","""event"",""trial"",""time""
""fullscreenenter"",""0"",""151556""
","
","
","""event"",""trial"",""time""
""fullscreenenter"",""0"",""151556""
","
","null","run_exp/static/audio/clip_11a_similar_mop.m4a","null","","","","","","","",""
"","similar_1b","207","488176","0.0-207.0","""event"",""trial"",""time""
""fullscreenenter"",""0"",""151556""
","
","
","""event"",""trial"",""time""
""fullscreenenter"",""0"",""151556""
","
","null","run_exp/static/audio/clip_11b_similar_mop.m4a","null","","","","","","","",""
"","new_2","208","491688","0.0-208.0","""event"",""trial"",""time""
""fullscreenenter"",""0"",""151556""
","
","
","""event"",""trial"",""time""
""fullscreenenter"",""0"",""151556""
","
","null","run_exp/static/audio/clip_12_new_stoplight.m4a","null","","","","","","","",""
"","old_2","209","495195","0.0-209.0","""event"",""trial"",""time""
""fullscreenenter"",""0"",""151556""
","
","
","""event"",""trial"",""time""
""fullscreenenter"",""0"",""151556""
","
","null","run_exp/static/audio/clip_13_old_baseball.m4a","null","","","","","","","",""
"","similar_2a","210","498711","0.0-210.0","""event"",""trial"",""time""
""fullscreenenter"",""0"",""151556""
","
","
","""event"",""trial"",""time""
""fullscreenenter"",""0"",""151556""
","
","null","run_exp/static/audio/clip_14a_similar_gummies.m4a","null","","","","","","","",""
"","similar_2b","211","506214","0.0-211.0","""event"",""trial"",""time""
""fullscreenenter"",""0"",""151556""
","
","
","""event"",""trial"",""time""
""fullscreenenter"",""0"",""151556""
","
","null","run_exp/static/audio/clip_14b_similar_gummies.m4a","null","","","","","","","",""
"","practice","212","548334","0.0-212.0","""event"",""trial"",""time""
""fullscreenenter"",""0"",""151556""
","
","
","""event"",""trial"",""time""
""fullscreenenter"",""0"",""151556""
","
","null","run_exp/static/audio/clip_15_practice.m4a","null","","","","","<div class='center'><p>Lets practice a little to make sure you understand the difference between new, similar, and old. Lets say you saw these three items in the indoor/outdoor game.</p><p> Try your best to remember these images because youll soon be tested on them in a practice game. In the practice game, youll be shown images and youll have to say if they are old (one of the three images belows), similar (similar to one of the images below but not exactly the same), or new (are not one of the images below nor similar to them).</p><p>Once you press the space bar youll be shown these images again but one at time. Then youll begin the practice game.</p><p><img src='run_exp/static/images/tutorial/test/three_indoor_outdoor.png' height='300'></p></div>","","",""
"","html-keyboard-response","213","552363","0.0-213.0","""event"",""trial"",""time""
""fullscreenenter"",""0"",""151556""
","
","
","""event"",""trial"",""time""
""fullscreenenter"",""0"",""151556""
","
","4027.699999988079","<div class='center'><p>Lets practice a little to make sure you understand the difference between new, similar, and old. Lets say you saw these three items in the indoor/outdoor game.</p><p> Try your best to remember these images because youll soon be tested on them in a practice game. In the practice game, youll be shown images and youll have to say if they are old (one of the three images belows), similar (similar to one of the images below but not exactly the same), or new (are not one of the images below nor similar to them).</p><p>Once you press the space bar youll be shown these images again but one at time. Then youll begin the practice game.</p><p><img src='run_exp/static/images/tutorial/test/three_indoor_outdoor.png' height='300'></p><div><p><b>[Press the space bar to continue]</b></p></div>","32","","","","","","","",""
"","planet","214","554376","0.0-214.0","""event"",""trial"",""time""
""fullscreenenter"",""0"",""151556""
","
","
","""event"",""trial"",""time""
""fullscreenenter"",""0"",""151556""
","
","null","run_exp/static/images/tutorial/test/008a.jpg","null","","","","","","","",""
"","boot","215","556386","0.0-215.0","""event"",""trial"",""time""
""fullscreenenter"",""0"",""151556""
","
","
","""event"",""trial"",""time""
""fullscreenenter"",""0"",""151556""
","
","null","run_exp/static/images/tutorial/test/011a.jpg","null","","","","","","","",""
"","lemon","216","558397","0.0-216.0","""event"",""trial"",""time""
""fullscreenenter"",""0"",""151556""
","
","
","""event"",""trial"",""time""
""fullscreenenter"",""0"",""151556""
","
","null","run_exp/static/images/tutorial/test/018a.jpg","null","","","","","","","",""
"","practice_q1","217","563659","0.0-217.0","""event"",""trial"",""time""
""fullscreenenter"",""0"",""151556""
","
","
","""event"",""trial"",""time""
""fullscreenenter"",""0"",""151556""
","
","5260","run_exp/static/audio/clip_16_practice_question.m4a","78","","","","","","","",""
"","correct","218","565563","0.0-218.0-0.0","""event"",""trial"",""time""
""fullscreenenter"",""0"",""151556""
","
","
","""event"",""trial"",""time""
""fullscreenenter"",""0"",""151556""
","
","null","run_exp/static/audio/clip_17_correct.m4a","null","","","","","<div class='center'><p>That's correct!</p></div>","","",""
"","html-keyboard-response","219","567066","0.0-218.0-1.0","""event"",""trial"",""time""
""fullscreenenter"",""0"",""151556""
","
","
","""event"",""trial"",""time""
""fullscreenenter"",""0"",""151556""
","
","1502.2000000476837","<div class='center'><p>That's correct!</p><div><p><b>[Press the space bar to continue]</b></p></div>","32","","","","","","","",""
"","practice_q2","220","568370","0.0-218.0-2.0","""event"",""trial"",""time""
""fullscreenenter"",""0"",""151556""
","
","
","""event"",""trial"",""time""
""fullscreenenter"",""0"",""151556""
","
","1303","run_exp/static/audio/clip_16_practice_question.m4a","86","","","","","","","",""
"","correct","221","570263","0.0-219.0-0.0","""event"",""trial"",""time""
""fullscreenenter"",""0"",""151556""
","
","
","""event"",""trial"",""time""
""fullscreenenter"",""0"",""151556""
","
","null","run_exp/static/audio/clip_17_correct.m4a","null","","","","","<div class='center'><p>That's correct!</p></div>","","",""
"","html-keyboard-response","222","572826","0.0-219.0-1.0","""event"",""trial"",""time""
""fullscreenenter"",""0"",""151556""
","
","
","""event"",""trial"",""time""
""fullscreenenter"",""0"",""151556""
","
","2561.7999999523163","<div class='center'><p>That's correct!</p><div><p><b>[Press the space bar to continue]</b></p></div>","32","","","","","","","",""
"","practice_q3","223","574451","0.0-219.0-2.0","""event"",""trial"",""time""
""fullscreenenter"",""0"",""151556""
","
","
","""event"",""trial"",""time""
""fullscreenenter"",""0"",""151556""
","
","1623.3999999761581","run_exp/static/audio/clip_16_practice_question.m4a","66","","","","","","","",""
"","correct","224","576483","0.0-220.0-0.0","""event"",""trial"",""time""
""fullscreenenter"",""0"",""151556""
","
","
","""event"",""trial"",""time""
""fullscreenenter"",""0"",""151556""
","
","null","run_exp/static/audio/clip_17_correct.m4a","null","","","","","<div class='center'><p>That's correct!</p></div>","","",""
"","html-keyboard-response","225","577786","0.0-220.0-1.0","""event"",""trial"",""time""
""fullscreenenter"",""0"",""151556""
","
","
","""event"",""trial"",""time""
""fullscreenenter"",""0"",""151556""
","
","1302.2000000476837","<div class='center'><p>That's correct!</p><div><p><b>[Press the space bar to continue]</b></p></div>","32","","","","","","","",""
"","begin_text","226","596263","0.0-221.0-0.0","""event"",""trial"",""time""
""fullscreenenter"",""0"",""151556""
","
","
","""event"",""trial"",""time""
""fullscreenenter"",""0"",""151556""
","
","null","run_exp/static/audio/clip_22_begin_test.m4a","null","","","","","<div class='center'><p>On to the real game where well test your memory of items from the indoor/outdoor game. For each item, you need to indicate if the item is <b>old</b> by pressing the <b>v</b> key, <b>similar</b> by pressing the <b>b</b> key, or <b>new</b> by pressing the <b>n</b> key. </p></div>","","",""
"","html-keyboard-response","227","596882","0.0-221.0-1.0","""event"",""trial"",""time""
""fullscreenenter"",""0"",""151556""
","
","
","""event"",""trial"",""time""
""fullscreenenter"",""0"",""151556""
","
","617.6999999880791","<div class='center'><p>On to the real game where well test your memory of items from the indoor/outdoor game. For each item, you need to indicate if the item is <b>old</b> by pressing the <b>v</b> key, <b>similar</b> by pressing the <b>b</b> key, or <b>new</b> by pressing the <b>n</b> key. </p><div><p><b>[Press the space bar to continue]</b></p></div>","32","","","","","","","",""
"","image","228","599435","0.0-222.0-0.0","""event"",""trial"",""time""
""fullscreenenter"",""0"",""151556""
","
","
","""event"",""trial"",""time""
""fullscreenenter"",""0"",""151556""
","
","2550.899999976158","run_exp/static/images/Set 6_rs/074b.jpg","86","","","","","","test","TL","4"
"","show_choice","229","599943","0.0-222.0-1.0","""event"",""trial"",""time""
""fullscreenenter"",""0"",""151556""
","
","
","""event"",""trial"",""time""
""fullscreenenter"",""0"",""151556""
","
","null","run_exp/static/images/Set 6_rs/074b.jpg","null","","","","","","test","TL",""
"","html-keyboard-response","230","600456","0.0-222.0-2.0","""event"",""trial"",""time""
""fullscreenenter"",""0"",""151556""
","
","
","""event"",""trial"",""time""
""fullscreenenter"",""0"",""151556""
","
","null","<p></p>","null","","","","","","","",""
"","image","231","601570","0.0-223.0-0.0","""event"",""trial"",""time""
""fullscreenenter"",""0"",""151556""
","
","
","""event"",""trial"",""time""
""fullscreenenter"",""0"",""151556""
","
","1113.5999999642372","run_exp/static/images/Set 6_rs/089b.jpg","86","","","","","","test","TL","4"
"","show_choice","232","602077","0.0-223.0-1.0","""event"",""trial"",""time""
""fullscreenenter"",""0"",""151556""
","
","
","""event"",""trial"",""time""
""fullscreenenter"",""0"",""151556""
","
","null","run_exp/static/images/Set 6_rs/089b.jpg","null","","","","","","test","TL",""
"","html-keyboard-response","233","602589","0.0-223.0-2.0","""event"",""trial"",""time""
""fullscreenenter"",""0"",""151556""
","
","
","""event"",""trial"",""time""
""fullscreenenter"",""0"",""151556""
","
","null","<p></p>","null","","","","","","","",""
"","image","234","603427","0.0-224.0-0.0","""event"",""trial"",""time""
""fullscreenenter"",""0"",""151556""
","
","
","""event"",""trial"",""time""
""fullscreenenter"",""0"",""151556""
","
","836.5","run_exp/static/images/Set 6_rs/079b.jpg","86","","","","","","test","TL","5"
"","show_choice","235","603940","0.0-224.0-1.0","""event"",""trial"",""time""
""fullscreenenter"",""0"",""151556""
","
","
","""event"",""trial"",""time""
""fullscreenenter"",""0"",""151556""
","
","null","run_exp/static/images/Set 6_rs/079b.jpg","null","","","","","","test","TL",""
"","html-keyboard-response","236","604457","0.0-224.0-2.0","""event"",""trial"",""time""
""fullscreenenter"",""0"",""151556""
","
","
","""event"",""trial"",""time""
""fullscreenenter"",""0"",""151556""
","
","null","<p></p>","null","","","","","","","",""
"","image","237","605074","0.0-225.0-0.0","""event"",""trial"",""time""
""fullscreenenter"",""0"",""151556""
","
","
","""event"",""trial"",""time""
""fullscreenenter"",""0"",""151556""
","
","616.6999999880791","run_exp/static/images/Set 6_rs/108a.jpg","86","","","","","","test","TR","5"
"","show_choice","238","605590","0.0-225.0-1.0","""event"",""trial"",""time""
""fullscreenenter"",""0"",""151556""
","
","
","""event"",""trial"",""time""
""fullscreenenter"",""0"",""151556""
","
","null","run_exp/static/images/Set 6_rs/108a.jpg","null","","","","","","test","TR",""
"","html-keyboard-response","239","606103","0.0-225.0-2.0","""event"",""trial"",""time""
""fullscreenenter"",""0"",""151556""
","
","
","""event"",""trial"",""time""
""fullscreenenter"",""0"",""151556""
","
","null","<p></p>","null","","","","","","","",""
"","image","240","607115","0.0-226.0-0.0","""event"",""trial"",""time""
""fullscreenenter"",""0"",""151556""
","
","
","""event"",""trial"",""time""
""fullscreenenter"",""0"",""151556""
","
","1011","run_exp/static/images/Set 6_rs/055b.jpg","86","","","","","","test","TL","4"
"","show_choice","241","607628","0.0-226.0-1.0","""event"",""trial"",""time""
""fullscreenenter"",""0"",""151556""
","
","
","""event"",""trial"",""time""
""fullscreenenter"",""0"",""151556""
","
","null","run_exp/static/images/Set 6_rs/055b.jpg","null","","","","","","test","TL",""
"","html-keyboard-response","242","608141","0.0-226.0-2.0","""event"",""trial"",""time""
""fullscreenenter"",""0"",""151556""
","
","
","""event"",""trial"",""time""
""fullscreenenter"",""0"",""151556""
","
","null","<p></p>","null","","","","","","","",""
"","image","243","608706","0.0-227.0-0.0","""event"",""trial"",""time""
""fullscreenenter"",""0"",""151556""
","
","
","""event"",""trial"",""time""
""fullscreenenter"",""0"",""151556""
","
","564.1999999880791","run_exp/static/images/Set 6_rs/016b.jpg","86","","","","","","test","TL","1"
"","show_choice","244","609215","0.0-227.0-1.0","""event"",""trial"",""time""
""fullscreenenter"",""0"",""151556""
","
","
","""event"",""trial"",""time""
""fullscreenenter"",""0"",""151556""
","
","null","run_exp/static/images/Set 6_rs/016b.jpg","null","","","","","","test","TL",""
"","html-keyboard-response","245","609727","0.0-227.0-2.0","""event"",""trial"",""time""
""fullscreenenter"",""0"",""151556""
","
","
","""event"",""trial"",""time""
""fullscreenenter"",""0"",""151556""
","
","null","<p></p>","null","","","","","","","",""
"","image","246","610314","0.0-228.0-0.0","""event"",""trial"",""time""
""fullscreenenter"",""0"",""151556""
","
","
","""event"",""trial"",""time""
""fullscreenenter"",""0"",""151556""
","
","586.5999999642372","run_exp/static/images/Set 6_rs/075a.jpg","86","","","","","","test","TR","1"
"","show_choice","247","610828","0.0-228.0-1.0","""event"",""trial"",""time""
""fullscreenenter"",""0"",""151556""
","
","
","""event"",""trial"",""time""
""fullscreenenter"",""0"",""151556""
","
","null","run_exp/static/images/Set 6_rs/075a.jpg","null","","","","","","test","TR",""
"","html-keyboard-response","248","611342","0.0-228.0-2.0","""event"",""trial"",""time""
""fullscreenenter"",""0"",""151556""
","
","
","""event"",""trial"",""time""
""fullscreenenter"",""0"",""151556""
","
","null","<p></p>","null","","","","","","","",""
"","image","249","611883","0.0-229.0-0.0","""event"",""trial"",""time""
""fullscreenenter"",""0"",""151556""
","
","
","""event"",""trial"",""time""
""fullscreenenter"",""0"",""151556""
","
","539.6999999880791","run_exp/static/images/Set 6_rs/045a.jpg","86","","","","","","test","TR","2"
"","show_choice","250","612399","0.0-229.0-1.0","""event"",""trial"",""time""
""fullscreenenter"",""0"",""151556""
","
","
","""event"",""trial"",""time""
""fullscreenenter"",""0"",""151556""
","
","null","run_exp/static/images/Set 6_rs/045a.jpg","null","","","","","","test","TR",""
"","html-keyboard-response","251","612914","0.0-229.0-2.0","""event"",""trial"",""time""
""fullscreenenter"",""0"",""151556""
","
","
","""event"",""trial"",""time""
""fullscreenenter"",""0"",""151556""
","
","null","<p></p>","null","","","","","","","",""
"","image","252","613586","0.0-230.0-0.0","""event"",""trial"",""time""
""fullscreenenter"",""0"",""151556""
","
","
","""event"",""trial"",""time""
""fullscreenenter"",""0"",""151556""
","
","670.7999999523163","run_exp/static/images/Set 6_rs/169a.jpg","86","","","","","","test","TR","4"
"","show_choice","253","614099","0.0-230.0-1.0","""event"",""trial"",""time""
""fullscreenenter"",""0"",""151556""
","
","
","""event"",""trial"",""time""
""fullscreenenter"",""0"",""151556""
","
","null","run_exp/static/images/Set 6_rs/169a.jpg","null","","","","","","test","TR",""
"","html-keyboard-response","254","614613","0.0-230.0-2.0","""event"",""trial"",""time""
""fullscreenenter"",""0"",""151556""
","
","
","""event"",""trial"",""time""
""fullscreenenter"",""0"",""151556""
","
","null","<p></p>","null","","","","","","","",""
"","image","255","615218","0.0-231.0-0.0","""event"",""trial"",""time""
""fullscreenenter"",""0"",""151556""
","
","
","""event"",""trial"",""time""
""fullscreenenter"",""0"",""151556""
","
","604.3999999761581","run_exp/static/images/Set 6_rs/152a.jpg","86","","","","","","test","TR","2"
"","show_choice","256","615728","0.0-231.0-1.0","""event"",""trial"",""time""
""fullscreenenter"",""0"",""151556""
","
","
","""event"",""trial"",""time""
""fullscreenenter"",""0"",""151556""
","
","null","run_exp/static/images/Set 6_rs/152a.jpg","null","","","","","","test","TR",""
"","html-keyboard-response","257","616241","0.0-231.0-2.0","""event"",""trial"",""time""
""fullscreenenter"",""0"",""151556""
","
","
","""event"",""trial"",""time""
""fullscreenenter"",""0"",""151556""
","
","null","<p></p>","null","","","","","","","",""
"","image","258","616802","0.0-232.0-0.0","""event"",""trial"",""time""
""fullscreenenter"",""0"",""151556""
","
","
","""event"",""trial"",""time""
""fullscreenenter"",""0"",""151556""
","
","559.8000000119209","run_exp/static/images/Set 6_rs/191b.jpg","86","","","","","","test","TL","2"
"","show_choice","259","617313","0.0-232.0-1.0","""event"",""trial"",""time""
""fullscreenenter"",""0"",""151556""
","
","
","""event"",""trial"",""time""
""fullscreenenter"",""0"",""151556""
","
","null","run_exp/static/images/Set 6_rs/191b.jpg","null","","","","","","test","TL",""
"","html-keyboard-response","260","617827","0.0-232.0-2.0","""event"",""trial"",""time""
""fullscreenenter"",""0"",""151556""
","
","
","""event"",""trial"",""time""
""fullscreenenter"",""0"",""151556""
","
","null","<p></p>","null","","","","","","","",""
"","image","261","618603","0.0-233.0-0.0","""event"",""trial"",""time""
""fullscreenenter"",""0"",""151556""
","
","
","""event"",""trial"",""time""
""fullscreenenter"",""0"",""151556""
","
","775.0999999642372","run_exp/static/images/Set 6_rs/181b.jpg","86","","","","","","test","TL","1"
"","show_choice","262","619104","0.0-233.0-1.0","""event"",""trial"",""time""
""fullscreenenter"",""0"",""151556""
","
","
","""event"",""trial"",""time""
""fullscreenenter"",""0"",""151556""
","
","null","run_exp/static/images/Set 6_rs/181b.jpg","null","","","","","","test","TL",""
"","html-keyboard-response","263","619616","0.0-233.0-2.0","""event"",""trial"",""time""
""fullscreenenter"",""0"",""151556""
","
","
","""event"",""trial"",""time""
""fullscreenenter"",""0"",""151556""
","
","null","<p></p>","null","","","","","","","",""
"","image","264","621859","0.0-234.0-0.0","""event"",""trial"",""time""
""fullscreenenter"",""0"",""151556""
","
","
","""event"",""trial"",""time""
""fullscreenenter"",""0"",""151556""
","
","2241.599999964237","run_exp/static/images/Set 6_rs/052a.jpg","66","","","","","","test","TF","1"
"","show_choice","265","622360","0.0-234.0-1.0","""event"",""trial"",""time""
""fullscreenenter"",""0"",""151556""
","
","
","""event"",""trial"",""time""
""fullscreenenter"",""0"",""151556""
","
","null","run_exp/static/images/Set 6_rs/052a.jpg","null","","","","","","test","TF",""
"","html-keyboard-response","266","622871","0.0-234.0-2.0","""event"",""trial"",""time""
""fullscreenenter"",""0"",""151556""
","
","
","""event"",""trial"",""time""
""fullscreenenter"",""0"",""151556""
","
","null","<p></p>","null","","","","","","","",""
"","image","267","624187","0.0-235.0-0.0","""event"",""trial"",""time""
""fullscreenenter"",""0"",""151556""
","
","
","""event"",""trial"",""time""
""fullscreenenter"",""0"",""151556""
","
","1315","run_exp/static/images/Set 6_rs/105a.jpg","66","","","","","","test","TF","5"
"","show_choice","268","624690","0.0-235.0-1.0","""event"",""trial"",""time""
""fullscreenenter"",""0"",""151556""
","
","
","""event"",""trial"",""time""
""fullscreenenter"",""0"",""151556""
","
","null","run_exp/static/images/Set 6_rs/105a.jpg","null","","","","","","test","TF",""
"","html-keyboard-response","269","625201","0.0-235.0-2.0","""event"",""trial"",""time""
""fullscreenenter"",""0"",""151556""
","
","
","""event"",""trial"",""time""
""fullscreenenter"",""0"",""151556""
","
","null","<p></p>","null","","","","","","","",""
"","image","270","626315","0.0-236.0-0.0","""event"",""trial"",""time""
""fullscreenenter"",""0"",""151556""
","
","
","""event"",""trial"",""time""
""fullscreenenter"",""0"",""151556""
","
","1113.0999999642372","run_exp/static/images/Set 6_rs/001a.jpg","66","","","","","","test","TF","1"
"","show_choice","271","626821","0.0-236.0-1.0","""event"",""trial"",""time""
""fullscreenenter"",""0"",""151556""
","
","
","""event"",""trial"",""time""
""fullscreenenter"",""0"",""151556""
","
","null","run_exp/static/images/Set 6_rs/001a.jpg","null","","","","","","test","TF",""
"","html-keyboard-response","272","627337","0.0-236.0-2.0","""event"",""trial"",""time""
""fullscreenenter"",""0"",""151556""
","
","
","""event"",""trial"",""time""
""fullscreenenter"",""0"",""151556""
","
","null","<p></p>","null","","","","","","","",""
"","image","273","628171","0.0-237.0-0.0","""event"",""trial"",""time""
""fullscreenenter"",""0"",""151556""
","
","
","""event"",""trial"",""time""
""fullscreenenter"",""0"",""151556""
","
","833.0999999642372","run_exp/static/images/Set 6_rs/126a.jpg","86","","","","","","test","TR","2"
"","show_choice","274","628678","0.0-237.0-1.0","""event"",""trial"",""time""
""fullscreenenter"",""0"",""151556""
","
","
","""event"",""trial"",""time""
""fullscreenenter"",""0"",""151556""
","
","null","run_exp/static/images/Set 6_rs/126a.jpg","null","","","","","","test","TR",""
"","html-keyboard-response","275","629190","0.0-237.0-2.0","""event"",""trial"",""time""
""fullscreenenter"",""0"",""151556""
","
","
","""event"",""trial"",""time""
""fullscreenenter"",""0"",""151556""
","
","null","<p></p>","null","","","","","","","",""
"","image","276","630139","0.0-238.0-0.0","""event"",""trial"",""time""
""fullscreenenter"",""0"",""151556""
","
","
","""event"",""trial"",""time""
""fullscreenenter"",""0"",""151556""
","
","947.1999999880791","run_exp/static/images/Set 6_rs/178a.jpg","86","","","","","","test","TR","3"
"","show_choice","277","630654","0.0-238.0-1.0","""event"",""trial"",""time""
""fullscreenenter"",""0"",""151556""
","
","
","""event"",""trial"",""time""
""fullscreenenter"",""0"",""151556""
","
","null","run_exp/static/images/Set 6_rs/178a.jpg","null","","","","","","test","TR",""
"","html-keyboard-response","278","631168","0.0-238.0-2.0","""event"",""trial"",""time""
""fullscreenenter"",""0"",""151556""
","
","
","""event"",""trial"",""time""
""fullscreenenter"",""0"",""151556""
","
","null","<p></p>","null","","","","","","","",""
"","image","279","632707","0.0-239.0-0.0","""event"",""trial"",""time""
""fullscreenenter"",""0"",""151556""
","
","
","""event"",""trial"",""time""
""fullscreenenter"",""0"",""151556""
","
","1537.800000011921","run_exp/static/images/Set 6_rs/188a.jpg","78","","","","","","test","TF","3"
"","show_choice","280","633222","0.0-239.0-1.0","""event"",""trial"",""time""
""fullscreenenter"",""0"",""151556""
","
","
","""event"",""trial"",""time""
""fullscreenenter"",""0"",""151556""
","
","null","run_exp/static/images/Set 6_rs/188a.jpg","null","","","","","","test","TF",""
"","html-keyboard-response","281","633726","0.0-239.0-2.0","""event"",""trial"",""time""
""fullscreenenter"",""0"",""151556""
","
","
","""event"",""trial"",""time""
""fullscreenenter"",""0"",""151556""
","
","null","<p></p>","null","","","","","","","",""
"","image","282","634563","0.0-240.0-0.0","""event"",""trial"",""time""
""fullscreenenter"",""0"",""151556""
","
","
","""event"",""trial"",""time""
""fullscreenenter"",""0"",""151556""
","
","835.4000000357628","run_exp/static/images/Set 6_rs/190a.jpg","78","","","","","","test","TF","3"
"","show_choice","283","635066","0.0-240.0-1.0","""event"",""trial"",""time""
""fullscreenenter"",""0"",""151556""
","
","
","""event"",""trial"",""time""
""fullscreenenter"",""0"",""151556""
","
","null","run_exp/static/images/Set 6_rs/190a.jpg","null","","","","","","test","TF",""
"","html-keyboard-response","284","635578","0.0-240.0-2.0","""event"",""trial"",""time""
""fullscreenenter"",""0"",""151556""
","
","
","""event"",""trial"",""time""
""fullscreenenter"",""0"",""151556""
","
","null","<p></p>","null","","","","","","","",""
"","image","285","636675","0.0-241.0-0.0","""event"",""trial"",""time""
""fullscreenenter"",""0"",""151556""
","
","
","""event"",""trial"",""time""
""fullscreenenter"",""0"",""151556""
","
","1096.0999999642372","run_exp/static/images/Set 6_rs/065a.jpg","86","","","","","","test","TF","3"
"","show_choice","286","637185","0.0-241.0-1.0","""event"",""trial"",""time""
""fullscreenenter"",""0"",""151556""
","
","
","""event"",""trial"",""time""
""fullscreenenter"",""0"",""151556""
","
","null","run_exp/static/images/Set 6_rs/065a.jpg","null","","","","","","test","TF",""
"","html-keyboard-response","287","637696","0.0-241.0-2.0","""event"",""trial"",""time""
""fullscreenenter"",""0"",""151556""
","
","
","""event"",""trial"",""time""
""fullscreenenter"",""0"",""151556""
","
","null","<p></p>","null","","","","","","","",""
"","image","288","638987","0.0-242.0-0.0","""event"",""trial"",""time""
""fullscreenenter"",""0"",""151556""
","
","
","""event"",""trial"",""time""
""fullscreenenter"",""0"",""151556""
","
","1289.9000000357628","run_exp/static/images/Set 6_rs/086a.jpg","78","","","","","","test","TF","1"
"","show_choice","289","639503","0.0-242.0-1.0","""event"",""trial"",""time""
""fullscreenenter"",""0"",""151556""
","
","
","""event"",""trial"",""time""
""fullscreenenter"",""0"",""151556""
","
","null","run_exp/static/images/Set 6_rs/086a.jpg","null","","","","","","test","TF",""
"","html-keyboard-response","290","640005","0.0-242.0-2.0","""event"",""trial"",""time""
""fullscreenenter"",""0"",""151556""
","
","
","""event"",""trial"",""time""
""fullscreenenter"",""0"",""151556""
","
","null","<p></p>","null","","","","","","","",""
"","image","291","640883","0.0-243.0-0.0","""event"",""trial"",""time""
""fullscreenenter"",""0"",""151556""
","
","
","""event"",""trial"",""time""
""fullscreenenter"",""0"",""151556""
","
","876.5999999642372","run_exp/static/images/Set 6_rs/071b.jpg","86","","","","","","test","TL","4"
"","show_choice","292","641386","0.0-243.0-1.0","""event"",""trial"",""time""
""fullscreenenter"",""0"",""151556""
","
","
","""event"",""trial"",""time""
""fullscreenenter"",""0"",""151556""
","
","null","run_exp/static/images/Set 6_rs/071b.jpg","null","","","","","","test","TL",""
"","html-keyboard-response","293","641897","0.0-243.0-2.0","""event"",""trial"",""time""
""fullscreenenter"",""0"",""151556""
","
","
","""event"",""trial"",""time""
""fullscreenenter"",""0"",""151556""
","
","null","<p></p>","null","","","","","","","",""
"","image","294","643003","0.0-244.0-0.0","""event"",""trial"",""time""
""fullscreenenter"",""0"",""151556""
","
","
","""event"",""trial"",""time""
""fullscreenenter"",""0"",""151556""
","
","1104.4000000357628","run_exp/static/images/Set 6_rs/118a.jpg","78","","","","","","test","TF","5"
"","show_choice","295","643508","0.0-244.0-1.0","""event"",""trial"",""time""
""fullscreenenter"",""0"",""151556""
","
","
","""event"",""trial"",""time""
""fullscreenenter"",""0"",""151556""
","
","null","run_exp/static/images/Set 6_rs/118a.jpg","null","","","","","","test","TF",""
"","html-keyboard-response","296","644018","0.0-244.0-2.0","""event"",""trial"",""time""
""fullscreenenter"",""0"",""151556""
","
","
","""event"",""trial"",""time""
""fullscreenenter"",""0"",""151556""
","
","null","<p></p>","null","","","","","","","",""
"","image","297","645251","0.0-245.0-0.0","""event"",""trial"",""time""
""fullscreenenter"",""0"",""151556""
","
","
","""event"",""trial"",""time""
""fullscreenenter"",""0"",""151556""
","
","1231.800000011921","run_exp/static/images/Set 6_rs/155a.jpg","66","","","","","","test","TF","4"
"","show_choice","298","645761","0.0-245.0-1.0","""event"",""trial"",""time""
""fullscreenenter"",""0"",""151556""
","
","
","""event"",""trial"",""time""
""fullscreenenter"",""0"",""151556""
","
","null","run_exp/static/images/Set 6_rs/155a.jpg","null","","","","","","test","TF",""
"","html-keyboard-response","299","646274","0.0-245.0-2.0","""event"",""trial"",""time""
""fullscreenenter"",""0"",""151556""
","
","
","""event"",""trial"",""time""
""fullscreenenter"",""0"",""151556""
","
","null","<p></p>","null","","","","","","","",""
"","image","300","647627","0.0-246.0-0.0","""event"",""trial"",""time""
""fullscreenenter"",""0"",""151556""
","
","
","""event"",""trial"",""time""
""fullscreenenter"",""0"",""151556""
","
","1352.699999988079","run_exp/static/images/Set 6_rs/022a.jpg","66","","","","","","test","TF","4"
"","show_choice","301","648139","0.0-246.0-1.0","""event"",""trial"",""time""
""fullscreenenter"",""0"",""151556""
","
","
","""event"",""trial"",""time""
""fullscreenenter"",""0"",""151556""
","
","null","run_exp/static/images/Set 6_rs/022a.jpg","null","","","","","","test","TF",""
"","html-keyboard-response","302","648652","0.0-246.0-2.0","""event"",""trial"",""time""
""fullscreenenter"",""0"",""151556""
","
","
","""event"",""trial"",""time""
""fullscreenenter"",""0"",""151556""
","
","null","<p></p>","null","","","","","","","",""
"","image","303","649619","0.0-247.0-0.0","""event"",""trial"",""time""
""fullscreenenter"",""0"",""151556""
","
","
","""event"",""trial"",""time""
""fullscreenenter"",""0"",""151556""
","
","965.5","run_exp/static/images/Set 6_rs/024a.jpg","86","","","","","","test","TR","5"
"","show_choice","304","650122","0.0-247.0-1.0","""event"",""trial"",""time""
""fullscreenenter"",""0"",""151556""
","
","
","""event"",""trial"",""time""
""fullscreenenter"",""0"",""151556""
","
","null","run_exp/static/images/Set 6_rs/024a.jpg","null","","","","","","test","TR",""
"","html-keyboard-response","305","650633","0.0-247.0-2.0","""event"",""trial"",""time""
""fullscreenenter"",""0"",""151556""
","
","
","""event"",""trial"",""time""
""fullscreenenter"",""0"",""151556""
","
","null","<p></p>","null","","","","","","","",""
"","image","306","651291","0.0-248.0-0.0","""event"",""trial"",""time""
""fullscreenenter"",""0"",""151556""
","
","
","""event"",""trial"",""time""
""fullscreenenter"",""0"",""151556""
","
","656.3999999761581","run_exp/static/images/Set 6_rs/010a.jpg","86","","","","","","test","TR","5"
"","show_choice","307","651797","0.0-248.0-1.0","""event"",""trial"",""time""
""fullscreenenter"",""0"",""151556""
","
","
","""event"",""trial"",""time""
""fullscreenenter"",""0"",""151556""
","
","null","run_exp/static/images/Set 6_rs/010a.jpg","null","","","","","","test","TR",""
"","html-keyboard-response","308","652312","0.0-248.0-2.0","""event"",""trial"",""time""
""fullscreenenter"",""0"",""151556""
","
","
","""event"",""trial"",""time""
""fullscreenenter"",""0"",""151556""
","
","null","<p></p>","null","","","","","","","",""
"","image","309","653211","0.0-249.0-0.0","""event"",""trial"",""time""
""fullscreenenter"",""0"",""151556""
","
","
","""event"",""trial"",""time""
""fullscreenenter"",""0"",""151556""
","
","898.0999999642372","run_exp/static/images/Set 6_rs/005a.jpg","78","","","","","","test","TF","5"
"","show_choice","310","653726","0.0-249.0-1.0","""event"",""trial"",""time""
""fullscreenenter"",""0"",""151556""
","
","
","""event"",""trial"",""time""
""fullscreenenter"",""0"",""151556""
","
","null","run_exp/static/images/Set 6_rs/005a.jpg","null","","","","","","test","TF",""
"","html-keyboard-response","311","654240","0.0-249.0-2.0","""event"",""trial"",""time""
""fullscreenenter"",""0"",""151556""
","
","
","""event"",""trial"",""time""
""fullscreenenter"",""0"",""151556""
","
","null","<p></p>","null","","","","","","","",""
"","image","312","655147","0.0-250.0-0.0","""event"",""trial"",""time""
""fullscreenenter"",""0"",""151556""
","
","
","""event"",""trial"",""time""
""fullscreenenter"",""0"",""151556""
","
","905.3000000119209","run_exp/static/images/Set 6_rs/141a.jpg","86","","","","","","test","TR","2"
"","show_choice","313","655659","0.0-250.0-1.0","""event"",""trial"",""time""
""fullscreenenter"",""0"",""151556""
","
","
","""event"",""trial"",""time""
""fullscreenenter"",""0"",""151556""
","
","null","run_exp/static/images/Set 6_rs/141a.jpg","null","","","","","","test","TR",""
"","html-keyboard-response","314","656174","0.0-250.0-2.0","""event"",""trial"",""time""
""fullscreenenter"",""0"",""151556""
","
","
","""event"",""trial"",""time""
""fullscreenenter"",""0"",""151556""
","
","null","<p></p>","null","","","","","","","",""
"","image","315","657995","0.0-251.0-0.0","""event"",""trial"",""time""
""fullscreenenter"",""0"",""151556""
","
","
","""event"",""trial"",""time""
""fullscreenenter"",""0"",""151556""
","
","1819.5","run_exp/static/images/Set 6_rs/021a.jpg","78","","","","","","test","TF","2"
"","show_choice","316","658499","0.0-251.0-1.0","""event"",""trial"",""time""
""fullscreenenter"",""0"",""151556""
","
","
","""event"",""trial"",""time""
""fullscreenenter"",""0"",""151556""
","
","null","run_exp/static/images/Set 6_rs/021a.jpg","null","","","","","","test","TF",""
"","html-keyboard-response","317","659011","0.0-251.0-2.0","""event"",""trial"",""time""
""fullscreenenter"",""0"",""151556""
","
","
","""event"",""trial"",""time""
""fullscreenenter"",""0"",""151556""
","
","null","<p></p>","null","","","","","","","",""
"","image","318","659723","0.0-252.0-0.0","""event"",""trial"",""time""
""fullscreenenter"",""0"",""151556""
","
","
","""event"",""trial"",""time""
""fullscreenenter"",""0"",""151556""
","
","710.5","run_exp/static/images/Set 6_rs/076a.jpg","86","","","","","","test","TR","4"
"","show_choice","319","660231","0.0-252.0-1.0","""event"",""trial"",""time""
""fullscreenenter"",""0"",""151556""
","
","
","""event"",""trial"",""time""
""fullscreenenter"",""0"",""151556""
","
","null","run_exp/static/images/Set 6_rs/076a.jpg","null","","","","","","test","TR",""
"","html-keyboard-response","320","660746","0.0-252.0-2.0","""event"",""trial"",""time""
""fullscreenenter"",""0"",""151556""
","
","
","""event"",""trial"",""time""
""fullscreenenter"",""0"",""151556""
","
","null","<p></p>","null","","","","","","","",""
"","image","321","662755","0.0-253.0-0.0","""event"",""trial"",""time""
""fullscreenenter"",""0"",""151556""
","
","
","""event"",""trial"",""time""
""fullscreenenter"",""0"",""151556""
","
","2008.1000000238419","run_exp/static/images/Set 6_rs/171a.jpg","78","","","","","","test","TF","1"
"","show_choice","322","663263","0.0-253.0-1.0","""event"",""trial"",""time""
""fullscreenenter"",""0"",""151556""
","
","
","""event"",""trial"",""time""
""fullscreenenter"",""0"",""151556""
","
","null","run_exp/static/images/Set 6_rs/171a.jpg","null","","","","","","test","TF",""
"","html-keyboard-response","323","663764","0.0-253.0-2.0","""event"",""trial"",""time""
""fullscreenenter"",""0"",""151556""
","
","
","""event"",""trial"",""time""
""fullscreenenter"",""0"",""151556""
","
","null","<p></p>","null","","","","","","","",""
"","image","324","664603","0.0-254.0-0.0","""event"",""trial"",""time""
""fullscreenenter"",""0"",""151556""
","
","
","""event"",""trial"",""time""
""fullscreenenter"",""0"",""151556""
","
","837.9000000357628","run_exp/static/images/Set 6_rs/111b.jpg","86","","","","","","test","TL","3"
"","show_choice","325","665105","0.0-254.0-1.0","""event"",""trial"",""time""
""fullscreenenter"",""0"",""151556""
","
","
","""event"",""trial"",""time""
""fullscreenenter"",""0"",""151556""
","
","null","run_exp/static/images/Set 6_rs/111b.jpg","null","","","","","","test","TL",""
"","html-keyboard-response","326","665621","0.0-254.0-2.0","""event"",""trial"",""time""
""fullscreenenter"",""0"",""151556""
","
","
","""event"",""trial"",""time""
""fullscreenenter"",""0"",""151556""
","
","null","<p></p>","null","","","","","","","",""
"","image","327","666331","0.0-255.0-0.0","""event"",""trial"",""time""
""fullscreenenter"",""0"",""151556""
","
","
","""event"",""trial"",""time""
""fullscreenenter"",""0"",""151556""
","
","709.1000000238419","run_exp/static/images/Set 6_rs/061a.jpg","86","","","","","","test","TR","5"
"","show_choice","328","666837","0.0-255.0-1.0","""event"",""trial"",""time""
""fullscreenenter"",""0"",""151556""
","
","
","""event"",""trial"",""time""
""fullscreenenter"",""0"",""151556""
","
","null","run_exp/static/images/Set 6_rs/061a.jpg","null","","","","","","test","TR",""
"","html-keyboard-response","329","667348","0.0-255.0-2.0","""event"",""trial"",""time""
""fullscreenenter"",""0"",""151556""
","
","
","""event"",""trial"",""time""
""fullscreenenter"",""0"",""151556""
","
","null","<p></p>","null","","","","","","","",""
"","image","330","668771","0.0-256.0-0.0","""event"",""trial"",""time""
""fullscreenenter"",""0"",""151556""
","
","
","""event"",""trial"",""time""
""fullscreenenter"",""0"",""151556""
","
","1422","run_exp/static/images/Set 6_rs/070a.jpg","86","","","","","","test","TR","2"
"","show_choice","331","669278","0.0-256.0-1.0","""event"",""trial"",""time""
""fullscreenenter"",""0"",""151556""
","
","
","""event"",""trial"",""time""
""fullscreenenter"",""0"",""151556""
","
","null","run_exp/static/images/Set 6_rs/070a.jpg","null","","","","","","test","TR",""
"","html-keyboard-response","332","669793","0.0-256.0-2.0","""event"",""trial"",""time""
""fullscreenenter"",""0"",""151556""
","
","
","""event"",""trial"",""time""
""fullscreenenter"",""0"",""151556""
","
","null","<p></p>","null","","","","","","","",""
"","image","333","672315","0.0-257.0-0.0","""event"",""trial"",""time""
""fullscreenenter"",""0"",""151556""
","
","
","""event"",""trial"",""time""
""fullscreenenter"",""0"",""151556""
","
","2521.100000023842","run_exp/static/images/Set 6_rs/168b.jpg","86","","","","","","test","TL","3"
"","show_choice","334","672830","0.0-257.0-1.0","""event"",""trial"",""time""
""fullscreenenter"",""0"",""151556""
","
","
","""event"",""trial"",""time""
""fullscreenenter"",""0"",""151556""
","
","null","run_exp/static/images/Set 6_rs/168b.jpg","null","","","","","","test","TL",""
"","html-keyboard-response","335","673331","0.0-257.0-2.0","""event"",""trial"",""time""
""fullscreenenter"",""0"",""151556""
","
","
","""event"",""trial"",""time""
""fullscreenenter"",""0"",""151556""
","
","null","<p></p>","null","","","","","","","",""
"","image","336","674355","0.0-258.0-0.0","""event"",""trial"",""time""
""fullscreenenter"",""0"",""151556""
","
","
","""event"",""trial"",""time""
