"success","trial_type","trial_index","time_elapsed","internal_node_id","interactions","blur_events","focus_events","fullscreenenter_events","fullscreenexit_events","rt","stimulus","key_press","subject_id","participant_id","age","gender","prompt","phase","condition","lure_bin"
"true","fullscreen","0","2762","0.0-0.0","""event"",""trial"",""time""
""fullscreenenter"",""0"",""1805""
","
","
","""event"",""trial"",""time""
""fullscreenenter"",""0"",""1805""
","
","","","","","","","","","","",""
"","pavlovia","1","2768","0.0-1.0","""event"",""trial"",""time""
""fullscreenenter"",""0"",""1805""
","
","
","""event"",""trial"",""time""
""fullscreenenter"",""0"",""1805""
","
","","","","","","","","","","",""
"","welcome","2","37520","0.0-2.0","""event"",""trial"",""time""
""fullscreenenter"",""0"",""1805""
","
","
","""event"",""trial"",""time""
""fullscreenenter"",""0"",""1805""
","
","null","run_exp/static/audio/clip_1_welcome.m4a","null","1039","1182","17","Female","<div class='center'><p>Welcome to the third part of the study! First, you'll be shown pictures of items one at a time. For each picture, you have to decide if the item is typically found indoors or outdoors.</p><p>If you think it's usually found indoors, then press <b>v</b> key on your keyboard. If you think it's usually found outdoors, then press the <b>n</b> key.There will be reminders on the screen to help you remember which keys to press. </p><p>If you're not sure whether the item is an indoor item or an outdoor item, go ahead and take a guess but try your best not to skip that choice. </p></div>","","",""
"","html-keyboard-response","3","51999","0.0-3.0","""event"",""trial"",""time""
""fullscreenenter"",""0"",""1805""
","
","
","""event"",""trial"",""time""
""fullscreenenter"",""0"",""1805""
","
","14475.10000000149","<div class='center'><p>Welcome to the third part of the study! First, you'll be shown pictures of items one at a time. For each picture, you have to decide if the item is typically found indoors or outdoors.</p><p>If you think it's usually found indoors, then press <b>v</b> key on your keyboard. If you think it's usually found outdoors, then press the <b>n</b> key.There will be reminders on the screen to help you remember which keys to press. </p><p>If you're not sure whether the item is an indoor item or an outdoor item, go ahead and take a guess but try your best not to skip that choice. </p><div><p><b>[Press the space bar to continue]</b></p></div>","32","","","","","","","",""
"","image","4","54002","0.0-4.0","""event"",""trial"",""time""
""fullscreenenter"",""0"",""1805""
","
","
","""event"",""trial"",""time""
""fullscreenenter"",""0"",""1805""
","
","null","run_exp/static/images/Set 6_rs/007a.jpg","null","","","","","","learn","SR",""
"","show_choice","5","56004","0.0-5.0","""event"",""trial"",""time""
""fullscreenenter"",""0"",""1805""
","
","
","""event"",""trial"",""time""
""fullscreenenter"",""0"",""1805""
","
","null","run_exp/static/images/blank.png","null","","","","","","learn","SR",""
"","html-keyboard-response","6","56506","0.0-6.0","""event"",""trial"",""time""
""fullscreenenter"",""0"",""1805""
","
","
","""event"",""trial"",""time""
""fullscreenenter"",""0"",""1805""
","
","null","<p></p>","null","","","","","","","",""
"","image","7","57720","0.0-7.0","""event"",""trial"",""time""
""fullscreenenter"",""0"",""1805""
","
","
","""event"",""trial"",""time""
""fullscreenenter"",""0"",""1805""
","
","1211.5999999977648","run_exp/static/images/Set 6_rs/111a.jpg","86","","","","","","learn","SL",""
"","show_choice","8","58511","0.0-8.0","""event"",""trial"",""time""
""fullscreenenter"",""0"",""1805""
","
","
","""event"",""trial"",""time""
""fullscreenenter"",""0"",""1805""
","
","null","run_exp/static/images/Set 6_rs/111a.jpg","null","","","","","","learn","SL",""
"","html-keyboard-response","9","59013","0.0-9.0","""event"",""trial"",""time""
""fullscreenenter"",""0"",""1805""
","
","
","""event"",""trial"",""time""
""fullscreenenter"",""0"",""1805""
","
","null","<p></p>","null","","","","","","","",""
"","image","10","60131","0.0-10.0","""event"",""trial"",""time""
""fullscreenenter"",""0"",""1805""
","
","
","""event"",""trial"",""time""
""fullscreenenter"",""0"",""1805""
","
","1116.300000000745","run_exp/static/images/Set 6_rs/025a.jpg","78","","","","","","learn","SL",""
"","show_choice","11","61016","0.0-11.0","""event"",""trial"",""time""
""fullscreenenter"",""0"",""1805""
","
","
","""event"",""trial"",""time""
""fullscreenenter"",""0"",""1805""
","
","null","run_exp/static/images/Set 6_rs/025a.jpg","null","","","","","","learn","SL",""
"","html-keyboard-response","12","61518","0.0-12.0","""event"",""trial"",""time""
""fullscreenenter"",""0"",""1805""
","
","
","""event"",""trial"",""time""
""fullscreenenter"",""0"",""1805""
","
","null","<p></p>","null","","","","","","","",""
"","image","13","63187","0.0-13.0","""event"",""trial"",""time""
""fullscreenenter"",""0"",""1805""
","
","
","""event"",""trial"",""time""
""fullscreenenter"",""0"",""1805""
","
","1664.199999999255","run_exp/static/images/Set 6_rs/169a.jpg","78","","","","","","learn","SR",""
"","show_choice","14","63524","0.0-14.0","""event"",""trial"",""time""
""fullscreenenter"",""0"",""1805""
","
","
","""event"",""trial"",""time""
""fullscreenenter"",""0"",""1805""
","
","null","run_exp/static/images/Set 6_rs/169a.jpg","null","","","","","","learn","SR",""
"","html-keyboard-response","15","64026","0.0-15.0","""event"",""trial"",""time""
""fullscreenenter"",""0"",""1805""
","
","
","""event"",""trial"",""time""
""fullscreenenter"",""0"",""1805""
","
","null","<p></p>","null","","","","","","","",""
"","image","16","65410","0.0-16.0","""event"",""trial"",""time""
""fullscreenenter"",""0"",""1805""
","
","
","""event"",""trial"",""time""
""fullscreenenter"",""0"",""1805""
","
","1381.9000000022352","run_exp/static/images/Set 6_rs/019a.jpg","86","","","","","","learn","SL",""
"","show_choice","17","66030","0.0-17.0","""event"",""trial"",""time""
""fullscreenenter"",""0"",""1805""
","
","
","""event"",""trial"",""time""
""fullscreenenter"",""0"",""1805""
","
","null","run_exp/static/images/Set 6_rs/019a.jpg","null","","","","","","learn","SL",""
"","html-keyboard-response","18","66532","0.0-18.0","""event"",""trial"",""time""
""fullscreenenter"",""0"",""1805""
","
","
","""event"",""trial"",""time""
""fullscreenenter"",""0"",""1805""
","
","null","<p></p>","null","","","","","","","",""
"","image","19","67498","0.0-19.0","""event"",""trial"",""time""
""fullscreenenter"",""0"",""1805""
","
","
","""event"",""trial"",""time""
""fullscreenenter"",""0"",""1805""
","
","963.3999999985099","run_exp/static/images/Set 6_rs/129a.jpg","86","","","","","","learn","SL",""
"","show_choice","20","68536","0.0-20.0","""event"",""trial"",""time""
""fullscreenenter"",""0"",""1805""
","
","
","""event"",""trial"",""time""
""fullscreenenter"",""0"",""1805""
","
","null","run_exp/static/images/Set 6_rs/129a.jpg","null","","","","","","learn","SL",""
"","html-keyboard-response","21","69038","0.0-21.0","""event"",""trial"",""time""
""fullscreenenter"",""0"",""1805""
","
","
","""event"",""trial"",""time""
""fullscreenenter"",""0"",""1805""
","
","null","<p></p>","null","","","","","","","",""
"","image","22","71027","0.0-22.0","""event"",""trial"",""time""
""fullscreenenter"",""0"",""1805""
","
","
","""event"",""trial"",""time""
""fullscreenenter"",""0"",""1805""
","
","1986.5","run_exp/static/images/Set 6_rs/122a.jpg","78","","","","","","learn","SR",""
"","show_choice","23","71042","0.0-23.0","""event"",""trial"",""time""
""fullscreenenter"",""0"",""1805""
","
","
","""event"",""trial"",""time""
""fullscreenenter"",""0"",""1805""
","
","null","run_exp/static/images/Set 6_rs/122a.jpg","null","","","","","","learn","SR",""
"","html-keyboard-response","24","71544","0.0-24.0","""event"",""trial"",""time""
""fullscreenenter"",""0"",""1805""
","
","
","""event"",""trial"",""time""
""fullscreenenter"",""0"",""1805""
","
","null","<p></p>","null","","","","","","","",""
"","image","25","73281","0.0-25.0","""event"",""trial"",""time""
""fullscreenenter"",""0"",""1805""
","
","
","""event"",""trial"",""time""
""fullscreenenter"",""0"",""1805""
","
","1734.5","run_exp/static/images/Set 6_rs/061a.jpg","78","","","","","","learn","SR",""
"","show_choice","26","73548","0.0-26.0","""event"",""trial"",""time""
""fullscreenenter"",""0"",""1805""
","
","
","""event"",""trial"",""time""
""fullscreenenter"",""0"",""1805""
","
","null","run_exp/static/images/Set 6_rs/061a.jpg","null","","","","","","learn","SR",""
"","html-keyboard-response","27","74050","0.0-27.0","""event"",""trial"",""time""
""fullscreenenter"",""0"",""1805""
","
","
","""event"",""trial"",""time""
""fullscreenenter"",""0"",""1805""
","
","null","<p></p>","null","","","","","","","",""
"","image","28","74770","0.0-28.0","""event"",""trial"",""time""
""fullscreenenter"",""0"",""1805""
","
","
","""event"",""trial"",""time""
""fullscreenenter"",""0"",""1805""
","
","716.6000000014901","run_exp/static/images/Set 6_rs/187a.jpg","86","","","","","","learn","SR",""
"","show_choice","29","76056","0.0-29.0","""event"",""trial"",""time""
""fullscreenenter"",""0"",""1805""
","
","
","""event"",""trial"",""time""
""fullscreenenter"",""0"",""1805""
","
","null","run_exp/static/images/Set 6_rs/187a.jpg","null","","","","","","learn","SR",""
"","html-keyboard-response","30","76557","0.0-30.0","""event"",""trial"",""time""
""fullscreenenter"",""0"",""1805""
","
","
","""event"",""trial"",""time""
""fullscreenenter"",""0"",""1805""
","
","null","<p></p>","null","","","","","","","",""
"","image","31","77744","0.0-31.0","""event"",""trial"",""time""
""fullscreenenter"",""0"",""1805""
","
","
","""event"",""trial"",""time""
""fullscreenenter"",""0"",""1805""
","
","1185.7000000029802","run_exp/static/images/Set 6_rs/050a.jpg","86","","","","","","learn","SL",""
"","show_choice","32","78560","0.0-32.0","""event"",""trial"",""time""
""fullscreenenter"",""0"",""1805""
","
","
","""event"",""trial"",""time""
""fullscreenenter"",""0"",""1805""
","
","null","run_exp/static/images/Set 6_rs/050a.jpg","null","","","","","","learn","SL",""
"","html-keyboard-response","33","79062","0.0-33.0","""event"",""trial"",""time""
""fullscreenenter"",""0"",""1805""
","
","
","""event"",""trial"",""time""
""fullscreenenter"",""0"",""1805""
","
","null","<p></p>","null","","","","","","","",""
"","image","34","80463","0.0-34.0","""event"",""trial"",""time""
""fullscreenenter"",""0"",""1805""
","
","
","""event"",""trial"",""time""
""fullscreenenter"",""0"",""1805""
","
","1398.4000000022352","run_exp/static/images/Set 6_rs/117a.jpg","86","","","","","","learn","SL",""
"","show_choice","35","81067","0.0-35.0","""event"",""trial"",""time""
""fullscreenenter"",""0"",""1805""
","
","
","""event"",""trial"",""time""
""fullscreenenter"",""0"",""1805""
","
","null","run_exp/static/images/Set 6_rs/117a.jpg","null","","","","","","learn","SL",""
"","html-keyboard-response","36","81569","0.0-36.0","""event"",""trial"",""time""
""fullscreenenter"",""0"",""1805""
","
","
","""event"",""trial"",""time""
""fullscreenenter"",""0"",""1805""
","
","null","<p></p>","null","","","","","","","",""
"","image","37","83370","0.0-37.0","""event"",""trial"",""time""
""fullscreenenter"",""0"",""1805""
","
","
","""event"",""trial"",""time""
""fullscreenenter"",""0"",""1805""
","
","1799.699999999255","run_exp/static/images/Set 6_rs/066a.jpg","78","","","","","","learn","SL",""
"","show_choice","38","83573","0.0-38.0","""event"",""trial"",""time""
""fullscreenenter"",""0"",""1805""
","
","
","""event"",""trial"",""time""
""fullscreenenter"",""0"",""1805""
","
","null","run_exp/static/images/Set 6_rs/066a.jpg","null","","","","","","learn","SL",""
"","html-keyboard-response","39","84074","0.0-39.0","""event"",""trial"",""time""
""fullscreenenter"",""0"",""1805""
","
","
","""event"",""trial"",""time""
""fullscreenenter"",""0"",""1805""
","
","null","<p></p>","null","","","","","","","",""
"","image","40","85821","0.0-40.0","""event"",""trial"",""time""
""fullscreenenter"",""0"",""1805""
","
","
","""event"",""trial"",""time""
""fullscreenenter"",""0"",""1805""
","
","1744.699999999255","run_exp/static/images/Set 6_rs/177a.jpg","78","","","","","","learn","SR",""
"","show_choice","41","86078","0.0-41.0","""event"",""trial"",""time""
""fullscreenenter"",""0"",""1805""
","
","
","""event"",""trial"",""time""
""fullscreenenter"",""0"",""1805""
","
","null","run_exp/static/images/Set 6_rs/177a.jpg","null","","","","","","learn","SR",""
"","html-keyboard-response","42","86579","0.0-42.0","""event"",""trial"",""time""
""fullscreenenter"",""0"",""1805""
","
","
","""event"",""trial"",""time""
""fullscreenenter"",""0"",""1805""
","
","null","<p></p>","null","","","","","","","",""
"","image","43","87971","0.0-43.0","""event"",""trial"",""time""
""fullscreenenter"",""0"",""1805""
","
","
","""event"",""trial"",""time""
""fullscreenenter"",""0"",""1805""
","
","1389.699999999255","run_exp/static/images/Set 6_rs/123a.jpg","78","","","","","","learn","SL",""
"","show_choice","44","88583","0.0-44.0","""event"",""trial"",""time""
""fullscreenenter"",""0"",""1805""
","
","
","""event"",""trial"",""time""
""fullscreenenter"",""0"",""1805""
","
","null","run_exp/static/images/Set 6_rs/123a.jpg","null","","","","","","learn","SL",""
"","html-keyboard-response","45","89085","0.0-45.0","""event"",""trial"",""time""
""fullscreenenter"",""0"",""1805""
","
","
","""event"",""trial"",""time""
""fullscreenenter"",""0"",""1805""
","
","null","<p></p>","null","","","","","","","",""
"","image","46","90276","0.0-46.0","""event"",""trial"",""time""
""fullscreenenter"",""0"",""1805""
","
","
","""event"",""trial"",""time""
""fullscreenenter"",""0"",""1805""
","
","1188.8999999985099","run_exp/static/images/Set 6_rs/116a.jpg","86","","","","","","learn","SL",""
"","show_choice","47","91089","0.0-47.0","""event"",""trial"",""time""
""fullscreenenter"",""0"",""1805""
","
","
","""event"",""trial"",""time""
""fullscreenenter"",""0"",""1805""
","
","null","run_exp/static/images/Set 6_rs/116a.jpg","null","","","","","","learn","SL",""
"","html-keyboard-response","48","91590","0.0-48.0","""event"",""trial"",""time""
""fullscreenenter"",""0"",""1805""
","
","
","""event"",""trial"",""time""
""fullscreenenter"",""0"",""1805""
","
","null","<p></p>","null","","","","","","","",""
"","image","49","93083","0.0-49.0","""event"",""trial"",""time""
""fullscreenenter"",""0"",""1805""
","
","
","""event"",""trial"",""time""
""fullscreenenter"",""0"",""1805""
","
","1490.5999999977648","run_exp/static/images/Set 6_rs/076a.jpg","86","","","","","","learn","SR",""
"","show_choice","50","93594","0.0-50.0","""event"",""trial"",""time""
""fullscreenenter"",""0"",""1805""
","
","
","""event"",""trial"",""time""
""fullscreenenter"",""0"",""1805""
","
","null","run_exp/static/images/Set 6_rs/076a.jpg","null","","","","","","learn","SR",""
"","html-keyboard-response","51","94096","0.0-51.0","""event"",""trial"",""time""
""fullscreenenter"",""0"",""1805""
","
","
","""event"",""trial"",""time""
""fullscreenenter"",""0"",""1805""
","
","null","<p></p>","null","","","","","","","",""
"","image","52","95358","0.0-52.0","""event"",""trial"",""time""
""fullscreenenter"",""0"",""1805""
","
","
","""event"",""trial"",""time""
""fullscreenenter"",""0"",""1805""
","
","1260.3999999985099","run_exp/static/images/Set 6_rs/079a.jpg","86","","","","","","learn","SL",""
"","show_choice","53","96099","0.0-53.0","""event"",""trial"",""time""
""fullscreenenter"",""0"",""1805""
","
","
","""event"",""trial"",""time""
""fullscreenenter"",""0"",""1805""
","
","null","run_exp/static/images/Set 6_rs/079a.jpg","null","","","","","","learn","SL",""
"","html-keyboard-response","54","96601","0.0-54.0","""event"",""trial"",""time""
""fullscreenenter"",""0"",""1805""
","
","
","""event"",""trial"",""time""
""fullscreenenter"",""0"",""1805""
","
","null","<p></p>","null","","","","","","","",""
"","image","55","98506","0.0-55.0","""event"",""trial"",""time""
""fullscreenenter"",""0"",""1805""
","
","
","""event"",""trial"",""time""
""fullscreenenter"",""0"",""1805""
","
","1902.4000000022352","run_exp/static/images/Set 6_rs/134a.jpg","86","","","","","","learn","SR",""
"","show_choice","56","98605","0.0-56.0","""event"",""trial"",""time""
""fullscreenenter"",""0"",""1805""
","
","
","""event"",""trial"",""time""
""fullscreenenter"",""0"",""1805""
","
","null","run_exp/static/images/Set 6_rs/134a.jpg","null","","","","","","learn","SR",""
"","html-keyboard-response","57","99107","0.0-57.0","""event"",""trial"",""time""
""fullscreenenter"",""0"",""1805""
","
","
","""event"",""trial"",""time""
""fullscreenenter"",""0"",""1805""
","
","null","<p></p>","null","","","","","","","",""
"","image","58","100152","0.0-58.0","""event"",""trial"",""time""
""fullscreenenter"",""0"",""1805""
","
","
","""event"",""trial"",""time""
""fullscreenenter"",""0"",""1805""
","
","1042.7999999970198","run_exp/static/images/Set 6_rs/075a.jpg","86","","","","","","learn","SR",""
"","show_choice","59","101111","0.0-59.0","""event"",""trial"",""time""
""fullscreenenter"",""0"",""1805""
","
","
","""event"",""trial"",""time""
""fullscreenenter"",""0"",""1805""
","
","null","run_exp/static/images/Set 6_rs/075a.jpg","null","","","","","","learn","SR",""
"","html-keyboard-response","60","101612","0.0-60.0","""event"",""trial"",""time""
""fullscreenenter"",""0"",""1805""
","
","
","""event"",""trial"",""time""
""fullscreenenter"",""0"",""1805""
","
","null","<p></p>","null","","","","","","","",""
"","image","61","102407","0.0-61.0","""event"",""trial"",""time""
""fullscreenenter"",""0"",""1805""
","
","
","""event"",""trial"",""time""
""fullscreenenter"",""0"",""1805""
","
","793.5999999977648","run_exp/static/images/Set 6_rs/186a.jpg","86","","","","","","learn","SR",""
"","show_choice","62","103615","0.0-62.0","""event"",""trial"",""time""
""fullscreenenter"",""0"",""1805""
","
","
","""event"",""trial"",""time""
""fullscreenenter"",""0"",""1805""
","
","null","run_exp/static/images/Set 6_rs/186a.jpg","null","","","","","","learn","SR",""
"","html-keyboard-response","63","104119","0.0-63.0","""event"",""trial"",""time""
""fullscreenenter"",""0"",""1805""
","
","
","""event"",""trial"",""time""
""fullscreenenter"",""0"",""1805""
","
","null","<p></p>","null","","","","","","","",""
"","image","64","104832","0.0-64.0","""event"",""trial"",""time""
""fullscreenenter"",""0"",""1805""
","
","
","""event"",""trial"",""time""
""fullscreenenter"",""0"",""1805""
","
","711.4000000022352","run_exp/static/images/Set 6_rs/073a.jpg","86","","","","","","learn","SL",""
"","show_choice","65","106122","0.0-65.0","""event"",""trial"",""time""
""fullscreenenter"",""0"",""1805""
","
","
","""event"",""trial"",""time""
""fullscreenenter"",""0"",""1805""
","
","null","run_exp/static/images/Set 6_rs/073a.jpg","null","","","","","","learn","SL",""
"","html-keyboard-response","66","106623","0.0-66.0","""event"",""trial"",""time""
""fullscreenenter"",""0"",""1805""
","
","
","""event"",""trial"",""time""
""fullscreenenter"",""0"",""1805""
","
","null","<p></p>","null","","","","","","","",""
"","image","67","107835","0.0-67.0","""event"",""trial"",""time""
""fullscreenenter"",""0"",""1805""
","
","
","""event"",""trial"",""time""
""fullscreenenter"",""0"",""1805""
","
","1210.199999999255","run_exp/static/images/Set 6_rs/154a.jpg","86","","","","","","learn","SR",""
"","show_choice","68","108627","0.0-68.0","""event"",""trial"",""time""
""fullscreenenter"",""0"",""1805""
","
","
","""event"",""trial"",""time""
""fullscreenenter"",""0"",""1805""
","
","null","run_exp/static/images/Set 6_rs/154a.jpg","null","","","","","","learn","SR",""
"","html-keyboard-response","69","109129","0.0-69.0","""event"",""trial"",""time""
""fullscreenenter"",""0"",""1805""
","
","
","""event"",""trial"",""time""
""fullscreenenter"",""0"",""1805""
","
","null","<p></p>","null","","","","","","","",""
"","image","70","110193","0.0-70.0","""event"",""trial"",""time""
""fullscreenenter"",""0"",""1805""
","
","
","""event"",""trial"",""time""
""fullscreenenter"",""0"",""1805""
","
","1061.4000000022352","run_exp/static/images/Set 6_rs/138a.jpg","78","","","","","","learn","SL",""
"","show_choice","71","111133","0.0-71.0","""event"",""trial"",""time""
""fullscreenenter"",""0"",""1805""
","
","
","""event"",""trial"",""time""
""fullscreenenter"",""0"",""1805""
","
","null","run_exp/static/images/Set 6_rs/138a.jpg","null","","","","","","learn","SL",""
"","html-keyboard-response","72","111634","0.0-72.0","""event"",""trial"",""time""
""fullscreenenter"",""0"",""1805""
","
","
","""event"",""trial"",""time""
""fullscreenenter"",""0"",""1805""
","
","null","<p></p>","null","","","","","","","",""
"","image","73","112913","0.0-73.0","""event"",""trial"",""time""
""fullscreenenter"",""0"",""1805""
","
","
","""event"",""trial"",""time""
""fullscreenenter"",""0"",""1805""
","
","1277.1000000014901","run_exp/static/images/Set 6_rs/172a.jpg","78","","","","","","learn","SR",""
"","show_choice","74","113637","0.0-74.0","""event"",""trial"",""time""
""fullscreenenter"",""0"",""1805""
","
","
","""event"",""trial"",""time""
""fullscreenenter"",""0"",""1805""
","
","null","run_exp/static/images/Set 6_rs/172a.jpg","null","","","","","","learn","SR",""
"","html-keyboard-response","75","114139","0.0-75.0","""event"",""trial"",""time""
""fullscreenenter"",""0"",""1805""
","
","
","""event"",""trial"",""time""
""fullscreenenter"",""0"",""1805""
","
","null","<p></p>","null","","","","","","","",""
"","image","76","115704","0.0-76.0","""event"",""trial"",""time""
""fullscreenenter"",""0"",""1805""
","
","
","""event"",""trial"",""time""
""fullscreenenter"",""0"",""1805""
","
","1563.5","run_exp/static/images/Set 6_rs/167a.jpg","78","","","","","","learn","SL",""
"","show_choice","77","116142","0.0-77.0","""event"",""trial"",""time""
""fullscreenenter"",""0"",""1805""
","
","
","""event"",""trial"",""time""
""fullscreenenter"",""0"",""1805""
","
","null","run_exp/static/images/Set 6_rs/167a.jpg","null","","","","","","learn","SL",""
"","html-keyboard-response","78","116644","0.0-78.0","""event"",""trial"",""time""
""fullscreenenter"",""0"",""1805""
","
","
","""event"",""trial"",""time""
""fullscreenenter"",""0"",""1805""
","
","null","<p></p>","null","","","","","","","",""
"","image","79","118584","0.0-79.0","""event"",""trial"",""time""
""fullscreenenter"",""0"",""1805""
","
","
","""event"",""trial"",""time""
""fullscreenenter"",""0"",""1805""
","
","1938.800000000745","run_exp/static/images/Set 6_rs/132a.jpg","86","","","","","","learn","SR",""
"","show_choice","80","118647","0.0-80.0","""event"",""trial"",""time""
""fullscreenenter"",""0"",""1805""
","
","
","""event"",""trial"",""time""
""fullscreenenter"",""0"",""1805""
","
","null","run_exp/static/images/Set 6_rs/132a.jpg","null","","","","","","learn","SR",""
"","html-keyboard-response","81","119148","0.0-81.0","""event"",""trial"",""time""
""fullscreenenter"",""0"",""1805""
","
","
","""event"",""trial"",""time""
""fullscreenenter"",""0"",""1805""
","
","null","<p></p>","null","","","","","","","",""
"","image","82","120449","0.0-82.0","""event"",""trial"",""time""
""fullscreenenter"",""0"",""1805""
","
","
","""event"",""trial"",""time""
""fullscreenenter"",""0"",""1805""
","
","1298.800000000745","run_exp/static/images/Set 6_rs/178a.jpg","78","","","","","","learn","SR",""
"","show_choice","83","121152","0.0-83.0","""event"",""trial"",""time""
""fullscreenenter"",""0"",""1805""
","
","
","""event"",""trial"",""time""
""fullscreenenter"",""0"",""1805""
","
","null","run_exp/static/images/Set 6_rs/178a.jpg","null","","","","","","learn","SR",""
"","html-keyboard-response","84","121654","0.0-84.0","""event"",""trial"",""time""
""fullscreenenter"",""0"",""1805""
","
","
","""event"",""trial"",""time""
""fullscreenenter"",""0"",""1805""
","
","null","<p></p>","null","","","","","","","",""
"","image","85","122854","0.0-85.0","""event"",""trial"",""time""
""fullscreenenter"",""0"",""1805""
","
","
","""event"",""trial"",""time""
""fullscreenenter"",""0"",""1805""
","
","1197.6000000014901","run_exp/static/images/Set 6_rs/010a.jpg","86","","","","","","learn","SR",""
"","show_choice","86","123658","0.0-86.0","""event"",""trial"",""time""
""fullscreenenter"",""0"",""1805""
","
","
","""event"",""trial"",""time""
""fullscreenenter"",""0"",""1805""
","
","null","run_exp/static/images/Set 6_rs/010a.jpg","null","","","","","","learn","SR",""
"","html-keyboard-response","87","124160","0.0-87.0","""event"",""trial"",""time""
""fullscreenenter"",""0"",""1805""
","
","
","""event"",""trial"",""time""
""fullscreenenter"",""0"",""1805""
","
","null","<p></p>","null","","","","","","","",""
"","image","88","124833","0.0-88.0","""event"",""trial"",""time""
""fullscreenenter"",""0"",""1805""
","
","
","""event"",""trial"",""time""
""fullscreenenter"",""0"",""1805""
","
","671.6000000014901","run_exp/static/images/Set 6_rs/112a.jpg","86","","","","","","learn","SR",""
"","show_choice","89","126163","0.0-89.0","""event"",""trial"",""time""
""fullscreenenter"",""0"",""1805""
","
","
","""event"",""trial"",""time""
""fullscreenenter"",""0"",""1805""
","
","null","run_exp/static/images/Set 6_rs/112a.jpg","null","","","","","","learn","SR",""
"","html-keyboard-response","90","126666","0.0-90.0","""event"",""trial"",""time""
""fullscreenenter"",""0"",""1805""
","
","
","""event"",""trial"",""time""
""fullscreenenter"",""0"",""1805""
","
","null","<p></p>","null","","","","","","","",""
"","image","91","127370","0.0-91.0","""event"",""trial"",""time""
""fullscreenenter"",""0"",""1805""
","
","
","""event"",""trial"",""time""
""fullscreenenter"",""0"",""1805""
","
","702","run_exp/static/images/Set 6_rs/024a.jpg","86","","","","","","learn","SR",""
"","show_choice","92","128670","0.0-92.0","""event"",""trial"",""time""
""fullscreenenter"",""0"",""1805""
","
","
","""event"",""trial"",""time""
""fullscreenenter"",""0"",""1805""
","
","null","run_exp/static/images/Set 6_rs/024a.jpg","null","","","","","","learn","SR",""
"","html-keyboard-response","93","129171","0.0-93.0","""event"",""trial"",""time""
""fullscreenenter"",""0"",""1805""
","
","
","""event"",""trial"",""time""
""fullscreenenter"",""0"",""1805""
","
","null","<p></p>","null","","","","","","","",""
"","image","94","131069","0.0-94.0","""event"",""trial"",""time""
""fullscreenenter"",""0"",""1805""
","
","
","""event"",""trial"",""time""
""fullscreenenter"",""0"",""1805""
","
","1896","run_exp/static/images/Set 6_rs/152a.jpg","86","","","","","","learn","SR",""
"","show_choice","95","131175","0.0-95.0","""event"",""trial"",""time""
""fullscreenenter"",""0"",""1805""
","
","
","""event"",""trial"",""time""
""fullscreenenter"",""0"",""1805""
","
","null","run_exp/static/images/Set 6_rs/152a.jpg","null","","","","","","learn","SR",""
"","html-keyboard-response","96","131677","0.0-96.0","""event"",""trial"",""time""
""fullscreenenter"",""0"",""1805""
","
","
","""event"",""trial"",""time""
""fullscreenenter"",""0"",""1805""
","
","null","<p></p>","null","","","","","","","",""
"","image","97","132720","0.0-97.0","""event"",""trial"",""time""
""fullscreenenter"",""0"",""1805""
","
","
","""event"",""trial"",""time""
""fullscreenenter"",""0"",""1805""
","
","1041.8999999985099","run_exp/static/images/Set 6_rs/006a.jpg","78","","","","","","learn","SL",""
"","show_choice","98","133680","0.0-98.0","""event"",""trial"",""time""
""fullscreenenter"",""0"",""1805""
","
","
","""event"",""trial"",""time""
""fullscreenenter"",""0"",""1805""
","
","null","run_exp/static/images/Set 6_rs/006a.jpg","null","","","","","","learn","SL",""
"","html-keyboard-response","99","134182","0.0-99.0","""event"",""trial"",""time""
""fullscreenenter"",""0"",""1805""
","
","
","""event"",""trial"",""time""
""fullscreenenter"",""0"",""1805""
","
","null","<p></p>","null","","","","","","","",""
"","image","100","135028","0.0-100.0","""event"",""trial"",""time""
""fullscreenenter"",""0"",""1805""
","
","
","""event"",""trial"",""time""
""fullscreenenter"",""0"",""1805""
","
","844.1999999992549","run_exp/static/images/Set 6_rs/141a.jpg","78","","","","","","learn","SR",""
"","show_choice","101","136185","0.0-101.0","""event"",""trial"",""time""
""fullscreenenter"",""0"",""1805""
","
","
","""event"",""trial"",""time""
""fullscreenenter"",""0"",""1805""
","
","null","run_exp/static/images/Set 6_rs/141a.jpg","null","","","","","","learn","SR",""
"","html-keyboard-response","102","136687","0.0-102.0","""event"",""trial"",""time""
""fullscreenenter"",""0"",""1805""
","
","
","""event"",""trial"",""time""
""fullscreenenter"",""0"",""1805""
","
","null","<p></p>","null","","","","","","","",""
"","image","103","137538","0.0-103.0","""event"",""trial"",""time""
""fullscreenenter"",""0"",""1805""
","
","
","""event"",""trial"",""time""
""fullscreenenter"",""0"",""1805""
","
","849.3000000007451","run_exp/static/images/Set 6_rs/085a.jpg","86","","","","","","learn","SL",""
"","show_choice","104","138690","0.0-104.0","""event"",""trial"",""time""
""fullscreenenter"",""0"",""1805""
","
","
","""event"",""trial"",""time""
""fullscreenenter"",""0"",""1805""
","
","null","run_exp/static/images/Set 6_rs/085a.jpg","null","","","","","","learn","SL",""
"","html-keyboard-response","105","139191","0.0-105.0","""event"",""trial"",""time""
""fullscreenenter"",""0"",""1805""
","
","
","""event"",""trial"",""time""
""fullscreenenter"",""0"",""1805""
","
","null","<p></p>","null","","","","","","","",""
"","image","106","140413","0.0-106.0","""event"",""trial"",""time""
""fullscreenenter"",""0"",""1805""
","
","
","""event"",""trial"",""time""
""fullscreenenter"",""0"",""1805""
","
","1220.300000000745","run_exp/static/images/Set 6_rs/074a.jpg","78","","","","","","learn","SL",""
"","show_choice","107","141194","0.0-107.0","""event"",""trial"",""time""
""fullscreenenter"",""0"",""1805""
","
","
","""event"",""trial"",""time""
""fullscreenenter"",""0"",""1805""
","
","null","run_exp/static/images/Set 6_rs/074a.jpg","null","","","","","","learn","SL",""
"","html-keyboard-response","108","141696","0.0-108.0","""event"",""trial"",""time""
""fullscreenenter"",""0"",""1805""
","
","
","""event"",""trial"",""time""
""fullscreenenter"",""0"",""1805""
","
","null","<p></p>","null","","","","","","","",""
"","image","109","142855","0.0-109.0","""event"",""trial"",""time""
""fullscreenenter"",""0"",""1805""
","
","
","""event"",""trial"",""time""
""fullscreenenter"",""0"",""1805""
","
","1157.5999999977648","run_exp/static/images/Set 6_rs/168a.jpg","86","","","","","","learn","SL",""
"","show_choice","110","143700","0.0-110.0","""event"",""trial"",""time""
""fullscreenenter"",""0"",""1805""
","
","
","""event"",""trial"",""time""
""fullscreenenter"",""0"",""1805""
","
","null","run_exp/static/images/Set 6_rs/168a.jpg","null","","","","","","learn","SL",""
"","html-keyboard-response","111","144201","0.0-111.0","""event"",""trial"",""time""
""fullscreenenter"",""0"",""1805""
","
","
","""event"",""trial"",""time""
""fullscreenenter"",""0"",""1805""
","
","null","<p></p>","null","","","","","","","",""
"","image","112","145385","0.0-112.0","""event"",""trial"",""time""
""fullscreenenter"",""0"",""1805""
","
","
","""event"",""trial"",""time""
""fullscreenenter"",""0"",""1805""
","
","1182.2000000029802","run_exp/static/images/Set 6_rs/181a.jpg","78","","","","","","learn","SL",""
"","show_choice","113","146204","0.0-113.0","""event"",""trial"",""time""
""fullscreenenter"",""0"",""1805""
","
","
","""event"",""trial"",""time""
""fullscreenenter"",""0"",""1805""
","
","null","run_exp/static/images/Set 6_rs/181a.jpg","null","","","","","","learn","SL",""
"","html-keyboard-response","114","146706","0.0-114.0","""event"",""trial"",""time""
""fullscreenenter"",""0"",""1805""
","
","
","""event"",""trial"",""time""
""fullscreenenter"",""0"",""1805""
","
","null","<p></p>","null","","","","","","","",""
"","image","115","147659","0.0-115.0","""event"",""trial"",""time""
""fullscreenenter"",""0"",""1805""
","
","
","""event"",""trial"",""time""
""fullscreenenter"",""0"",""1805""
","
","950.5","run_exp/static/images/Set 6_rs/036a.jpg","86","","","","","","learn","SL",""
"","show_choice","116","148710","0.0-116.0","""event"",""trial"",""time""
""fullscreenenter"",""0"",""1805""
","
","
","""event"",""trial"",""time""
""fullscreenenter"",""0"",""1805""
","
","null","run_exp/static/images/Set 6_rs/036a.jpg","null","","","","","","learn","SL",""
"","html-keyboard-response","117","149211","0.0-117.0","""event"",""trial"",""time""
""fullscreenenter"",""0"",""1805""
","
","
","""event"",""trial"",""time""
""fullscreenenter"",""0"",""1805""
","
","null","<p></p>","null","","","","","","","",""
"","image","118","150932","0.0-118.0","""event"",""trial"",""time""
""fullscreenenter"",""0"",""1805""
","
","
","""event"",""trial"",""time""
""fullscreenenter"",""0"",""1805""
","
","1719","run_exp/static/images/Set 6_rs/017a.jpg","78","","","","","","learn","SL",""
"","show_choice","119","151215","0.0-119.0","""event"",""trial"",""time""
""fullscreenenter"",""0"",""1805""
","
","
","""event"",""trial"",""time""
""fullscreenenter"",""0"",""1805""
","
","null","run_exp/static/images/Set 6_rs/017a.jpg","null","","","","","","learn","SL",""
"","html-keyboard-response","120","151717","0.0-120.0","""event"",""trial"",""time""
""fullscreenenter"",""0"",""1805""
","
","
","""event"",""trial"",""time""
""fullscreenenter"",""0"",""1805""
","
","null","<p></p>","null","","","","","","","",""
"","image","121","153401","0.0-121.0","""event"",""trial"",""time""
""fullscreenenter"",""0"",""1805""
","
","
","""event"",""trial"",""time""
""fullscreenenter"",""0"",""1805""
","
","1682.2000000029802","run_exp/static/images/Set 6_rs/091a.jpg","78","","","","","","learn","SL",""
"","show_choice","122","153720","0.0-122.0","""event"",""trial"",""time""
""fullscreenenter"",""0"",""1805""
","
","
","""event"",""trial"",""time""
""fullscreenenter"",""0"",""1805""
","
","null","run_exp/static/images/Set 6_rs/091a.jpg","null","","","","","","learn","SL",""
"","html-keyboard-response","123","154221","0.0-123.0","""event"",""trial"",""time""
""fullscreenenter"",""0"",""1805""
","
","
","""event"",""trial"",""time""
""fullscreenenter"",""0"",""1805""
","
","null","<p></p>","null","","","","","","","",""
"","image","124","156224","0.0-124.0","""event"",""trial"",""time""
""fullscreenenter"",""0"",""1805""
","
","
","""event"",""trial"",""time""
""fullscreenenter"",""0"",""1805""
","
","null","run_exp/static/images/Set 6_rs/108a.jpg","null","","","","","","learn","SR",""
"","show_choice","125","158226","0.0-125.0","""event"",""trial"",""time""
""fullscreenenter"",""0"",""1805""
","
","
","""event"",""trial"",""time""
""fullscreenenter"",""0"",""1805""
","
","null","run_exp/static/images/blank.png","null","","","","","","learn","SR",""
"","html-keyboard-response","126","158727","0.0-126.0","""event"",""trial"",""time""
""fullscreenenter"",""0"",""1805""
","
","
","""event"",""trial"",""time""
""fullscreenenter"",""0"",""1805""
","
","null","<p></p>","null","","","","","","","",""
"","image","127","160090","0.0-127.0","""event"",""trial"",""time""
""fullscreenenter"",""0"",""1805""
","
","
","""event"",""trial"",""time""
""fullscreenenter"",""0"",""1805""
","
","1361.300000000745","run_exp/static/images/Set 6_rs/191a.jpg","78","","","","","","learn","SL",""
"","show_choice","128","160730","0.0-128.0","""event"",""trial"",""time""
""fullscreenenter"",""0"",""1805""
","
","
","""event"",""trial"",""time""
""fullscreenenter"",""0"",""1805""
","
","null","run_exp/static/images/Set 6_rs/191a.jpg","null","","","","","","learn","SL",""
"","html-keyboard-response","129","161232","0.0-129.0","""event"",""trial"",""time""
""fullscreenenter"",""0"",""1805""
","
","
","""event"",""trial"",""time""
""fullscreenenter"",""0"",""1805""
","
","null","<p></p>","null","","","","","","","",""
"","image","130","162127","0.0-130.0","""event"",""trial"",""time""
""fullscreenenter"",""0"",""1805""
","
","
","""event"",""trial"",""time""
""fullscreenenter"",""0"",""1805""
","
","892.6000000014901","run_exp/static/images/Set 6_rs/055a.jpg","86","","","","","","learn","SL",""
"","show_choice","131","163236","0.0-131.0","""event"",""trial"",""time""
""fullscreenenter"",""0"",""1805""
","
","
","""event"",""trial"",""time""
""fullscreenenter"",""0"",""1805""
","
","null","run_exp/static/images/Set 6_rs/055a.jpg","null","","","","","","learn","SL",""
"","html-keyboard-response","132","163737","0.0-132.0","""event"",""trial"",""time""
""fullscreenenter"",""0"",""1805""
","
","
","""event"",""trial"",""time""
""fullscreenenter"",""0"",""1805""
","
","null","<p></p>","null","","","","","","","",""
"","image","133","165344","0.0-133.0","""event"",""trial"",""time""
""fullscreenenter"",""0"",""1805""
","
","
","""event"",""trial"",""time""
""fullscreenenter"",""0"",""1805""
","
","1604.699999999255","run_exp/static/images/Set 6_rs/045a.jpg","86","","","","","","learn","SR",""
"","show_choice","134","165741","0.0-134.0","""event"",""trial"",""time""
""fullscreenenter"",""0"",""1805""
","
","
","""event"",""trial"",""time""
""fullscreenenter"",""0"",""1805""
","
","null","run_exp/static/images/Set 6_rs/045a.jpg","null","","","","","","learn","SR",""
"","html-keyboard-response","135","166243","0.0-135.0","""event"",""trial"",""time""
""fullscreenenter"",""0"",""1805""
","
","
","""event"",""trial"",""time""
""fullscreenenter"",""0"",""1805""
","
","null","<p></p>","null","","","","","","","",""
"","image","136","167125","0.0-136.0","""event"",""trial"",""time""
""fullscreenenter"",""0"",""1805""
","
","
","""event"",""trial"",""time""
""fullscreenenter"",""0"",""1805""
","
","881.1999999992549","run_exp/static/images/Set 6_rs/062a.jpg","86","","","","","","learn","SL",""
"","show_choice","137","168245","0.0-137.0","""event"",""trial"",""time""
""fullscreenenter"",""0"",""1805""
","
","
","""event"",""trial"",""time""
""fullscreenenter"",""0"",""1805""
","
","null","run_exp/static/images/Set 6_rs/062a.jpg","null","","","","","","learn","SL",""
"","html-keyboard-response","138","168747","0.0-138.0","""event"",""trial"",""time""
""fullscreenenter"",""0"",""1805""
","
","
","""event"",""trial"",""time""
""fullscreenenter"",""0"",""1805""
","
","null","<p></p>","null","","","","","","","",""
"","image","139","169540","0.0-139.0","""event"",""trial"",""time""
""fullscreenenter"",""0"",""1805""
","
","
","""event"",""trial"",""time""
""fullscreenenter"",""0"",""1805""
","
","790.8000000007451","run_exp/static/images/Set 6_rs/064a.jpg","86","","","","","","learn","SR",""
"","show_choice","140","170751","0.0-140.0","""event"",""trial"",""time""
""fullscreenenter"",""0"",""1805""
","
","
","""event"",""trial"",""time""
""fullscreenenter"",""0"",""1805""
","
","null","run_exp/static/images/Set 6_rs/064a.jpg","null","","","","","","learn","SR",""
"","html-keyboard-response","141","171252","0.0-141.0","""event"",""trial"",""time""
""fullscreenenter"",""0"",""1805""
","
","
","""event"",""trial"",""time""
""fullscreenenter"",""0"",""1805""
","
","null","<p></p>","null","","","","","","","",""
"","image","142","173246","0.0-142.0","""event"",""trial"",""time""
""fullscreenenter"",""0"",""1805""
","
","
","""event"",""trial"",""time""
""fullscreenenter"",""0"",""1805""
","
","1992.7999999970198","run_exp/static/images/Set 6_rs/008a.jpg","86","","","","","","learn","SL",""
"","show_choice","143","173255","0.0-143.0","""event"",""trial"",""time""
""fullscreenenter"",""0"",""1805""
","
","
","""event"",""trial"",""time""
""fullscreenenter"",""0"",""1805""
","
","null","run_exp/static/images/Set 6_rs/008a.jpg","null","","","","","","learn","SL",""
"","html-keyboard-response","144","173756","0.0-144.0","""event"",""trial"",""time""
""fullscreenenter"",""0"",""1805""
","
","
","""event"",""trial"",""time""
""fullscreenenter"",""0"",""1805""
","
","null","<p></p>","null","","","","","","","",""
"","image","145","174827","0.0-145.0","""event"",""trial"",""time""
""fullscreenenter"",""0"",""1805""
","
","
","""event"",""trial"",""time""
""fullscreenenter"",""0"",""1805""
","
","1068.3999999985099","run_exp/static/images/Set 6_rs/126a.jpg","78","","","","","","learn","SR",""
"","show_choice","146","175760","0.0-146.0","""event"",""trial"",""time""
""fullscreenenter"",""0"",""1805""
","
","
","""event"",""trial"",""time""
""fullscreenenter"",""0"",""1805""
","
","null","run_exp/static/images/Set 6_rs/126a.jpg","null","","","","","","learn","SR",""
"","html-keyboard-response","147","176262","0.0-147.0","""event"",""trial"",""time""
""fullscreenenter"",""0"",""1805""
","
","
","""event"",""trial"",""time""
""fullscreenenter"",""0"",""1805""
","
","null","<p></p>","null","","","","","","","",""
"","image","148","177419","0.0-148.0","""event"",""trial"",""time""
""fullscreenenter"",""0"",""1805""
","
","
","""event"",""trial"",""time""
""fullscreenenter"",""0"",""1805""
","
","1155.7000000029802","run_exp/static/images/Set 6_rs/131a.jpg","86","","","","","","learn","SR",""
"","show_choice","149","178265","0.0-149.0","""event"",""trial"",""time""
""fullscreenenter"",""0"",""1805""
","
","
","""event"",""trial"",""time""
""fullscreenenter"",""0"",""1805""
","
","null","run_exp/static/images/Set 6_rs/131a.jpg","null","","","","","","learn","SR",""
"","html-keyboard-response","150","178767","0.0-150.0","""event"",""trial"",""time""
""fullscreenenter"",""0"",""1805""
","
","
","""event"",""trial"",""time""
""fullscreenenter"",""0"",""1805""
","
","null","<p></p>","null","","","","","","","",""
"","image","151","179935","0.0-151.0","""event"",""trial"",""time""
""fullscreenenter"",""0"",""1805""
","
","
","""event"",""trial"",""time""
""fullscreenenter"",""0"",""1805""
","
","1166.6000000014901","run_exp/static/images/Set 6_rs/089a.jpg","86","","","","","","learn","SL",""
"","show_choice","152","180770","0.0-152.0","""event"",""trial"",""time""
""fullscreenenter"",""0"",""1805""
","
","
","""event"",""trial"",""time""
""fullscreenenter"",""0"",""1805""
","
","null","run_exp/static/images/Set 6_rs/089a.jpg","null","","","","","","learn","SL",""
"","html-keyboard-response","153","181272","0.0-153.0","""event"",""trial"",""time""
""fullscreenenter"",""0"",""1805""
","
","
","""event"",""trial"",""time""
""fullscreenenter"",""0"",""1805""
","
","null","<p></p>","null","","","","","","","",""
"","image","154","182530","0.0-154.0","""event"",""trial"",""time""
""fullscreenenter"",""0"",""1805""
","
","
","""event"",""trial"",""time""
""fullscreenenter"",""0"",""1805""
","
","1256","run_exp/static/images/Set 6_rs/166a.jpg","86","","","","","","learn","SR",""
"","show_choice","155","183276","0.0-155.0","""event"",""trial"",""time""
""fullscreenenter"",""0"",""1805""
","
","
","""event"",""trial"",""time""
""fullscreenenter"",""0"",""1805""
","
","null","run_exp/static/images/Set 6_rs/166a.jpg","null","","","","","","learn","SR",""
"","html-keyboard-response","156","183778","0.0-156.0","""event"",""trial"",""time""
""fullscreenenter"",""0"",""1805""
","
","
","""event"",""trial"",""time""
""fullscreenenter"",""0"",""1805""
","
","null","<p></p>","null","","","","","","","",""
"","image","157","184743","0.0-157.0","""event"",""trial"",""time""
""fullscreenenter"",""0"",""1805""
","
","
","""event"",""trial"",""time""
""fullscreenenter"",""0"",""1805""
","
","962.8000000007451","run_exp/static/images/Set 6_rs/095a.jpg","86","","","","","","learn","SL",""
"","show_choice","158","185782","0.0-158.0","""event"",""trial"",""time""
""fullscreenenter"",""0"",""1805""
","
","
","""event"",""trial"",""time""
""fullscreenenter"",""0"",""1805""
","
","null","run_exp/static/images/Set 6_rs/095a.jpg","null","","","","","","learn","SL",""
"","html-keyboard-response","159","186283","0.0-159.0","""event"",""trial"",""time""
""fullscreenenter"",""0"",""1805""
","
","
","""event"",""trial"",""time""
""fullscreenenter"",""0"",""1805""
","
","null","<p></p>","null","","","","","","","",""
"","image","160","187833","0.0-160.0","""event"",""trial"",""time""
""fullscreenenter"",""0"",""1805""
","
","
","""event"",""trial"",""time""
""fullscreenenter"",""0"",""1805""
","
","1548.2000000029802","run_exp/static/images/Set 6_rs/016a.jpg","86","","","","","","learn","SL",""
"","show_choice","161","188286","0.0-161.0","""event"",""trial"",""time""
""fullscreenenter"",""0"",""1805""
","
","
","""event"",""trial"",""time""
""fullscreenenter"",""0"",""1805""
","
","null","run_exp/static/images/Set 6_rs/016a.jpg","null","","","","","","learn","SL",""
"","html-keyboard-response","162","188788","0.0-162.0","""event"",""trial"",""time""
""fullscreenenter"",""0"",""1805""
","
","
","""event"",""trial"",""time""
""fullscreenenter"",""0"",""1805""
","
","null","<p></p>","null","","","","","","","",""
"","image","163","190074","0.0-163.0","""event"",""trial"",""time""
""fullscreenenter"",""0"",""1805""
","
","
","""event"",""trial"",""time""
""fullscreenenter"",""0"",""1805""
","
","1283.5","run_exp/static/images/Set 6_rs/023a.jpg","86","","","","","","learn","SR",""
"","show_choice","164","190792","0.0-164.0","""event"",""trial"",""time""
""fullscreenenter"",""0"",""1805""
","
","
","""event"",""trial"",""time""
""fullscreenenter"",""0"",""1805""
","
","null","run_exp/static/images/Set 6_rs/023a.jpg","null","","","","","","learn","SR",""
"","html-keyboard-response","165","191293","0.0-165.0","""event"",""trial"",""time""
""fullscreenenter"",""0"",""1805""
","
","
","""event"",""trial"",""time""
""fullscreenenter"",""0"",""1805""
","
","null","<p></p>","null","","","","","","","",""
"","image","166","192145","0.0-166.0","""event"",""trial"",""time""
""fullscreenenter"",""0"",""1805""
","
","
","""event"",""trial"",""time""
""fullscreenenter"",""0"",""1805""
","
","849.6999999992549","run_exp/static/images/Set 6_rs/121a.jpg","78","","","","","","learn","SR",""
"","show_choice","167","193297","0.0-167.0","""event"",""trial"",""time""
""fullscreenenter"",""0"",""1805""
","
","
","""event"",""trial"",""time""
""fullscreenenter"",""0"",""1805""
","
","null","run_exp/static/images/Set 6_rs/121a.jpg","null","","","","","","learn","SR",""
"","html-keyboard-response","168","193798","0.0-168.0","""event"",""trial"",""time""
""fullscreenenter"",""0"",""1805""
","
","
","""event"",""trial"",""time""
""fullscreenenter"",""0"",""1805""
","
","null","<p></p>","null","","","","","","","",""
"","image","169","195286","0.0-169.0","""event"",""trial"",""time""
""fullscreenenter"",""0"",""1805""
","
","
","""event"",""trial"",""time""
""fullscreenenter"",""0"",""1805""
","
","1485.7999999970198","run_exp/static/images/Set 6_rs/070a.jpg","86","","","","","","learn","SR",""
"","show_choice","170","195801","0.0-170.0","""event"",""trial"",""time""
""fullscreenenter"",""0"",""1805""
","
","
","""event"",""trial"",""time""
""fullscreenenter"",""0"",""1805""
","
","null","run_exp/static/images/Set 6_rs/070a.jpg","null","","","","","","learn","SR",""
"","html-keyboard-response","171","196303","0.0-171.0","""event"",""trial"",""time""
""fullscreenenter"",""0"",""1805""
","
","
","""event"",""trial"",""time""
""fullscreenenter"",""0"",""1805""
","
","null","<p></p>","null","","","","","","","",""
"","image","172","197310","0.0-172.0","""event"",""trial"",""time""
""fullscreenenter"",""0"",""1805""
","
","
","""event"",""trial"",""time""
""fullscreenenter"",""0"",""1805""
","
","1004.2000000029802","run_exp/static/images/Set 6_rs/144a.jpg","86","","","","","","learn","SL",""
"","show_choice","173","198307","0.0-173.0","""event"",""trial"",""time""
""fullscreenenter"",""0"",""1805""
","
","
","""event"",""trial"",""time""
""fullscreenenter"",""0"",""1805""
","
","null","run_exp/static/images/Set 6_rs/144a.jpg","null","","","","","","learn","SL",""
"","html-keyboard-response","174","198808","0.0-174.0","""event"",""trial"",""time""
""fullscreenenter"",""0"",""1805""
","
","
","""event"",""trial"",""time""
""fullscreenenter"",""0"",""1805""
","
","null","<p></p>","null","","","","","","","",""
"","image","175","199780","0.0-175.0","""event"",""trial"",""time""
""fullscreenenter"",""0"",""1805""
","
","
","""event"",""trial"",""time""
""fullscreenenter"",""0"",""1805""
","
","969","run_exp/static/images/Set 6_rs/071a.jpg","86","","","","","","learn","SL",""
"","show_choice","176","200813","0.0-176.0","""event"",""trial"",""time""
""fullscreenenter"",""0"",""1805""
","
","
","""event"",""trial"",""time""
""fullscreenenter"",""0"",""1805""
","
","null","run_exp/static/images/Set 6_rs/071a.jpg","null","","","","","","learn","SL",""
"","html-keyboard-response","177","201314","0.0-177.0","""event"",""trial"",""time""
""fullscreenenter"",""0"",""1805""
","
","
","""event"",""trial"",""time""
""fullscreenenter"",""0"",""1805""
","
","null","<p></p>","null","","","","","","","",""
"","image","178","202511","0.0-178.0","""event"",""trial"",""time""
""fullscreenenter"",""0"",""1805""
","
","
","""event"",""trial"",""time""
""fullscreenenter"",""0"",""1805""
","
","1195.0999999977648","run_exp/static/images/Set 6_rs/150a.jpg","86","","","","","","learn","SR",""
"","show_choice","179","203317","0.0-179.0","""event"",""trial"",""time""
""fullscreenenter"",""0"",""1805""
","
","
","""event"",""trial"",""time""
""fullscreenenter"",""0"",""1805""
","
","null","run_exp/static/images/Set 6_rs/150a.jpg","null","","","","","","learn","SR",""
"","html-keyboard-response","180","203818","0.0-180.0","""event"",""trial"",""time""
""fullscreenenter"",""0"",""1805""
","
","
","""event"",""trial"",""time""
""fullscreenenter"",""0"",""1805""
","
","null","<p></p>","null","","","","","","","",""
"","image","181","205062","0.0-181.0","""event"",""trial"",""time""
""fullscreenenter"",""0"",""1805""
","
","
","""event"",""trial"",""time""
""fullscreenenter"",""0"",""1805""
","
","1241.300000000745","run_exp/static/images/Set 6_rs/063a.jpg","86","","","","","","learn","SR",""
"","show_choice","182","205822","0.0-182.0","""event"",""trial"",""time""
""fullscreenenter"",""0"",""1805""
","
","
","""event"",""trial"",""time""
""fullscreenenter"",""0"",""1805""
","
","null","run_exp/static/images/Set 6_rs/063a.jpg","null","","","","","","learn","SR",""
"","html-keyboard-response","183","206323","0.0-183.0","""event"",""trial"",""time""
""fullscreenenter"",""0"",""1805""
","
","
","""event"",""trial"",""time""
""fullscreenenter"",""0"",""1805""
","
","null","<p></p>","null","","","","","","","",""
"","image","184","207281","0.0-184.0","""event"",""trial"",""time""
""fullscreenenter"",""0"",""1805""
","
","
","""event"",""trial"",""time""
""fullscreenenter"",""0"",""1805""
","
","956.5","run_exp/static/images/Set 6_rs/057a.jpg","86","","","","","","learn","SL",""
"","show_choice","185","208326","0.0-185.0","""event"",""trial"",""time""
""fullscreenenter"",""0"",""1805""
","
","
","""event"",""trial"",""time""
""fullscreenenter"",""0"",""1805""
","
","null","run_exp/static/images/Set 6_rs/057a.jpg","null","","","","","","learn","SL",""
"","html-keyboard-response","186","208827","0.0-186.0","""event"",""trial"",""time""
""fullscreenenter"",""0"",""1805""
","
","
","""event"",""trial"",""time""
""fullscreenenter"",""0"",""1805""
","
","null","<p></p>","null","","","","","","","",""
"","image","187","209737","0.0-187.0","""event"",""trial"",""time""
""fullscreenenter"",""0"",""1805""
","
","
","""event"",""trial"",""time""
""fullscreenenter"",""0"",""1805""
","
","907.2999999970198","run_exp/static/images/Set 6_rs/014a.jpg","86","","","","","","learn","SL",""
"","show_choice","188","210830","0.0-188.0","""event"",""trial"",""time""
""fullscreenenter"",""0"",""1805""
","
","
","""event"",""trial"",""time""
""fullscreenenter"",""0"",""1805""
","
","null","run_exp/static/images/Set 6_rs/014a.jpg","null","","","","","","learn","SL",""
"","html-keyboard-response","189","211332","0.0-189.0","""event"",""trial"",""time""
""fullscreenenter"",""0"",""1805""
","
","
","""event"",""trial"",""time""
""fullscreenenter"",""0"",""1805""
","
","null","<p></p>","null","","","","","","","",""
"","image","190","212453","0.0-190.0","""event"",""trial"",""time""
""fullscreenenter"",""0"",""1805""
","
","
","""event"",""trial"",""time""
""fullscreenenter"",""0"",""1805""
","
","1118.199999999255","run_exp/static/images/Set 6_rs/012a.jpg","86","","","","","","learn","SR",""
"","show_choice","191","213336","0.0-191.0","""event"",""trial"",""time""
""fullscreenenter"",""0"",""1805""
","
","
","""event"",""trial"",""time""
""fullscreenenter"",""0"",""1805""
","
","null","run_exp/static/images/Set 6_rs/012a.jpg","null","","","","","","learn","SR",""
"","html-keyboard-response","192","213837","0.0-192.0","""event"",""trial"",""time""
""fullscreenenter"",""0"",""1805""
","
","
","""event"",""trial"",""time""
""fullscreenenter"",""0"",""1805""
","
","null","<p></p>","null","","","","","","","",""
"","image","193","215182","0.0-193.0","""event"",""trial"",""time""
""fullscreenenter"",""0"",""1805""
","
","
","""event"",""trial"",""time""
""fullscreenenter"",""0"",""1805""
","
","1342.800000000745","run_exp/static/images/Set 6_rs/088a.jpg","86","","","","","","learn","SR",""
"","show_choice","194","215842","0.0-194.0","""event"",""trial"",""time""
""fullscreenenter"",""0"",""1805""
","
","
","""event"",""trial"",""time""
""fullscreenenter"",""0"",""1805""
","
","null","run_exp/static/images/Set 6_rs/088a.jpg","null","","","","","","learn","SR",""
"","html-keyboard-response","195","216343","0.0-195.0","""event"",""trial"",""time""
""fullscreenenter"",""0"",""1805""
","
","
","""event"",""trial"",""time""
""fullscreenenter"",""0"",""1805""
","
","null","<p></p>","null","","","","","","","",""
"","test_intro","196","253318","0.0-196.0","""event"",""trial"",""time""
""fullscreenenter"",""0"",""1805""
","
","
","""event"",""trial"",""time""
""fullscreenenter"",""0"",""1805""
","
","null","run_exp/static/audio/clip_2_memory.m4a","null","","","","","<div class='center'><p>Now, lets see how much you remember about the items you just saw.  For each item, you need to indicate if it was <b>old</b> by pressing the <b>v</b> key, <b>similar</b> by pressing the <b>b</b> key, or <b>new</b> by pressing the <b>n</b> key.</p><p>Old refers to an item that you saw before in the indoor/outdoor game that you just played, new refers to an item you have <b>not</b> seen before within the indoor/outdoor game, and similar refers to an item that is similar to an item youve seen before but is not exactly the same. </p><p>Before we begin, lets go over some brief demonstrations to make sure you understand.</p></div>","","",""
"","html-keyboard-response","197","276799","0.0-197.0","""event"",""trial"",""time""
""fullscreenenter"",""0"",""1805""
","
","
","""event"",""trial"",""time""
""fullscreenenter"",""0"",""1805""
","
","23479.699999999255","<div class='center'><p>Now, lets see how much you remember about the items you just saw.  For each item, you need to indicate if it was <b>old</b> by pressing the <b>v</b> key, <b>similar</b> by pressing the <b>b</b> key, or <b>new</b> by pressing the <b>n</b> key.</p><p>Old refers to an item that you saw before in the indoor/outdoor game that you just played, new refers to an item you have <b>not</b> seen before within the indoor/outdoor game, and similar refers to an item that is similar to an item youve seen before but is not exactly the same. </p><p>Before we begin, lets go over some brief demonstrations to make sure you understand.</p><div><p><b>[Press the space bar to continue]</b></p></div>","32","","","","","","","",""
"","items","198","284302","0.0-198.0","""event"",""trial"",""time""
""fullscreenenter"",""0"",""1805""
","
","
","""event"",""trial"",""time""
""fullscreenenter"",""0"",""1805""
","
","null","run_exp/static/audio/clip_3_items.m4a","null","","","","","","","",""
"","mop","199","288805","0.0-199.0","""event"",""trial"",""time""
""fullscreenenter"",""0"",""1805""
","
","
","""event"",""trial"",""time""
""fullscreenenter"",""0"",""1805""
","
","null","run_exp/static/audio/clip_4_mop.m4a","null","","","","","","","",""
"","baseball","200","292308","0.0-200.0","""event"",""trial"",""time""
""fullscreenenter"",""0"",""1805""
","
","
","""event"",""trial"",""time""
""fullscreenenter"",""0"",""1805""
","
","null","run_exp/static/audio/clip_5_baseball.m4a","null","","","","","","","",""
"","trumpet","201","295814","0.0-201.0","""event"",""trial"",""time""
""fullscreenenter"",""0"",""1805""
","
","
","""event"",""trial"",""time""
""fullscreenenter"",""0"",""1805""
","
","null","run_exp/static/audio/clip_6_trumpet.m4a","null","","","","","","","",""
"","gummies","202","299316","0.0-202.0","""event"",""trial"",""time""
""fullscreenenter"",""0"",""1805""
","
","
","""event"",""trial"",""time""
""fullscreenenter"",""0"",""1805""
","
","null","run_exp/static/audio/clip_7_gummies.m4a","null","","","","","","","",""
"","osn","203","303819","0.0-203.0","""event"",""trial"",""time""
""fullscreenenter"",""0"",""1805""
","
","
","""event"",""trial"",""time""
""fullscreenenter"",""0"",""1805""
","
","null","run_exp/static/audio/clip_8_osn.m4a","null","","","","","","","",""
"","old_1","204","310321","0.0-204.0","""event"",""trial"",""time""
""fullscreenenter"",""0"",""1805""
","
","
","""event"",""trial"",""time""
""fullscreenenter"",""0"",""1805""
","
","null","run_exp/static/audio/clip_9_old_trumpet.m4a","null","","","","","","","",""
"","new_1","205","317825","0.0-205.0","""event"",""trial"",""time""
""fullscreenenter"",""0"",""1805""
","
","
","""event"",""trial"",""time""
""fullscreenenter"",""0"",""1805""
","
","null","run_exp/static/audio/clip_10_new_balloon.m4a","null","","","","","","","",""
"","similar_1a","206","322328","0.0-206.0","""event"",""trial"",""time""
""fullscreenenter"",""0"",""1805""
","
","
","""event"",""trial"",""time""
""fullscreenenter"",""0"",""1805""
","
","null","run_exp/static/audio/clip_11a_similar_mop.m4a","null","","","","","","","",""
"","similar_1b","207","328832","0.0-207.0","""event"",""trial"",""time""
""fullscreenenter"",""0"",""1805""
","
","
","""event"",""trial"",""time""
""fullscreenenter"",""0"",""1805""
","
","null","run_exp/static/audio/clip_11b_similar_mop.m4a","null","","","","","","","",""
"","new_2","208","332334","0.0-208.0","""event"",""trial"",""time""
""fullscreenenter"",""0"",""1805""
","
","
","""event"",""trial"",""time""
""fullscreenenter"",""0"",""1805""
","
","null","run_exp/static/audio/clip_12_new_stoplight.m4a","null","","","","","","","",""
"","old_2","209","335837","0.0-209.0","""event"",""trial"",""time""
""fullscreenenter"",""0"",""1805""
","
","
","""event"",""trial"",""time""
""fullscreenenter"",""0"",""1805""
","
","null","run_exp/static/audio/clip_13_old_baseball.m4a","null","","","","","","","",""
"","similar_2a","210","339342","0.0-210.0","""event"",""trial"",""time""
""fullscreenenter"",""0"",""1805""
","
","
","""event"",""trial"",""time""
""fullscreenenter"",""0"",""1805""
","
","null","run_exp/static/audio/clip_14a_similar_gummies.m4a","null","","","","","","","",""
"","similar_2b","211","346846","0.0-211.0","""event"",""trial"",""time""
""fullscreenenter"",""0"",""1805""
","
","
","""event"",""trial"",""time""
""fullscreenenter"",""0"",""1805""
","
","null","run_exp/static/audio/clip_14b_similar_gummies.m4a","null","","","","","","","",""
"","practice","212","389121","0.0-212.0","""event"",""trial"",""time""
""fullscreenenter"",""0"",""1805""
","
","
","""event"",""trial"",""time""
""fullscreenenter"",""0"",""1805""
","
","null","run_exp/static/audio/clip_15_practice.m4a","null","","","","","<div class='center'><p>Lets practice a little to make sure you understand the difference between new, similar, and old. Lets say you saw these three items in the indoor/outdoor game.</p><p> Try your best to remember these images because youll soon be tested on them in a practice game. In the practice game, youll be shown images and youll have to say if they are old (one of the three images belows), similar (similar to one of the images below but not exactly the same), or new (are not one of the images below nor similar to them).</p><p>Once you press the space bar youll be shown these images again but one at time. Then youll begin the practice game.</p><p><img src='run_exp/static/images/tutorial/test/three_indoor_outdoor.png' height='300'></p></div>","","",""
"","html-keyboard-response","213","394157","0.0-213.0","""event"",""trial"",""time""
""fullscreenenter"",""0"",""1805""
","
","
","""event"",""trial"",""time""
""fullscreenenter"",""0"",""1805""
","
","5033.5","<div class='center'><p>Lets practice a little to make sure you understand the difference between new, similar, and old. Lets say you saw these three items in the indoor/outdoor game.</p><p> Try your best to remember these images because youll soon be tested on them in a practice game. In the practice game, youll be shown images and youll have to say if they are old (one of the three images belows), similar (similar to one of the images below but not exactly the same), or new (are not one of the images below nor similar to them).</p><p>Once you press the space bar youll be shown these images again but one at time. Then youll begin the practice game.</p><p><img src='run_exp/static/images/tutorial/test/three_indoor_outdoor.png' height='300'></p><div><p><b>[Press the space bar to continue]</b></p></div>","32","","","","","","","",""
"","planet","214","396159","0.0-214.0","""event"",""trial"",""time""
""fullscreenenter"",""0"",""1805""
","
","
","""event"",""trial"",""time""
""fullscreenenter"",""0"",""1805""
","
","null","run_exp/static/images/tutorial/test/008a.jpg","null","","","","","","","",""
"","boot","215","398161","0.0-215.0","""event"",""trial"",""time""
""fullscreenenter"",""0"",""1805""
","
","
","""event"",""trial"",""time""
""fullscreenenter"",""0"",""1805""
","
","null","run_exp/static/images/tutorial/test/011a.jpg","null","","","","","","","",""
"","lemon","216","400163","0.0-216.0","""event"",""trial"",""time""
""fullscreenenter"",""0"",""1805""
","
","
","""event"",""trial"",""time""
""fullscreenenter"",""0"",""1805""
","
","null","run_exp/static/images/tutorial/test/018a.jpg","null","","","","","","","",""
"","practice_q1","217","404157","0.0-217.0","""event"",""trial"",""time""
""fullscreenenter"",""0"",""1805""
","
","
","""event"",""trial"",""time""
""fullscreenenter"",""0"",""1805""
","
","3990.39999999851","run_exp/static/audio/clip_16_practice_question.m4a","78","","","","","","","",""
"","correct","218","406232","0.0-218.0-0.0","""event"",""trial"",""time""
""fullscreenenter"",""0"",""1805""
","
","
","""event"",""trial"",""time""
""fullscreenenter"",""0"",""1805""
","
","null","run_exp/static/audio/clip_17_correct.m4a","null","","","","","<div class='center'><p>That's correct!</p></div>","","",""
"","html-keyboard-response","219","408066","0.0-218.0-1.0","""event"",""trial"",""time""
""fullscreenenter"",""0"",""1805""
","
","
","""event"",""trial"",""time""
""fullscreenenter"",""0"",""1805""
","
","1832.300000000745","<div class='center'><p>That's correct!</p><div><p><b>[Press the space bar to continue]</b></p></div>","32","","","","","","","",""
"","practice_q2","220","410564","0.0-218.0-2.0","""event"",""trial"",""time""
""fullscreenenter"",""0"",""1805""
","
","
","""event"",""trial"",""time""
""fullscreenenter"",""0"",""1805""
","
","2495.10000000149","run_exp/static/audio/clip_16_practice_question.m4a","86","","","","","","","",""
"","correct","221","412632","0.0-219.0-0.0","""event"",""trial"",""time""
""fullscreenenter"",""0"",""1805""
","
","
","""event"",""trial"",""time""
""fullscreenenter"",""0"",""1805""
","
","null","run_exp/static/audio/clip_17_correct.m4a","null","","","","","<div class='center'><p>That's correct!</p></div>","","",""
"","html-keyboard-response","222","414598","0.0-219.0-1.0","""event"",""trial"",""time""
""fullscreenenter"",""0"",""1805""
","
","
","""event"",""trial"",""time""
""fullscreenenter"",""0"",""1805""
","
","1964.6000000014901","<div class='center'><p>That's correct!</p><div><p><b>[Press the space bar to continue]</b></p></div>","32","","","","","","","",""
"","practice_q3","223","415947","0.0-219.0-2.0","""event"",""trial"",""time""
""fullscreenenter"",""0"",""1805""
","
","
","""event"",""trial"",""time""
""fullscreenenter"",""0"",""1805""
","
","1346.0999999977648","run_exp/static/audio/clip_16_practice_question.m4a","86","","","","","","","",""
"","incorrect_q3","224","418862","0.0-220.0-0.0","""event"",""trial"",""time""
""fullscreenenter"",""0"",""1805""
","
","
","""event"",""trial"",""time""
""fullscreenenter"",""0"",""1805""
","
","null","run_exp/static/audio/clip_20_incorrect_similar.m4a","null","","","","","<div class='center'><p>Thats incorrect. Its similar.</p><p><img src='run_exp/static/images/tutorial/test/boot_comparison.png' height='300'></p></div>","","",""
"","html-keyboard-response","225","420261","0.0-220.0-1.0","""event"",""trial"",""time""
""fullscreenenter"",""0"",""1805""
","
","
","""event"",""trial"",""time""
""fullscreenenter"",""0"",""1805""
","
","1397.3999999985099","<div class='center'><p>Thats incorrect. Its similar.</p><p><img src='run_exp/static/images/tutorial/test/boot_comparison.png' height='300'></p><div><p><b>[Press the space bar to continue]</b></p></div>","32","","","","","","","",""
"","repeat","226","425177","0.0-221.0-0.0","""event"",""trial"",""time""
""fullscreenenter"",""0"",""1805""
","
","
","""event"",""trial"",""time""
""fullscreenenter"",""0"",""1805""
","
","null","run_exp/static/audio/clip_21_practice_again.m4a","null","","","","","<div class='center'><p>Oops. you missed at least one of these questions. Let's try practicing again. </p></div>","","",""
"","html-keyboard-response","227","426073","0.0-221.0-1.0","""event"",""trial"",""time""
""fullscreenenter"",""0"",""1805""
","
","
","""event"",""trial"",""time""
""fullscreenenter"",""0"",""1805""
","
","894.3000000007451","<div class='center'><p>Oops. you missed at least one of these questions. Let's try practicing again. </p><div><p><b>[Press the space bar to continue]</b></p></div>","32","","","","","","","",""
"","practice_q1","228","428315","0.0-221.0-2.0","""event"",""trial"",""time""
""fullscreenenter"",""0"",""1805""
","
","
","""event"",""trial"",""time""
""fullscreenenter"",""0"",""1805""
","
","2236.800000000745","run_exp/static/audio/clip_16_practice_question.m4a","78","","","","","","","",""
"","correct","229","430382","0.0-222.0-0.0","""event"",""trial"",""time""
""fullscreenenter"",""0"",""1805""
","
","
","""event"",""trial"",""time""
""fullscreenenter"",""0"",""1805""
","
","null","run_exp/static/audio/clip_17_correct.m4a","null","","","","","<div class='center'><p>That's correct!</p></div>","","",""
"","html-keyboard-response","230","431243","0.0-222.0-1.0","""event"",""trial"",""time""
""fullscreenenter"",""0"",""1805""
","
","
","""event"",""trial"",""time""
""fullscreenenter"",""0"",""1805""
","
","860","<div class='center'><p>That's correct!</p><div><p><b>[Press the space bar to continue]</b></p></div>","32","","","","","","","",""
"","practice_q2","231","432830","0.0-222.0-2.0","""event"",""trial"",""time""
""fullscreenenter"",""0"",""1805""
","
","
","""event"",""trial"",""time""
""fullscreenenter"",""0"",""1805""
","
","1584.699999999255","run_exp/static/audio/clip_16_practice_question.m4a","86","","","","","","","",""
"","correct","232","434905","0.0-223.0-0.0","""event"",""trial"",""time""
""fullscreenenter"",""0"",""1805""
","
","
","""event"",""trial"",""time""
""fullscreenenter"",""0"",""1805""
","
","null","run_exp/static/audio/clip_17_correct.m4a","null","","","","","<div class='center'><p>That's correct!</p></div>","","",""
"","html-keyboard-response","233","435314","0.0-223.0-1.0","""event"",""trial"",""time""
""fullscreenenter"",""0"",""1805""
","
","
","""event"",""trial"",""time""
""fullscreenenter"",""0"",""1805""
","
","407.5999999977648","<div class='center'><p>That's correct!</p><div><p><b>[Press the space bar to continue]</b></p></div>","32","","","","","","","",""
"","practice_q3","234","435911","0.0-223.0-2.0","""event"",""trial"",""time""
""fullscreenenter"",""0"",""1805""
","
","
","""event"",""trial"",""time""
""fullscreenenter"",""0"",""1805""
","
","593.5","run_exp/static/audio/clip_16_practice_question.m4a","66","","","","","","","",""
"","correct","235","438318","0.0-224.0-0.0","""event"",""trial"",""time""
""fullscreenenter"",""0"",""1805""
","
","
","""event"",""trial"",""time""
""fullscreenenter"",""0"",""1805""
","
","null","run_exp/static/audio/clip_17_correct.m4a","null","","","","","<div class='center'><p>That's correct!</p></div>","","",""
"","html-keyboard-response","236","441082","0.0-224.0-1.0","""event"",""trial"",""time""
""fullscreenenter"",""0"",""1805""
","
","
","""event"",""trial"",""time""
""fullscreenenter"",""0"",""1805""
","
","2762.599999997765","<div class='center'><p>That's correct!</p><div><p><b>[Press the space bar to continue]</b></p></div>","32","","","","","","","",""
"","begin_text","237","459737","0.0-225.0-0.0","""event"",""trial"",""time""
""fullscreenenter"",""0"",""1805""
","
","
","""event"",""trial"",""time""
""fullscreenenter"",""0"",""1805""
","
","null","run_exp/static/audio/clip_22_begin_test.m4a","null","","","","","<div class='center'><p>On to the real game where well test your memory of items from the indoor/outdoor game. For each item, you need to indicate if the item is <b>old</b> by pressing the <b>v</b> key, <b>similar</b> by pressing the <b>b</b> key, or <b>new</b> by pressing the <b>n</b> key. </p></div>","","",""
"","html-keyboard-response","238","461599","0.0-225.0-1.0","""event"",""trial"",""time""
""fullscreenenter"",""0"",""1805""
","
","
","""event"",""trial"",""time""
""fullscreenenter"",""0"",""1805""
","
","1859.2000000029802","<div class='center'><p>On to the real game where well test your memory of items from the indoor/outdoor game. For each item, you need to indicate if the item is <b>old</b> by pressing the <b>v</b> key, <b>similar</b> by pressing the <b>b</b> key, or <b>new</b> by pressing the <b>n</b> key. </p><div><p><b>[Press the space bar to continue]</b></p></div>","32","","","","","","","",""
"","image","239","462651","0.0-226.0-0.0","""event"",""trial"",""time""
""fullscreenenter"",""0"",""1805""
","
","
","""event"",""trial"",""time""
""fullscreenenter"",""0"",""1805""
","
","1049.300000000745","run_exp/static/images/Set 6_rs/172a.jpg","86","","","","","","test","TR","1"
"","show_choice","240","463154","0.0-226.0-1.0","""event"",""trial"",""time""
""fullscreenenter"",""0"",""1805""
","
","
","""event"",""trial"",""time""
""fullscreenenter"",""0"",""1805""
","
","null","run_exp/static/images/Set 6_rs/172a.jpg","null","","","","","","test","TR",""
"","html-keyboard-response","241","463656","0.0-226.0-2.0","""event"",""trial"",""time""
""fullscreenenter"",""0"",""1805""
","
","
","""event"",""trial"",""time""
""fullscreenenter"",""0"",""1805""
","
","null","<p></p>","null","","","","","","","",""
"","image","242","464935","0.0-227.0-0.0","""event"",""trial"",""time""
""fullscreenenter"",""0"",""1805""
","
","
","""event"",""trial"",""time""
""fullscreenenter"",""0"",""1805""
","
","1276.699999999255","run_exp/static/images/Set 6_rs/022a.jpg","78","","","","","","test","TF","4"
"","show_choice","243","465437","0.0-227.0-1.0","""event"",""trial"",""time""
""fullscreenenter"",""0"",""1805""
","
","
","""event"",""trial"",""time""
""fullscreenenter"",""0"",""1805""
","
","null","run_exp/static/images/Set 6_rs/022a.jpg","null","","","","","","test","TF",""
"","html-keyboard-response","244","465939","0.0-227.0-2.0","""event"",""trial"",""time""
""fullscreenenter"",""0"",""1805""
","
","
","""event"",""trial"",""time""
""fullscreenenter"",""0"",""1805""
","
","null","<p></p>","null","","","","","","","",""
"","image","245","468172","0.0-228.0-0.0","""event"",""trial"",""time""
""fullscreenenter"",""0"",""1805""
","
","
","""event"",""trial"",""time""
""fullscreenenter"",""0"",""1805""
","
","2229.89999999851","run_exp/static/images/Set 6_rs/077a.jpg","78","","","","","","test","TF","3"
"","show_choice","246","468674","0.0-228.0-1.0","""event"",""trial"",""time""
""fullscreenenter"",""0"",""1805""
","
","
","""event"",""trial"",""time""
""fullscreenenter"",""0"",""1805""
","
","null","run_exp/static/images/Set 6_rs/077a.jpg","null","","","","","","test","TF",""
"","html-keyboard-response","247","469176","0.0-228.0-2.0","""event"",""trial"",""time""
""fullscreenenter"",""0"",""1805""
","
","
","""event"",""trial"",""time""
""fullscreenenter"",""0"",""1805""
","
","null","<p></p>","null","","","","","","","",""
"","image","248","470636","0.0-229.0-0.0","""event"",""trial"",""time""
""fullscreenenter"",""0"",""1805""
","
","
","""event"",""trial"",""time""
""fullscreenenter"",""0"",""1805""
","
","1457.5","run_exp/static/images/Set 6_rs/052a.jpg","78","","","","","","test","TF","1"
"","show_choice","249","471138","0.0-229.0-1.0","""event"",""trial"",""time""
""fullscreenenter"",""0"",""1805""
","
","
","""event"",""trial"",""time""
""fullscreenenter"",""0"",""1805""
","
","null","run_exp/static/images/Set 6_rs/052a.jpg","null","","","","","","test","TF",""
"","html-keyboard-response","250","471640","0.0-229.0-2.0","""event"",""trial"",""time""
""fullscreenenter"",""0"",""1805""
","
","
","""event"",""trial"",""time""
""fullscreenenter"",""0"",""1805""
","
","null","<p></p>","null","","","","","","","",""
"","image","251","473834","0.0-230.0-0.0","""event"",""trial"",""time""
""fullscreenenter"",""0"",""1805""
","
","
","""event"",""trial"",""time""
""fullscreenenter"",""0"",""1805""
","
","2192","run_exp/static/images/Set 6_rs/045a.jpg","86","","","","","","test","TR","2"
"","show_choice","252","474338","0.0-230.0-1.0","""event"",""trial"",""time""
""fullscreenenter"",""0"",""1805""
","
","
","""event"",""trial"",""time""
""fullscreenenter"",""0"",""1805""
","
","null","run_exp/static/images/Set 6_rs/045a.jpg","null","","","","","","test","TR",""
"","html-keyboard-response","253","474840","0.0-230.0-2.0","""event"",""trial"",""time""
""fullscreenenter"",""0"",""1805""
","
","
","""event"",""trial"",""time""
""fullscreenenter"",""0"",""1805""
","
","null","<p></p>","null","","","","","","","",""
"","image","254","476254","0.0-231.0-0.0","""event"",""trial"",""time""
""fullscreenenter"",""0"",""1805""
","
","
","""event"",""trial"",""time""
""fullscreenenter"",""0"",""1805""
","
","1411.699999999255","run_exp/static/images/Set 6_rs/070a.jpg","86","","","","","","test","TR","2"
"","show_choice","255","476757","0.0-231.0-1.0","""event"",""trial"",""time""
""fullscreenenter"",""0"",""1805""
","
","
","""event"",""trial"",""time""
""fullscreenenter"",""0"",""1805""
","
","null","run_exp/static/images/Set 6_rs/070a.jpg","null","","","","","","test","TR",""
"","html-keyboard-response","256","477259","0.0-231.0-2.0","""event"",""trial"",""time""
""fullscreenenter"",""0"",""1805""
","
","
","""event"",""trial"",""time""
""fullscreenenter"",""0"",""1805""
","
","null","<p></p>","null","","","","","","","",""
"","image","257","479746","0.0-232.0-0.0","""event"",""trial"",""time""
""fullscreenenter"",""0"",""1805""
","
","
","""event"",""trial"",""time""
""fullscreenenter"",""0"",""1805""
","
","2485.400000002235","run_exp/static/images/Set 6_rs/062b.jpg","66","","","","","","test","TL","1"
"","show_choice","258","480248","0.0-232.0-1.0","""event"",""trial"",""time""
""fullscreenenter"",""0"",""1805""
","
","
","""event"",""trial"",""time""
""fullscreenenter"",""0"",""1805""
","
","null","run_exp/static/images/Set 6_rs/062b.jpg","null","","","","","","test","TL",""
"","html-keyboard-response","259","480751","0.0-232.0-2.0","""event"",""trial"",""time""
""fullscreenenter"",""0"",""1805""
","
","
","""event"",""trial"",""time""
""fullscreenenter"",""0"",""1805""
","
","null","<p></p>","null","","","","","","","",""
"","image","260","482216","0.0-233.0-0.0","""event"",""trial"",""time""
""fullscreenenter"",""0"",""1805""
","
","
","""event"",""trial"",""time""
""fullscreenenter"",""0"",""1805""
","
","1463.6000000014901","run_exp/static/images/Set 6_rs/071b.jpg","66","","","","","","test","TL","4"
"","show_choice","261","482719","0.0-233.0-1.0","""event"",""trial"",""time""
""fullscreenenter"",""0"",""1805""
","
","
","""event"",""trial"",""time""
""fullscreenenter"",""0"",""1805""
","
","null","run_exp/static/images/Set 6_rs/071b.jpg","null","","","","","","test","TL",""
"","html-keyboard-response","262","483221","0.0-233.0-2.0","""event"",""trial"",""time""
""fullscreenenter"",""0"",""1805""
","
","
","""event"",""trial"",""time""
""fullscreenenter"",""0"",""1805""
","
","null","<p></p>","null","","","","","","","",""
"","image","263","484777","0.0-234.0-0.0","""event"",""trial"",""time""
""fullscreenenter"",""0"",""1805""
","
","
","""event"",""trial"",""time""
""fullscreenenter"",""0"",""1805""
","
","1554.699999999255","run_exp/static/images/Set 6_rs/065a.jpg","78","","","","","","test","TF","3"
"","show_choice","264","485280","0.0-234.0-1.0","""event"",""trial"",""time""
""fullscreenenter"",""0"",""1805""
","
","
","""event"",""trial"",""time""
""fullscreenenter"",""0"",""1805""
","
","null","run_exp/static/images/Set 6_rs/065a.jpg","null","","","","","","test","TF",""
"","html-keyboard-response","265","485782","0.0-234.0-2.0","""event"",""trial"",""time""
""fullscreenenter"",""0"",""1805""
","
","
","""event"",""trial"",""time""
""fullscreenenter"",""0"",""1805""
","
","null","<p></p>","null","","","","","","","",""
"","image","266","488693","0.0-235.0-0.0","""event"",""trial"",""time""
""fullscreenenter"",""0"",""1805""
","
","
","""event"",""trial"",""time""
""fullscreenenter"",""0"",""1805""
","
","2909.199999999255","run_exp/static/images/Set 6_rs/064a.jpg","86","","","","","","test","TR","5"
"","show_choice","267","489196","0.0-235.0-1.0","""event"",""trial"",""time""
""fullscreenenter"",""0"",""1805""
","
","
","""event"",""trial"",""time""
""fullscreenenter"",""0"",""1805""
","
","null","run_exp/static/images/Set 6_rs/064a.jpg","null","","","","","","test","TR",""
"","html-keyboard-response","268","489698","0.0-235.0-2.0","""event"",""trial"",""time""
""fullscreenenter"",""0"",""1805""
","
","
","""event"",""trial"",""time""
""fullscreenenter"",""0"",""1805""
","
","null","<p></p>","null","","","","","","","",""
"","image","269","491359","0.0-236.0-0.0","""event"",""trial"",""time""
""fullscreenenter"",""0"",""1805""
","
","
","""event"",""trial"",""time""
""fullscreenenter"",""0"",""1805""
","
","1659.4000000022352","run_exp/static/images/Set 6_rs/061a.jpg","86","","","","","","test","TR","5"
"","show_choice","270","491862","0.0-236.0-1.0","""event"",""trial"",""time""
""fullscreenenter"",""0"",""1805""
","
","
","""event"",""trial"",""time""
""fullscreenenter"",""0"",""1805""
","
","null","run_exp/static/images/Set 6_rs/061a.jpg","null","","","","","","test","TR",""
"","html-keyboard-response","271","492364","0.0-236.0-2.0","""event"",""trial"",""time""
""fullscreenenter"",""0"",""1805""
","
","
","""event"",""trial"",""time""
""fullscreenenter"",""0"",""1805""
","
","null","<p></p>","null","","","","","","","",""
"","image","272","493502","0.0-237.0-0.0","""event"",""trial"",""time""
""fullscreenenter"",""0"",""1805""
","
","
","""event"",""trial"",""time""
""fullscreenenter"",""0"",""1805""
","
","1136.1000000014901","run_exp/static/images/Set 6_rs/134a.jpg","86","","","","","","test","TR","3"
"","show_choice","273","494005","0.0-237.0-1.0","""event"",""trial"",""time""
""fullscreenenter"",""0"",""1805""
","
","
","""event"",""trial"",""time""
""fullscreenenter"",""0"",""1805""
","
","null","run_exp/static/images/Set 6_rs/134a.jpg","null","","","","","","test","TR",""
"","html-keyboard-response","274","494506","0.0-237.0-2.0","""event"",""trial"",""time""
""fullscreenenter"",""0"",""1805""
","
","
","""event"",""trial"",""time""
""fullscreenenter"",""0"",""1805""
","
","null","<p></p>","null","","","","","","","",""
"","image","275","495718","0.0-238.0-0.0","""event"",""trial"",""time""
""fullscreenenter"",""0"",""1805""
","
","
","""event"",""trial"",""time""
""fullscreenenter"",""0"",""1805""
","
","1209","run_exp/static/images/Set 6_rs/007a.jpg","66","","","","","","test","TR","3"
"","show_choice","276","496221","0.0-238.0-1.0","""event"",""trial"",""time""
""fullscreenenter"",""0"",""1805""
","
","
","""event"",""trial"",""time""
""fullscreenenter"",""0"",""1805""
","
","null","run_exp/static/images/Set 6_rs/007a.jpg","null","","","","","","test","TR",""
"","html-keyboard-response","277","496722","0.0-238.0-2.0","""event"",""trial"",""time""
""fullscreenenter"",""0"",""1805""
","
","
","""event"",""trial"",""time""
""fullscreenenter"",""0"",""1805""
","
","null","<p></p>","null","","","","","","","",""
"","image","278","498179","0.0-239.0-0.0","""event"",""trial"",""time""
""fullscreenenter"",""0"",""1805""
","
","
","""event"",""trial"",""time""
""fullscreenenter"",""0"",""1805""
","
","1454.9000000022352","run_exp/static/images/Set 6_rs/012a.jpg","86","","","","","","test","TR","1"
"","show_choice","279","498682","0.0-239.0-1.0","""event"",""trial"",""time""
""fullscreenenter"",""0"",""1805""
","
","
","""event"",""trial"",""time""
""fullscreenenter"",""0"",""1805""
","
","null","run_exp/static/images/Set 6_rs/012a.jpg","null","","","","","","test","TR",""
"","html-keyboard-response","280","499183","0.0-239.0-2.0","""event"",""trial"",""time""
""fullscreenenter"",""0"",""1805""
","
","
","""event"",""trial"",""time""
""fullscreenenter"",""0"",""1805""
","
","null","<p></p>","null","","","","","","","",""
"","image","281","500298","0.0-240.0-0.0","""event"",""trial"",""time""
""fullscreenenter"",""0"",""1805""
","
","
","""event"",""trial"",""time""
""fullscreenenter"",""0"",""1805""
","
","1112.300000000745","run_exp/static/images/Set 6_rs/010a.jpg","86","","","","","","test","TR","5"
"","show_choice","282","500800","0.0-240.0-1.0","""event"",""trial"",""time""
""fullscreenenter"",""0"",""1805""
","
","
","""event"",""trial"",""time""
""fullscreenenter"",""0"",""1805""
","
","null","run_exp/static/images/Set 6_rs/010a.jpg","null","","","","","","test","TR",""
"","html-keyboard-response","283","501302","0.0-240.0-2.0","""event"",""trial"",""time""
""fullscreenenter"",""0"",""1805""
","
","
","""event"",""trial"",""time""
""fullscreenenter"",""0"",""1805""
","
","null","<p></p>","null","","","","","","","",""
"","image","284","503531","0.0-241.0-0.0","""event"",""trial"",""time""
""fullscreenenter"",""0"",""1805""
","
","
","""event"",""trial"",""time""
""fullscreenenter"",""0"",""1805""
","
","2225.900000002235","run_exp/static/images/Set 6_rs/123b.jpg","66","","","","","","test","TL","2"
"","show_choice","285","504033","0.0-241.0-1.0","""event"",""trial"",""time""
""fullscreenenter"",""0"",""1805""
","
","
","""event"",""trial"",""time""
""fullscreenenter"",""0"",""1805""
","
","null","run_exp/static/images/Set 6_rs/123b.jpg","null","","","","","","test","TL",""
"","html-keyboard-response","286","504535","0.0-241.0-2.0","""event"",""trial"",""time""
""fullscreenenter"",""0"",""1805""
","
","
","""event"",""trial"",""time""
""fullscreenenter"",""0"",""1805""
","
","null","<p></p>","null","","","","","","","",""
"","image","287","505583","0.0-242.0-0.0","""event"",""trial"",""time""
""fullscreenenter"",""0"",""1805""
","
","
","""event"",""trial"",""time""
""fullscreenenter"",""0"",""1805""
","
","1045.5999999977648","run_exp/static/images/Set 6_rs/050b.jpg","86","","","","","","test","TL","3"
"","show_choice","288","506086","0.0-242.0-1.0","""event"",""trial"",""time""
""fullscreenenter"",""0"",""1805""
","
","
","""event"",""trial"",""time""
""fullscreenenter"",""0"",""1805""
","
","null","run_exp/static/images/Set 6_rs/050b.jpg","null","","","","","","test","TL",""
"","html-keyboard-response","289","506588","0.0-242.0-2.0","""event"",""trial"",""time""
""fullscreenenter"",""0"",""1805""
","
","
","""event"",""trial"",""time""
""fullscreenenter"",""0"",""1805""
","
","null","<p></p>","null","","","","","","","",""
"","image","290","507879","0.0-243.0-0.0","""event"",""trial"",""time""
""fullscreenenter"",""0"",""1805""
","
","
","""event"",""trial"",""time""
""fullscreenenter"",""0"",""1805""
","
","1288.699999999255","run_exp/static/images/Set 6_rs/021a.jpg","78","","","","","","test","TF","2"
"","show_choice","291","508381","0.0-243.0-1.0","""event"",""trial"",""time""
""fullscreenenter"",""0"",""1805""
","
","
","""event"",""trial"",""time""
""fullscreenenter"",""0"",""1805""
","
","null","run_exp/static/images/Set 6_rs/021a.jpg","null","","","","","","test","TF",""
"","html-keyboard-response","292","508884","0.0-243.0-2.0","""event"",""trial"",""time""
""fullscreenenter"",""0"",""1805""
","
","
","""event"",""trial"",""time""
""fullscreenenter"",""0"",""1805""
","
","null","<p></p>","null","","","","","","","",""
"","image","293","510380","0.0-244.0-0.0","""event"",""trial"",""time""
""fullscreenenter"",""0"",""1805""
","
","
","""event"",""trial"",""time""
""fullscreenenter"",""0"",""1805""
","
","1494.9000000022352","run_exp/static/images/Set 6_rs/176a.jpg","78","","","","","","test","TF","4"
"","show_choice","294","510883","0.0-244.0-1.0","""event"",""trial"",""time""
""fullscreenenter"",""0"",""1805""
","
","
","""event"",""trial"",""time""
""fullscreenenter"",""0"",""1805""
","
","null","run_exp/static/images/Set 6_rs/176a.jpg","null","","","","","","test","TF",""
"","html-keyboard-response","295","511385","0.0-244.0-2.0","""event"",""trial"",""time""
""fullscreenenter"",""0"",""1805""
","
","
","""event"",""trial"",""time""
""fullscreenenter"",""0"",""1805""
","
","null","<p></p>","null","","","","","","","",""
"","image","296","513578","0.0-245.0-0.0","""event"",""trial"",""time""
""fullscreenenter"",""0"",""1805""
","
","
","""event"",""trial"",""time""
""fullscreenenter"",""0"",""1805""
","
","2191.199999999255","run_exp/static/images/Set 6_rs/048a.jpg","78","","","","","","test","TF","4"
"","show_choice","297","514081","0.0-245.0-1.0","""event"",""trial"",""time""
""fullscreenenter"",""0"",""1805""
","
","
","""event"",""trial"",""time""
""fullscreenenter"",""0"",""1805""
","
","null","run_exp/static/images/Set 6_rs/048a.jpg","null","","","","","","test","TF",""
"","html-keyboard-response","298","514583","0.0-245.0-2.0","""event"",""trial"",""time""
""fullscreenenter"",""0"",""1805""
","
","
","""event"",""trial"",""time""
""fullscreenenter"",""0"",""1805""
","
","null","<p></p>","null","","","","","","","",""
"","image","299","515454","0.0-246.0-0.0","""event"",""trial"",""time""
""fullscreenenter"",""0"",""1805""
","
","
","""event"",""trial"",""time""
""fullscreenenter"",""0"",""1805""
","
","869.1999999992549","run_exp/static/images/Set 6_rs/005a.jpg","78","","","","","","test","TF","5"
"","show_choice","300","515957","0.0-246.0-1.0","""event"",""trial"",""time""
""fullscreenenter"",""0"",""1805""
","
","
","""event"",""trial"",""time""
""fullscreenenter"",""0"",""1805""
","
","null","run_exp/static/images/Set 6_rs/005a.jpg","null","","","","","","test","TF",""
"","html-keyboard-response","301","516458","0.0-246.0-2.0","""event"",""trial"",""time""
""fullscreenenter"",""0"",""1805""
","
","
","""event"",""trial"",""time""
""fullscreenenter"",""0"",""1805""
","
","null","<p></p>","null","","","","","","","",""
"","image","302","518193","0.0-247.0-0.0","""event"",""trial"",""time""
""fullscreenenter"",""0"",""1805""
","
","
","""event"",""trial"",""time""
""fullscreenenter"",""0"",""1805""
","
","1732.800000000745","run_exp/static/images/Set 6_rs/074b.jpg","66","","","","","","test","TL","4"
"","show_choice","303","518696","0.0-247.0-1.0","""event"",""trial"",""time""
""fullscreenenter"",""0"",""1805""
","
","
","""event"",""trial"",""time""
""fullscreenenter"",""0"",""1805""
","
","null","run_exp/static/images/Set 6_rs/074b.jpg","null","","","","","","test","TL",""
"","html-keyboard-response","304","519198","0.0-247.0-2.0","""event"",""trial"",""time""
""fullscreenenter"",""0"",""1805""
","
","
","""event"",""trial"",""time""
""fullscreenenter"",""0"",""1805""
","
","null","<p></p>","null","","","","","","","",""
"","image","305","520511","0.0-248.0-0.0","""event"",""trial"",""time""
""fullscreenenter"",""0"",""1805""
","
","
","""event"",""trial"",""time""
""fullscreenenter"",""0"",""1805""
","
","1310.0999999977648","run_exp/static/images/Set 6_rs/017b.jpg","86","","","","","","test","TL","3"
"","show_choice","306","521013","0.0-248.0-1.0","""event"",""trial"",""time""
""fullscreenenter"",""0"",""1805""
","
","
","""event"",""trial"",""time""
""fullscreenenter"",""0"",""1805""
","
","null","run_exp/static/images/Set 6_rs/017b.jpg","null","","","","","","test","TL",""
"","html-keyboard-response","307","521514","0.0-248.0-2.0","""event"",""trial"",""time""
""fullscreenenter"",""0"",""1805""
","
","
","""event"",""trial"",""time""
""fullscreenenter"",""0"",""1805""
","
","null","<p></p>","null","","","","","","","",""
"","image","308","523571","0.0-249.0-0.0","""event"",""trial"",""time""
""fullscreenenter"",""0"",""1805""
","
","
","""event"",""trial"",""time""
""fullscreenenter"",""0"",""1805""
","
","2055.10000000149","run_exp/static/images/Set 6_rs/024a.jpg","86","","","","","","test","TR","5"
"","show_choice","309","524075","0.0-249.0-1.0","""event"",""trial"",""time""
""fullscreenenter"",""0"",""1805""
","
","
","""event"",""trial"",""time""
""fullscreenenter"",""0"",""1805""
","
","null","run_exp/static/images/Set 6_rs/024a.jpg","null","","","","","","test","TR",""
"","html-keyboard-response","310","524577","0.0-249.0-2.0","""event"",""trial"",""time""
""fullscreenenter"",""0"",""1805""
","
","
","""event"",""trial"",""time""
""fullscreenenter"",""0"",""1805""
","
","null","<p></p>","null","","","","","","","",""
"","image","311","525621","0.0-250.0-0.0","""event"",""trial"",""time""
""fullscreenenter"",""0"",""1805""
","
","
","""event"",""trial"",""time""
""fullscreenenter"",""0"",""1805""
","
","1042","run_exp/static/images/Set 6_rs/116b.jpg","86","","","","","","test","TL","2"
"","show_choice","312","526123","0.0-250.0-1.0","""event"",""trial"",""time""
""fullscreenenter"",""0"",""1805""
","
","
","""event"",""trial"",""time""
""fullscreenenter"",""0"",""1805""
","
","null","run_exp/static/images/Set 6_rs/116b.jpg","null","","","","","","test","TL",""
"","html-keyboard-response","313","526626","0.0-250.0-2.0","""event"",""trial"",""time""
""fullscreenenter"",""0"",""1805""
","
","
","""event"",""trial"",""time""
""fullscreenenter"",""0"",""1805""
","
","null","<p></p>","null","","","","","","","",""
"","image","314","528746","0.0-251.0-0.0","""event"",""trial"",""time""
""fullscreenenter"",""0"",""1805""
","
","
","""event"",""trial"",""time""
""fullscreenenter"",""0"",""1805""
","
","2117.800000000745","run_exp/static/images/Set 6_rs/149a.jpg","78","","","","","","test","TF","1"
"","show_choice","315","529248","0.0-251.0-1.0","""event"",""trial"",""time""
""fullscreenenter"",""0"",""1805""
","
","
","""event"",""trial"",""time""
""fullscreenenter"",""0"",""1805""
","
","null","run_exp/static/images/Set 6_rs/149a.jpg","null","","","","","","test","TF",""
"","html-keyboard-response","316","529750","0.0-251.0-2.0","""event"",""trial"",""time""
""fullscreenenter"",""0"",""1805""
","
","
","""event"",""trial"",""time""
""fullscreenenter"",""0"",""1805""
","
","null","<p></p>","null","","","","","","","",""
"","image","317","531354","0.0-252.0-0.0","""event"",""trial"",""time""
""fullscreenenter"",""0"",""1805""
","
","
","""event"",""trial"",""time""
""fullscreenenter"",""0"",""1805""
","
","1602.199999999255","run_exp/static/images/Set 6_rs/168b.jpg","66","","","","","","test","TL","3"
"","show_choice","318","531857","0.0-252.0-1.0","""event"",""trial"",""time""
""fullscreenenter"",""0"",""1805""
","
","
","""event"",""trial"",""time""
""fullscreenenter"",""0"",""1805""
","
","null","run_exp/static/images/Set 6_rs/168b.jpg","null","","","","","","test","TL",""
"","html-keyboard-response","319","532359","0.0-252.0-2.0","""event"",""trial"",""time""
""fullscreenenter"",""0"",""1805""
","
","
","""event"",""trial"",""time""
""fullscreenenter"",""0"",""1805""
","
","null","<p></p>","null","","","","","","","",""
"","image","320","533536","0.0-253.0-0.0","""event"",""trial"",""time""
""fullscreenenter"",""0"",""1805""
","
","
","""event"",""trial"",""time""
""fullscreenenter"",""0"",""1805""
","
","1174.699999999255","run_exp/static/images/Set 6_rs/117b.jpg","66","","","","","","test","TL","5"
"","show_choice","321","534039","0.0-253.0-1.0","""event"",""trial"",""time""
""fullscreenenter"",""0"",""1805""
","
","
","""event"",""trial"",""time""
""fullscreenenter"",""0"",""1805""
","
","null","run_exp/static/images/Set 6_rs/117b.jpg","null","","","","","","test","TL",""
"","html-keyboard-response","322","534540","0.0-253.0-2.0","""event"",""trial"",""time""
""fullscreenenter"",""0"",""1805""
","
","
","""event"",""trial"",""time""
""fullscreenenter"",""0"",""1805""
","
","null","<p></p>","null","","","","","","","",""
"","image","323","535730","0.0-254.0-0.0","""event"",""trial"",""time""
""fullscreenenter"",""0"",""1805""
","
","
","""event"",""trial"",""time""
""fullscreenenter"",""0"",""1805""
","
","1188.1000000014901","run_exp/static/images/Set 6_rs/136a.jpg","78","","","","","","test","TF","4"
"","show_choice","324","536233","0.0-254.0-1.0","""event"",""trial"",""time""
""fullscreenenter"",""0"",""1805""
","
","
","""event"",""trial"",""time""
""fullscreenenter"",""0"",""1805""
","
","null","run_exp/static/images/Set 6_rs/136a.jpg","null","","","","","","test","TF",""
"","html-keyboard-response","325","536735","0.0-254.0-2.0","""event"",""trial"",""time""
""fullscreenenter"",""0"",""1805""
","
","
","""event"",""trial"",""time""
""fullscreenenter"",""0"",""1805""
","
","null","<p></p>","null","","","","","","","",""
"","image","326","538112","0.0-255.0-0.0","""event"",""trial"",""time""
""fullscreenenter"",""0"",""1805""
","
","
","""event"",""trial"",""time""
""fullscreenenter"",""0"",""1805""
","
","1373.800000000745","run_exp/static/images/Set 6_rs/132a.jpg","86","","","","","","test","TR","5"
"","show_choice","327","538615","0.0-255.0-1.0","""event"",""trial"",""time""
""fullscreenenter"",""0"",""1805""
","
","
","""event"",""trial"",""time""
""fullscreenenter"",""0"",""1805""
","
","null","run_exp/static/images/Set 6_rs/132a.jpg","null","","","","","","test","TR",""
"","html-keyboard-response","328","539116","0.0-255.0-2.0","""event"",""trial"",""time""
""fullscreenenter"",""0"",""1805""
","
","
","""event"",""trial"",""time""
""fullscreenenter"",""0"",""1805""
","
","null","<p></p>","null","","","","","","","",""
"","image","329","540492","0.0-256.0-0.0","""event"",""trial"",""time""
""fullscreenenter"",""0"",""1805""
","
","
","""event"",""trial"",""time""
""fullscreenenter"",""0"",""1805""
","
","1372.800000000745","run_exp/static/images/Set 6_rs/167b.jpg","66","","","","","","test","TL","2"
"","show_choice","330","540994","0.0-256.0-1.0","""event"",""trial"",""time""
""fullscreenenter"",""0"",""1805""
","
","
","""event"",""trial"",""time""
""fullscreenenter"",""0"",""1805""
","
","null","run_exp/static/images/Set 6_rs/167b.jpg","null","","","","","","test","TL",""
"","html-keyboard-response","331","541496","0.0-256.0-2.0","""event"",""trial"",""time""
""fullscreenenter"",""0"",""1805""
","
","
","""event"",""trial"",""time""
""fullscreenenter"",""0"",""1805""
","
","null","<p></p>","null","","","","","","","",""
"","image","332","542751","0.0-257.0-0.0","""event"",""trial"",""time""
""fullscreenenter"",""0"",""1805""
","
","
","""event"",""trial"",""time""
""fullscreenenter"",""0"",""1805""
","
","1252.7000000029802","run_exp/static/images/Set 6_rs/090a.jpg","78","","","","","","test","TF","5"
"","show_choice","333","543253","0.0-257.0-1.0","""event"",""trial"",""time""
""fullscreenenter"",""0"",""1805""
","
","
","""event"",""trial"",""time""
""fullscreenenter"",""0"",""1805""
","
","null","run_exp/static/images/Set 6_rs/090a.jpg","null","","","","","","test","TF",""
"","html-keyboard-response","334","543755","0.0-257.0-2.0","""event"",""trial"",""time""
""fullscreenenter"",""0"",""1805""
","
","
","""event"",""trial"",""time""
""fullscreenenter"",""0"",""1805""
","
","null","<p></p>","null","","","","","","","",""
"","image","335","545287","0.0-258.0-0.0","""event"",""trial"",""time""
""fullscreenenter"",""0"",""1805""
","
","
","""event"",""trial"",""time""
""fullscreenenter"",""0"",""1805""
","
","1530","run_exp/static/images/Set 6_rs/105a.jpg","78","","","","","","test","TF","5"
"","show_choice","336","545789","0.0-258.0-1.0","""event"",""trial"",""time""
""fullscreenenter"",""0"",""1805""
","
","
","""event"",""trial"",""time""
""fullscreenenter"",""0"",""1805""
","
","null","run_exp/static/images/Set 6_rs/105a.jpg","null","","","","","","test","TF",""
"","html-keyboard-response","337","546291","0.0-258.0-2.0","""event"",""trial"",""time""
""fullscreenenter"",""0"",""1805""
","
","
","""event"",""trial"",""time""
""fullscreenenter"",""0"",""1805""
","
