"success","trial_type","trial_index","time_elapsed","internal_node_id","interactions","blur_events","focus_events","fullscreenenter_events","fullscreenexit_events","rt","stimulus","key_press","subject_id","participant_id","age","gender","prompt","phase","condition","lure_bin"
"true","fullscreen","0","3360","0.0-0.0","""event"",""trial"",""time""
""fullscreenenter"",""0"",""2399""
","
","
","""event"",""trial"",""time""
""fullscreenenter"",""0"",""2399""
","
","","","","","","","","","","",""
"","pavlovia","1","3367","0.0-1.0","""event"",""trial"",""time""
""fullscreenenter"",""0"",""2399""
","
","
","""event"",""trial"",""time""
""fullscreenenter"",""0"",""2399""
","
","","","","","","","","","","",""
"","welcome","2","38199","0.0-2.0","""event"",""trial"",""time""
""fullscreenenter"",""0"",""2399""
","
","
","""event"",""trial"",""time""
""fullscreenenter"",""0"",""2399""
","
","null","run_exp/static/audio/clip_1_welcome.m4a","null","494","877","25","Male","<div class='center'><p>Welcome to the third part of the study! First, you'll be shown pictures of items one at a time. For each picture, you have to decide if the item is typically found indoors or outdoors.</p><p>If you think it's usually found indoors, then press <b>v</b> key on your keyboard. If you think it's usually found outdoors, then press the <b>n</b> key.There will be reminders on the screen to help you remember which keys to press. </p><p>If you're not sure whether the item is an indoor item or an outdoor item, go ahead and take a guess but try your best not to skip that choice. </p></div>","","",""
"","html-keyboard-response","3","39192","0.0-3.0","""event"",""trial"",""time""
""fullscreenenter"",""0"",""2399""
","
","
","""event"",""trial"",""time""
""fullscreenenter"",""0"",""2399""
","
","990","<div class='center'><p>Welcome to the third part of the study! First, you'll be shown pictures of items one at a time. For each picture, you have to decide if the item is typically found indoors or outdoors.</p><p>If you think it's usually found indoors, then press <b>v</b> key on your keyboard. If you think it's usually found outdoors, then press the <b>n</b> key.There will be reminders on the screen to help you remember which keys to press. </p><p>If you're not sure whether the item is an indoor item or an outdoor item, go ahead and take a guess but try your best not to skip that choice. </p><div><p><b>[Press the space bar to continue]</b></p></div>","32","","","","","","","",""
"","image","4","40277","0.0-4.0","""event"",""trial"",""time""
""fullscreenenter"",""0"",""2399""
","
","
","""event"",""trial"",""time""
""fullscreenenter"",""0"",""2399""
","
","1082","run_exp/static/images/Set 6_rs/006a.jpg","86","","","","","","learn","SL",""
"","show_choice","5","41199","0.0-5.0","""event"",""trial"",""time""
""fullscreenenter"",""0"",""2399""
","
","
","""event"",""trial"",""time""
""fullscreenenter"",""0"",""2399""
","
","null","run_exp/static/images/Set 6_rs/006a.jpg","null","","","","","","learn","SL",""
"","html-keyboard-response","6","41705","0.0-6.0","""event"",""trial"",""time""
""fullscreenenter"",""0"",""2399""
","
","
","""event"",""trial"",""time""
""fullscreenenter"",""0"",""2399""
","
","null","<p></p>","null","","","","","","","",""
"","image","7","42958","0.0-7.0","""event"",""trial"",""time""
""fullscreenenter"",""0"",""2399""
","
","
","""event"",""trial"",""time""
""fullscreenenter"",""0"",""2399""
","
","1250.7000000029802","run_exp/static/images/Set 6_rs/116a.jpg","86","","","","","","learn","SL",""
"","show_choice","8","43712","0.0-8.0","""event"",""trial"",""time""
""fullscreenenter"",""0"",""2399""
","
","
","""event"",""trial"",""time""
""fullscreenenter"",""0"",""2399""
","
","null","run_exp/static/images/Set 6_rs/116a.jpg","null","","","","","","learn","SL",""
"","html-keyboard-response","9","44216","0.0-9.0","""event"",""trial"",""time""
""fullscreenenter"",""0"",""2399""
","
","
","""event"",""trial"",""time""
""fullscreenenter"",""0"",""2399""
","
","null","<p></p>","null","","","","","","","",""
"","image","10","45756","0.0-10.0","""event"",""trial"",""time""
""fullscreenenter"",""0"",""2399""
","
","
","""event"",""trial"",""time""
""fullscreenenter"",""0"",""2399""
","
","1537.1000000014901","run_exp/static/images/Set 6_rs/191a.jpg","78","","","","","","learn","SL",""
"","show_choice","11","46224","0.0-11.0","""event"",""trial"",""time""
""fullscreenenter"",""0"",""2399""
","
","
","""event"",""trial"",""time""
""fullscreenenter"",""0"",""2399""
","
","null","run_exp/static/images/Set 6_rs/191a.jpg","null","","","","","","learn","SL",""
"","html-keyboard-response","12","46731","0.0-12.0","""event"",""trial"",""time""
""fullscreenenter"",""0"",""2399""
","
","
","""event"",""trial"",""time""
""fullscreenenter"",""0"",""2399""
","
","null","<p></p>","null","","","","","","","",""
"","image","13","47481","0.0-13.0","""event"",""trial"",""time""
""fullscreenenter"",""0"",""2399""
","
","
","""event"",""trial"",""time""
""fullscreenenter"",""0"",""2399""
","
","746.9000000059605","run_exp/static/images/Set 6_rs/014a.jpg","86","","","","","","learn","SL",""
"","show_choice","14","48739","0.0-14.0","""event"",""trial"",""time""
""fullscreenenter"",""0"",""2399""
","
","
","""event"",""trial"",""time""
""fullscreenenter"",""0"",""2399""
","
","null","run_exp/static/images/Set 6_rs/014a.jpg","null","","","","","","learn","SL",""
"","html-keyboard-response","15","49245","0.0-15.0","""event"",""trial"",""time""
""fullscreenenter"",""0"",""2399""
","
","
","""event"",""trial"",""time""
""fullscreenenter"",""0"",""2399""
","
","null","<p></p>","null","","","","","","","",""
"","image","16","49965","0.0-16.0","""event"",""trial"",""time""
""fullscreenenter"",""0"",""2399""
","
","
","""event"",""trial"",""time""
""fullscreenenter"",""0"",""2399""
","
","718.4000000059605","run_exp/static/images/Set 6_rs/050a.jpg","86","","","","","","learn","SL",""
"","show_choice","17","51250","0.0-17.0","""event"",""trial"",""time""
""fullscreenenter"",""0"",""2399""
","
","
","""event"",""trial"",""time""
""fullscreenenter"",""0"",""2399""
","
","null","run_exp/static/images/Set 6_rs/050a.jpg","null","","","","","","learn","SL",""
"","html-keyboard-response","18","51755","0.0-18.0","""event"",""trial"",""time""
""fullscreenenter"",""0"",""2399""
","
","
","""event"",""trial"",""time""
""fullscreenenter"",""0"",""2399""
","
","null","<p></p>","null","","","","","","","",""
"","image","19","53018","0.0-19.0","""event"",""trial"",""time""
""fullscreenenter"",""0"",""2399""
","
","
","""event"",""trial"",""time""
""fullscreenenter"",""0"",""2399""
","
","1259.8999999985099","run_exp/static/images/Set 6_rs/131a.jpg","86","","","","","","learn","SR",""
"","show_choice","20","53760","0.0-20.0","""event"",""trial"",""time""
""fullscreenenter"",""0"",""2399""
","
","
","""event"",""trial"",""time""
""fullscreenenter"",""0"",""2399""
","
","null","run_exp/static/images/Set 6_rs/131a.jpg","null","","","","","","learn","SR",""
"","html-keyboard-response","21","54264","0.0-21.0","""event"",""trial"",""time""
""fullscreenenter"",""0"",""2399""
","
","
","""event"",""trial"",""time""
""fullscreenenter"",""0"",""2399""
","
","null","<p></p>","null","","","","","","","",""
"","image","22","55493","0.0-22.0","""event"",""trial"",""time""
""fullscreenenter"",""0"",""2399""
","
","
","""event"",""trial"",""time""
""fullscreenenter"",""0"",""2399""
","
","1226.0999999940395","run_exp/static/images/Set 6_rs/025a.jpg","78","","","","","","learn","SL",""
"","show_choice","23","56268","0.0-23.0","""event"",""trial"",""time""
""fullscreenenter"",""0"",""2399""
","
","
","""event"",""trial"",""time""
""fullscreenenter"",""0"",""2399""
","
","null","run_exp/static/images/Set 6_rs/025a.jpg","null","","","","","","learn","SL",""
"","html-keyboard-response","24","56774","0.0-24.0","""event"",""trial"",""time""
""fullscreenenter"",""0"",""2399""
","
","
","""event"",""trial"",""time""
""fullscreenenter"",""0"",""2399""
","
","null","<p></p>","null","","","","","","","",""
"","image","25","58221","0.0-25.0","""event"",""trial"",""time""
""fullscreenenter"",""0"",""2399""
","
","
","""event"",""trial"",""time""
""fullscreenenter"",""0"",""2399""
","
","1444.9000000059605","run_exp/static/images/Set 6_rs/108a.jpg","78","","","","","","learn","SR",""
"","show_choice","26","58779","0.0-26.0","""event"",""trial"",""time""
""fullscreenenter"",""0"",""2399""
","
","
","""event"",""trial"",""time""
""fullscreenenter"",""0"",""2399""
","
","null","run_exp/static/images/Set 6_rs/108a.jpg","null","","","","","","learn","SR",""
"","html-keyboard-response","27","59282","0.0-27.0","""event"",""trial"",""time""
""fullscreenenter"",""0"",""2399""
","
","
","""event"",""trial"",""time""
""fullscreenenter"",""0"",""2399""
","
","null","<p></p>","null","","","","","","","",""
"","image","28","60218","0.0-28.0","""event"",""trial"",""time""
""fullscreenenter"",""0"",""2399""
","
","
","""event"",""trial"",""time""
""fullscreenenter"",""0"",""2399""
","
","933.6000000014901","run_exp/static/images/Set 6_rs/023a.jpg","86","","","","","","learn","SR",""
"","show_choice","29","61288","0.0-29.0","""event"",""trial"",""time""
""fullscreenenter"",""0"",""2399""
","
","
","""event"",""trial"",""time""
""fullscreenenter"",""0"",""2399""
","
","null","run_exp/static/images/Set 6_rs/023a.jpg","null","","","","","","learn","SR",""
"","html-keyboard-response","30","61790","0.0-30.0","""event"",""trial"",""time""
""fullscreenenter"",""0"",""2399""
","
","
","""event"",""trial"",""time""
""fullscreenenter"",""0"",""2399""
","
","null","<p></p>","null","","","","","","","",""
"","image","31","62751","0.0-31.0","""event"",""trial"",""time""
""fullscreenenter"",""0"",""2399""
","
","
","""event"",""trial"",""time""
""fullscreenenter"",""0"",""2399""
","
","958.6000000014901","run_exp/static/images/Set 6_rs/177a.jpg","78","","","","","","learn","SR",""
"","show_choice","32","63795","0.0-32.0","""event"",""trial"",""time""
""fullscreenenter"",""0"",""2399""
","
","
","""event"",""trial"",""time""
""fullscreenenter"",""0"",""2399""
","
","null","run_exp/static/images/Set 6_rs/177a.jpg","null","","","","","","learn","SR",""
"","html-keyboard-response","33","64298","0.0-33.0","""event"",""trial"",""time""
""fullscreenenter"",""0"",""2399""
","
","
","""event"",""trial"",""time""
""fullscreenenter"",""0"",""2399""
","
","null","<p></p>","null","","","","","","","",""
"","image","34","65160","0.0-34.0","""event"",""trial"",""time""
""fullscreenenter"",""0"",""2399""
","
","
","""event"",""trial"",""time""
""fullscreenenter"",""0"",""2399""
","
","859.8999999985099","run_exp/static/images/Set 6_rs/154a.jpg","86","","","","","","learn","SR",""
"","show_choice","35","66304","0.0-35.0","""event"",""trial"",""time""
""fullscreenenter"",""0"",""2399""
","
","
","""event"",""trial"",""time""
""fullscreenenter"",""0"",""2399""
","
","null","run_exp/static/images/Set 6_rs/154a.jpg","null","","","","","","learn","SR",""
"","html-keyboard-response","36","66809","0.0-36.0","""event"",""trial"",""time""
""fullscreenenter"",""0"",""2399""
","
","
","""event"",""trial"",""time""
""fullscreenenter"",""0"",""2399""
","
","null","<p></p>","null","","","","","","","",""
"","image","37","67535","0.0-37.0","""event"",""trial"",""time""
""fullscreenenter"",""0"",""2399""
","
","
","""event"",""trial"",""time""
""fullscreenenter"",""0"",""2399""
","
","723.6000000014901","run_exp/static/images/Set 6_rs/057a.jpg","86","","","","","","learn","SL",""
"","show_choice","38","68816","0.0-38.0","""event"",""trial"",""time""
""fullscreenenter"",""0"",""2399""
","
","
","""event"",""trial"",""time""
""fullscreenenter"",""0"",""2399""
","
","null","run_exp/static/images/Set 6_rs/057a.jpg","null","","","","","","learn","SL",""
"","html-keyboard-response","39","69322","0.0-39.0","""event"",""trial"",""time""
""fullscreenenter"",""0"",""2399""
","
","
","""event"",""trial"",""time""
""fullscreenenter"",""0"",""2399""
","
","null","<p></p>","null","","","","","","","",""
"","image","40","69985","0.0-40.0","""event"",""trial"",""time""
""fullscreenenter"",""0"",""2399""
","
","
","""event"",""trial"",""time""
""fullscreenenter"",""0"",""2399""
","
","660","run_exp/static/images/Set 6_rs/007a.jpg","86","","","","","","learn","SR",""
"","show_choice","41","71330","0.0-41.0","""event"",""trial"",""time""
""fullscreenenter"",""0"",""2399""
","
","
","""event"",""trial"",""time""
""fullscreenenter"",""0"",""2399""
","
","null","run_exp/static/images/Set 6_rs/007a.jpg","null","","","","","","learn","SR",""
"","html-keyboard-response","42","71837","0.0-42.0","""event"",""trial"",""time""
""fullscreenenter"",""0"",""2399""
","
","
","""event"",""trial"",""time""
""fullscreenenter"",""0"",""2399""
","
","null","<p></p>","null","","","","","","","",""
"","image","43","72720","0.0-43.0","""event"",""trial"",""time""
""fullscreenenter"",""0"",""2399""
","
","
","""event"",""trial"",""time""
""fullscreenenter"",""0"",""2399""
","
","881.1000000014901","run_exp/static/images/Set 6_rs/076a.jpg","78","","","","","","learn","SR",""
"","show_choice","44","73843","0.0-44.0","""event"",""trial"",""time""
""fullscreenenter"",""0"",""2399""
","
","
","""event"",""trial"",""time""
""fullscreenenter"",""0"",""2399""
","
","null","run_exp/static/images/Set 6_rs/076a.jpg","null","","","","","","learn","SR",""
"","html-keyboard-response","45","74348","0.0-45.0","""event"",""trial"",""time""
""fullscreenenter"",""0"",""2399""
","
","
","""event"",""trial"",""time""
""fullscreenenter"",""0"",""2399""
","
","null","<p></p>","null","","","","","","","",""
"","image","46","75505","0.0-46.0","""event"",""trial"",""time""
""fullscreenenter"",""0"",""2399""
","
","
","""event"",""trial"",""time""
""fullscreenenter"",""0"",""2399""
","
","1154.2999999970198","run_exp/static/images/Set 6_rs/122a.jpg","86","","","","","","learn","SR",""
"","show_choice","47","76355","0.0-47.0","""event"",""trial"",""time""
""fullscreenenter"",""0"",""2399""
","
","
","""event"",""trial"",""time""
""fullscreenenter"",""0"",""2399""
","
","null","run_exp/static/images/Set 6_rs/122a.jpg","null","","","","","","learn","SR",""
"","html-keyboard-response","48","76858","0.0-48.0","""event"",""trial"",""time""
""fullscreenenter"",""0"",""2399""
","
","
","""event"",""trial"",""time""
""fullscreenenter"",""0"",""2399""
","
","null","<p></p>","null","","","","","","","",""
"","image","49","77711","0.0-49.0","""event"",""trial"",""time""
""fullscreenenter"",""0"",""2399""
","
","
","""event"",""trial"",""time""
""fullscreenenter"",""0"",""2399""
","
","851.1999999955297","run_exp/static/images/Set 6_rs/166a.jpg","86","","","","","","learn","SR",""
"","show_choice","50","78863","0.0-50.0","""event"",""trial"",""time""
""fullscreenenter"",""0"",""2399""
","
","
","""event"",""trial"",""time""
""fullscreenenter"",""0"",""2399""
","
","null","run_exp/static/images/Set 6_rs/166a.jpg","null","","","","","","learn","SR",""
"","html-keyboard-response","51","79366","0.0-51.0","""event"",""trial"",""time""
""fullscreenenter"",""0"",""2399""
","
","
","""event"",""trial"",""time""
""fullscreenenter"",""0"",""2399""
","
","null","<p></p>","null","","","","","","","",""
"","image","52","80294","0.0-52.0","""event"",""trial"",""time""
""fullscreenenter"",""0"",""2399""
","
","
","""event"",""trial"",""time""
""fullscreenenter"",""0"",""2399""
","
","924.8999999985099","run_exp/static/images/Set 6_rs/012a.jpg","86","","","","","","learn","SR",""
"","show_choice","53","81373","0.0-53.0","""event"",""trial"",""time""
""fullscreenenter"",""0"",""2399""
","
","
","""event"",""trial"",""time""
""fullscreenenter"",""0"",""2399""
","
","null","run_exp/static/images/Set 6_rs/012a.jpg","null","","","","","","learn","SR",""
"","html-keyboard-response","54","81878","0.0-54.0","""event"",""trial"",""time""
""fullscreenenter"",""0"",""2399""
","
","
","""event"",""trial"",""time""
""fullscreenenter"",""0"",""2399""
","
","null","<p></p>","null","","","","","","","",""
"","image","55","83045","0.0-55.0","""event"",""trial"",""time""
""fullscreenenter"",""0"",""2399""
","
","
","""event"",""trial"",""time""
""fullscreenenter"",""0"",""2399""
","
","1165.2000000029802","run_exp/static/images/Set 6_rs/091a.jpg","78","","","","","","learn","SL",""
"","show_choice","56","83885","0.0-56.0","""event"",""trial"",""time""
""fullscreenenter"",""0"",""2399""
","
","
","""event"",""trial"",""time""
""fullscreenenter"",""0"",""2399""
","
","null","run_exp/static/images/Set 6_rs/091a.jpg","null","","","","","","learn","SL",""
"","html-keyboard-response","57","84390","0.0-57.0","""event"",""trial"",""time""
""fullscreenenter"",""0"",""2399""
","
","
","""event"",""trial"",""time""
""fullscreenenter"",""0"",""2399""
","
","null","<p></p>","null","","","","","","","",""
"","image","58","85767","0.0-58.0","""event"",""trial"",""time""
""fullscreenenter"",""0"",""2399""
","
","
","""event"",""trial"",""time""
""fullscreenenter"",""0"",""2399""
","
","1373.8999999985099","run_exp/static/images/Set 6_rs/017a.jpg","86","","","","","","learn","SL",""
"","show_choice","59","86398","0.0-59.0","""event"",""trial"",""time""
""fullscreenenter"",""0"",""2399""
","
","
","""event"",""trial"",""time""
""fullscreenenter"",""0"",""2399""
","
","null","run_exp/static/images/Set 6_rs/017a.jpg","null","","","","","","learn","SL",""
"","html-keyboard-response","60","86902","0.0-60.0","""event"",""trial"",""time""
""fullscreenenter"",""0"",""2399""
","
","
","""event"",""trial"",""time""
""fullscreenenter"",""0"",""2399""
","
","null","<p></p>","null","","","","","","","",""
"","image","61","87641","0.0-61.0","""event"",""trial"",""time""
""fullscreenenter"",""0"",""2399""
","
","
","""event"",""trial"",""time""
""fullscreenenter"",""0"",""2399""
","
","736.7999999970198","run_exp/static/images/Set 6_rs/079a.jpg","86","","","","","","learn","SL",""
"","show_choice","62","88906","0.0-62.0","""event"",""trial"",""time""
""fullscreenenter"",""0"",""2399""
","
","
","""event"",""trial"",""time""
""fullscreenenter"",""0"",""2399""
","
","null","run_exp/static/images/Set 6_rs/079a.jpg","null","","","","","","learn","SL",""
"","html-keyboard-response","63","89409","0.0-63.0","""event"",""trial"",""time""
""fullscreenenter"",""0"",""2399""
","
","
","""event"",""trial"",""time""
""fullscreenenter"",""0"",""2399""
","
","null","<p></p>","null","","","","","","","",""
"","image","64","90239","0.0-64.0","""event"",""trial"",""time""
""fullscreenenter"",""0"",""2399""
","
","
","""event"",""trial"",""time""
""fullscreenenter"",""0"",""2399""
","
","827.9000000059605","run_exp/static/images/Set 6_rs/129a.jpg","86","","","","","","learn","SL",""
"","show_choice","65","91413","0.0-65.0","""event"",""trial"",""time""
""fullscreenenter"",""0"",""2399""
","
","
","""event"",""trial"",""time""
""fullscreenenter"",""0"",""2399""
","
","null","run_exp/static/images/Set 6_rs/129a.jpg","null","","","","","","learn","SL",""
"","html-keyboard-response","66","91915","0.0-66.0","""event"",""trial"",""time""
""fullscreenenter"",""0"",""2399""
","
","
","""event"",""trial"",""time""
""fullscreenenter"",""0"",""2399""
","
","null","<p></p>","null","","","","","","","",""
"","image","67","93198","0.0-67.0","""event"",""trial"",""time""
""fullscreenenter"",""0"",""2399""
","
","
","""event"",""trial"",""time""
""fullscreenenter"",""0"",""2399""
","
","1280.5","run_exp/static/images/Set 6_rs/019a.jpg","86","","","","","","learn","SL",""
"","show_choice","68","93921","0.0-68.0","""event"",""trial"",""time""
""fullscreenenter"",""0"",""2399""
","
","
","""event"",""trial"",""time""
""fullscreenenter"",""0"",""2399""
","
","null","run_exp/static/images/Set 6_rs/019a.jpg","null","","","","","","learn","SL",""
"","html-keyboard-response","69","94427","0.0-69.0","""event"",""trial"",""time""
""fullscreenenter"",""0"",""2399""
","
","
","""event"",""trial"",""time""
""fullscreenenter"",""0"",""2399""
","
","null","<p></p>","null","","","","","","","",""
"","image","70","95142","0.0-70.0","""event"",""trial"",""time""
""fullscreenenter"",""0"",""2399""
","
","
","""event"",""trial"",""time""
""fullscreenenter"",""0"",""2399""
","
","712.7999999970198","run_exp/static/images/Set 6_rs/085a.jpg","86","","","","","","learn","SL",""
"","show_choice","71","96434","0.0-71.0","""event"",""trial"",""time""
""fullscreenenter"",""0"",""2399""
","
","
","""event"",""trial"",""time""
""fullscreenenter"",""0"",""2399""
","
","null","run_exp/static/images/Set 6_rs/085a.jpg","null","","","","","","learn","SL",""
"","html-keyboard-response","72","96936","0.0-72.0","""event"",""trial"",""time""
""fullscreenenter"",""0"",""2399""
","
","
","""event"",""trial"",""time""
""fullscreenenter"",""0"",""2399""
","
","null","<p></p>","null","","","","","","","",""
"","image","73","97465","0.0-73.0","""event"",""trial"",""time""
""fullscreenenter"",""0"",""2399""
","
","
","""event"",""trial"",""time""
""fullscreenenter"",""0"",""2399""
","
","527.1999999955297","run_exp/static/images/Set 6_rs/089a.jpg","86","","","","","","learn","SL",""
"","show_choice","74","98941","0.0-74.0","""event"",""trial"",""time""
""fullscreenenter"",""0"",""2399""
","
","
","""event"",""trial"",""time""
""fullscreenenter"",""0"",""2399""
","
","null","run_exp/static/images/Set 6_rs/089a.jpg","null","","","","","","learn","SL",""
"","html-keyboard-response","75","99447","0.0-75.0","""event"",""trial"",""time""
""fullscreenenter"",""0"",""2399""
","
","
","""event"",""trial"",""time""
""fullscreenenter"",""0"",""2399""
","
","null","<p></p>","null","","","","","","","",""
"","image","76","100323","0.0-76.0","""event"",""trial"",""time""
""fullscreenenter"",""0"",""2399""
","
","
","""event"",""trial"",""time""
""fullscreenenter"",""0"",""2399""
","
","873.7000000029802","run_exp/static/images/Set 6_rs/150a.jpg","86","","","","","","learn","SR",""
"","show_choice","77","101454","0.0-77.0","""event"",""trial"",""time""
""fullscreenenter"",""0"",""2399""
","
","
","""event"",""trial"",""time""
""fullscreenenter"",""0"",""2399""
","
","null","run_exp/static/images/Set 6_rs/150a.jpg","null","","","","","","learn","SR",""
"","html-keyboard-response","78","101959","0.0-78.0","""event"",""trial"",""time""
""fullscreenenter"",""0"",""2399""
","
","
","""event"",""trial"",""time""
""fullscreenenter"",""0"",""2399""
","
","null","<p></p>","null","","","","","","","",""
"","image","79","103616","0.0-79.0","""event"",""trial"",""time""
""fullscreenenter"",""0"",""2399""
","
","
","""event"",""trial"",""time""
""fullscreenenter"",""0"",""2399""
","
","1654.3999999985099","run_exp/static/images/Set 6_rs/036a.jpg","86","","","","","","learn","SL",""
"","show_choice","80","103966","0.0-80.0","""event"",""trial"",""time""
""fullscreenenter"",""0"",""2399""
","
","
","""event"",""trial"",""time""
""fullscreenenter"",""0"",""2399""
","
","null","run_exp/static/images/Set 6_rs/036a.jpg","null","","","","","","learn","SL",""
"","html-keyboard-response","81","104472","0.0-81.0","""event"",""trial"",""time""
""fullscreenenter"",""0"",""2399""
","
","
","""event"",""trial"",""time""
""fullscreenenter"",""0"",""2399""
","
","null","<p></p>","null","","","","","","","",""
"","image","82","106216","0.0-82.0","""event"",""trial"",""time""
""fullscreenenter"",""0"",""2399""
","
","
","""event"",""trial"",""time""
""fullscreenenter"",""0"",""2399""
","
","1742","run_exp/static/images/Set 6_rs/178a.jpg","78","","","","","","learn","SR",""
"","show_choice","83","106477","0.0-83.0","""event"",""trial"",""time""
""fullscreenenter"",""0"",""2399""
","
","
","""event"",""trial"",""time""
""fullscreenenter"",""0"",""2399""
","
","null","run_exp/static/images/Set 6_rs/178a.jpg","null","","","","","","learn","SR",""
"","html-keyboard-response","84","106983","0.0-84.0","""event"",""trial"",""time""
""fullscreenenter"",""0"",""2399""
","
","
","""event"",""trial"",""time""
""fullscreenenter"",""0"",""2399""
","
","null","<p></p>","null","","","","","","","",""
"","image","85","108919","0.0-85.0","""event"",""trial"",""time""
""fullscreenenter"",""0"",""2399""
","
","
","""event"",""trial"",""time""
""fullscreenenter"",""0"",""2399""
","
","1932.7000000029802","run_exp/static/images/Set 6_rs/010a.jpg","86","","","","","","learn","SR",""
"","show_choice","86","108991","0.0-86.0","""event"",""trial"",""time""
""fullscreenenter"",""0"",""2399""
","
","
","""event"",""trial"",""time""
""fullscreenenter"",""0"",""2399""
","
","null","run_exp/static/images/Set 6_rs/010a.jpg","null","","","","","","learn","SR",""
"","html-keyboard-response","87","109497","0.0-87.0","""event"",""trial"",""time""
""fullscreenenter"",""0"",""2399""
","
","
","""event"",""trial"",""time""
""fullscreenenter"",""0"",""2399""
","
","null","<p></p>","null","","","","","","","",""
"","image","88","110795","0.0-88.0","""event"",""trial"",""time""
""fullscreenenter"",""0"",""2399""
","
","
","""event"",""trial"",""time""
""fullscreenenter"",""0"",""2399""
","
","1295.5","run_exp/static/images/Set 6_rs/126a.jpg","78","","","","","","learn","SR",""
"","show_choice","89","111501","0.0-89.0","""event"",""trial"",""time""
""fullscreenenter"",""0"",""2399""
","
","
","""event"",""trial"",""time""
""fullscreenenter"",""0"",""2399""
","
","null","run_exp/static/images/Set 6_rs/126a.jpg","null","","","","","","learn","SR",""
"","html-keyboard-response","90","112004","0.0-90.0","""event"",""trial"",""time""
""fullscreenenter"",""0"",""2399""
","
","
","""event"",""trial"",""time""
""fullscreenenter"",""0"",""2399""
","
","null","<p></p>","null","","","","","","","",""
"","image","91","113233","0.0-91.0","""event"",""trial"",""time""
""fullscreenenter"",""0"",""2399""
","
","
","""event"",""trial"",""time""
""fullscreenenter"",""0"",""2399""
","
","1226.3999999985099","run_exp/static/images/Set 6_rs/074a.jpg","78","","","","","","learn","SL",""
"","show_choice","92","114008","0.0-92.0","""event"",""trial"",""time""
""fullscreenenter"",""0"",""2399""
","
","
","""event"",""trial"",""time""
""fullscreenenter"",""0"",""2399""
","
","null","run_exp/static/images/Set 6_rs/074a.jpg","null","","","","","","learn","SL",""
"","html-keyboard-response","93","114512","0.0-93.0","""event"",""trial"",""time""
""fullscreenenter"",""0"",""2399""
","
","
","""event"",""trial"",""time""
""fullscreenenter"",""0"",""2399""
","
","null","<p></p>","null","","","","","","","",""
"","image","94","115428","0.0-94.0","""event"",""trial"",""time""
""fullscreenenter"",""0"",""2399""
","
","
","""event"",""trial"",""time""
""fullscreenenter"",""0"",""2399""
","
","914.0999999940395","run_exp/static/images/Set 6_rs/168a.jpg","86","","","","","","learn","SL",""
"","show_choice","95","116515","0.0-95.0","""event"",""trial"",""time""
""fullscreenenter"",""0"",""2399""
","
","
","""event"",""trial"",""time""
""fullscreenenter"",""0"",""2399""
","
","null","run_exp/static/images/Set 6_rs/168a.jpg","null","","","","","","learn","SL",""
"","html-keyboard-response","96","117017","0.0-96.0","""event"",""trial"",""time""
""fullscreenenter"",""0"",""2399""
","
","
","""event"",""trial"",""time""
""fullscreenenter"",""0"",""2399""
","
","null","<p></p>","null","","","","","","","",""
"","image","97","117566","0.0-97.0","""event"",""trial"",""time""
""fullscreenenter"",""0"",""2399""
","
","
","""event"",""trial"",""time""
""fullscreenenter"",""0"",""2399""
","
","546.6000000014901","run_exp/static/images/Set 6_rs/073a.jpg","86","","","","","","learn","SL",""
"","show_choice","98","119023","0.0-98.0","""event"",""trial"",""time""
""fullscreenenter"",""0"",""2399""
","
","
","""event"",""trial"",""time""
""fullscreenenter"",""0"",""2399""
","
","null","run_exp/static/images/Set 6_rs/073a.jpg","null","","","","","","learn","SL",""
"","html-keyboard-response","99","119527","0.0-99.0","""event"",""trial"",""time""
""fullscreenenter"",""0"",""2399""
","
","
","""event"",""trial"",""time""
""fullscreenenter"",""0"",""2399""
","
","null","<p></p>","null","","","","","","","",""
"","image","100","120164","0.0-100.0","""event"",""trial"",""time""
""fullscreenenter"",""0"",""2399""
","
","
","""event"",""trial"",""time""
""fullscreenenter"",""0"",""2399""
","
","635.2000000029802","run_exp/static/images/Set 6_rs/172a.jpg","78","","","","","","learn","SR",""
"","show_choice","101","121534","0.0-101.0","""event"",""trial"",""time""
""fullscreenenter"",""0"",""2399""
","
","
","""event"",""trial"",""time""
""fullscreenenter"",""0"",""2399""
","
","null","run_exp/static/images/Set 6_rs/172a.jpg","null","","","","","","learn","SR",""
"","html-keyboard-response","102","122040","0.0-102.0","""event"",""trial"",""time""
""fullscreenenter"",""0"",""2399""
","
","
","""event"",""trial"",""time""
""fullscreenenter"",""0"",""2399""
","
","null","<p></p>","null","","","","","","","",""
"","image","103","122981","0.0-103.0","""event"",""trial"",""time""
""fullscreenenter"",""0"",""2399""
","
","
","""event"",""trial"",""time""
""fullscreenenter"",""0"",""2399""
","
","938.1000000014901","run_exp/static/images/Set 6_rs/169a.jpg","78","","","","","","learn","SR",""
"","show_choice","104","124048","0.0-104.0","""event"",""trial"",""time""
""fullscreenenter"",""0"",""2399""
","
","
","""event"",""trial"",""time""
""fullscreenenter"",""0"",""2399""
","
","null","run_exp/static/images/Set 6_rs/169a.jpg","null","","","","","","learn","SR",""
"","html-keyboard-response","105","124553","0.0-105.0","""event"",""trial"",""time""
""fullscreenenter"",""0"",""2399""
","
","
","""event"",""trial"",""time""
""fullscreenenter"",""0"",""2399""
","
","null","<p></p>","null","","","","","","","",""
"","image","106","125639","0.0-106.0","""event"",""trial"",""time""
""fullscreenenter"",""0"",""2399""
","
","
","""event"",""trial"",""time""
""fullscreenenter"",""0"",""2399""
","
","1083.7999999970198","run_exp/static/images/Set 6_rs/066a.jpg","86","","","","","","learn","SL",""
"","show_choice","107","126561","0.0-107.0","""event"",""trial"",""time""
""fullscreenenter"",""0"",""2399""
","
","
","""event"",""trial"",""time""
""fullscreenenter"",""0"",""2399""
","
","null","run_exp/static/images/Set 6_rs/066a.jpg","null","","","","","","learn","SL",""
"","html-keyboard-response","108","127065","0.0-108.0","""event"",""trial"",""time""
""fullscreenenter"",""0"",""2399""
","
","
","""event"",""trial"",""time""
""fullscreenenter"",""0"",""2399""
","
","null","<p></p>","null","","","","","","","",""
"","image","109","128209","0.0-109.0","""event"",""trial"",""time""
""fullscreenenter"",""0"",""2399""
","
","
","""event"",""trial"",""time""
""fullscreenenter"",""0"",""2399""
","
","1141.5","run_exp/static/images/Set 6_rs/024a.jpg","86","","","","","","learn","SR",""
"","show_choice","110","129069","0.0-110.0","""event"",""trial"",""time""
""fullscreenenter"",""0"",""2399""
","
","
","""event"",""trial"",""time""
""fullscreenenter"",""0"",""2399""
","
","null","run_exp/static/images/Set 6_rs/024a.jpg","null","","","","","","learn","SR",""
"","html-keyboard-response","111","129572","0.0-111.0","""event"",""trial"",""time""
""fullscreenenter"",""0"",""2399""
","
","
","""event"",""trial"",""time""
""fullscreenenter"",""0"",""2399""
","
","null","<p></p>","null","","","","","","","",""
"","image","112","130357","0.0-112.0","""event"",""trial"",""time""
""fullscreenenter"",""0"",""2399""
","
","
","""event"",""trial"",""time""
""fullscreenenter"",""0"",""2399""
","
","783.1000000014901","run_exp/static/images/Set 6_rs/111a.jpg","86","","","","","","learn","SL",""
"","show_choice","113","131577","0.0-113.0","""event"",""trial"",""time""
""fullscreenenter"",""0"",""2399""
","
","
","""event"",""trial"",""time""
""fullscreenenter"",""0"",""2399""
","
","null","run_exp/static/images/Set 6_rs/111a.jpg","null","","","","","","learn","SL",""
"","html-keyboard-response","114","132079","0.0-114.0","""event"",""trial"",""time""
""fullscreenenter"",""0"",""2399""
","
","
","""event"",""trial"",""time""
""fullscreenenter"",""0"",""2399""
","
","null","<p></p>","null","","","","","","","",""
"","image","115","132770","0.0-115.0","""event"",""trial"",""time""
""fullscreenenter"",""0"",""2399""
","
","
","""event"",""trial"",""time""
""fullscreenenter"",""0"",""2399""
","
","688.6000000014901","run_exp/static/images/Set 6_rs/181a.jpg","78","","","","","","learn","SL",""
"","show_choice","116","134083","0.0-116.0","""event"",""trial"",""time""
""fullscreenenter"",""0"",""2399""
","
","
","""event"",""trial"",""time""
""fullscreenenter"",""0"",""2399""
","
","null","run_exp/static/images/Set 6_rs/181a.jpg","null","","","","","","learn","SL",""
"","html-keyboard-response","117","134590","0.0-117.0","""event"",""trial"",""time""
""fullscreenenter"",""0"",""2399""
","
","
","""event"",""trial"",""time""
""fullscreenenter"",""0"",""2399""
","
","null","<p></p>","null","","","","","","","",""
"","image","118","136092","0.0-118.0","""event"",""trial"",""time""
""fullscreenenter"",""0"",""2399""
","
","
","""event"",""trial"",""time""
""fullscreenenter"",""0"",""2399""
","
","1500.3999999985099","run_exp/static/images/Set 6_rs/121a.jpg","86","","","","","","learn","SR",""
"","show_choice","119","136596","0.0-119.0","""event"",""trial"",""time""
""fullscreenenter"",""0"",""2399""
","
","
","""event"",""trial"",""time""
""fullscreenenter"",""0"",""2399""
","
","null","run_exp/static/images/Set 6_rs/121a.jpg","null","","","","","","learn","SR",""
"","html-keyboard-response","120","137103","0.0-120.0","""event"",""trial"",""time""
""fullscreenenter"",""0"",""2399""
","
","
","""event"",""trial"",""time""
""fullscreenenter"",""0"",""2399""
","
","null","<p></p>","null","","","","","","","",""
"","image","121","138741","0.0-121.0","""event"",""trial"",""time""
""fullscreenenter"",""0"",""2399""
","
","
","""event"",""trial"",""time""
""fullscreenenter"",""0"",""2399""
","
","1636","run_exp/static/images/Set 6_rs/008a.jpg","86","","","","","","learn","SL",""
"","show_choice","122","139110","0.0-122.0","""event"",""trial"",""time""
""fullscreenenter"",""0"",""2399""
","
","
","""event"",""trial"",""time""
""fullscreenenter"",""0"",""2399""
","
","null","run_exp/static/images/Set 6_rs/008a.jpg","null","","","","","","learn","SL",""
"","html-keyboard-response","123","139616","0.0-123.0","""event"",""trial"",""time""
""fullscreenenter"",""0"",""2399""
","
","
","""event"",""trial"",""time""
""fullscreenenter"",""0"",""2399""
","
","null","<p></p>","null","","","","","","","",""
"","image","124","141205","0.0-124.0","""event"",""trial"",""time""
""fullscreenenter"",""0"",""2399""
","
","
","""event"",""trial"",""time""
""fullscreenenter"",""0"",""2399""
","
","1586.6000000014901","run_exp/static/images/Set 6_rs/167a.jpg","86","","","","","","learn","SL",""
"","show_choice","125","141624","0.0-125.0","""event"",""trial"",""time""
""fullscreenenter"",""0"",""2399""
","
","
","""event"",""trial"",""time""
""fullscreenenter"",""0"",""2399""
","
","null","run_exp/static/images/Set 6_rs/167a.jpg","null","","","","","","learn","SL",""
"","html-keyboard-response","126","142130","0.0-126.0","""event"",""trial"",""time""
""fullscreenenter"",""0"",""2399""
","
","
","""event"",""trial"",""time""
""fullscreenenter"",""0"",""2399""
","
","null","<p></p>","null","","","","","","","",""
"","image","127","142963","0.0-127.0","""event"",""trial"",""time""
""fullscreenenter"",""0"",""2399""
","
","
","""event"",""trial"",""time""
""fullscreenenter"",""0"",""2399""
","
","830.6000000014901","run_exp/static/images/Set 6_rs/063a.jpg","86","","","","","","learn","SR",""
"","show_choice","128","144133","0.0-128.0","""event"",""trial"",""time""
""fullscreenenter"",""0"",""2399""
","
","
","""event"",""trial"",""time""
""fullscreenenter"",""0"",""2399""
","
","null","run_exp/static/images/Set 6_rs/063a.jpg","null","","","","","","learn","SR",""
"","html-keyboard-response","129","144639","0.0-129.0","""event"",""trial"",""time""
""fullscreenenter"",""0"",""2399""
","
","
","""event"",""trial"",""time""
""fullscreenenter"",""0"",""2399""
","
","null","<p></p>","null","","","","","","","",""
"","image","130","145538","0.0-130.0","""event"",""trial"",""time""
""fullscreenenter"",""0"",""2399""
","
","
","""event"",""trial"",""time""
""fullscreenenter"",""0"",""2399""
","
","897.6000000014901","run_exp/static/images/Set 6_rs/138a.jpg","78","","","","","","learn","SL",""
"","show_choice","131","146645","0.0-131.0","""event"",""trial"",""time""
""fullscreenenter"",""0"",""2399""
","
","
","""event"",""trial"",""time""
""fullscreenenter"",""0"",""2399""
","
","null","run_exp/static/images/Set 6_rs/138a.jpg","null","","","","","","learn","SL",""
"","html-keyboard-response","132","147152","0.0-132.0","""event"",""trial"",""time""
""fullscreenenter"",""0"",""2399""
","
","
","""event"",""trial"",""time""
""fullscreenenter"",""0"",""2399""
","
","null","<p></p>","null","","","","","","","",""
"","image","133","147963","0.0-133.0","""event"",""trial"",""time""
""fullscreenenter"",""0"",""2399""
","
","
","""event"",""trial"",""time""
""fullscreenenter"",""0"",""2399""
","
","808.1000000014901","run_exp/static/images/Set 6_rs/186a.jpg","86","","","","","","learn","SR",""
"","show_choice","134","149158","0.0-134.0","""event"",""trial"",""time""
""fullscreenenter"",""0"",""2399""
","
","
","""event"",""trial"",""time""
""fullscreenenter"",""0"",""2399""
","
","null","run_exp/static/images/Set 6_rs/186a.jpg","null","","","","","","learn","SR",""
"","html-keyboard-response","135","149660","0.0-135.0","""event"",""trial"",""time""
""fullscreenenter"",""0"",""2399""
","
","
","""event"",""trial"",""time""
""fullscreenenter"",""0"",""2399""
","
","null","<p></p>","null","","","","","","","",""
"","image","136","150580","0.0-136.0","""event"",""trial"",""time""
""fullscreenenter"",""0"",""2399""
","
","
","""event"",""trial"",""time""
""fullscreenenter"",""0"",""2399""
","
","917.3000000044703","run_exp/static/images/Set 6_rs/055a.jpg","86","","","","","","learn","SL",""
"","show_choice","137","151665","0.0-137.0","""event"",""trial"",""time""
""fullscreenenter"",""0"",""2399""
","
","
","""event"",""trial"",""time""
""fullscreenenter"",""0"",""2399""
","
","null","run_exp/static/images/Set 6_rs/055a.jpg","null","","","","","","learn","SL",""
"","html-keyboard-response","138","152169","0.0-138.0","""event"",""trial"",""time""
""fullscreenenter"",""0"",""2399""
","
","
","""event"",""trial"",""time""
""fullscreenenter"",""0"",""2399""
","
","null","<p></p>","null","","","","","","","",""
"","image","139","152800","0.0-139.0","""event"",""trial"",""time""
""fullscreenenter"",""0"",""2399""
","
","
","""event"",""trial"",""time""
""fullscreenenter"",""0"",""2399""
","
","627.8999999985099","run_exp/static/images/Set 6_rs/095a.jpg","86","","","","","","learn","SL",""
"","show_choice","140","154174","0.0-140.0","""event"",""trial"",""time""
""fullscreenenter"",""0"",""2399""
","
","
","""event"",""trial"",""time""
""fullscreenenter"",""0"",""2399""
","
","null","run_exp/static/images/Set 6_rs/095a.jpg","null","","","","","","learn","SL",""
"","html-keyboard-response","141","154676","0.0-141.0","""event"",""trial"",""time""
""fullscreenenter"",""0"",""2399""
","
","
","""event"",""trial"",""time""
""fullscreenenter"",""0"",""2399""
","
","null","<p></p>","null","","","","","","","",""
"","image","142","155545","0.0-142.0","""event"",""trial"",""time""
""fullscreenenter"",""0"",""2399""
","
","
","""event"",""trial"",""time""
""fullscreenenter"",""0"",""2399""
","
","866.6000000014901","run_exp/static/images/Set 6_rs/152a.jpg","86","","","","","","learn","SR",""
"","show_choice","143","156681","0.0-143.0","""event"",""trial"",""time""
""fullscreenenter"",""0"",""2399""
","
","
","""event"",""trial"",""time""
""fullscreenenter"",""0"",""2399""
","
","null","run_exp/static/images/Set 6_rs/152a.jpg","null","","","","","","learn","SR",""
"","html-keyboard-response","144","157184","0.0-144.0","""event"",""trial"",""time""
""fullscreenenter"",""0"",""2399""
","
","
","""event"",""trial"",""time""
""fullscreenenter"",""0"",""2399""
","
","null","<p></p>","null","","","","","","","",""
"","image","145","158220","0.0-145.0","""event"",""trial"",""time""
""fullscreenenter"",""0"",""2399""
","
","
","""event"",""trial"",""time""
""fullscreenenter"",""0"",""2399""
","
","1032.7999999970198","run_exp/static/images/Set 6_rs/088a.jpg","86","","","","","","learn","SR",""
"","show_choice","146","159189","0.0-146.0","""event"",""trial"",""time""
""fullscreenenter"",""0"",""2399""
","
","
","""event"",""trial"",""time""
""fullscreenenter"",""0"",""2399""
","
","null","run_exp/static/images/Set 6_rs/088a.jpg","null","","","","","","learn","SR",""
"","html-keyboard-response","147","159696","0.0-147.0","""event"",""trial"",""time""
""fullscreenenter"",""0"",""2399""
","
","
","""event"",""trial"",""time""
""fullscreenenter"",""0"",""2399""
","
","null","<p></p>","null","","","","","","","",""
"","image","148","160372","0.0-148.0","""event"",""trial"",""time""
""fullscreenenter"",""0"",""2399""
","
","
","""event"",""trial"",""time""
""fullscreenenter"",""0"",""2399""
","
","673.7000000029802","run_exp/static/images/Set 6_rs/112a.jpg","86","","","","","","learn","SR",""
"","show_choice","149","161700","0.0-149.0","""event"",""trial"",""time""
""fullscreenenter"",""0"",""2399""
","
","
","""event"",""trial"",""time""
""fullscreenenter"",""0"",""2399""
","
","null","run_exp/static/images/Set 6_rs/112a.jpg","null","","","","","","learn","SR",""
"","html-keyboard-response","150","162207","0.0-150.0","""event"",""trial"",""time""
""fullscreenenter"",""0"",""2399""
","
","
","""event"",""trial"",""time""
""fullscreenenter"",""0"",""2399""
","
","null","<p></p>","null","","","","","","","",""
"","image","151","162936","0.0-151.0","""event"",""trial"",""time""
""fullscreenenter"",""0"",""2399""
","
","
","""event"",""trial"",""time""
""fullscreenenter"",""0"",""2399""
","
","726.3999999985099","run_exp/static/images/Set 6_rs/070a.jpg","86","","","","","","learn","SR",""
"","show_choice","152","164214","0.0-152.0","""event"",""trial"",""time""
""fullscreenenter"",""0"",""2399""
","
","
","""event"",""trial"",""time""
""fullscreenenter"",""0"",""2399""
","
","null","run_exp/static/images/Set 6_rs/070a.jpg","null","","","","","","learn","SR",""
"","html-keyboard-response","153","164717","0.0-153.0","""event"",""trial"",""time""
""fullscreenenter"",""0"",""2399""
","
","
","""event"",""trial"",""time""
""fullscreenenter"",""0"",""2399""
","
","null","<p></p>","null","","","","","","","",""
"","image","154","165614","0.0-154.0","""event"",""trial"",""time""
""fullscreenenter"",""0"",""2399""
","
","
","""event"",""trial"",""time""
""fullscreenenter"",""0"",""2399""
","
","895","run_exp/static/images/Set 6_rs/117a.jpg","86","","","","","","learn","SL",""
"","show_choice","155","166722","0.0-155.0","""event"",""trial"",""time""
""fullscreenenter"",""0"",""2399""
","
","
","""event"",""trial"",""time""
""fullscreenenter"",""0"",""2399""
","
","null","run_exp/static/images/Set 6_rs/117a.jpg","null","","","","","","learn","SL",""
"","html-keyboard-response","156","167226","0.0-156.0","""event"",""trial"",""time""
""fullscreenenter"",""0"",""2399""
","
","
","""event"",""trial"",""time""
""fullscreenenter"",""0"",""2399""
","
","null","<p></p>","null","","","","","","","",""
"","image","157","168671","0.0-157.0","""event"",""trial"",""time""
""fullscreenenter"",""0"",""2399""
","
","
","""event"",""trial"",""time""
""fullscreenenter"",""0"",""2399""
","
","1443.7000000029802","run_exp/static/images/Set 6_rs/075a.jpg","78","","","","","","learn","SR",""
"","show_choice","158","169233","0.0-158.0","""event"",""trial"",""time""
""fullscreenenter"",""0"",""2399""
","
","
","""event"",""trial"",""time""
""fullscreenenter"",""0"",""2399""
","
","null","run_exp/static/images/Set 6_rs/075a.jpg","null","","","","","","learn","SR",""
"","html-keyboard-response","159","169739","0.0-159.0","""event"",""trial"",""time""
""fullscreenenter"",""0"",""2399""
","
","
","""event"",""trial"",""time""
""fullscreenenter"",""0"",""2399""
","
","null","<p></p>","null","","","","","","","",""
"","image","160","171395","0.0-160.0","""event"",""trial"",""time""
""fullscreenenter"",""0"",""2399""
","
","
","""event"",""trial"",""time""
""fullscreenenter"",""0"",""2399""
","
","1653.3999999985099","run_exp/static/images/Set 6_rs/144a.jpg","86","","","","","","learn","SL",""
"","show_choice","161","171747","0.0-161.0","""event"",""trial"",""time""
""fullscreenenter"",""0"",""2399""
","
","
","""event"",""trial"",""time""
""fullscreenenter"",""0"",""2399""
","
","null","run_exp/static/images/Set 6_rs/144a.jpg","null","","","","","","learn","SL",""
"","html-keyboard-response","162","172252","0.0-162.0","""event"",""trial"",""time""
""fullscreenenter"",""0"",""2399""
","
","
","""event"",""trial"",""time""
""fullscreenenter"",""0"",""2399""
","
","null","<p></p>","null","","","","","","","",""
"","image","163","173219","0.0-163.0","""event"",""trial"",""time""
""fullscreenenter"",""0"",""2399""
","
","
","""event"",""trial"",""time""
""fullscreenenter"",""0"",""2399""
","
","964.0999999940395","run_exp/static/images/Set 6_rs/062a.jpg","86","","","","","","learn","SL",""
"","show_choice","164","174259","0.0-164.0","""event"",""trial"",""time""
""fullscreenenter"",""0"",""2399""
","
","
","""event"",""trial"",""time""
""fullscreenenter"",""0"",""2399""
","
","null","run_exp/static/images/Set 6_rs/062a.jpg","null","","","","","","learn","SL",""
"","html-keyboard-response","165","174764","0.0-165.0","""event"",""trial"",""time""
""fullscreenenter"",""0"",""2399""
","
","
","""event"",""trial"",""time""
""fullscreenenter"",""0"",""2399""
","
","null","<p></p>","null","","","","","","","",""
"","image","166","175878","0.0-166.0","""event"",""trial"",""time""
""fullscreenenter"",""0"",""2399""
","
","
","""event"",""trial"",""time""
""fullscreenenter"",""0"",""2399""
","
","1111.8000000044703","run_exp/static/images/Set 6_rs/132a.jpg","78","","","","","","learn","SR",""
"","show_choice","167","176771","0.0-167.0","""event"",""trial"",""time""
""fullscreenenter"",""0"",""2399""
","
","
","""event"",""trial"",""time""
""fullscreenenter"",""0"",""2399""
","
","null","run_exp/static/images/Set 6_rs/132a.jpg","null","","","","","","learn","SR",""
"","html-keyboard-response","168","177273","0.0-168.0","""event"",""trial"",""time""
""fullscreenenter"",""0"",""2399""
","
","
","""event"",""trial"",""time""
""fullscreenenter"",""0"",""2399""
","
","null","<p></p>","null","","","","","","","",""
"","image","169","178340","0.0-169.0","""event"",""trial"",""time""
""fullscreenenter"",""0"",""2399""
","
","
","""event"",""trial"",""time""
""fullscreenenter"",""0"",""2399""
","
","1064.8999999985099","run_exp/static/images/Set 6_rs/016a.jpg","86","","","","","","learn","SL",""
"","show_choice","170","179277","0.0-170.0","""event"",""trial"",""time""
""fullscreenenter"",""0"",""2399""
","
","
","""event"",""trial"",""time""
""fullscreenenter"",""0"",""2399""
","
","null","run_exp/static/images/Set 6_rs/016a.jpg","null","","","","","","learn","SL",""
"","html-keyboard-response","171","179784","0.0-171.0","""event"",""trial"",""time""
""fullscreenenter"",""0"",""2399""
","
","
","""event"",""trial"",""time""
""fullscreenenter"",""0"",""2399""
","
","null","<p></p>","null","","","","","","","",""
"","image","172","180671","0.0-172.0","""event"",""trial"",""time""
""fullscreenenter"",""0"",""2399""
","
","
","""event"",""trial"",""time""
""fullscreenenter"",""0"",""2399""
","
","884.8000000044703","run_exp/static/images/Set 6_rs/187a.jpg","86","","","","","","learn","SR",""
"","show_choice","173","181788","0.0-173.0","""event"",""trial"",""time""
""fullscreenenter"",""0"",""2399""
","
","
","""event"",""trial"",""time""
""fullscreenenter"",""0"",""2399""
","
","null","run_exp/static/images/Set 6_rs/187a.jpg","null","","","","","","learn","SR",""
"","html-keyboard-response","174","182291","0.0-174.0","""event"",""trial"",""time""
""fullscreenenter"",""0"",""2399""
","
","
","""event"",""trial"",""time""
""fullscreenenter"",""0"",""2399""
","
","null","<p></p>","null","","","","","","","",""
"","image","175","183164","0.0-175.0","""event"",""trial"",""time""
""fullscreenenter"",""0"",""2399""
","
","
","""event"",""trial"",""time""
""fullscreenenter"",""0"",""2399""
","
","871.2000000029802","run_exp/static/images/Set 6_rs/045a.jpg","86","","","","","","learn","SR",""
"","show_choice","176","184295","0.0-176.0","""event"",""trial"",""time""
""fullscreenenter"",""0"",""2399""
","
","
","""event"",""trial"",""time""
""fullscreenenter"",""0"",""2399""
","
","null","run_exp/static/images/Set 6_rs/045a.jpg","null","","","","","","learn","SR",""
"","html-keyboard-response","177","184802","0.0-177.0","""event"",""trial"",""time""
""fullscreenenter"",""0"",""2399""
","
","
","""event"",""trial"",""time""
""fullscreenenter"",""0"",""2399""
","
","null","<p></p>","null","","","","","","","",""
"","image","178","185492","0.0-178.0","""event"",""trial"",""time""
""fullscreenenter"",""0"",""2399""
","
","
","""event"",""trial"",""time""
""fullscreenenter"",""0"",""2399""
","
","687.5","run_exp/static/images/Set 6_rs/134a.jpg","86","","","","","","learn","SR",""
"","show_choice","179","186806","0.0-179.0","""event"",""trial"",""time""
""fullscreenenter"",""0"",""2399""
","
","
","""event"",""trial"",""time""
""fullscreenenter"",""0"",""2399""
","
","null","run_exp/static/images/Set 6_rs/134a.jpg","null","","","","","","learn","SR",""
"","html-keyboard-response","180","187313","0.0-180.0","""event"",""trial"",""time""
""fullscreenenter"",""0"",""2399""
","
","
","""event"",""trial"",""time""
""fullscreenenter"",""0"",""2399""
","
","null","<p></p>","null","","","","","","","",""
"","image","181","188558","0.0-181.0","""event"",""trial"",""time""
""fullscreenenter"",""0"",""2399""
","
","
","""event"",""trial"",""time""
""fullscreenenter"",""0"",""2399""
","
","1243.2000000029802","run_exp/static/images/Set 6_rs/071a.jpg","86","","","","","","learn","SL",""
"","show_choice","182","189320","0.0-182.0","""event"",""trial"",""time""
""fullscreenenter"",""0"",""2399""
","
","
","""event"",""trial"",""time""
""fullscreenenter"",""0"",""2399""
","
","null","run_exp/static/images/Set 6_rs/071a.jpg","null","","","","","","learn","SL",""
"","html-keyboard-response","183","189822","0.0-183.0","""event"",""trial"",""time""
""fullscreenenter"",""0"",""2399""
","
","
","""event"",""trial"",""time""
""fullscreenenter"",""0"",""2399""
","
","null","<p></p>","null","","","","","","","",""
"","image","184","191051","0.0-184.0","""event"",""trial"",""time""
""fullscreenenter"",""0"",""2399""
","
","
","""event"",""trial"",""time""
""fullscreenenter"",""0"",""2399""
","
","1226.8999999985099","run_exp/static/images/Set 6_rs/123a.jpg","86","","","","","","learn","SL",""
"","show_choice","185","191826","0.0-185.0","""event"",""trial"",""time""
""fullscreenenter"",""0"",""2399""
","
","
","""event"",""trial"",""time""
""fullscreenenter"",""0"",""2399""
","
","null","run_exp/static/images/Set 6_rs/123a.jpg","null","","","","","","learn","SL",""
"","html-keyboard-response","186","192329","0.0-186.0","""event"",""trial"",""time""
""fullscreenenter"",""0"",""2399""
","
","
","""event"",""trial"",""time""
""fullscreenenter"",""0"",""2399""
","
","null","<p></p>","null","","","","","","","",""
"","image","187","193445","0.0-187.0","""event"",""trial"",""time""
""fullscreenenter"",""0"",""2399""
","
","
","""event"",""trial"",""time""
""fullscreenenter"",""0"",""2399""
","
","1113.2000000029802","run_exp/static/images/Set 6_rs/141a.jpg","78","","","","","","learn","SR",""
"","show_choice","188","194335","0.0-188.0","""event"",""trial"",""time""
""fullscreenenter"",""0"",""2399""
","
","
","""event"",""trial"",""time""
""fullscreenenter"",""0"",""2399""
","
","null","run_exp/static/images/Set 6_rs/141a.jpg","null","","","","","","learn","SR",""
"","html-keyboard-response","189","194840","0.0-189.0","""event"",""trial"",""time""
""fullscreenenter"",""0"",""2399""
","
","
","""event"",""trial"",""time""
""fullscreenenter"",""0"",""2399""
","
","null","<p></p>","null","","","","","","","",""
"","image","190","195743","0.0-190.0","""event"",""trial"",""time""
""fullscreenenter"",""0"",""2399""
","
","
","""event"",""trial"",""time""
""fullscreenenter"",""0"",""2399""
","
","900.6000000014901","run_exp/static/images/Set 6_rs/061a.jpg","78","","","","","","learn","SR",""
"","show_choice","191","196844","0.0-191.0","""event"",""trial"",""time""
""fullscreenenter"",""0"",""2399""
","
","
","""event"",""trial"",""time""
""fullscreenenter"",""0"",""2399""
","
","null","run_exp/static/images/Set 6_rs/061a.jpg","null","","","","","","learn","SR",""
"","html-keyboard-response","192","197347","0.0-192.0","""event"",""trial"",""time""
""fullscreenenter"",""0"",""2399""
","
","
","""event"",""trial"",""time""
""fullscreenenter"",""0"",""2399""
","
","null","<p></p>","null","","","","","","","",""
"","image","193","198024","0.0-193.0","""event"",""trial"",""time""
""fullscreenenter"",""0"",""2399""
","
","
","""event"",""trial"",""time""
""fullscreenenter"",""0"",""2399""
","
","674.1999999955297","run_exp/static/images/Set 6_rs/064a.jpg","78","","","","","","learn","SR",""
"","show_choice","194","199352","0.0-194.0","""event"",""trial"",""time""
""fullscreenenter"",""0"",""2399""
","
","
","""event"",""trial"",""time""
""fullscreenenter"",""0"",""2399""
","
","null","run_exp/static/images/Set 6_rs/064a.jpg","null","","","","","","learn","SR",""
"","html-keyboard-response","195","199855","0.0-195.0","""event"",""trial"",""time""
""fullscreenenter"",""0"",""2399""
","
","
","""event"",""trial"",""time""
""fullscreenenter"",""0"",""2399""
","
","null","<p></p>","null","","","","","","","",""
"","test_intro","196","236724","0.0-196.0","""event"",""trial"",""time""
""fullscreenenter"",""0"",""2399""
","
","
","""event"",""trial"",""time""
""fullscreenenter"",""0"",""2399""
","
","null","run_exp/static/audio/clip_2_memory.m4a","null","","","","","<div class='center'><p>Now, lets see how much you remember about the items you just saw.  For each item, you need to indicate if it was <b>old</b> by pressing the <b>v</b> key, <b>similar</b> by pressing the <b>b</b> key, or <b>new</b> by pressing the <b>n</b> key.</p><p>Old refers to an item that you saw before in the indoor/outdoor game that you just played, new refers to an item you have <b>not</b> seen before within the indoor/outdoor game, and similar refers to an item that is similar to an item youve seen before but is not exactly the same. </p><p>Before we begin, lets go over some brief demonstrations to make sure you understand.</p></div>","","",""
"","html-keyboard-response","197","237753","0.0-197.0","""event"",""trial"",""time""
""fullscreenenter"",""0"",""2399""
","
","
","""event"",""trial"",""time""
""fullscreenenter"",""0"",""2399""
","
","1023.7000000029802","<div class='center'><p>Now, lets see how much you remember about the items you just saw.  For each item, you need to indicate if it was <b>old</b> by pressing the <b>v</b> key, <b>similar</b> by pressing the <b>b</b> key, or <b>new</b> by pressing the <b>n</b> key.</p><p>Old refers to an item that you saw before in the indoor/outdoor game that you just played, new refers to an item you have <b>not</b> seen before within the indoor/outdoor game, and similar refers to an item that is similar to an item youve seen before but is not exactly the same. </p><p>Before we begin, lets go over some brief demonstrations to make sure you understand.</p><div><p><b>[Press the space bar to continue]</b></p></div>","32","","","","","","","",""
"","items","198","245256","0.0-198.0","""event"",""trial"",""time""
""fullscreenenter"",""0"",""2399""
","
","
","""event"",""trial"",""time""
""fullscreenenter"",""0"",""2399""
","
","null","run_exp/static/audio/clip_3_items.m4a","null","","","","","","","",""
"","mop","199","249763","0.0-199.0","""event"",""trial"",""time""
""fullscreenenter"",""0"",""2399""
","
","
","""event"",""trial"",""time""
""fullscreenenter"",""0"",""2399""
","
","null","run_exp/static/audio/clip_4_mop.m4a","null","","","","","","","",""
"","baseball","200","253270","0.0-200.0","""event"",""trial"",""time""
""fullscreenenter"",""0"",""2399""
","
","
","""event"",""trial"",""time""
""fullscreenenter"",""0"",""2399""
","
","null","run_exp/static/audio/clip_5_baseball.m4a","null","","","","","","","",""
"","trumpet","201","256774","0.0-201.0","""event"",""trial"",""time""
""fullscreenenter"",""0"",""2399""
","
","
","""event"",""trial"",""time""
""fullscreenenter"",""0"",""2399""
","
","null","run_exp/static/audio/clip_6_trumpet.m4a","null","","","","","","","",""
"","gummies","202","260279","0.0-202.0","""event"",""trial"",""time""
""fullscreenenter"",""0"",""2399""
","
","
","""event"",""trial"",""time""
""fullscreenenter"",""0"",""2399""
","
","null","run_exp/static/audio/clip_7_gummies.m4a","null","","","","","","","",""
"","osn","203","264783","0.0-203.0","""event"",""trial"",""time""
""fullscreenenter"",""0"",""2399""
","
","
","""event"",""trial"",""time""
""fullscreenenter"",""0"",""2399""
","
","null","run_exp/static/audio/clip_8_osn.m4a","null","","","","","","","",""
"","old_1","204","271291","0.0-204.0","""event"",""trial"",""time""
""fullscreenenter"",""0"",""2399""
","
","
","""event"",""trial"",""time""
""fullscreenenter"",""0"",""2399""
","
","null","run_exp/static/audio/clip_9_old_trumpet.m4a","null","","","","","","","",""
"","new_1","205","278794","0.0-205.0","""event"",""trial"",""time""
""fullscreenenter"",""0"",""2399""
","
","
","""event"",""trial"",""time""
""fullscreenenter"",""0"",""2399""
","
","null","run_exp/static/audio/clip_10_new_balloon.m4a","null","","","","","","","",""
"","similar_1a","206","283300","0.0-206.0","""event"",""trial"",""time""
""fullscreenenter"",""0"",""2399""
","
","
","""event"",""trial"",""time""
""fullscreenenter"",""0"",""2399""
","
","null","run_exp/static/audio/clip_11a_similar_mop.m4a","null","","","","","","","",""
"","similar_1b","207","289808","0.0-207.0","""event"",""trial"",""time""
""fullscreenenter"",""0"",""2399""
","
","
","""event"",""trial"",""time""
""fullscreenenter"",""0"",""2399""
","
","null","run_exp/static/audio/clip_11b_similar_mop.m4a","null","","","","","","","",""
"","new_2","208","293312","0.0-208.0","""event"",""trial"",""time""
""fullscreenenter"",""0"",""2399""
","
","
","""event"",""trial"",""time""
""fullscreenenter"",""0"",""2399""
","
","null","run_exp/static/audio/clip_12_new_stoplight.m4a","null","","","","","","","",""
"","old_2","209","296816","0.0-209.0","""event"",""trial"",""time""
""fullscreenenter"",""0"",""2399""
","
","
","""event"",""trial"",""time""
""fullscreenenter"",""0"",""2399""
","
","null","run_exp/static/audio/clip_13_old_baseball.m4a","null","","","","","","","",""
"","similar_2a","210","300320","0.0-210.0","""event"",""trial"",""time""
""fullscreenenter"",""0"",""2399""
","
","
","""event"",""trial"",""time""
""fullscreenenter"",""0"",""2399""
","
","null","run_exp/static/audio/clip_14a_similar_gummies.m4a","null","","","","","","","",""
"","similar_2b","211","307826","0.0-211.0","""event"",""trial"",""time""
""fullscreenenter"",""0"",""2399""
","
","
","""event"",""trial"",""time""
""fullscreenenter"",""0"",""2399""
","
","null","run_exp/static/audio/clip_14b_similar_gummies.m4a","null","","","","","","","",""
"","practice","212","349962","0.0-212.0","""event"",""trial"",""time""
""fullscreenenter"",""0"",""2399""
","
","
","""event"",""trial"",""time""
""fullscreenenter"",""0"",""2399""
","
","null","run_exp/static/audio/clip_15_practice.m4a","null","","","","","<div class='center'><p>Lets practice a little to make sure you understand the difference between new, similar, and old. Lets say you saw these three items in the indoor/outdoor game.</p><p> Try your best to remember these images because youll soon be tested on them in a practice game. In the practice game, youll be shown images and youll have to say if they are old (one of the three images belows), similar (similar to one of the images below but not exactly the same), or new (are not one of the images below nor similar to them).</p><p>Once you press the space bar youll be shown these images again but one at time. Then youll begin the practice game.</p><p><img src='run_exp/static/images/tutorial/test/three_indoor_outdoor.png' height='300'></p></div>","","",""
"","html-keyboard-response","213","350467","0.0-213.0","""event"",""trial"",""time""
""fullscreenenter"",""0"",""2399""
","
","
","""event"",""trial"",""time""
""fullscreenenter"",""0"",""2399""
","
","502.90000000596046","<div class='center'><p>Lets practice a little to make sure you understand the difference between new, similar, and old. Lets say you saw these three items in the indoor/outdoor game.</p><p> Try your best to remember these images because youll soon be tested on them in a practice game. In the practice game, youll be shown images and youll have to say if they are old (one of the three images belows), similar (similar to one of the images below but not exactly the same), or new (are not one of the images below nor similar to them).</p><p>Once you press the space bar youll be shown these images again but one at time. Then youll begin the practice game.</p><p><img src='run_exp/static/images/tutorial/test/three_indoor_outdoor.png' height='300'></p><div><p><b>[Press the space bar to continue]</b></p></div>","32","","","","","","","",""
"","planet","214","352471","0.0-214.0","""event"",""trial"",""time""
""fullscreenenter"",""0"",""2399""
","
","
","""event"",""trial"",""time""
""fullscreenenter"",""0"",""2399""
","
","null","run_exp/static/images/tutorial/test/008a.jpg","null","","","","","","","",""
"","boot","215","354479","0.0-215.0","""event"",""trial"",""time""
""fullscreenenter"",""0"",""2399""
","
","
","""event"",""trial"",""time""
""fullscreenenter"",""0"",""2399""
","
","null","run_exp/static/images/tutorial/test/011a.jpg","null","","","","","","","",""
"","lemon","216","356484","0.0-216.0","""event"",""trial"",""time""
""fullscreenenter"",""0"",""2399""
","
","
","""event"",""trial"",""time""
""fullscreenenter"",""0"",""2399""
","
","null","run_exp/static/images/tutorial/test/018a.jpg","null","","","","","","","",""
"","practice_q1","217","360005","0.0-217.0","""event"",""trial"",""time""
""fullscreenenter"",""0"",""2399""
","
","
","""event"",""trial"",""time""
""fullscreenenter"",""0"",""2399""
","
","3517.7000000029802","run_exp/static/audio/clip_16_practice_question.m4a","78","","","","","","","",""
"","correct","218","361930","0.0-218.0-0.0","""event"",""trial"",""time""
""fullscreenenter"",""0"",""2399""
","
","
","""event"",""trial"",""time""
""fullscreenenter"",""0"",""2399""
","
","null","run_exp/static/audio/clip_17_correct.m4a","null","","","","","<div class='center'><p>That's correct!</p></div>","","",""
"","html-keyboard-response","219","362711","0.0-218.0-1.0","""event"",""trial"",""time""
""fullscreenenter"",""0"",""2399""
","
","
","""event"",""trial"",""time""
""fullscreenenter"",""0"",""2399""
","
","778.8999999985099","<div class='center'><p>That's correct!</p><div><p><b>[Press the space bar to continue]</b></p></div>","32","","","","","","","",""
"","practice_q2","220","363429","0.0-218.0-2.0","""event"",""trial"",""time""
""fullscreenenter"",""0"",""2399""
","
","
","""event"",""trial"",""time""
""fullscreenenter"",""0"",""2399""
","
","716.1000000014901","run_exp/static/audio/clip_16_practice_question.m4a","86","","","","","","","",""
"","correct","221","365343","0.0-219.0-0.0","""event"",""trial"",""time""
""fullscreenenter"",""0"",""2399""
","
","
","""event"",""trial"",""time""
""fullscreenenter"",""0"",""2399""
","
","null","run_exp/static/audio/clip_17_correct.m4a","null","","","","","<div class='center'><p>That's correct!</p></div>","","",""
"","html-keyboard-response","222","365937","0.0-219.0-1.0","""event"",""trial"",""time""
""fullscreenenter"",""0"",""2399""
","
","
","""event"",""trial"",""time""
""fullscreenenter"",""0"",""2399""
","
","592","<div class='center'><p>That's correct!</p><div><p><b>[Press the space bar to continue]</b></p></div>","32","","","","","","","",""
"","practice_q3","223","367423","0.0-219.0-2.0","""event"",""trial"",""time""
""fullscreenenter"",""0"",""2399""
","
","
","""event"",""trial"",""time""
""fullscreenenter"",""0"",""2399""
","
","1484.6000000014901","run_exp/static/audio/clip_16_practice_question.m4a","66","","","","","","","",""
"","correct","224","369439","0.0-220.0-0.0","""event"",""trial"",""time""
""fullscreenenter"",""0"",""2399""
","
","
","""event"",""trial"",""time""
""fullscreenenter"",""0"",""2399""
","
","null","run_exp/static/audio/clip_17_correct.m4a","null","","","","","<div class='center'><p>That's correct!</p></div>","","",""
"","html-keyboard-response","225","370108","0.0-220.0-1.0","""event"",""trial"",""time""
""fullscreenenter"",""0"",""2399""
","
","
","""event"",""trial"",""time""
""fullscreenenter"",""0"",""2399""
","
","666.7000000029802","<div class='center'><p>That's correct!</p><div><p><b>[Press the space bar to continue]</b></p></div>","32","","","","","","","",""
"","begin_text","226","388597","0.0-221.0-0.0","""event"",""trial"",""time""
""fullscreenenter"",""0"",""2399""
","
","
","""event"",""trial"",""time""
""fullscreenenter"",""0"",""2399""
","
","null","run_exp/static/audio/clip_22_begin_test.m4a","null","","","","","<div class='center'><p>On to the real game where well test your memory of items from the indoor/outdoor game. For each item, you need to indicate if the item is <b>old</b> by pressing the <b>v</b> key, <b>similar</b> by pressing the <b>b</b> key, or <b>new</b> by pressing the <b>n</b> key. </p></div>","","",""
"","html-keyboard-response","227","389403","0.0-221.0-1.0","""event"",""trial"",""time""
""fullscreenenter"",""0"",""2399""
","
","
","""event"",""trial"",""time""
""fullscreenenter"",""0"",""2399""
","
","804.1999999955297","<div class='center'><p>On to the real game where well test your memory of items from the indoor/outdoor game. For each item, you need to indicate if the item is <b>old</b> by pressing the <b>v</b> key, <b>similar</b> by pressing the <b>b</b> key, or <b>new</b> by pressing the <b>n</b> key. </p><div><p><b>[Press the space bar to continue]</b></p></div>","32","","","","","","","",""
"","image","228","390908","0.0-222.0-0.0","""event"",""trial"",""time""
""fullscreenenter"",""0"",""2399""
","
","
","""event"",""trial"",""time""
""fullscreenenter"",""0"",""2399""
","
","1502.5999999940395","run_exp/static/images/Set 6_rs/061a.jpg","86","","","","","","test","TR","5"
"","show_choice","229","391412","0.0-222.0-1.0","""event"",""trial"",""time""
""fullscreenenter"",""0"",""2399""
","
","
","""event"",""trial"",""time""
""fullscreenenter"",""0"",""2399""
","
","null","run_exp/static/images/Set 6_rs/061a.jpg","null","","","","","","test","TR",""
"","html-keyboard-response","230","391914","0.0-222.0-2.0","""event"",""trial"",""time""
""fullscreenenter"",""0"",""2399""
","
","
","""event"",""trial"",""time""
""fullscreenenter"",""0"",""2399""
","
","null","<p></p>","null","","","","","","","",""
"","image","231","393665","0.0-223.0-0.0","""event"",""trial"",""time""
""fullscreenenter"",""0"",""2399""
","
","
","""event"",""trial"",""time""
""fullscreenenter"",""0"",""2399""
","
","1747.2000000029802","run_exp/static/images/Set 6_rs/085b.jpg","86","","","","","","test","TL","1"
"","show_choice","232","394167","0.0-223.0-1.0","""event"",""trial"",""time""
""fullscreenenter"",""0"",""2399""
","
","
","""event"",""trial"",""time""
""fullscreenenter"",""0"",""2399""
","
","null","run_exp/static/images/Set 6_rs/085b.jpg","null","","","","","","test","TL",""
"","html-keyboard-response","233","394674","0.0-223.0-2.0","""event"",""trial"",""time""
""fullscreenenter"",""0"",""2399""
","
","
","""event"",""trial"",""time""
""fullscreenenter"",""0"",""2399""
","
","null","<p></p>","null","","","","","","","",""
"","image","234","396435","0.0-224.0-0.0","""event"",""trial"",""time""
""fullscreenenter"",""0"",""2399""
","
","
","""event"",""trial"",""time""
""fullscreenenter"",""0"",""2399""
","
","1757.5","run_exp/static/images/Set 6_rs/017b.jpg","66","","","","","","test","TL","3"
"","show_choice","235","396939","0.0-224.0-1.0","""event"",""trial"",""time""
""fullscreenenter"",""0"",""2399""
","
","
","""event"",""trial"",""time""
""fullscreenenter"",""0"",""2399""
","
","null","run_exp/static/images/Set 6_rs/017b.jpg","null","","","","","","test","TL",""
"","html-keyboard-response","236","397443","0.0-224.0-2.0","""event"",""trial"",""time""
""fullscreenenter"",""0"",""2399""
","
","
","""event"",""trial"",""time""
""fullscreenenter"",""0"",""2399""
","
","null","<p></p>","null","","","","","","","",""
"","image","237","398872","0.0-225.0-0.0","""event"",""trial"",""time""
""fullscreenenter"",""0"",""2399""
","
","
","""event"",""trial"",""time""
""fullscreenenter"",""0"",""2399""
","
","1426.1000000014901","run_exp/static/images/Set 6_rs/048a.jpg","78","","","","","","test","TF","4"
"","show_choice","238","399375","0.0-225.0-1.0","""event"",""trial"",""time""
""fullscreenenter"",""0"",""2399""
","
","
","""event"",""trial"",""time""
""fullscreenenter"",""0"",""2399""
","
","null","run_exp/static/images/Set 6_rs/048a.jpg","null","","","","","","test","TF",""
"","html-keyboard-response","239","399882","0.0-225.0-2.0","""event"",""trial"",""time""
""fullscreenenter"",""0"",""2399""
","
","
","""event"",""trial"",""time""
""fullscreenenter"",""0"",""2399""
","
","null","<p></p>","null","","","","","","","",""
"","image","240","400780","0.0-226.0-0.0","""event"",""trial"",""time""
""fullscreenenter"",""0"",""2399""
","
","
","""event"",""trial"",""time""
""fullscreenenter"",""0"",""2399""
","
","894.8000000044703","run_exp/static/images/Set 6_rs/122a.jpg","86","","","","","","test","TR","5"
"","show_choice","241","401282","0.0-226.0-1.0","""event"",""trial"",""time""
""fullscreenenter"",""0"",""2399""
","
","
","""event"",""trial"",""time""
""fullscreenenter"",""0"",""2399""
","
","null","run_exp/static/images/Set 6_rs/122a.jpg","null","","","","","","test","TR",""
"","html-keyboard-response","242","401788","0.0-226.0-2.0","""event"",""trial"",""time""
""fullscreenenter"",""0"",""2399""
","
","
","""event"",""trial"",""time""
""fullscreenenter"",""0"",""2399""
","
","null","<p></p>","null","","","","","","","",""
"","image","243","402646","0.0-227.0-0.0","""event"",""trial"",""time""
""fullscreenenter"",""0"",""2399""
","
","
","""event"",""trial"",""time""
""fullscreenenter"",""0"",""2399""
","
","856","run_exp/static/images/Set 6_rs/064a.jpg","86","","","","","","test","TR","5"
"","show_choice","244","403149","0.0-227.0-1.0","""event"",""trial"",""time""
""fullscreenenter"",""0"",""2399""
","
","
","""event"",""trial"",""time""
""fullscreenenter"",""0"",""2399""
","
","null","run_exp/static/images/Set 6_rs/064a.jpg","null","","","","","","test","TR",""
"","html-keyboard-response","245","403651","0.0-227.0-2.0","""event"",""trial"",""time""
""fullscreenenter"",""0"",""2399""
","
","
","""event"",""trial"",""time""
""fullscreenenter"",""0"",""2399""
","
","null","<p></p>","null","","","","","","","",""
"","image","246","404312","0.0-228.0-0.0","""event"",""trial"",""time""
""fullscreenenter"",""0"",""2399""
","
","
","""event"",""trial"",""time""
""fullscreenenter"",""0"",""2399""
","
","658","run_exp/static/images/Set 6_rs/154a.jpg","86","","","","","","test","TR","3"
"","show_choice","247","404815","0.0-228.0-1.0","""event"",""trial"",""time""
""fullscreenenter"",""0"",""2399""
","
","
","""event"",""trial"",""time""
""fullscreenenter"",""0"",""2399""
","
","null","run_exp/static/images/Set 6_rs/154a.jpg","null","","","","","","test","TR",""
"","html-keyboard-response","248","405321","0.0-228.0-2.0","""event"",""trial"",""time""
""fullscreenenter"",""0"",""2399""
","
","
","""event"",""trial"",""time""
""fullscreenenter"",""0"",""2399""
","
","null","<p></p>","null","","","","","","","",""
"","image","249","407134","0.0-229.0-0.0","""event"",""trial"",""time""
""fullscreenenter"",""0"",""2399""
","
","
","""event"",""trial"",""time""
""fullscreenenter"",""0"",""2399""
","
","1810.2000000029802","run_exp/static/images/Set 6_rs/171a.jpg","78","","","","","","test","TF","1"
"","show_choice","250","407637","0.0-229.0-1.0","""event"",""trial"",""time""
""fullscreenenter"",""0"",""2399""
","
","
","""event"",""trial"",""time""
""fullscreenenter"",""0"",""2399""
","
","null","run_exp/static/images/Set 6_rs/171a.jpg","null","","","","","","test","TF",""
"","html-keyboard-response","251","408140","0.0-229.0-2.0","""event"",""trial"",""time""
""fullscreenenter"",""0"",""2399""
","
","
","""event"",""trial"",""time""
""fullscreenenter"",""0"",""2399""
","
","null","<p></p>","null","","","","","","","",""
"","image","252","409556","0.0-230.0-0.0","""event"",""trial"",""time""
""fullscreenenter"",""0"",""2399""
","
","
","""event"",""trial"",""time""
""fullscreenenter"",""0"",""2399""
","
","1413.0999999940395","run_exp/static/images/Set 6_rs/056a.jpg","78","","","","","","test","TF","3"
"","show_choice","253","410059","0.0-230.0-1.0","""event"",""trial"",""time""
""fullscreenenter"",""0"",""2399""
","
","
","""event"",""trial"",""time""
""fullscreenenter"",""0"",""2399""
","
","null","run_exp/static/images/Set 6_rs/056a.jpg","null","","","","","","test","TF",""
"","html-keyboard-response","254","410565","0.0-230.0-2.0","""event"",""trial"",""time""
""fullscreenenter"",""0"",""2399""
","
","
","""event"",""trial"",""time""
""fullscreenenter"",""0"",""2399""
","
","null","<p></p>","null","","","","","","","",""
"","image","255","411681","0.0-231.0-0.0","""event"",""trial"",""time""
""fullscreenenter"",""0"",""2399""
","
","
","""event"",""trial"",""time""
""fullscreenenter"",""0"",""2399""
","
","1112.8999999985099","run_exp/static/images/Set 6_rs/079b.jpg","66","","","","","","test","TL","5"
"","show_choice","256","412184","0.0-231.0-1.0","""event"",""trial"",""time""
""fullscreenenter"",""0"",""2399""
","
","
","""event"",""trial"",""time""
""fullscreenenter"",""0"",""2399""
","
","null","run_exp/static/images/Set 6_rs/079b.jpg","null","","","","","","test","TL",""
"","html-keyboard-response","257","412686","0.0-231.0-2.0","""event"",""trial"",""time""
""fullscreenenter"",""0"",""2399""
","
","
","""event"",""trial"",""time""
""fullscreenenter"",""0"",""2399""
","
","null","<p></p>","null","","","","","","","",""
"","image","258","414065","0.0-232.0-0.0","""event"",""trial"",""time""
""fullscreenenter"",""0"",""2399""
","
","
","""event"",""trial"",""time""
""fullscreenenter"",""0"",""2399""
","
","1376.5","run_exp/static/images/Set 6_rs/008b.jpg","66","","","","","","test","TL","2"
"","show_choice","259","414568","0.0-232.0-1.0","""event"",""trial"",""time""
""fullscreenenter"",""0"",""2399""
","
","
","""event"",""trial"",""time""
""fullscreenenter"",""0"",""2399""
","
","null","run_exp/static/images/Set 6_rs/008b.jpg","null","","","","","","test","TL",""
"","html-keyboard-response","260","415075","0.0-232.0-2.0","""event"",""trial"",""time""
""fullscreenenter"",""0"",""2399""
","
","
","""event"",""trial"",""time""
""fullscreenenter"",""0"",""2399""
","
","null","<p></p>","null","","","","","","","",""
"","image","261","416204","0.0-233.0-0.0","""event"",""trial"",""time""
""fullscreenenter"",""0"",""2399""
","
","
","""event"",""trial"",""time""
""fullscreenenter"",""0"",""2399""
","
","1126","run_exp/static/images/Set 6_rs/016b.jpg","86","","","","","","test","TL","1"
"","show_choice","262","416706","0.0-233.0-1.0","""event"",""trial"",""time""
""fullscreenenter"",""0"",""2399""
","
","
","""event"",""trial"",""time""
""fullscreenenter"",""0"",""2399""
","
","null","run_exp/static/images/Set 6_rs/016b.jpg","null","","","","","","test","TL",""
"","html-keyboard-response","263","417212","0.0-233.0-2.0","""event"",""trial"",""time""
""fullscreenenter"",""0"",""2399""
","
","
","""event"",""trial"",""time""
""fullscreenenter"",""0"",""2399""
","
","null","<p></p>","null","","","","","","","",""
"","image","264","418039","0.0-234.0-0.0","""event"",""trial"",""time""
""fullscreenenter"",""0"",""2399""
","
","
","""event"",""trial"",""time""
""fullscreenenter"",""0"",""2399""
","
","825.1999999955297","run_exp/static/images/Set 6_rs/131a.jpg","86","","","","","","test","TR","5"
"","show_choice","265","418543","0.0-234.0-1.0","""event"",""trial"",""time""
""fullscreenenter"",""0"",""2399""
","
","
","""event"",""trial"",""time""
""fullscreenenter"",""0"",""2399""
","
","null","run_exp/static/images/Set 6_rs/131a.jpg","null","","","","","","test","TR",""
"","html-keyboard-response","266","419050","0.0-234.0-2.0","""event"",""trial"",""time""
""fullscreenenter"",""0"",""2399""
","
","
","""event"",""trial"",""time""
""fullscreenenter"",""0"",""2399""
","
","null","<p></p>","null","","","","","","","",""
"","image","267","420887","0.0-235.0-0.0","""event"",""trial"",""time""
""fullscreenenter"",""0"",""2399""
","
","
","""event"",""trial"",""time""
""fullscreenenter"",""0"",""2399""
","
","1834.6000000014901","run_exp/static/images/Set 6_rs/001a.jpg","78","","","","","","test","TF","1"
"","show_choice","268","421392","0.0-235.0-1.0","""event"",""trial"",""time""
""fullscreenenter"",""0"",""2399""
","
","
","""event"",""trial"",""time""
""fullscreenenter"",""0"",""2399""
","
","null","run_exp/static/images/Set 6_rs/001a.jpg","null","","","","","","test","TF",""
"","html-keyboard-response","269","421897","0.0-235.0-2.0","""event"",""trial"",""time""
""fullscreenenter"",""0"",""2399""
","
","
","""event"",""trial"",""time""
""fullscreenenter"",""0"",""2399""
","
","null","<p></p>","null","","","","","","","",""
"","image","270","422910","0.0-236.0-0.0","""event"",""trial"",""time""
""fullscreenenter"",""0"",""2399""
","
","
","""event"",""trial"",""time""
""fullscreenenter"",""0"",""2399""
","
","1010.5999999940395","run_exp/static/images/Set 6_rs/055b.jpg","66","","","","","","test","TL","4"
"","show_choice","271","423414","0.0-236.0-1.0","""event"",""trial"",""time""
""fullscreenenter"",""0"",""2399""
","
","
","""event"",""trial"",""time""
""fullscreenenter"",""0"",""2399""
","
","null","run_exp/static/images/Set 6_rs/055b.jpg","null","","","","","","test","TL",""
"","html-keyboard-response","272","423918","0.0-236.0-2.0","""event"",""trial"",""time""
""fullscreenenter"",""0"",""2399""
","
","
","""event"",""trial"",""time""
""fullscreenenter"",""0"",""2399""
","
","null","<p></p>","null","","","","","","","",""
"","image","273","425459","0.0-237.0-0.0","""event"",""trial"",""time""
""fullscreenenter"",""0"",""2399""
","
","
","""event"",""trial"",""time""
""fullscreenenter"",""0"",""2399""
","
","1537.5","run_exp/static/images/Set 6_rs/086a.jpg","78","","","","","","test","TF","1"
"","show_choice","274","425961","0.0-237.0-1.0","""event"",""trial"",""time""
""fullscreenenter"",""0"",""2399""
","
","
","""event"",""trial"",""time""
""fullscreenenter"",""0"",""2399""
","
","null","run_exp/static/images/Set 6_rs/086a.jpg","null","","","","","","test","TF",""
"","html-keyboard-response","275","426465","0.0-237.0-2.0","""event"",""trial"",""time""
""fullscreenenter"",""0"",""2399""
","
","
","""event"",""trial"",""time""
""fullscreenenter"",""0"",""2399""
","
","null","<p></p>","null","","","","","","","",""
"","image","276","427418","0.0-238.0-0.0","""event"",""trial"",""time""
""fullscreenenter"",""0"",""2399""
","
","
","""event"",""trial"",""time""
""fullscreenenter"",""0"",""2399""
","
","950.3999999985099","run_exp/static/images/Set 6_rs/111b.jpg","86","","","","","","test","TL","3"
"","show_choice","277","427920","0.0-238.0-1.0","""event"",""trial"",""time""
""fullscreenenter"",""0"",""2399""
","
","
","""event"",""trial"",""time""
""fullscreenenter"",""0"",""2399""
","
","null","run_exp/static/images/Set 6_rs/111b.jpg","null","","","","","","test","TL",""
"","html-keyboard-response","278","428428","0.0-238.0-2.0","""event"",""trial"",""time""
""fullscreenenter"",""0"",""2399""
","
","
","""event"",""trial"",""time""
""fullscreenenter"",""0"",""2399""
","
","null","<p></p>","null","","","","","","","",""
"","image","279","430032","0.0-239.0-0.0","""event"",""trial"",""time""
""fullscreenenter"",""0"",""2399""
","
","
","""event"",""trial"",""time""
""fullscreenenter"",""0"",""2399""
","
","1601.6000000014901","run_exp/static/images/Set 6_rs/123b.jpg","66","","","","","","test","TL","2"
"","show_choice","280","430534","0.0-239.0-1.0","""event"",""trial"",""time""
""fullscreenenter"",""0"",""2399""
","
","
","""event"",""trial"",""time""
""fullscreenenter"",""0"",""2399""
","
","null","run_exp/static/images/Set 6_rs/123b.jpg","null","","","","","","test","TL",""
"","html-keyboard-response","281","431041","0.0-239.0-2.0","""event"",""trial"",""time""
""fullscreenenter"",""0"",""2399""
","
","
","""event"",""trial"",""time""
""fullscreenenter"",""0"",""2399""
","
","null","<p></p>","null","","","","","","","",""
"","image","282","431893","0.0-240.0-0.0","""event"",""trial"",""time""
""fullscreenenter"",""0"",""2399""
","
","
","""event"",""trial"",""time""
""fullscreenenter"",""0"",""2399""
","
","849.2999999970198","run_exp/static/images/Set 6_rs/117b.jpg","86","","","","","","test","TL","5"
"","show_choice","283","432397","0.0-240.0-1.0","""event"",""trial"",""time""
""fullscreenenter"",""0"",""2399""
","
","
","""event"",""trial"",""time""
""fullscreenenter"",""0"",""2399""
","
","null","run_exp/static/images/Set 6_rs/117b.jpg","null","","","","","","test","TL",""
"","html-keyboard-response","284","432901","0.0-240.0-2.0","""event"",""trial"",""time""
""fullscreenenter"",""0"",""2399""
","
","
","""event"",""trial"",""time""
""fullscreenenter"",""0"",""2399""
","
","null","<p></p>","null","","","","","","","",""
"","image","285","434258","0.0-241.0-0.0","""event"",""trial"",""time""
""fullscreenenter"",""0"",""2399""
","
","
","""event"",""trial"",""time""
""fullscreenenter"",""0"",""2399""
","
","1354.2000000029802","run_exp/static/images/Set 6_rs/097a.jpg","78","","","","","","test","TF","5"
"","show_choice","286","434761","0.0-241.0-1.0","""event"",""trial"",""time""
""fullscreenenter"",""0"",""2399""
","
","
","""event"",""trial"",""time""
""fullscreenenter"",""0"",""2399""
","
","null","run_exp/static/images/Set 6_rs/097a.jpg","null","","","","","","test","TF",""
"","html-keyboard-response","287","435265","0.0-241.0-2.0","""event"",""trial"",""time""
""fullscreenenter"",""0"",""2399""
","
","
","""event"",""trial"",""time""
""fullscreenenter"",""0"",""2399""
","
","null","<p></p>","null","","","","","","","",""
"","image","288","436453","0.0-242.0-0.0","""event"",""trial"",""time""
""fullscreenenter"",""0"",""2399""
","
","
","""event"",""trial"",""time""
""fullscreenenter"",""0"",""2399""
","
","1184.8999999985099","run_exp/static/images/Set 6_rs/191b.jpg","86","","","","","","test","TL","2"
"","show_choice","289","436958","0.0-242.0-1.0","""event"",""trial"",""time""
""fullscreenenter"",""0"",""2399""
","
","
","""event"",""trial"",""time""
""fullscreenenter"",""0"",""2399""
","
","null","run_exp/static/images/Set 6_rs/191b.jpg","null","","","","","","test","TL",""
"","html-keyboard-response","290","437465","0.0-242.0-2.0","""event"",""trial"",""time""
""fullscreenenter"",""0"",""2399""
","
","
","""event"",""trial"",""time""
""fullscreenenter"",""0"",""2399""
","
","null","<p></p>","null","","","","","","","",""
"","image","291","439449","0.0-243.0-0.0","""event"",""trial"",""time""
""fullscreenenter"",""0"",""2399""
","
","
","""event"",""trial"",""time""
""fullscreenenter"",""0"",""2399""
","
","1981.2000000029802","run_exp/static/images/Set 6_rs/024a.jpg","78","","","","","","test","TR","5"
"","show_choice","292","439951","0.0-243.0-1.0","""event"",""trial"",""time""
""fullscreenenter"",""0"",""2399""
","
","
","""event"",""trial"",""time""
""fullscreenenter"",""0"",""2399""
","
","null","run_exp/static/images/Set 6_rs/024a.jpg","null","","","","","","test","TR",""
"","html-keyboard-response","293","440454","0.0-243.0-2.0","""event"",""trial"",""time""
""fullscreenenter"",""0"",""2399""
","
","
","""event"",""trial"",""time""
""fullscreenenter"",""0"",""2399""
","
","null","<p></p>","null","","","","","","","",""
"","image","294","442597","0.0-244.0-0.0","""event"",""trial"",""time""
""fullscreenenter"",""0"",""2399""
","
","
","""event"",""trial"",""time""
""fullscreenenter"",""0"",""2399""
","
","2140.60000000149","run_exp/static/images/Set 6_rs/140a.jpg","86","","","","","","test","TF","1"
"","show_choice","295","443099","0.0-244.0-1.0","""event"",""trial"",""time""
""fullscreenenter"",""0"",""2399""
","
","
","""event"",""trial"",""time""
""fullscreenenter"",""0"",""2399""
","
","null","run_exp/static/images/Set 6_rs/140a.jpg","null","","","","","","test","TF",""
"","html-keyboard-response","296","443604","0.0-244.0-2.0","""event"",""trial"",""time""
""fullscreenenter"",""0"",""2399""
","
","
","""event"",""trial"",""time""
""fullscreenenter"",""0"",""2399""
","
","null","<p></p>","null","","","","","","","",""
"","image","297","444465","0.0-245.0-0.0","""event"",""trial"",""time""
""fullscreenenter"",""0"",""2399""
","
","
","""event"",""trial"",""time""
""fullscreenenter"",""0"",""2399""
","
","859.2000000029802","run_exp/static/images/Set 6_rs/166a.jpg","86","","","","","","test","TR","1"
"","show_choice","298","444970","0.0-245.0-1.0","""event"",""trial"",""time""
""fullscreenenter"",""0"",""2399""
","
","
","""event"",""trial"",""time""
""fullscreenenter"",""0"",""2399""
","
","null","run_exp/static/images/Set 6_rs/166a.jpg","null","","","","","","test","TR",""
"","html-keyboard-response","299","445476","0.0-245.0-2.0","""event"",""trial"",""time""
""fullscreenenter"",""0"",""2399""
","
","
","""event"",""trial"",""time""
""fullscreenenter"",""0"",""2399""
","
","null","<p></p>","null","","","","","","","",""
"","image","300","446284","0.0-246.0-0.0","""event"",""trial"",""time""
""fullscreenenter"",""0"",""2399""
","
","
","""event"",""trial"",""time""
""fullscreenenter"",""0"",""2399""
","
","806.2000000029802","run_exp/static/images/Set 6_rs/014b.jpg","86","","","","","","test","TL","5"
"","show_choice","301","446787","0.0-246.0-1.0","""event"",""trial"",""time""
""fullscreenenter"",""0"",""2399""
","
","
","""event"",""trial"",""time""
""fullscreenenter"",""0"",""2399""
","
","null","run_exp/static/images/Set 6_rs/014b.jpg","null","","","","","","test","TL",""
"","html-keyboard-response","302","447290","0.0-246.0-2.0","""event"",""trial"",""time""
""fullscreenenter"",""0"",""2399""
","
","
","""event"",""trial"",""time""
""fullscreenenter"",""0"",""2399""
","
","null","<p></p>","null","","","","","","","",""
"","image","303","449068","0.0-247.0-0.0","""event"",""trial"",""time""
""fullscreenenter"",""0"",""2399""
","
","
","""event"",""trial"",""time""
""fullscreenenter"",""0"",""2399""
","
","1775","run_exp/static/images/Set 6_rs/181b.jpg","66","","","","","","test","TL","1"
"","show_choice","304","449572","0.0-247.0-1.0","""event"",""trial"",""time""
""fullscreenenter"",""0"",""2399""
","
","
","""event"",""trial"",""time""
""fullscreenenter"",""0"",""2399""
","
","null","run_exp/static/images/Set 6_rs/181b.jpg","null","","","","","","test","TL",""
"","html-keyboard-response","305","450075","0.0-247.0-2.0","""event"",""trial"",""time""
""fullscreenenter"",""0"",""2399""
","
","
","""event"",""trial"",""time""
""fullscreenenter"",""0"",""2399""
","
","null","<p></p>","null","","","","","","","",""
"","image","306","451523","0.0-248.0-0.0","""event"",""trial"",""time""
""fullscreenenter"",""0"",""2399""
","
","
","""event"",""trial"",""time""
""fullscreenenter"",""0"",""2399""
","
","1445.5","run_exp/static/images/Set 6_rs/168b.jpg","86","","","","","","test","TL","3"
"","show_choice","307","452028","0.0-248.0-1.0","""event"",""trial"",""time""
""fullscreenenter"",""0"",""2399""
","
","
","""event"",""trial"",""time""
""fullscreenenter"",""0"",""2399""
","
","null","run_exp/static/images/Set 6_rs/168b.jpg","null","","","","","","test","TL",""
"","html-keyboard-response","308","452534","0.0-248.0-2.0","""event"",""trial"",""time""
""fullscreenenter"",""0"",""2399""
","
","
","""event"",""trial"",""time""
""fullscreenenter"",""0"",""2399""
","
","null","<p></p>","null","","","","","","","",""
"","image","309","453606","0.0-249.0-0.0","""event"",""trial"",""time""
""fullscreenenter"",""0"",""2399""
","
","
","""event"",""trial"",""time""
""fullscreenenter"",""0"",""2399""
","
","1069.2000000029802","run_exp/static/images/Set 6_rs/141a.jpg","86","","","","","","test","TR","2"
"","show_choice","310","454109","0.0-249.0-1.0","""event"",""trial"",""time""
""fullscreenenter"",""0"",""2399""
","
","
","""event"",""trial"",""time""
""fullscreenenter"",""0"",""2399""
","
","null","run_exp/static/images/Set 6_rs/141a.jpg","null","","","","","","test","TR",""
"","html-keyboard-response","311","454613","0.0-249.0-2.0","""event"",""trial"",""time""
""fullscreenenter"",""0"",""2399""
","
","
","""event"",""trial"",""time""
""fullscreenenter"",""0"",""2399""
","
","null","<p></p>","null","","","","","","","",""
"","image","312","455456","0.0-250.0-0.0","""event"",""trial"",""time""
""fullscreenenter"",""0"",""2399""
","
","
","""event"",""trial"",""time""
""fullscreenenter"",""0"",""2399""
","
","840.1000000014901","run_exp/static/images/Set 6_rs/006b.jpg","86","","","","","","test","TL","2"
"","show_choice","313","455961","0.0-250.0-1.0","""event"",""trial"",""time""
""fullscreenenter"",""0"",""2399""
","
","
","""event"",""trial"",""time""
""fullscreenenter"",""0"",""2399""
","
","null","run_exp/static/images/Set 6_rs/006b.jpg","null","","","","","","test","TL",""
"","html-keyboard-response","314","456464","0.0-250.0-2.0","""event"",""trial"",""time""
""fullscreenenter"",""0"",""2399""
","
","
","""event"",""trial"",""time""
""fullscreenenter"",""0"",""2399""
","
","null","<p></p>","null","","","","","","","",""
"","image","315","457178","0.0-251.0-0.0","""event"",""trial"",""time""
""fullscreenenter"",""0"",""2399""
","
","
","""event"",""trial"",""time""
""fullscreenenter"",""0"",""2399""
","
","710.8999999985099","run_exp/static/images/Set 6_rs/095b.jpg","86","","","","","","test","TL","5"
"","show_choice","316","457683","0.0-251.0-1.0","""event"",""trial"",""time""
""fullscreenenter"",""0"",""2399""
","
","
","""event"",""trial"",""time""
""fullscreenenter"",""0"",""2399""
","
","null","run_exp/static/images/Set 6_rs/095b.jpg","null","","","","","","test","TL",""
"","html-keyboard-response","317","458187","0.0-251.0-2.0","""event"",""trial"",""time""
""fullscreenenter"",""0"",""2399""
","
","
","""event"",""trial"",""time""
""fullscreenenter"",""0"",""2399""
","
","null","<p></p>","null","","","","","","","",""
"","image","318","459799","0.0-252.0-0.0","""event"",""trial"",""time""
""fullscreenenter"",""0"",""2399""
","
","
","""event"",""trial"",""time""
""fullscreenenter"",""0"",""2399""
","
","1609.6000000014901","run_exp/static/images/Set 6_rs/011a.jpg","66","","","","","","test","TF","3"
"","show_choice","319","460302","0.0-252.0-1.0","""event"",""trial"",""time""
""fullscreenenter"",""0"",""2399""
","
","
","""event"",""trial"",""time""
""fullscreenenter"",""0"",""2399""
","
","null","run_exp/static/images/Set 6_rs/011a.jpg","null","","","","","","test","TF",""
"","html-keyboard-response","320","460805","0.0-252.0-2.0","""event"",""trial"",""time""
""fullscreenenter"",""0"",""2399""
","
","
","""event"",""trial"",""time""
""fullscreenenter"",""0"",""2399""
","
","null","<p></p>","null","","","","","","","",""
"","image","321","461853","0.0-253.0-0.0","""event"",""trial"",""time""
""fullscreenenter"",""0"",""2399""
","
","
","""event"",""trial"",""time""
""fullscreenenter"",""0"",""2399""
","
","1045.4000000059605","run_exp/static/images/Set 6_rs/100a.jpg","78","","","","","","test","TF","2"
"","show_choice","322","462356","0.0-253.0-1.0","""event"",""trial"",""time""
""fullscreenenter"",""0"",""2399""
","
","
","""event"",""trial"",""time""
""fullscreenenter"",""0"",""2399""
","
","null","run_exp/static/images/Set 6_rs/100a.jpg","null","","","","","","test","TF",""
"","html-keyboard-response","323","462860","0.0-253.0-2.0","""event"",""trial"",""time""
""fullscreenenter"",""0"",""2399""
","
","
","""event"",""trial"",""time""
""fullscreenenter"",""0"",""2399""
","
","null","<p></p>","null","","","","","","","",""
"","image","324","464075","0.0-254.0-0.0","""event"",""trial"",""time""
""fullscreenenter"",""0"",""2399""
","
","
","""event"",""trial"",""time""
""fullscreenenter"",""0"",""2399""
","
","1212.6000000014901","run_exp/static/images/Set 6_rs/050b.jpg","86","","","","","","test","TL","3"
"","show_choice","325","464578","0.0-254.0-1.0","""event"",""trial"",""time""
""fullscreenenter"",""0"",""2399""
","
","
","""event"",""trial"",""time""
""fullscreenenter"",""0"",""2399""
","
","null","run_exp/static/images/Set 6_rs/050b.jpg","null","","","","","","test","TL",""
"","html-keyboard-response","326","465082","0.0-254.0-2.0","""event"",""trial"",""time""
""fullscreenenter"",""0"",""2399""
","
","
","""event"",""trial"",""time""
""fullscreenenter"",""0"",""2399""
","
","null","<p></p>","null","","","","","","","",""
"","image","327","466583","0.0-255.0-0.0","""event"",""trial"",""time""
""fullscreenenter"",""0"",""2399""
","
","
","""event"",""trial"",""time""
""fullscreenenter"",""0"",""2399""
","
","1498.6000000014901","run_exp/static/images/Set 6_rs/057b.jpg","86","","","","","","test","TL","1"
"","show_choice","328","467088","0.0-255.0-1.0","""event"",""trial"",""time""
""fullscreenenter"",""0"",""2399""
","
","
","""event"",""trial"",""time""
""fullscreenenter"",""0"",""2399""
","
","null","run_exp/static/images/Set 6_rs/057b.jpg","null","","","","","","test","TL",""
"","html-keyboard-response","329","467595","0.0-255.0-2.0","""event"",""trial"",""time""
""fullscreenenter"",""0"",""2399""
","
","
","""event"",""trial"",""time""
""fullscreenenter"",""0"",""2399""
","
","null","<p></p>","null","","","","","","","",""
"","image","330","468312","0.0-256.0-0.0","""event"",""trial"",""time""
""fullscreenenter"",""0"",""2399""
","
","
","""event"",""trial"",""time""
""fullscreenenter"",""0"",""2399""
","
","713.8999999985099","run_exp/static/images/Set 6_rs/063a.jpg","86","","","","","","test","TR","2"
"","show_choice","331","468816","0.0-256.0-1.0","""event"",""trial"",""time""
""fullscreenenter"",""0"",""2399""
","
","
","""event"",""trial"",""time""
""fullscreenenter"",""0"",""2399""
","
","null","run_exp/static/images/Set 6_rs/063a.jpg","null","","","","","","test","TR",""
"","html-keyboard-response","332","469319","0.0-256.0-2.0","""event"",""trial"",""time""
""fullscreenenter"",""0"",""2399""
","
","
","""event"",""trial"",""time""
""fullscreenenter"",""0"",""2399""
","
","null","<p></p>","null","","","","","","","",""
"","image","333","470047","0.0-257.0-0.0","""event"",""trial"",""time""
""fullscreenenter"",""0"",""2399""
","
","
","""event"",""trial"",""time""
""fullscreenenter"",""0"",""2399""
","
","724.8999999985099","run_exp/static/images/Set 6_rs/186a.jpg","86","","","","","","test","TR","5"
"","show_choice","334","470550","0.0-257.0-1.0","""event"",""trial"",""time""
""fullscreenenter"",""0"",""2399""
","
","
","""event"",""trial"",""time""
""fullscreenenter"",""0"",""2399""
","
","null","run_exp/static/images/Set 6_rs/186a.jpg","null","","","","","","test","TR",""
"","html-keyboard-response","335","471055","0.0-257.0-2.0","""event"",""trial"",""time""
""fullscreenenter"",""0"",""2399""
","
","
","""event"",""trial"",""time""
""fullscreenenter"",""0"",""2399""
","
","null","<p></p>","null","","","","","","","",""
"","image","336","473173","0.0-258.0-0.0","""event"",""trial"",""time""
""fullscreenenter"",""0"",""2399""
","
","
","""event"",""trial"",""time""
""fullscreenenter"",""0"",""2399""
","
","2115.39999999851","run_exp/static/images/Set 6_rs/138b.jpg","86","","","","","","test","TL","1"
"","show_choice","337","473675","0.0-258.0-1.0","""event"",""trial"",""time""
""fullscreenenter"",""0"",""2399""
","
","
","""event"",""trial"",""time""
""fullscreenenter"",""0"",""2399""
","
","null","run_exp/static/images/Set 6_rs/138b.jpg","null","","","","","","test","TL",""
"","html-keyboard-response","338","474182","0.0-258.0-2.0","""event"",""trial"",""time""
""fullscreenenter"",""0"",""2399""
","
","
","""event"",""trial"",""time""
""fullscreenenter"",""0"",""2399""
","
","null","<p></p>","null","","","","","","","",""
"","image","339","475894","0.0-259.0-0.0","""event"",""trial"",""time""
""fullscreenenter"",""0"",""2399""
","
","
","""event"",""trial"",""time""
""fullscreenenter"",""0"",""2399""
","
","1709","run_exp/static/images/Set 6_rs/136a.jpg","66","","","","","","test","TF","4"
"","show_choice","340","476397","0.0-259.0-1.0","""event"",""trial"",""time""
""fullscreenenter"",""0"",""2399""
","
","
","""event"",""trial"",""time""
""fullscreenenter"",""0"",""2399""
","
","null","run_exp/static/images/Set 6_rs/136a.jpg","null","","","","","","test","TF",""
