"success","trial_type","trial_index","time_elapsed","internal_node_id","rt","stimulus","key_press","subject_id","participant_id","age","gender","prompt","phase","condition","lure_bin"
"true","fullscreen","0","41801","0.0-0.0","","","","","","","","","","",""
"","pavlovia","1","41808","0.0-1.0","","","","","","","","","","",""
"","welcome","2","78858","0.0-2.0","null","run_exp/static/audio/clip_1_welcome.m4a","null","163","385","8","Male","<div class='center'><p>This is your last game of the experiment! First, you'll be shown pictures of items one at a time. For each picture, you have to decide if the item is typically found indoors or outdoors.</p><p>If you think it's usually found indoors, then press <b>v</b> key on your keyboard. If you think it's usually found outdoors, then press the <b>n</b> key.There will be reminders on the screen to help you remember which keys to press. </p><p>If you're not sure whether the item is an indoor item or outdoor item, go ahead and take a guess but try your best not to skip that choice. </p></div>","","",""
"","html-keyboard-response","3","79717","0.0-3.0","851.7999999970198","<div class='center'><p>This is your last game of the experiment! First, you'll be shown pictures of items one at a time. For each picture, you have to decide if the item is typically found indoors or outdoors.</p><p>If you think it's usually found indoors, then press <b>v</b> key on your keyboard. If you think it's usually found outdoors, then press the <b>n</b> key.There will be reminders on the screen to help you remember which keys to press. </p><p>If you're not sure whether the item is an indoor item or outdoor item, go ahead and take a guess but try your best not to skip that choice. </p><div><p><b>[Press the space bar to continue]</b></p></div>","32","","","","","","","",""
"","image","4","81283","0.0-4.0","1561.7999999970198","run_exp/static/images/Set 6_rs/010a.jpg","78","","","","","","learn","SR",""
"","show_choice","5","81730","0.0-5.0","null","run_exp/static/images/Set 6_rs/010a.jpg","null","","","","","","learn","SR",""
"","html-keyboard-response","6","82243","0.0-6.0","null","<p></p>","null","","","","","","","",""
"","image","7","83866","0.0-7.0","1620.4000000059605","run_exp/static/images/Set 6_rs/134a.jpg","86","","","","","","learn","SR",""
"","show_choice","8","84256","0.0-8.0","null","run_exp/static/images/Set 6_rs/134a.jpg","null","","","","","","learn","SR",""
"","html-keyboard-response","9","84761","0.0-9.0","null","<p></p>","null","","","","","","","",""
"","image","10","85843","0.0-10.0","1079.2999999970198","run_exp/static/images/Set 6_rs/014a.jpg","86","","","","","","learn","SL",""
"","show_choice","11","86769","0.0-11.0","null","run_exp/static/images/Set 6_rs/014a.jpg","null","","","","","","learn","SL",""
"","html-keyboard-response","12","87271","0.0-12.0","null","<p></p>","null","","","","","","","",""
"","image","13","89281","0.0-13.0","null","run_exp/static/images/Set 6_rs/122a.jpg","null","","","","","","learn","SR",""
"","show_choice","14","91284","0.0-14.0","null","run_exp/static/images/blank.png","null","","","","","","learn","SR",""
"","html-keyboard-response","15","91790","0.0-15.0","null","<p></p>","null","","","","","","","",""
"","image","16","92935","0.0-16.0","1141.7999999970198","run_exp/static/images/Set 6_rs/036a.jpg","86","","","","","","learn","SL",""
"","show_choice","17","93799","0.0-17.0","null","run_exp/static/images/Set 6_rs/036a.jpg","null","","","","","","learn","SL",""
"","html-keyboard-response","18","94302","0.0-18.0","null","<p></p>","null","","","","","","","",""
"","image","19","96176","0.0-19.0","1871.2999999970198","run_exp/static/images/Set 6_rs/061a.jpg","78","","","","","","learn","SR",""
"","show_choice","20","96310","0.0-20.0","null","run_exp/static/images/Set 6_rs/061a.jpg","null","","","","","","learn","SR",""
"","html-keyboard-response","21","96815","0.0-21.0","null","<p></p>","null","","","","","","","",""
"","image","22","98156","0.0-22.0","1338.2999999970198","run_exp/static/images/Set 6_rs/050a.jpg","86","","","","","","learn","SL",""
"","show_choice","23","98821","0.0-23.0","null","run_exp/static/images/Set 6_rs/050a.jpg","null","","","","","","learn","SL",""
"","html-keyboard-response","24","99326","0.0-24.0","null","<p></p>","null","","","","","","","",""
"","image","25","100599","0.0-25.0","1270.2999999970198","run_exp/static/images/Set 6_rs/075a.jpg","86","","","","","","learn","SR",""
"","show_choice","26","101332","0.0-26.0","null","run_exp/static/images/Set 6_rs/075a.jpg","null","","","","","","learn","SR",""
"","html-keyboard-response","27","101835","0.0-27.0","null","<p></p>","null","","","","","","","",""
"","image","28","103233","0.0-28.0","1395.7000000029802","run_exp/static/images/Set 6_rs/123a.jpg","78","","","","","","learn","SL",""
"","show_choice","29","103851","0.0-29.0","null","run_exp/static/images/Set 6_rs/123a.jpg","null","","","","","","learn","SL",""
"","html-keyboard-response","30","104360","0.0-30.0","null","<p></p>","null","","","","","","","",""
"","image","31","105721","0.0-31.0","1359.9000000059605","run_exp/static/images/Set 6_rs/138a.jpg","78","","","","","","learn","SL",""
"","show_choice","32","106367","0.0-32.0","null","run_exp/static/images/Set 6_rs/138a.jpg","null","","","","","","learn","SL",""
"","html-keyboard-response","33","106874","0.0-33.0","null","<p></p>","null","","","","","","","",""
"","image","34","108487","0.0-34.0","1610.5999999940395","run_exp/static/images/Set 6_rs/108a.jpg","78","","","","","","learn","SR",""
"","show_choice","35","108881","0.0-35.0","null","run_exp/static/images/Set 6_rs/108a.jpg","null","","","","","","learn","SR",""
"","html-keyboard-response","36","109384","0.0-36.0","null","<p></p>","null","","","","","","","",""
"","image","37","110696","0.0-37.0","1309.4000000059605","run_exp/static/images/Set 6_rs/167a.jpg","86","","","","","","learn","SL",""
"","show_choice","38","111399","0.0-38.0","null","run_exp/static/images/Set 6_rs/167a.jpg","null","","","","","","learn","SL",""
"","html-keyboard-response","39","111905","0.0-39.0","null","<p></p>","null","","","","","","","",""
"","image","40","113237","0.0-40.0","1329.7000000029802","run_exp/static/images/Set 6_rs/131a.jpg","86","","","","","","learn","SR",""
"","show_choice","41","113925","0.0-41.0","null","run_exp/static/images/Set 6_rs/131a.jpg","null","","","","","","learn","SR",""
"","html-keyboard-response","42","114428","0.0-42.0","null","<p></p>","null","","","","","","","",""
"","image","43","115723","0.0-43.0","1292.5","run_exp/static/images/Set 6_rs/144a.jpg","86","","","","","","learn","SL",""
"","show_choice","44","116445","0.0-44.0","null","run_exp/static/images/Set 6_rs/144a.jpg","null","","","","","","learn","SL",""
"","html-keyboard-response","45","116961","0.0-45.0","null","<p></p>","null","","","","","","","",""
"","image","46","118018","0.0-46.0","1055.3999999910593","run_exp/static/images/Set 6_rs/025a.jpg","78","","","","","","learn","SL",""
"","show_choice","47","118974","0.0-47.0","null","run_exp/static/images/Set 6_rs/025a.jpg","null","","","","","","learn","SL",""
"","html-keyboard-response","48","119488","0.0-48.0","null","<p></p>","null","","","","","","","",""
"","image","49","120979","0.0-49.0","1489","run_exp/static/images/Set 6_rs/117a.jpg","86","","","","","","learn","SL",""
"","show_choice","50","121493","0.0-50.0","null","run_exp/static/images/Set 6_rs/117a.jpg","null","","","","","","learn","SL",""
"","html-keyboard-response","51","121996","0.0-51.0","null","<p></p>","null","","","","","","","",""
"","image","52","123366","0.0-52.0","1367.6000000089407","run_exp/static/images/Set 6_rs/141a.jpg","86","","","","","","learn","SR",""
"","show_choice","53","124011","0.0-53.0","null","run_exp/static/images/Set 6_rs/141a.jpg","null","","","","","","learn","SR",""
"","html-keyboard-response","54","124515","0.0-54.0","null","<p></p>","null","","","","","","","",""
"","image","55","125617","0.0-55.0","1099.2000000029802","run_exp/static/images/Set 6_rs/178a.jpg","78","","","","","","learn","SR",""
"","show_choice","56","126522","0.0-56.0","null","run_exp/static/images/Set 6_rs/178a.jpg","null","","","","","","learn","SR",""
"","html-keyboard-response","57","127027","0.0-57.0","null","<p></p>","null","","","","","","","",""
"","image","58","129040","0.0-58.0","null","run_exp/static/images/Set 6_rs/191a.jpg","null","","","","","","learn","SL",""
"","show_choice","59","131053","0.0-59.0","null","run_exp/static/images/blank.png","null","","","","","","learn","SL",""
"","html-keyboard-response","60","131558","0.0-60.0","null","<p></p>","null","","","","","","","",""
"","image","61","133037","0.0-61.0","1477.2000000029802","run_exp/static/images/Set 6_rs/074a.jpg","78","","","","","","learn","SL",""
"","show_choice","62","133561","0.0-62.0","null","run_exp/static/images/Set 6_rs/074a.jpg","null","","","","","","learn","SL",""
"","html-keyboard-response","63","134064","0.0-63.0","null","<p></p>","null","","","","","","","",""
"","image","64","135036","0.0-64.0","969.7999999970198","run_exp/static/images/Set 6_rs/172a.jpg","86","","","","","","learn","SR",""
"","show_choice","65","136072","0.0-65.0","null","run_exp/static/images/Set 6_rs/172a.jpg","null","","","","","","learn","SR",""
"","html-keyboard-response","66","136575","0.0-66.0","null","<p></p>","null","","","","","","","",""
"","image","67","138592","0.0-67.0","null","run_exp/static/images/Set 6_rs/017a.jpg","null","","","","","","learn","SL",""
"","show_choice","68","140595","0.0-68.0","null","run_exp/static/images/blank.png","null","","","","","","learn","SL",""
"","html-keyboard-response","69","141101","0.0-69.0","null","<p></p>","null","","","","","","","",""
"","image","70","142248","0.0-70.0","1143.8999999910593","run_exp/static/images/Set 6_rs/095a.jpg","86","","","","","","learn","SL",""
"","show_choice","71","143108","0.0-71.0","null","run_exp/static/images/Set 6_rs/095a.jpg","null","","","","","","learn","SL",""
"","html-keyboard-response","72","143612","0.0-72.0","null","<p></p>","null","","","","","","","",""
"","image","73","145260","0.0-73.0","1645.7000000029802","run_exp/static/images/Set 6_rs/126a.jpg","78","","","","","","learn","SR",""
"","show_choice","74","145617","0.0-74.0","null","run_exp/static/images/Set 6_rs/126a.jpg","null","","","","","","learn","SR",""
"","html-keyboard-response","75","146122","0.0-75.0","null","<p></p>","null","","","","","","","",""
"","image","76","147309","0.0-76.0","1184.699999988079","run_exp/static/images/Set 6_rs/045a.jpg","86","","","","","","learn","SR",""
"","show_choice","77","148127","0.0-77.0","null","run_exp/static/images/Set 6_rs/045a.jpg","null","","","","","","learn","SR",""
"","html-keyboard-response","78","148629","0.0-78.0","null","<p></p>","null","","","","","","","",""
"","image","79","149926","0.0-79.0","1294.9000000059605","run_exp/static/images/Set 6_rs/073a.jpg","86","","","","","","learn","SL",""
"","show_choice","80","150634","0.0-80.0","null","run_exp/static/images/Set 6_rs/073a.jpg","null","","","","","","learn","SL",""
"","html-keyboard-response","81","151143","0.0-81.0","null","<p></p>","null","","","","","","","",""
"","image","82","152217","0.0-82.0","1072.6000000089407","run_exp/static/images/Set 6_rs/019a.jpg","86","","","","","","learn","SL",""
"","show_choice","83","153150","0.0-83.0","null","run_exp/static/images/Set 6_rs/019a.jpg","null","","","","","","learn","SL",""
"","html-keyboard-response","84","153656","0.0-84.0","null","<p></p>","null","","","","","","","",""
"","image","85","154586","0.0-85.0","927.4000000059605","run_exp/static/images/Set 6_rs/006a.jpg","86","","","","","","learn","SL",""
"","show_choice","86","155663","0.0-86.0","null","run_exp/static/images/Set 6_rs/006a.jpg","null","","","","","","learn","SL",""
"","html-keyboard-response","87","156167","0.0-87.0","null","<p></p>","null","","","","","","","",""
"","image","88","157289","0.0-88.0","1120.0999999940395","run_exp/static/images/Set 6_rs/186a.jpg","86","","","","","","learn","SR",""
"","show_choice","89","158184","0.0-89.0","null","run_exp/static/images/Set 6_rs/186a.jpg","null","","","","","","learn","SR",""
"","html-keyboard-response","90","158690","0.0-90.0","null","<p></p>","null","","","","","","","",""
"","image","91","159962","0.0-91.0","1270.5","run_exp/static/images/Set 6_rs/150a.jpg","86","","","","","","learn","SR",""
"","show_choice","92","160695","0.0-92.0","null","run_exp/static/images/Set 6_rs/150a.jpg","null","","","","","","learn","SR",""
"","html-keyboard-response","93","161207","0.0-93.0","null","<p></p>","null","","","","","","","",""
"","image","94","162030","0.0-94.0","820.9000000059605","run_exp/static/images/Set 6_rs/007a.jpg","86","","","","","","learn","SR",""
"","show_choice","95","163223","0.0-95.0","null","run_exp/static/images/Set 6_rs/007a.jpg","null","","","","","","learn","SR",""
"","html-keyboard-response","96","163739","0.0-96.0","null","<p></p>","null","","","","","","","",""
"","image","97","164891","0.0-97.0","1150.6000000089407","run_exp/static/images/Set 6_rs/168a.jpg","78","","","","","","learn","SL",""
"","show_choice","98","165756","0.0-98.0","null","run_exp/static/images/Set 6_rs/168a.jpg","null","","","","","","learn","SL",""
"","html-keyboard-response","99","166271","0.0-99.0","null","<p></p>","null","","","","","","","",""
"","image","100","167228","0.0-100.0","955","run_exp/static/images/Set 6_rs/085a.jpg","78","","","","","","learn","SL",""
"","show_choice","101","168282","0.0-101.0","null","run_exp/static/images/Set 6_rs/085a.jpg","null","","","","","","learn","SL",""
"","html-keyboard-response","102","168788","0.0-102.0","null","<p></p>","null","","","","","","","",""
"","image","103","170797","0.0-103.0","null","run_exp/static/images/Set 6_rs/121a.jpg","null","","","","","","learn","SR",""
"","show_choice","104","172804","0.0-104.0","null","run_exp/static/images/blank.png","null","","","","","","learn","SR",""
"","html-keyboard-response","105","173311","0.0-105.0","null","<p></p>","null","","","","","","","",""
"","image","106","174761","0.0-106.0","1447.7000000029802","run_exp/static/images/Set 6_rs/154a.jpg","86","","","","","","learn","SR",""
"","show_choice","107","175317","0.0-107.0","null","run_exp/static/images/Set 6_rs/154a.jpg","null","","","","","","learn","SR",""
"","html-keyboard-response","108","175823","0.0-108.0","null","<p></p>","null","","","","","","","",""
"","image","109","176815","0.0-109.0","990","run_exp/static/images/Set 6_rs/181a.jpg","78","","","","","","learn","SL",""
"","show_choice","110","177836","0.0-110.0","null","run_exp/static/images/Set 6_rs/181a.jpg","null","","","","","","learn","SL",""
"","html-keyboard-response","111","178338","0.0-111.0","null","<p></p>","null","","","","","","","",""
"","image","112","179879","0.0-112.0","1537.800000011921","run_exp/static/images/Set 6_rs/111a.jpg","86","","","","","","learn","SL",""
"","show_choice","113","180358","0.0-113.0","null","run_exp/static/images/Set 6_rs/111a.jpg","null","","","","","","learn","SL",""
"","html-keyboard-response","114","180859","0.0-114.0","null","<p></p>","null","","","","","","","",""
"","image","115","182108","0.0-115.0","1245.8999999910593","run_exp/static/images/Set 6_rs/169a.jpg","78","","","","","","learn","SR",""
"","show_choice","116","182866","0.0-116.0","null","run_exp/static/images/Set 6_rs/169a.jpg","null","","","","","","learn","SR",""
"","html-keyboard-response","117","183374","0.0-117.0","null","<p></p>","null","","","","","","","",""
"","image","118","184915","0.0-118.0","1538.7999999970198","run_exp/static/images/Set 6_rs/024a.jpg","86","","","","","","learn","SR",""
"","show_choice","119","185392","0.0-119.0","null","run_exp/static/images/Set 6_rs/024a.jpg","null","","","","","","learn","SR",""
"","html-keyboard-response","120","185898","0.0-120.0","null","<p></p>","null","","","","","","","",""
"","image","121","187366","0.0-121.0","1466","run_exp/static/images/Set 6_rs/057a.jpg","86","","","","","","learn","SL",""
"","show_choice","122","187917","0.0-122.0","null","run_exp/static/images/Set 6_rs/057a.jpg","null","","","","","","learn","SL",""
"","html-keyboard-response","123","188434","0.0-123.0","null","<p></p>","null","","","","","","","",""
"","image","124","189701","0.0-124.0","1263.2999999970198","run_exp/static/images/Set 6_rs/066a.jpg","78","","","","","","learn","SL",""
"","show_choice","125","190449","0.0-125.0","null","run_exp/static/images/Set 6_rs/066a.jpg","null","","","","","","learn","SL",""
"","html-keyboard-response","126","190952","0.0-126.0","null","<p></p>","null","","","","","","","",""
"","image","127","192647","0.0-127.0","1692.4000000059605","run_exp/static/images/Set 6_rs/166a.jpg","86","","","","","","learn","SR",""
"","show_choice","128","192957","0.0-128.0","null","run_exp/static/images/Set 6_rs/166a.jpg","null","","","","","","learn","SR",""
"","html-keyboard-response","129","193461","0.0-129.0","null","<p></p>","null","","","","","","","",""
"","image","130","195077","0.0-130.0","1613.7999999970198","run_exp/static/images/Set 6_rs/062a.jpg","86","","","","","","learn","SL",""
"","show_choice","131","195465","0.0-131.0","null","run_exp/static/images/Set 6_rs/062a.jpg","null","","","","","","learn","SL",""
"","html-keyboard-response","132","195968","0.0-132.0","null","<p></p>","null","","","","","","","",""
"","image","133","197043","0.0-133.0","1072.199999988079","run_exp/static/images/Set 6_rs/076a.jpg","78","","","","","","learn","SR",""
"","show_choice","134","197972","0.0-134.0","null","run_exp/static/images/Set 6_rs/076a.jpg","null","","","","","","learn","SR",""
"","html-keyboard-response","135","198476","0.0-135.0","null","<p></p>","null","","","","","","","",""
"","image","136","199372","0.0-136.0","893.9000000059605","run_exp/static/images/Set 6_rs/079a.jpg","86","","","","","","learn","SL",""
"","show_choice","137","200486","0.0-137.0","null","run_exp/static/images/Set 6_rs/079a.jpg","null","","","","","","learn","SL",""
"","html-keyboard-response","138","200991","0.0-138.0","null","<p></p>","null","","","","","","","",""
"","image","139","202838","0.0-139.0","1844.6000000089407","run_exp/static/images/Set 6_rs/088a.jpg","86","","","","","","learn","SR",""
"","show_choice","140","203008","0.0-140.0","null","run_exp/static/images/Set 6_rs/088a.jpg","null","","","","","","learn","SR",""
"","html-keyboard-response","141","203513","0.0-141.0","null","<p></p>","null","","","","","","","",""
"","image","142","204487","0.0-142.0","971.6000000089407","run_exp/static/images/Set 6_rs/070a.jpg","86","","","","","","learn","SR",""
"","show_choice","143","205517","0.0-143.0","null","run_exp/static/images/Set 6_rs/070a.jpg","null","","","","","","learn","SR",""
"","html-keyboard-response","144","206024","0.0-144.0","null","<p></p>","null","","","","","","","",""
"","image","145","206763","0.0-145.0","737.6000000089407","run_exp/static/images/Set 6_rs/089a.jpg","86","","","","","","learn","SL",""
"","show_choice","146","208030","0.0-146.0","null","run_exp/static/images/Set 6_rs/089a.jpg","null","","","","","","learn","SL",""
"","html-keyboard-response","147","208533","0.0-147.0","null","<p></p>","null","","","","","","","",""
"","image","148","209511","0.0-148.0","975.0999999940395","run_exp/static/images/Set 6_rs/132a.jpg","86","","","","","","learn","SR",""
"","show_choice","149","210537","0.0-149.0","null","run_exp/static/images/Set 6_rs/132a.jpg","null","","","","","","learn","SR",""
"","html-keyboard-response","150","211044","0.0-150.0","null","<p></p>","null","","","","","","","",""
"","image","151","212386","0.0-151.0","1338.6000000089407","run_exp/static/images/Set 6_rs/012a.jpg","86","","","","","","learn","SR",""
"","show_choice","152","213061","0.0-152.0","null","run_exp/static/images/Set 6_rs/012a.jpg","null","","","","","","learn","SR",""
"","html-keyboard-response","153","213567","0.0-153.0","null","<p></p>","null","","","","","","","",""
"","image","154","214829","0.0-154.0","1259.2999999970198","run_exp/static/images/Set 6_rs/071a.jpg","78","","","","","","learn","SL",""
"","show_choice","155","215571","0.0-155.0","null","run_exp/static/images/Set 6_rs/071a.jpg","null","","","","","","learn","SL",""
"","html-keyboard-response","156","216074","0.0-156.0","null","<p></p>","null","","","","","","","",""
"","image","157","218082","0.0-157.0","null","run_exp/static/images/Set 6_rs/016a.jpg","null","","","","","","learn","SL",""
"","show_choice","158","220097","0.0-158.0","null","run_exp/static/images/blank.png","null","","","","","","learn","SL",""
"","html-keyboard-response","159","220602","0.0-159.0","null","<p></p>","null","","","","","","","",""
"","image","160","221530","0.0-160.0","925.7999999970198","run_exp/static/images/Set 6_rs/055a.jpg","86","","","","","","learn","SL",""
"","show_choice","161","222618","0.0-161.0","null","run_exp/static/images/Set 6_rs/055a.jpg","null","","","","","","learn","SL",""
"","html-keyboard-response","162","223120","0.0-162.0","null","<p></p>","null","","","","","","","",""
"","image","163","224675","0.0-163.0","1553.2999999970198","run_exp/static/images/Set 6_rs/129a.jpg","86","","","","","","learn","SL",""
"","show_choice","164","225124","0.0-164.0","null","run_exp/static/images/Set 6_rs/129a.jpg","null","","","","","","learn","SL",""
"","html-keyboard-response","165","225630","0.0-165.0","null","<p></p>","null","","","","","","","",""
"","image","166","227092","0.0-166.0","1459.5999999940395","run_exp/static/images/Set 6_rs/091a.jpg","78","","","","","","learn","SL",""
"","show_choice","167","227645","0.0-167.0","null","run_exp/static/images/Set 6_rs/091a.jpg","null","","","","","","learn","SL",""
"","html-keyboard-response","168","228149","0.0-168.0","null","<p></p>","null","","","","","","","",""
"","image","169","229441","0.0-169.0","1289.6000000089407","run_exp/static/images/Set 6_rs/008a.jpg","78","","","","","","learn","SL",""
"","show_choice","170","230165","0.0-170.0","null","run_exp/static/images/Set 6_rs/008a.jpg","null","","","","","","learn","SL",""
"","html-keyboard-response","171","230670","0.0-171.0","null","<p></p>","null","","","","","","","",""
"","image","172","231432","0.0-172.0","759.0999999940395","run_exp/static/images/Set 6_rs/112a.jpg","86","","","","","","learn","SR",""
"","show_choice","173","232684","0.0-173.0","null","run_exp/static/images/Set 6_rs/112a.jpg","null","","","","","","learn","SR",""
"","html-keyboard-response","174","233190","0.0-174.0","null","<p></p>","null","","","","","","","",""
"","image","175","234595","0.0-175.0","1403.2000000029802","run_exp/static/images/Set 6_rs/063a.jpg","78","","","","","","learn","SR",""
"","show_choice","176","235194","0.0-176.0","null","run_exp/static/images/Set 6_rs/063a.jpg","null","","","","","","learn","SR",""
"","html-keyboard-response","177","235701","0.0-177.0","null","<p></p>","null","","","","","","","",""
"","image","178","236983","0.0-178.0","1279.9000000059605","run_exp/static/images/Set 6_rs/064a.jpg","86","","","","","","learn","SR",""
"","show_choice","179","237706","0.0-179.0","null","run_exp/static/images/Set 6_rs/064a.jpg","null","","","","","","learn","SR",""
"","html-keyboard-response","180","238213","0.0-180.0","null","<p></p>","null","","","","","","","",""
"","image","181","239954","0.0-181.0","1739.1000000089407","run_exp/static/images/Set 6_rs/116a.jpg","78","","","","","","learn","SL",""
"","show_choice","182","240217","0.0-182.0","null","run_exp/static/images/Set 6_rs/116a.jpg","null","","","","","","learn","SL",""
"","html-keyboard-response","183","240721","0.0-183.0","null","<p></p>","null","","","","","","","",""
"","image","184","242727","0.0-184.0","null","run_exp/static/images/Set 6_rs/187a.jpg","null","","","","","","learn","SR",""
"","show_choice","185","244732","0.0-185.0","null","run_exp/static/images/blank.png","null","","","","","","learn","SR",""
"","html-keyboard-response","186","245236","0.0-186.0","null","<p></p>","null","","","","","","","",""
"","image","187","246243","0.0-187.0","1004.5","run_exp/static/images/Set 6_rs/177a.jpg","78","","","","","","learn","SR",""
"","show_choice","188","247256","0.0-188.0","null","run_exp/static/images/Set 6_rs/177a.jpg","null","","","","","","learn","SR",""
"","html-keyboard-response","189","247757","0.0-189.0","null","<p></p>","null","","","","","","","",""
"","image","190","248921","0.0-190.0","1161.7999999970198","run_exp/static/images/Set 6_rs/152a.jpg","78","","","","","","learn","SR",""
"","show_choice","191","249763","0.0-191.0","null","run_exp/static/images/Set 6_rs/152a.jpg","null","","","","","","learn","SR",""
"","html-keyboard-response","192","250267","0.0-192.0","null","<p></p>","null","","","","","","","",""
"","image","193","252044","0.0-193.0","1775.0999999940395","run_exp/static/images/Set 6_rs/023a.jpg","86","","","","","","learn","SR",""
"","show_choice","194","252273","0.0-194.0","null","run_exp/static/images/Set 6_rs/023a.jpg","null","","","","","","learn","SR",""
"","html-keyboard-response","195","252778","0.0-195.0","null","<p></p>","null","","","","","","","",""
"","test_intro","196","290971","0.0-196.0","null","run_exp/static/audio/clip_2_memory.m4a","null","","","","","<div class='center'><p>Now, let’s see how much you remember about the items you just saw.  For each item, you need to indicate if it was <b>old</b> by pressing the <b>v</b> key, <b>similar</b> by pressing the <b>b</b> key, or <b>new</b> by pressing the <b>n</b> key.</p><p>Old refers to an item that you saw before in the indoor/outdoor game that you just played, new refers to an item you have <b>not</b> seen before within the indoor/outdoor game, and similar refers to an item that is similar to an item you’ve seen before but is not exactly the same. </p><p>Before we begin, let’s go over some brief demonstrations to make sure you understand.</p></div>","","",""
"","html-keyboard-response","197","291858","0.0-197.0","884","<div class='center'><p>Now, let’s see how much you remember about the items you just saw.  For each item, you need to indicate if it was <b>old</b> by pressing the <b>v</b> key, <b>similar</b> by pressing the <b>b</b> key, or <b>new</b> by pressing the <b>n</b> key.</p><p>Old refers to an item that you saw before in the indoor/outdoor game that you just played, new refers to an item you have <b>not</b> seen before within the indoor/outdoor game, and similar refers to an item that is similar to an item you’ve seen before but is not exactly the same. </p><p>Before we begin, let’s go over some brief demonstrations to make sure you understand.</p><div><p><b>[Press the space bar to continue]</b></p></div>","32","","","","","","","",""
"","items","198","299375","0.0-198.0","null","run_exp/static/audio/clip_3_items.m4a","null","","","","","","","",""
"","mop","199","303894","0.0-199.0","null","run_exp/static/audio/clip_4_mop.m4a","null","","","","","","","",""
"","baseball","200","307402","0.0-200.0","null","run_exp/static/audio/clip_5_baseball.m4a","null","","","","","","","",""
"","trumpet","201","310909","0.0-201.0","null","run_exp/static/audio/clip_6_trumpet.m4a","null","","","","","","","",""
"","gummies","202","314417","0.0-202.0","null","run_exp/static/audio/clip_7_gummies.m4a","null","","","","","","","",""
"","osn","203","318928","0.0-203.0","null","run_exp/static/audio/clip_8_osn.m4a","null","","","","","","","",""
"","old_1","204","325443","0.0-204.0","null","run_exp/static/audio/clip_9_old_trumpet.m4a","null","","","","","","","",""
"","new_1","205","332954","0.0-205.0","null","run_exp/static/audio/clip_10_new_balloon.m4a","null","","","","","","","",""
"","similar_1a","206","337471","0.0-206.0","null","run_exp/static/audio/clip_11a_similar_mop.m4a","null","","","","","","","",""
"","similar_1b","207","343991","0.0-207.0","null","run_exp/static/audio/clip_11b_similar_mop.m4a","null","","","","","","","",""
"","new_2","208","347499","0.0-208.0","null","run_exp/static/audio/clip_12_new_stoplight.m4a","null","","","","","","","",""
"","old_2","209","351011","0.0-209.0","null","run_exp/static/audio/clip_13_old_baseball.m4a","null","","","","","","","",""
"","similar_2a","210","354517","0.0-210.0","null","run_exp/static/audio/clip_14a_similar_gummies.m4a","null","","","","","","","",""
"","similar_2b","211","362030","0.0-211.0","null","run_exp/static/audio/clip_14b_similar_gummies.m4a","null","","","","","","","",""
"","practice","212","404151","0.0-212.0","null","run_exp/static/audio/clip_15_practice.m4a","null","","","","","<div class='center'><p>Let’s practice a little to make sure you understand the difference between new, similar, and old. Let’s say you saw these three items in the indoor/outdoor game.</p><p> Try your best to remember these images because you’ll soon be tested on them in a practice game. In the practice game, you’ll be shown images and you’ll have to say if they are old (one of the three images belows), similar (similar to one of the images below but not exactly the same), or new (are not one of the images below nor similar to them).</p><p>Once you press the space bar you’ll be shown these images again but one at time. Then you’ll begin the practice game.</p><p><img src='run_exp/static/images/tutorial/test/three_indoor_outdoor.png' height='300'></p></div>","","",""
"","html-keyboard-response","213","404827","0.0-213.0","670.7000000029802","<div class='center'><p>Let’s practice a little to make sure you understand the difference between new, similar, and old. Let’s say you saw these three items in the indoor/outdoor game.</p><p> Try your best to remember these images because you’ll soon be tested on them in a practice game. In the practice game, you’ll be shown images and you’ll have to say if they are old (one of the three images belows), similar (similar to one of the images below but not exactly the same), or new (are not one of the images below nor similar to them).</p><p>Once you press the space bar you’ll be shown these images again but one at time. Then you’ll begin the practice game.</p><p><img src='run_exp/static/images/tutorial/test/three_indoor_outdoor.png' height='300'></p><div><p><b>[Press the space bar to continue]</b></p></div>","32","","","","","","","",""
"","planet","214","406836","0.0-214.0","null","run_exp/static/images/tutorial/test/008a.jpg","null","","","","","","","",""
"","boot","215","408852","0.0-215.0","null","run_exp/static/images/tutorial/test/011a.jpg","null","","","","","","","",""
"","lemon","216","410863","0.0-216.0","null","run_exp/static/images/tutorial/test/018a.jpg","null","","","","","","","",""
"","practice_q1","217","416028","0.0-217.0","5161.0999999940395","run_exp/static/audio/clip_16_practice_question.m4a","78","","","","","","","",""
"","correct","218","417951","0.0-218.0-0.0","null","run_exp/static/audio/clip_17_correct.m4a","null","","","","","<div class='center'><p>That's correct!</p></div>","","",""
"","html-keyboard-response","219","419041","0.0-218.0-1.0","1087.5999999940395","<div class='center'><p>That's correct!</p><div><p><b>[Press the space bar to continue]</b></p></div>","32","","","","","","","",""
"","practice_q2","220","421409","0.0-218.0-2.0","2364.2999999970198","run_exp/static/audio/clip_16_practice_question.m4a","86","","","","","","","",""
"","correct","221","423311","0.0-219.0-0.0","null","run_exp/static/audio/clip_17_correct.m4a","null","","","","","<div class='center'><p>That's correct!</p></div>","","",""
"","html-keyboard-response","222","423957","0.0-219.0-1.0","643.8000000119209","<div class='center'><p>That's correct!</p><div><p><b>[Press the space bar to continue]</b></p></div>","32","","","","","","","",""
"","practice_q3","223","425894","0.0-219.0-2.0","1932.0999999940395","run_exp/static/audio/clip_16_practice_question.m4a","86","","","","","","","",""
"","incorrect_q3","224","428651","0.0-220.0-0.0","null","run_exp/static/audio/clip_20_incorrect_similar.m4a","null","","","","","<div class='center'><p>That’s incorrect. It’s similar.</p><p><img src='run_exp/static/images/tutorial/test/boot_comparison.png' height='300'></p></div>","","",""
"","html-keyboard-response","225","430286","0.0-220.0-1.0","1632.7000000029802","<div class='center'><p>That’s incorrect. It’s similar.</p><p><img src='run_exp/static/images/tutorial/test/boot_comparison.png' height='300'></p><div><p><b>[Press the space bar to continue]</b></p></div>","32","","","","","","","",""
"","repeat","226","435032","0.0-221.0-0.0","null","run_exp/static/audio/clip_21_practice_again.m4a","null","","","","","<div class='center'><p>Oops. you missed at least one of these questions. Let's try practicing again. </p></div>","","",""
"","html-keyboard-response","227","435202","0.0-221.0-1.0","167.79999999701977","<div class='center'><p>Oops. you missed at least one of these questions. Let's try practicing again. </p><div><p><b>[Press the space bar to continue]</b></p></div>","32","","","","","","","",""
"","practice_q1","228","438182","0.0-221.0-2.0","2976.6000000089407","run_exp/static/audio/clip_16_practice_question.m4a","78","","","","","","","",""
"","correct","229","440091","0.0-222.0-0.0","null","run_exp/static/audio/clip_17_correct.m4a","null","","","","","<div class='center'><p>That's correct!</p></div>","","",""
"","html-keyboard-response","230","441036","0.0-222.0-1.0","942.7999999970198","<div class='center'><p>That's correct!</p><div><p><b>[Press the space bar to continue]</b></p></div>","32","","","","","","","",""
"","practice_q2","231","441971","0.0-222.0-2.0","932","run_exp/static/audio/clip_16_practice_question.m4a","86","","","","","","","",""
"","correct","232","443872","0.0-223.0-0.0","null","run_exp/static/audio/clip_17_correct.m4a","null","","","","","<div class='center'><p>That's correct!</p></div>","","",""
"","html-keyboard-response","233","444465","0.0-223.0-1.0","591.2999999970198","<div class='center'><p>That's correct!</p><div><p><b>[Press the space bar to continue]</b></p></div>","32","","","","","","","",""
"","practice_q3","234","445036","0.0-223.0-2.0","568.5999999940395","run_exp/static/audio/clip_16_practice_question.m4a","66","","","","","","","",""
"","correct","235","447092","0.0-224.0-0.0","null","run_exp/static/audio/clip_17_correct.m4a","null","","","","","<div class='center'><p>That's correct!</p></div>","","",""
"","html-keyboard-response","236","447750","0.0-224.0-1.0","655.5","<div class='center'><p>That's correct!</p><div><p><b>[Press the space bar to continue]</b></p></div>","32","","","","","","","",""
"","begin_text","237","466250","0.0-225.0-0.0","null","run_exp/static/audio/clip_22_begin_test.m4a","null","","","","","<div class='center'><p>On to the real game where we’ll test your memory of items from the indoor/outdoor game. For each item, you need to indicate if the item is <b>old</b> by pressing the <b>v</b> key, <b>similar</b> by pressing the <b>b</b> key, or <b>new</b> by pressing the <b>n</b> key. </p></div>","","",""
"","html-keyboard-response","238","466643","0.0-225.0-1.0","389.80000001192093","<div class='center'><p>On to the real game where we’ll test your memory of items from the indoor/outdoor game. For each item, you need to indicate if the item is <b>old</b> by pressing the <b>v</b> key, <b>similar</b> by pressing the <b>b</b> key, or <b>new</b> by pressing the <b>n</b> key. </p><div><p><b>[Press the space bar to continue]</b></p></div>","32","","","","","","","",""
"","image","239","469036","0.0-226.0-0.0","2390.5","run_exp/static/images/Set 6_rs/008b.jpg","86","","","","","","test","TL","2"
"","show_choice","240","469552","0.0-226.0-1.0","null","run_exp/static/images/Set 6_rs/008b.jpg","null","","","","","","test","TL",""
"","html-keyboard-response","241","470054","0.0-226.0-2.0","null","<p></p>","null","","","","","","","",""
"","image","242","471131","0.0-227.0-0.0","1073.9000000059605","run_exp/static/images/Set 6_rs/186a.jpg","86","","","","","","test","TR","5"
"","show_choice","243","471645","0.0-227.0-1.0","null","run_exp/static/images/Set 6_rs/186a.jpg","null","","","","","","test","TR",""
"","html-keyboard-response","244","472160","0.0-227.0-2.0","null","<p></p>","null","","","","","","","",""
"","image","245","473084","0.0-228.0-0.0","922.6000000089407","run_exp/static/images/Set 6_rs/063a.jpg","86","","","","","","test","TR","2"
"","show_choice","246","473598","0.0-228.0-1.0","null","run_exp/static/images/Set 6_rs/063a.jpg","null","","","","","","test","TR",""
"","html-keyboard-response","247","474109","0.0-228.0-2.0","null","<p></p>","null","","","","","","","",""
"","image","248","474877","0.0-229.0-0.0","765.2999999970198","run_exp/static/images/Set 6_rs/025b.jpg","86","","","","","","test","TL","5"
"","show_choice","249","475390","0.0-229.0-1.0","null","run_exp/static/images/Set 6_rs/025b.jpg","null","","","","","","test","TL",""
"","html-keyboard-response","250","475893","0.0-229.0-2.0","null","<p></p>","null","","","","","","","",""
"","image","251","476919","0.0-230.0-0.0","1023.6000000089407","run_exp/static/images/Set 6_rs/091b.jpg","86","","","","","","test","TL","3"
"","show_choice","252","477421","0.0-230.0-1.0","null","run_exp/static/images/Set 6_rs/091b.jpg","null","","","","","","test","TL",""
"","html-keyboard-response","253","477928","0.0-230.0-2.0","null","<p></p>","null","","","","","","","",""
"","image","254","479280","0.0-231.0-0.0","1350","run_exp/static/images/Set 6_rs/141a.jpg","86","","","","","","test","TR","2"
"","show_choice","255","479791","0.0-231.0-1.0","null","run_exp/static/images/Set 6_rs/141a.jpg","null","","","","","","test","TR",""
"","html-keyboard-response","256","480297","0.0-231.0-2.0","null","<p></p>","null","","","","","","","",""
"","image","257","481881","0.0-232.0-0.0","1582.6000000089407","run_exp/static/images/Set 6_rs/178a.jpg","86","","","","","","test","TR","3"
"","show_choice","258","482385","0.0-232.0-1.0","null","run_exp/static/images/Set 6_rs/178a.jpg","null","","","","","","test","TR",""
"","html-keyboard-response","259","482891","0.0-232.0-2.0","null","<p></p>","null","","","","","","","",""
"","image","260","484490","0.0-233.0-0.0","1596.7000000029802","run_exp/static/images/Set 6_rs/036b.jpg","78","","","","","","test","TL","4"
"","show_choice","261","484992","0.0-233.0-1.0","null","run_exp/static/images/Set 6_rs/036b.jpg","null","","","","","","test","TL",""
"","html-keyboard-response","262","485498","0.0-233.0-2.0","null","<p></p>","null","","","","","","","",""
"","image","263","486690","0.0-234.0-0.0","1190","run_exp/static/images/Set 6_rs/095b.jpg","78","","","","","","test","TL","5"
"","show_choice","264","487206","0.0-234.0-1.0","null","run_exp/static/images/Set 6_rs/095b.jpg","null","","","","","","test","TL",""
"","html-keyboard-response","265","487711","0.0-234.0-2.0","null","<p></p>","null","","","","","","","",""
"","image","266","487733","0.0-235.0-0.0","19.599999994039536","run_exp/static/images/Set 6_rs/048a.jpg","86","","","","","","test","TF","4"
"","show_choice","267","488244","0.0-235.0-1.0","null","run_exp/static/images/Set 6_rs/048a.jpg","null","","","","","","test","TF",""
"","html-keyboard-response","268","488750","0.0-235.0-2.0","null","<p></p>","null","","","","","","","",""
"","image","269","490057","0.0-236.0-0.0","1304.4000000059605","run_exp/static/images/Set 6_rs/070a.jpg","86","","","","","","test","TR","2"
"","show_choice","270","490570","0.0-236.0-1.0","null","run_exp/static/images/Set 6_rs/070a.jpg","null","","","","","","test","TR",""
"","html-keyboard-response","271","491073","0.0-236.0-2.0","null","<p></p>","null","","","","","","","",""
"","image","272","492578","0.0-237.0-0.0","1502.8999999910593","run_exp/static/images/Set 6_rs/006b.jpg","86","","","","","","test","TL","2"
"","show_choice","273","493090","0.0-237.0-1.0","null","run_exp/static/images/Set 6_rs/006b.jpg","null","","","","","","test","TL",""
"","html-keyboard-response","274","493604","0.0-237.0-2.0","null","<p></p>","null","","","","","","","",""
"","image","275","495118","0.0-238.0-0.0","1511.1000000089407","run_exp/static/images/Set 6_rs/028a.jpg","78","","","","","","test","TF","1"
"","show_choice","276","495624","0.0-238.0-1.0","null","run_exp/static/images/Set 6_rs/028a.jpg","null","","","","","","test","TF",""
"","html-keyboard-response","277","496129","0.0-238.0-2.0","null","<p></p>","null","","","","","","","",""
"","image","278","497606","0.0-239.0-0.0","1474.0999999940395","run_exp/static/images/Set 6_rs/166a.jpg","86","","","","","","test","TR","1"
"","show_choice","279","498117","0.0-239.0-1.0","null","run_exp/static/images/Set 6_rs/166a.jpg","null","","","","","","test","TR",""
"","html-keyboard-response","280","498624","0.0-239.0-2.0","null","<p></p>","null","","","","","","","",""
"","image","281","500337","0.0-240.0-0.0","1711.0999999940395","run_exp/static/images/Set 6_rs/171a.jpg","78","","","","","","test","TF","1"
"","show_choice","282","500849","0.0-240.0-1.0","null","run_exp/static/images/Set 6_rs/171a.jpg","null","","","","","","test","TF",""
"","html-keyboard-response","283","501354","0.0-240.0-2.0","null","<p></p>","null","","","","","","","",""
"","image","284","502997","0.0-241.0-0.0","1640.1000000089407","run_exp/static/images/Set 6_rs/062b.jpg","86","","","","","","test","TL","1"
"","show_choice","285","503505","0.0-241.0-1.0","null","run_exp/static/images/Set 6_rs/062b.jpg","null","","","","","","test","TL",""
"","html-keyboard-response","286","504011","0.0-241.0-2.0","null","<p></p>","null","","","","","","","",""
"","image","287","505823","0.0-242.0-0.0","1810.2000000029802","run_exp/static/images/Set 6_rs/138b.jpg","86","","","","","","test","TL","1"
"","show_choice","288","506334","0.0-242.0-1.0","null","run_exp/static/images/Set 6_rs/138b.jpg","null","","","","","","test","TL",""
"","html-keyboard-response","289","506842","0.0-242.0-2.0","null","<p></p>","null","","","","","","","",""
"","image","290","507947","0.0-243.0-0.0","1101.7000000029802","run_exp/static/images/Set 6_rs/118a.jpg","78","","","","","","test","TF","5"
"","show_choice","291","508452","0.0-243.0-1.0","null","run_exp/static/images/Set 6_rs/118a.jpg","null","","","","","","test","TF",""
"","html-keyboard-response","292","508956","0.0-243.0-2.0","null","<p></p>","null","","","","","","","",""
"","image","293","510031","0.0-244.0-0.0","1072.2999999970198","run_exp/static/images/Set 6_rs/176a.jpg","86","","","","","","test","TF","4"
"","show_choice","294","510537","0.0-244.0-1.0","null","run_exp/static/images/Set 6_rs/176a.jpg","null","","","","","","test","TF",""
"","html-keyboard-response","295","511043","0.0-244.0-2.0","null","<p></p>","null","","","","","","","",""
"","image","296","513086","0.0-245.0-0.0","2040.199999988079","run_exp/static/images/Set 6_rs/012a.jpg","86","","","","","","test","TR","1"
"","show_choice","297","513595","0.0-245.0-1.0","null","run_exp/static/images/Set 6_rs/012a.jpg","null","","","","","","test","TR",""
"","html-keyboard-response","298","514102","0.0-245.0-2.0","null","<p></p>","null","","","","","","","",""
"","image","299","515092","0.0-246.0-0.0","987.5","run_exp/static/images/Set 6_rs/129b.jpg","86","","","","","","test","TL","1"
"","show_choice","300","515602","0.0-246.0-1.0","null","run_exp/static/images/Set 6_rs/129b.jpg","null","","","","","","test","TL",""
"","html-keyboard-response","301","516108","0.0-246.0-2.0","null","<p></p>","null","","","","","","","",""
"","image","302","517571","0.0-247.0-0.0","1461.2000000029802","run_exp/static/images/Set 6_rs/133a.jpg","78","","","","","","test","TF","4"
"","show_choice","303","518081","0.0-247.0-1.0","null","run_exp/static/images/Set 6_rs/133a.jpg","null","","","","","","test","TF",""
"","html-keyboard-response","304","518584","0.0-247.0-2.0","null","<p></p>","null","","","","","","","",""
"","image","305","521594","0.0-248.0-0.0","3007.4000000059605","run_exp/static/images/Set 6_rs/050b.jpg","86","","","","","","test","TL","3"
"","show_choice","306","522103","0.0-248.0-1.0","null","run_exp/static/images/Set 6_rs/050b.jpg","null","","","","","","test","TL",""
"","html-keyboard-response","307","522620","0.0-248.0-2.0","null","<p></p>","null","","","","","","","",""
"","image","308","524062","0.0-249.0-0.0","1440.2000000029802","run_exp/static/images/Set 6_rs/001a.jpg","78","","","","","","test","TF","1"
"","show_choice","309","524570","0.0-249.0-1.0","null","run_exp/static/images/Set 6_rs/001a.jpg","null","","","","","","test","TF",""
"","html-keyboard-response","310","525074","0.0-249.0-2.0","null","<p></p>","null","","","","","","","",""
"","image","311","526989","0.0-250.0-0.0","1914","run_exp/static/images/Set 6_rs/074b.jpg","66","","","","","","test","TL","4"
"","show_choice","312","527498","0.0-250.0-1.0","null","run_exp/static/images/Set 6_rs/074b.jpg","null","","","","","","test","TL",""
"","html-keyboard-response","313","528002","0.0-250.0-2.0","null","<p></p>","null","","","","","","","",""
"","image","314","529428","0.0-251.0-0.0","1423.7999999970198","run_exp/static/images/Set 6_rs/047a.jpg","86","","","","","","test","TF","3"
"","show_choice","315","529931","0.0-251.0-1.0","null","run_exp/static/images/Set 6_rs/047a.jpg","null","","","","","","test","TF",""
"","html-keyboard-response","316","530437","0.0-251.0-2.0","null","<p></p>","null","","","","","","","",""
"","image","317","531837","0.0-252.0-0.0","1397.7000000029802","run_exp/static/images/Set 6_rs/075a.jpg","86","","","","","","test","TR","1"
"","show_choice","318","532350","0.0-252.0-1.0","null","run_exp/static/images/Set 6_rs/075a.jpg","null","","","","","","test","TR",""
"","html-keyboard-response","319","532856","0.0-252.0-2.0","null","<p></p>","null","","","","","","","",""
"","image","320","534608","0.0-253.0-0.0","1750","run_exp/static/images/Set 6_rs/149a.jpg","78","","","","","","test","TF","1"
"","show_choice","321","535115","0.0-253.0-1.0","null","run_exp/static/images/Set 6_rs/149a.jpg","null","","","","","","test","TF",""
"","html-keyboard-response","322","535619","0.0-253.0-2.0","null","<p></p>","null","","","","","","","",""
"","image","323","536685","0.0-254.0-0.0","1064.5","run_exp/static/images/Set 6_rs/010a.jpg","86","","","","","","test","TR","5"
"","show_choice","324","537197","0.0-254.0-1.0","null","run_exp/static/images/Set 6_rs/010a.jpg","null","","","","","","test","TR",""
"","html-keyboard-response","325","537702","0.0-254.0-2.0","null","<p></p>","null","","","","","","","",""
"","image","326","539770","0.0-255.0-0.0","2066.2999999970198","run_exp/static/images/Set 6_rs/100a.jpg","66","","","","","","test","TF","2"
"","show_choice","327","540286","0.0-255.0-1.0","null","run_exp/static/images/Set 6_rs/100a.jpg","null","","","","","","test","TF",""
"","html-keyboard-response","328","540792","0.0-255.0-2.0","null","<p></p>","null","","","","","","","",""
"","image","329","543205","0.0-256.0-0.0","2410.6000000089407","run_exp/static/images/Set 6_rs/187a.jpg","66","","","","","","test","TR","3"
"","show_choice","330","543715","0.0-256.0-1.0","null","run_exp/static/images/Set 6_rs/187a.jpg","null","","","","","","test","TR",""
"","html-keyboard-response","331","544231","0.0-256.0-2.0","null","<p></p>","null","","","","","","","",""
"","image","332","545423","0.0-257.0-0.0","1189.800000011921","run_exp/static/images/Set 6_rs/045a.jpg","86","","","","","","test","TR","2"
"","show_choice","333","545933","0.0-257.0-1.0","null","run_exp/static/images/Set 6_rs/045a.jpg","null","","","","","","test","TR",""
"","html-keyboard-response","334","546439","0.0-257.0-2.0","null","<p></p>","null","","","","","","","",""
"","image","335","548708","0.0-258.0-0.0","2267.2999999970198","run_exp/static/images/Set 6_rs/017b.jpg","86","","","","","","test","TL","3"
"","show_choice","336","549218","0.0-258.0-1.0","null","run_exp/static/images/Set 6_rs/017b.jpg","null","","","","","","test","TL",""
"","html-keyboard-response","337","549723","0.0-258.0-2.0","null","<p></p>","null","","","","","","","",""
"","image","338","551066","0.0-259.0-0.0","1340.7000000029802","run_exp/static/images/Set 6_rs/056a.jpg","78","","","","","","test","TF","3"
"","show_choice","339","551573","0.0-259.0-1.0","null","run_exp/static/images/Set 6_rs/056a.jpg","null","","","","","","test","TF",""
"","html-keyboard-response","340","552077","0.0-259.0-2.0","null","<p></p>","null","","","","","","","",""
"","image","341","553890","0.0-260.0-0.0","1811.2000000029802","run_exp/static/images/Set 6_rs/065a.jpg","78","","","","","","test","TF","3"
"","show_choice","342","554402","0.0-260.0-1.0","null","run_exp/static/images/Set 6_rs/065a.jpg","null","","","","","","test","TF",""
"","html-keyboard-response","343","554919","0.0-260.0-2.0","null","<p></p>","null","","","","","","","",""
"","image","344","556432","0.0-261.0-0.0","1510.3999999910593","run_exp/static/images/Set 6_rs/169a.jpg","86","","","","","","test","TR","4"
"","show_choice","345","556934","0.0-261.0-1.0","null","run_exp/static/images/Set 6_rs/169a.jpg","null","","","","","","test","TR",""
"","html-keyboard-response","346","557439","0.0-261.0-2.0","null","<p></p>","null","","","","","","","",""
"","image","347","558703","0.0-262.0-0.0","1261.7999999970198","run_exp/static/images/Set 6_rs/144b.jpg","86","","","","","","test","TL","4"
"","show_choice","348","559210","0.0-262.0-1.0","null","run_exp/static/images/Set 6_rs/144b.jpg","null","","","","","","test","TL",""
"","html-keyboard-response","349","559715","0.0-262.0-2.0","null","<p></p>","null","","","","","","","",""
"","image","350","561683","0.0-263.0-0.0","1965.7000000029802","run_exp/static/images/Set 6_rs/022a.jpg","78","","","","","","test","TF","4"
"","show_choice","351","562188","0.0-263.0-1.0","null","run_exp/static/images/Set 6_rs/022a.jpg","null","","","","","","test","TF",""
"","html-keyboard-response","352","562690","0.0-263.0-2.0","null","<p></p>","null","","","","","","","",""
"","image","353","564329","0.0-264.0-0.0","1636.800000011921","run_exp/static/images/Set 6_rs/131a.jpg","86","","","","","","test","TR","5"
"","show_choice","354","564844","0.0-264.0-1.0","null","run_exp/static/images/Set 6_rs/131a.jpg","null","","","","","","test","TR",""
"","html-keyboard-response","355","565348","0.0-264.0-2.0","null","<p></p>","null","","","","","","","",""
"","image","356","567413","0.0-265.0-0.0","2062.1000000089407","run_exp/static/images/Set 6_rs/086a.jpg","78","","","","","","test","TF","1"
"","show_choice","357","567916","0.0-265.0-1.0","null","run_exp/static/images/Set 6_rs/086a.jpg","null","","","","","","test","TF",""
"","html-keyboard-response","358","568421","0.0-265.0-2.0","null","<p></p>","null","","","","","","","",""
"","image","359","569844","0.0-266.0-0.0","1420.8999999910593","run_exp/static/images/Set 6_rs/024a.jpg","86","","","","","","test","TR","5"
"","show_choice","360","570362","0.0-266.0-1.0","null","run_exp/static/images/Set 6_rs/024a.jpg","null","","","","","","test","TR",""
"","html-keyboard-response","361","570867","0.0-266.0-2.0","null","<p></p>","null","","","","","","","",""
"","image","362","573137","0.0-267.0-0.0","2267.4000000059605","run_exp/static/images/Set 6_rs/016b.jpg","86","","","","","","test","TL","1"
"","show_choice","363","573647","0.0-267.0-1.0","null","run_exp/static/images/Set 6_rs/016b.jpg","null","","","","","","test","TL",""
"","html-keyboard-response","364","574153","0.0-267.0-2.0","null","<p></p>","null","","","","","","","",""
"","image","365","575767","0.0-268.0-0.0","1612.0999999940395","run_exp/static/images/Set 6_rs/116b.jpg","86","","","","","","test","TL","2"
"","show_choice","366","576282","0.0-268.0-1.0","null","run_exp/static/images/Set 6_rs/116b.jpg","null","","","","","","test","TL",""
"","html-keyboard-response","367","576788","0.0-268.0-2.0","null","<p></p>","null","","","","","","","",""
"","image","368","578659","0.0-269.0-0.0","1869.2999999970198","run_exp/static/images/Set 6_rs/089b.jpg","66","","","","","","test","TL","4"
"","show_choice","369","579168","0.0-269.0-1.0","null","run_exp/static/images/Set 6_rs/089b.jpg","null","","","","","","test","TL",""
"","html-keyboard-response","370","579674","0.0-269.0-2.0","null","<p></p>","null","","","","","","","",""
"","image","371","582095","0.0-270.0-0.0","2418.7000000029802","run_exp/static/images/Set 6_rs/117b.jpg","66","","","","","","test","TL","5"
"","show_choice","372","582600","0.0-270.0-1.0","null","run_exp/static/images/Set 6_rs/117b.jpg","null","","","","","","test","TL",""
"","html-keyboard-response","373","583104","0.0-270.0-2.0","null","<p></p>","null","","","","","","","",""
"","image","374","584144","0.0-271.0-0.0","1038","run_exp/static/images/Set 6_rs/052a.jpg","86","","","","","","test","TF","1"
"","show_choice","375","584653","0.0-271.0-1.0","null","run_exp/static/images/Set 6_rs/052a.jpg","null","","","","","","test","TF",""
"","html-keyboard-response","376","585157","0.0-271.0-2.0","null","<p></p>","null","","","","","","","",""
"","image","377","586861","0.0-272.0-0.0","1701.5999999940395","run_exp/static/images/Set 6_rs/015a.jpg","86","","","","","","test","TF","4"
"","show_choice","378","587368","0.0-272.0-1.0","null","run_exp/static/images/Set 6_rs/015a.jpg","null","","","","","","test","TF",""
"","html-keyboard-response","379","587872","0.0-272.0-2.0","null","<p></p>","null","","","","","","","",""
"","image","380","589697","0.0-273.0-0.0","1822.7999999970198","run_exp/static/images/Set 6_rs/019b.jpg","78","","","","","","test","TL","2"
"","show_choice","381","590204","0.0-273.0-1.0","null","run_exp/static/images/Set 6_rs/019b.jpg","null","","","","","","test","TL",""
"","html-keyboard-response","382","590711","0.0-273.0-2.0","null","<p></p>","null","","","","","","","",""
"","image","383","592796","0.0-274.0-0.0","2082.5999999940395","run_exp/static/images/Set 6_rs/055b.jpg","66","","","","","","test","TL","4"
"","show_choice","384","593310","0.0-274.0-1.0","null","run_exp/static/images/Set 6_rs/055b.jpg","null","","","","","","test","TL",""
"","html-keyboard-response","385","593817","0.0-274.0-2.0","null","<p></p>","null","","","","","","","",""
"","image","386","595305","0.0-275.0-0.0","1485","run_exp/static/images/Set 6_rs/150a.jpg","86","","","","","","test","TR","1"
"","show_choice","387","595822","0.0-275.0-1.0","null","run_exp/static/images/Set 6_rs/150a.jpg","null","","","","","","test","TR",""
"","html-keyboard-response","388","596327","0.0-275.0-2.0","null","<p></p>","null","","","","","","","",""
"","image","389","597716","0.0-276.0-0.0","1386.9000000059605","run_exp/static/images/Set 6_rs/152a.jpg","86","","","","","","test","TR","2"
"","show_choice","390","598224","0.0-276.0-1.0","null","run_exp/static/images/Set 6_rs/152a.jpg","null","","","","","","test","TR",""
"","html-keyboard-response","391","598728","0.0-276.0-2.0","null","<p></p>","null","","","","","","","",""
"","image","392","600327","0.0-277.0-0.0","1596.2999999970198","run_exp/static/images/Set 6_rs/071b.jpg","86","","","","","","test","TL","4"
"","show_choice","393","600832","0.0-277.0-1.0","null","run_exp/static/images/Set 6_rs/071b.jpg","null","","","","","","test","TL",""
"","html-keyboard-response","394","601336","0.0-277.0-2.0","null","<p></p>","null","","","","","","","",""
"","image","395","603354","0.0-278.0-0.0","2015.1000000089407","run_exp/static/images/Set 6_rs/123b.jpg","78","","","","","","test","TL","2"
"","show_choice","396","603861","0.0-278.0-1.0","null","run_exp/static/images/Set 6_rs/123b.jpg","null","","","","","","test","TL",""
"","html-keyboard-response","397","604364","0.0-278.0-2.0","null","<p></p>","null","","","","","","","",""
"","image","398","605769","0.0-279.0-0.0","1402.2999999970198","run_exp/static/images/Set 6_rs/035a.jpg","78","","","","","","test","TF","4"
"","show_choice","399","606278","0.0-279.0-1.0","null","run_exp/static/images/Set 6_rs/035a.jpg","null","","","","","","test","TF",""
"","html-keyboard-response","400","606796","0.0-279.0-2.0","null","<p></p>","null","","","","","","","",""
"","image","401","609069","0.0-280.0-0.0","2270.7000000029802","run_exp/static/images/Set 6_rs/088a.jpg","66","","","","","","test","TR","2"
"","show_choice","402","609576","0.0-280.0-1.0","null","run_exp/static/images/Set 6_rs/088a.jpg","null","","","","","","test","TR",""
"","html-keyboard-response","403","610078","0.0-280.0-2.0","null","<p></p>","null","","","","","","","",""
"","image","404","612618","0.0-281.0-0.0","2537.4000000059605","run_exp/static/images/Set 6_rs/191b.jpg","66","","","","","","test","TL","2"
"","show_choice","405","613136","0.0-281.0-1.0","null","run_exp/static/images/Set 6_rs/191b.jpg","null","","","","","","test","TL",""
"","html-keyboard-response","406","613639","0.0-281.0-2.0","null","<p></p>","null","","","","","","","",""
"","image","407","615705","0.0-282.0-0.0","2063.4000000059605","run_exp/static/images/Set 6_rs/079b.jpg","66","","","","","","test","TL","5"
"","show_choice","408","616211","0.0-282.0-1.0","null","run_exp/static/images/Set 6_rs/079b.jpg","null","","","","","","test","TL",""
"","html-keyboard-response","409","616717","0.0-282.0-2.0","null","<p></p>","null","","","","","","","",""
"","image","410","617968","0.0-283.0-0.0","1248.5","run_exp/static/images/Set 6_rs/109a.jpg","86","","","","","","test","TF","5"
"","show_choice","411","618479","0.0-283.0-1.0","null","run_exp/static/images/Set 6_rs/109a.jpg","null","","","","","","test","TF",""
"","html-keyboard-response","412","618983","0.0-283.0-2.0","null","<p></p>","null","","","","","","","",""
"","image","413","620758","0.0-284.0-0.0","1771.699999988079","run_exp/static/images/Set 6_rs/121a.jpg","86","","","","","","test","TR","4"
"","show_choice","414","621275","0.0-284.0-1.0","null","run_exp/static/images/Set 6_rs/121a.jpg","null","","","","","","test","TR",""
"","html-keyboard-response","415","621780","0.0-284.0-2.0","null","<p></p>","null","","","","","","","",""
"","image","416","624458","0.0-285.0-0.0","2675.7000000029802","run_exp/static/images/Set 6_rs/112a.jpg","86","","","","","","test","TR","5"
"","show_choice","417","624969","0.0-285.0-1.0","null","run_exp/static/images/Set 6_rs/112a.jpg","null","","","","","","test","TR",""
"","html-keyboard-response","418","625473","0.0-285.0-2.0","null","<p></p>","null","","","","","","","",""
"","image","419","627041","0.0-286.0-0.0","1565.2000000029802","run_exp/static/images/Set 6_rs/105a.jpg","78","","","","","","test","TF","5"
"","show_choice","420","627558","0.0-286.0-1.0","null","run_exp/static/images/Set 6_rs/105a.jpg","null","","","","","","test","TF",""
"","html-keyboard-response","421","628063","0.0-286.0-2.0","null","<p></p>","null","","","","","","","",""
"","image","422","630259","0.0-287.0-0.0","2193.0999999940395","run_exp/static/images/Set 6_rs/122a.jpg","86","","","","","","test","TR","5"
"","show_choice","423","630776","0.0-287.0-1.0","null","run_exp/static/images/Set 6_rs/122a.jpg","null","","","","","","test","TR",""
"","html-keyboard-response","424","631280","0.0-287.0-2.0","null","<p></p>","null","","","","","","","",""
"","image","425","632781","0.0-288.0-0.0","1499.0999999940395","run_exp/static/images/Set 6_rs/023a.jpg","86","","","","","","test","TR","3"
"","show_choice","426","633283","0.0-288.0-1.0","null","run_exp/static/images/Set 6_rs/023a.jpg","null","","","","","","test","TR",""
"","html-keyboard-response","427","633790","0.0-288.0-2.0","null","<p></p>","null","","","","","","","",""
"","image","428","635031","0.0-289.0-0.0","1238.8999999910593","run_exp/static/images/Set 6_rs/111b.jpg","78","","","","","","test","TL","3"
"","show_choice","429","635542","0.0-289.0-1.0","null","run_exp/static/images/Set 6_rs/111b.jpg","null","","","","","","test","TL",""
"","html-keyboard-response","430","636049","0.0-289.0-2.0","null","<p></p>","null","","","","","","","",""
"","image","431","637945","0.0-290.0-0.0","1893.1000000089407","run_exp/static/images/Set 6_rs/188a.jpg","86","","","","","","test","TF","3"
"","show_choice","432","638462","0.0-290.0-1.0","null","run_exp/static/images/Set 6_rs/188a.jpg","null","","","","","","test","TF",""
"","html-keyboard-response","433","638966","0.0-290.0-2.0","null","<p></p>","null","","","","","","","",""
"","image","434","640826","0.0-291.0-0.0","1859.2000000029802","run_exp/static/images/Set 6_rs/181b.jpg","86","","","","","","test","TL","1"
"","show_choice","435","641330","0.0-291.0-1.0","null","run_exp/static/images/Set 6_rs/181b.jpg","null","","","","","","test","TL",""
"","html-keyboard-response","436","641847","0.0-291.0-2.0","null","<p></p>","null","","","","","","","",""
"","image","437","643529","0.0-292.0-0.0","1679.7000000029802","run_exp/static/images/Set 6_rs/190a.jpg","78","","","","","","test","TF","3"
"","show_choice","438","644038","0.0-292.0-1.0","null","run_exp/static/images/Set 6_rs/190a.jpg","null","","","","","","test","TF",""
"","html-keyboard-response","439","644544","0.0-292.0-2.0","null","<p></p>","null","","","","","","","",""
"","image","440","646326","0.0-293.0-0.0","1779.5999999940395","run_exp/static/images/Set 6_rs/073b.jpg","66","","","","","","test","TL","3"
"","show_choice","441","646832","0.0-293.0-1.0","null","run_exp/static/images/Set 6_rs/073b.jpg","null","","","","","","test","TL",""
"","html-keyboard-response","442","647353","0.0-293.0-2.0","null","<p></p>","null","","","","","","","",""
"","image","443","648615","0.0-294.0-0.0","1259.7999999970198","run_exp/static/images/Set 6_rs/126a.jpg","86","","","","","","test","TR","2"
"","show_choice","444","649120","0.0-294.0-1.0","null","run_exp/static/images/Set 6_rs/126a.jpg","null","","","","","","test","TR",""
"","html-keyboard-response","445","649628","0.0-294.0-2.0","null","<p></p>","null","","","","","","","",""
"","image","446","651822","0.0-295.0-0.0","2192.0999999940395","run_exp/static/images/Set 6_rs/011a.jpg","78","","","","","","test","TF","3"
"","show_choice","447","652332","0.0-295.0-1.0","null","run_exp/static/images/Set 6_rs/011a.jpg","null","","","","","","test","TF",""
"","html-keyboard-response","448","652836","0.0-295.0-2.0","null","<p></p>","null","","","","","","","",""
"","image","449","654687","0.0-296.0-0.0","1848.5","run_exp/static/images/Set 6_rs/170a.jpg","78","","","","","","test","TF","2"
"","show_choice","450","655195","0.0-296.0-1.0","null","run_exp/static/images/Set 6_rs/170a.jpg","null","","","","","","test","TF",""
"","html-keyboard-response","451","655699","0.0-296.0-2.0","null","<p></p>","null","","","","","","","",""
"","image","452","658705","0.0-297.0-0.0","null","run_exp/static/images/Set 6_rs/076a.jpg","null","","","","","","test","TR","4"
"","show_choice","453","659211","0.0-297.0-1.0","null","run_exp/static/images/Set 6_rs/076a.jpg","null","","","","","","test","TR",""
"","html-keyboard-response","454","659715","0.0-297.0-2.0","null","<p></p>","null","","","","","","","",""
"","image","455","659990","0.0-298.0-0.0","272.19999998807907","run_exp/static/images/Set 6_rs/140a.jpg","86","","","","","","test","TF","1"
"","show_choice","456","660506","0.0-298.0-1.0","null","run_exp/static/images/Set 6_rs/140a.jpg","null","","","","","","test","TF",""
"","html-keyboard-response","457","661009","0.0-298.0-2.0","null","<p></p>","null","","","","","","","",""
"","image","458","662619","0.0-299.0-0.0","1607.199999988079","run_exp/static/images/Set 6_rs/108a.jpg","86","","","","","","test","TR","5"
"","show_choice","459","663123","0.0-299.0-1.0","null","run_exp/static/images/Set 6_rs/108a.jpg","null","","","","","","test","TR",""
"","html-keyboard-response","460","663628","0.0-299.0-2.0","null","<p></p>","null","","","","","","","",""
"","image","461","665131","0.0-300.0-0.0","1500.1000000089407","run_exp/static/images/Set 6_rs/168b.jpg","78","","","","","","test","TL","3"
"","show_choice","462","665634","0.0-300.0-1.0","null","run_exp/static/images/Set 6_rs/168b.jpg","null","","","","","","test","TL",""
"","html-keyboard-response","463","666139","0.0-300.0-2.0","null","<p></p>","null","","","","","","","",""
"","image","464","668367","0.0-301.0-0.0","2225.2000000029802","run_exp/static/images/Set 6_rs/090a.jpg","66","","","","","","test","TF","5"
"","show_choice","465","668871","0.0-301.0-1.0","null","run_exp/static/images/Set 6_rs/090a.jpg","null","","","","","","test","TF",""
"","html-keyboard-response","466","669379","0.0-301.0-2.0","null","<p></p>","null","","","","","","","",""
"","image","467","671229","0.0-302.0-0.0","1846.7000000029802","run_exp/static/images/Set 6_rs/154a.jpg","66","","","","","","test","TR","3"
"","show_choice","468","671731","0.0-302.0-1.0","null","run_exp/static/images/Set 6_rs/154a.jpg","null","","","","","","test","TR",""
"","html-keyboard-response","469","672236","0.0-302.0-2.0","null","<p></p>","null","","","","","","","",""
"","image","470","674101","0.0-303.0-0.0","1862.2000000029802","run_exp/static/images/Set 6_rs/097a.jpg","78","","","","","","test","TF","5"
"","show_choice","471","674609","0.0-303.0-1.0","null","run_exp/static/images/Set 6_rs/097a.jpg","null","","","","","","test","TF",""
"","html-keyboard-response","472","675115","0.0-303.0-2.0","null","<p></p>","null","","","","","","","",""
"","image","473","678126","0.0-304.0-0.0","null","run_exp/static/images/Set 6_rs/066b.jpg","null","","","","","","test","TL","5"
"","show_choice","474","678631","0.0-304.0-1.0","null","run_exp/static/images/Set 6_rs/066b.jpg","null","","","","","","test","TL",""
"","html-keyboard-response","475","679136","0.0-304.0-2.0","null","<p></p>","null","","","","","","","",""
"","image","476","680617","0.0-305.0-0.0","1478","run_exp/static/images/Set 6_rs/061a.jpg","86","","","","","","test","TR","5"
"","show_choice","477","681127","0.0-305.0-1.0","null","run_exp/static/images/Set 6_rs/061a.jpg","null","","","","","","test","TR",""
"","html-keyboard-response","478","681644","0.0-305.0-2.0","null","<p></p>","null","","","","","","","",""
"","image","479","682882","0.0-306.0-0.0","1235.5","run_exp/static/images/Set 6_rs/007a.jpg","86","","","","","","test","TR","3"
"","show_choice","480","683391","0.0-306.0-1.0","null","run_exp/static/images/Set 6_rs/007a.jpg","null","","","","","","test","TR",""
"","html-keyboard-response","481","683896","0.0-306.0-2.0","null","<p></p>","null","","","","","","","",""
"","image","482","685253","0.0-307.0-0.0","1355.5","run_exp/static/images/Set 6_rs/078a.jpg","78","","","","","","test","TF","1"
"","show_choice","483","685759","0.0-307.0-1.0","null","run_exp/static/images/Set 6_rs/078a.jpg","null","","","","","","test","TF",""
"","html-keyboard-response","484","686263","0.0-307.0-2.0","null","<p></p>","null","","","","","","","",""
"","image","485","687726","0.0-308.0-0.0","1461.1000000089407","run_exp/static/images/Set 6_rs/167b.jpg","86","","","","","","test","TL","2"
"","show_choice","486","688228","0.0-308.0-1.0","null","run_exp/static/images/Set 6_rs/167b.jpg","null","","","","","","test","TL",""
"","html-keyboard-response","487","688735","0.0-308.0-2.0","null","<p></p>","null","","","","","","","",""
"","image","488","691375","0.0-309.0-0.0","2637.5","run_exp/static/images/Set 6_rs/136a.jpg","78","","","","","","test","TF","4"
"","show_choice","489","691878","0.0-309.0-1.0","null","run_exp/static/images/Set 6_rs/136a.jpg","null","","","","","","test","TF",""
"","html-keyboard-response","490","692381","0.0-309.0-2.0","null","<p></p>","null","","","","","","","",""
"","image","491","694233","0.0-310.0-0.0","1850","run_exp/static/images/Set 6_rs/064a.jpg","66","","","","","","test","TR","5"
"","show_choice","492","694749","0.0-310.0-1.0","null","run_exp/static/images/Set 6_rs/064a.jpg","null","","","","","","test","TR",""
"","html-keyboard-response","493","695254","0.0-310.0-2.0","null","<p></p>","null","","","","","","","",""
"","image","494","697292","0.0-311.0-0.0","2036.0999999940395","run_exp/static/images/Set 6_rs/085b.jpg","78","","","","","","test","TL","1"
"","show_choice","495","697798","0.0-311.0-1.0","null","run_exp/static/images/Set 6_rs/085b.jpg","null","","","","","","test","TL",""
"","html-keyboard-response","496","698303","0.0-311.0-2.0","null","<p></p>","null","","","","","","","",""
"","image","497","699687","0.0-312.0-0.0","1381.7000000029802","run_exp/static/images/Set 6_rs/134a.jpg","86","","","","","","test","TR","3"
"","show_choice","498","700194","0.0-312.0-1.0","null","run_exp/static/images/Set 6_rs/134a.jpg","null","","","","","","test","TR",""
"","html-keyboard-response","499","700711","0.0-312.0-2.0","null","<p></p>","null","","","","","","","",""
"","image","500","701978","0.0-313.0-0.0","1264.2000000029802","run_exp/static/images/Set 6_rs/177a.jpg","86","","","","","","test","TR","5"
"","show_choice","501","702495","0.0-313.0-1.0","null","run_exp/static/images/Set 6_rs/177a.jpg","null","","","","","","test","TR",""
"","html-keyboard-response","502","703000","0.0-313.0-2.0","null","<p></p>","null","","","","","","","",""
"","image","503","704376","0.0-314.0-0.0","1374","run_exp/static/images/Set 6_rs/057b.jpg","86","","","","","","test","TL","1"
"","show_choice","504","704881","0.0-314.0-1.0","null","run_exp/static/images/Set 6_rs/057b.jpg","null","","","","","","test","TL",""
"","html-keyboard-response","505","705387","0.0-314.0-2.0","null","<p></p>","null","","","","","","","",""
"","image","506","706928","0.0-315.0-0.0","1538.5999999940395","run_exp/static/images/Set 6_rs/021a.jpg","66","","","","","","test","TF","2"
"","show_choice","507","707430","0.0-315.0-1.0","null","run_exp/static/images/Set 6_rs/021a.jpg","null","","","","","","test","TF",""
"","html-keyboard-response","508","707935","0.0-315.0-2.0","null","<p></p>","null","","","","","","","",""
"","image","509","709714","0.0-316.0-0.0","1777.199999988079","run_exp/static/images/Set 6_rs/172a.jpg","66","","","","","","test","TR","1"
"","show_choice","510","710220","0.0-316.0-1.0","null","run_exp/static/images/Set 6_rs/172a.jpg","null","","","","","","test","TR",""
"","html-keyboard-response","511","710725","0.0-316.0-2.0","null","<p></p>","null","","","","","","","",""
"","image","512","713513","0.0-317.0-0.0","2786.5999999940395","run_exp/static/images/Set 6_rs/155a.jpg","78","","","","","","test","TF","4"
"","show_choice","513","714024","0.0-317.0-1.0","null","run_exp/static/images/Set 6_rs/155a.jpg","null","","","","","","test","TF",""
"","html-keyboard-response","514","714529","0.0-317.0-2.0","null","<p></p>","null","","","","","","","",""
"","image","515","717428","0.0-318.0-0.0","2896.2999999970198","run_exp/static/images/Set 6_rs/005a.jpg","78","","","","","","test","TF","5"
"","show_choice","516","717942","0.0-318.0-1.0","null","run_exp/static/images/Set 6_rs/005a.jpg","null","","","","","","test","TF",""
"","html-keyboard-response","517","718448","0.0-318.0-2.0","null","<p></p>","null","","","","","","","",""
"","image","518","720623","0.0-319.0-0.0","2172.0999999940395","run_exp/static/images/Set 6_rs/077a.jpg","78","","","","","","test","TF","3"
"","show_choice","519","721135","0.0-319.0-1.0","null","run_exp/static/images/Set 6_rs/077a.jpg","null","","","","","","test","TF",""
"","html-keyboard-response","520","721639","0.0-319.0-2.0","null","<p></p>","null","","","","","","","",""
"","image","521","722974","0.0-320.0-0.0","1333.4000000059605","run_exp/static/images/Set 6_rs/132a.jpg","86","","","","","","test","TR","5"
"","show_choice","522","723487","0.0-320.0-1.0","null","run_exp/static/images/Set 6_rs/132a.jpg","null","","","","","","test","TR",""
"","html-keyboard-response","523","723990","0.0-320.0-2.0","null","<p></p>","null","","","","","","","",""
"","image","524","725203","0.0-321.0-0.0","1210.5999999940395","run_exp/static/images/Set 6_rs/014b.jpg","86","","","","","","test","TL","5"
"","show_choice","525","725706","0.0-321.0-1.0","null","run_exp/static/images/Set 6_rs/014b.jpg","null","","","","","","test","TL",""
"","html-keyboard-response","526","726213","0.0-321.0-2.0","null","<p></p>","null","","","","","","","",""
"","all_done","527","734556","0.0-322.0-0.0","null","run_exp/static/audio/clip_23_all_done.m4a","null","","","","","<div class='center'><p>You are finished with all three parts of the experiment! You can press the space bar to end the game now. </p></div>","","",""
"","html-keyboard-response","528","735705","0.0-322.0-1.0","1145.8999999910593","<div class='center'><p>You are finished with all three parts of the experiment! You can press the space bar to end the game now. </p><div><p><b>[Press the space bar to continue]</b></p></div>","32","","","","","","","",""
