"success","trial_type","trial_index","time_elapsed","internal_node_id","interactions","blur_events","focus_events","fullscreenenter_events","fullscreenexit_events","rt","stimulus","key_press","subject_id","participant_id","age","gender","prompt","phase","condition","lure_bin"
"true","fullscreen","0","28948","0.0-0.0","""event"",""trial"",""time""
""fullscreenenter"",""0"",""27961""
","
","
","""event"",""trial"",""time""
""fullscreenenter"",""0"",""27961""
","
","","","","","","","","","","",""
"","pavlovia","1","28953","0.0-1.0","""event"",""trial"",""time""
""fullscreenenter"",""0"",""27961""
","
","
","""event"",""trial"",""time""
""fullscreenenter"",""0"",""27961""
","
","","","","","","","","","","",""
"","welcome","2","64394","0.0-2.0","""event"",""trial"",""time""
""fullscreenenter"",""0"",""27961""
","
","
","""event"",""trial"",""time""
""fullscreenenter"",""0"",""27961""
","
","null","run_exp/static/audio/clip_1_welcome.m4a","null","538","741","23","Female","<div class='center'><p>Welcome to the third part of the study! First, you'll be shown pictures of items one at a time. For each picture, you have to decide if the item is typically found indoors or outdoors.</p><p>If you think it's usually found indoors, then press <b>v</b> key on your keyboard. If you think it's usually found outdoors, then press the <b>n</b> key.There will be reminders on the screen to help you remember which keys to press. </p><p>If you're not sure whether the item is an indoor item or an outdoor item, go ahead and take a guess but try your best not to skip that choice. </p></div>","","",""
"","html-keyboard-response","3","65575","0.0-3.0","""event"",""trial"",""time""
""fullscreenenter"",""0"",""27961""
","
","
","""event"",""trial"",""time""
""fullscreenenter"",""0"",""27961""
","
","1179","<div class='center'><p>Welcome to the third part of the study! First, you'll be shown pictures of items one at a time. For each picture, you have to decide if the item is typically found indoors or outdoors.</p><p>If you think it's usually found indoors, then press <b>v</b> key on your keyboard. If you think it's usually found outdoors, then press the <b>n</b> key.There will be reminders on the screen to help you remember which keys to press. </p><p>If you're not sure whether the item is an indoor item or an outdoor item, go ahead and take a guess but try your best not to skip that choice. </p><div><p><b>[Press the space bar to continue]</b></p></div>","32","","","","","","","",""
"","image","4","67186","0.0-4.0","""event"",""trial"",""time""
""fullscreenenter"",""0"",""27961""
","
","
","""event"",""trial"",""time""
""fullscreenenter"",""0"",""27961""
","
","1608.8999999761581","run_exp/static/images/Set 6_rs/062a.jpg","86","","","","","","learn","SL",""
"","show_choice","5","67580","0.0-5.0","""event"",""trial"",""time""
""fullscreenenter"",""0"",""27961""
","
","
","""event"",""trial"",""time""
""fullscreenenter"",""0"",""27961""
","
","null","run_exp/static/images/Set 6_rs/062a.jpg","null","","","","","","learn","SL",""
"","html-keyboard-response","6","68094","0.0-6.0","""event"",""trial"",""time""
""fullscreenenter"",""0"",""27961""
","
","
","""event"",""trial"",""time""
""fullscreenenter"",""0"",""27961""
","
","null","<p></p>","null","","","","","","","",""
"","image","7","68948","0.0-7.0","""event"",""trial"",""time""
""fullscreenenter"",""0"",""27961""
","
","
","""event"",""trial"",""time""
""fullscreenenter"",""0"",""27961""
","
","852.6000000238419","run_exp/static/images/Set 6_rs/036a.jpg","86","","","","","","learn","SL",""
"","show_choice","8","70105","0.0-8.0","""event"",""trial"",""time""
""fullscreenenter"",""0"",""27961""
","
","
","""event"",""trial"",""time""
""fullscreenenter"",""0"",""27961""
","
","null","run_exp/static/images/Set 6_rs/036a.jpg","null","","","","","","learn","SL",""
"","html-keyboard-response","9","70620","0.0-9.0","""event"",""trial"",""time""
""fullscreenenter"",""0"",""27961""
","
","
","""event"",""trial"",""time""
""fullscreenenter"",""0"",""27961""
","
","null","<p></p>","null","","","","","","","",""
"","image","10","71244","0.0-10.0","""event"",""trial"",""time""
""fullscreenenter"",""0"",""27961""
","
","
","""event"",""trial"",""time""
""fullscreenenter"",""0"",""27961""
","
","622.7999999523163","run_exp/static/images/Set 6_rs/063a.jpg","86","","","","","","learn","SR",""
"","show_choice","11","72634","0.0-11.0","""event"",""trial"",""time""
""fullscreenenter"",""0"",""27961""
","
","
","""event"",""trial"",""time""
""fullscreenenter"",""0"",""27961""
","
","null","run_exp/static/images/Set 6_rs/063a.jpg","null","","","","","","learn","SR",""
"","html-keyboard-response","12","73144","0.0-12.0","""event"",""trial"",""time""
""fullscreenenter"",""0"",""27961""
","
","
","""event"",""trial"",""time""
""fullscreenenter"",""0"",""27961""
","
","null","<p></p>","null","","","","","","","",""
"","image","13","74164","0.0-13.0","""event"",""trial"",""time""
""fullscreenenter"",""0"",""27961""
","
","
","""event"",""trial"",""time""
""fullscreenenter"",""0"",""27961""
","
","1018.5","run_exp/static/images/Set 6_rs/138a.jpg","78","","","","","","learn","SL",""
"","show_choice","14","75152","0.0-14.0","""event"",""trial"",""time""
""fullscreenenter"",""0"",""27961""
","
","
","""event"",""trial"",""time""
""fullscreenenter"",""0"",""27961""
","
","null","run_exp/static/images/Set 6_rs/138a.jpg","null","","","","","","learn","SL",""
"","html-keyboard-response","15","75660","0.0-15.0","""event"",""trial"",""time""
""fullscreenenter"",""0"",""27961""
","
","
","""event"",""trial"",""time""
""fullscreenenter"",""0"",""27961""
","
","null","<p></p>","null","","","","","","","",""
"","image","16","76424","0.0-16.0","""event"",""trial"",""time""
""fullscreenenter"",""0"",""27961""
","
","
","""event"",""trial"",""time""
""fullscreenenter"",""0"",""27961""
","
","763.1000000238419","run_exp/static/images/Set 6_rs/154a.jpg","86","","","","","","learn","SR",""
"","show_choice","17","77665","0.0-17.0","""event"",""trial"",""time""
""fullscreenenter"",""0"",""27961""
","
","
","""event"",""trial"",""time""
""fullscreenenter"",""0"",""27961""
","
","null","run_exp/static/images/Set 6_rs/154a.jpg","null","","","","","","learn","SR",""
"","html-keyboard-response","18","78168","0.0-18.0","""event"",""trial"",""time""
""fullscreenenter"",""0"",""27961""
","
","
","""event"",""trial"",""time""
""fullscreenenter"",""0"",""27961""
","
","null","<p></p>","null","","","","","","","",""
"","image","19","78793","0.0-19.0","""event"",""trial"",""time""
""fullscreenenter"",""0"",""27961""
","
","
","""event"",""trial"",""time""
""fullscreenenter"",""0"",""27961""
","
","623.7999999523163","run_exp/static/images/Set 6_rs/024a.jpg","86","","","","","","learn","SR",""
"","show_choice","20","80177","0.0-20.0","""event"",""trial"",""time""
""fullscreenenter"",""0"",""27961""
","
","
","""event"",""trial"",""time""
""fullscreenenter"",""0"",""27961""
","
","null","run_exp/static/images/Set 6_rs/024a.jpg","null","","","","","","learn","SR",""
"","html-keyboard-response","21","80690","0.0-21.0","""event"",""trial"",""time""
""fullscreenenter"",""0"",""27961""
","
","
","""event"",""trial"",""time""
""fullscreenenter"",""0"",""27961""
","
","null","<p></p>","null","","","","","","","",""
"","image","22","81421","0.0-22.0","""event"",""trial"",""time""
""fullscreenenter"",""0"",""27961""
","
","
","""event"",""trial"",""time""
""fullscreenenter"",""0"",""27961""
","
","729.8000000715256","run_exp/static/images/Set 6_rs/131a.jpg","86","","","","","","learn","SR",""
"","show_choice","23","82693","0.0-23.0","""event"",""trial"",""time""
""fullscreenenter"",""0"",""27961""
","
","
","""event"",""trial"",""time""
""fullscreenenter"",""0"",""27961""
","
","null","run_exp/static/images/Set 6_rs/131a.jpg","null","","","","","","learn","SR",""
"","html-keyboard-response","24","83205","0.0-24.0","""event"",""trial"",""time""
""fullscreenenter"",""0"",""27961""
","
","
","""event"",""trial"",""time""
""fullscreenenter"",""0"",""27961""
","
","null","<p></p>","null","","","","","","","",""
"","image","25","84233","0.0-25.0","""event"",""trial"",""time""
""fullscreenenter"",""0"",""27961""
","
","
","""event"",""trial"",""time""
""fullscreenenter"",""0"",""27961""
","
","1026","run_exp/static/images/Set 6_rs/085a.jpg","78","","","","","","learn","SL",""
"","show_choice","26","85210","0.0-26.0","""event"",""trial"",""time""
""fullscreenenter"",""0"",""27961""
","
","
","""event"",""trial"",""time""
""fullscreenenter"",""0"",""27961""
","
","null","run_exp/static/images/Set 6_rs/085a.jpg","null","","","","","","learn","SL",""
"","html-keyboard-response","27","85713","0.0-27.0","""event"",""trial"",""time""
""fullscreenenter"",""0"",""27961""
","
","
","""event"",""trial"",""time""
""fullscreenenter"",""0"",""27961""
","
","null","<p></p>","null","","","","","","","",""
"","image","28","86671","0.0-28.0","""event"",""trial"",""time""
""fullscreenenter"",""0"",""27961""
","
","
","""event"",""trial"",""time""
""fullscreenenter"",""0"",""27961""
","
","955.7999999523163","run_exp/static/images/Set 6_rs/076a.jpg","78","","","","","","learn","SR",""
"","show_choice","29","87728","0.0-29.0","""event"",""trial"",""time""
""fullscreenenter"",""0"",""27961""
","
","
","""event"",""trial"",""time""
""fullscreenenter"",""0"",""27961""
","
","null","run_exp/static/images/Set 6_rs/076a.jpg","null","","","","","","learn","SR",""
"","html-keyboard-response","30","88243","0.0-30.0","""event"",""trial"",""time""
""fullscreenenter"",""0"",""27961""
","
","
","""event"",""trial"",""time""
""fullscreenenter"",""0"",""27961""
","
","null","<p></p>","null","","","","","","","",""
"","image","31","89315","0.0-31.0","""event"",""trial"",""time""
""fullscreenenter"",""0"",""27961""
","
","
","""event"",""trial"",""time""
""fullscreenenter"",""0"",""27961""
","
","1070.6000000238419","run_exp/static/images/Set 6_rs/064a.jpg","78","","","","","","learn","SR",""
"","show_choice","32","90248","0.0-32.0","""event"",""trial"",""time""
""fullscreenenter"",""0"",""27961""
","
","
","""event"",""trial"",""time""
""fullscreenenter"",""0"",""27961""
","
","null","run_exp/static/images/Set 6_rs/064a.jpg","null","","","","","","learn","SR",""
"","html-keyboard-response","33","90763","0.0-33.0","""event"",""trial"",""time""
""fullscreenenter"",""0"",""27961""
","
","
","""event"",""trial"",""time""
""fullscreenenter"",""0"",""27961""
","
","null","<p></p>","null","","","","","","","",""
"","image","34","91669","0.0-34.0","""event"",""trial"",""time""
""fullscreenenter"",""0"",""27961""
","
","
","""event"",""trial"",""time""
""fullscreenenter"",""0"",""27961""
","
","904.7999999523163","run_exp/static/images/Set 6_rs/012a.jpg","86","","","","","","learn","SR",""
"","show_choice","35","92777","0.0-35.0","""event"",""trial"",""time""
""fullscreenenter"",""0"",""27961""
","
","
","""event"",""trial"",""time""
""fullscreenenter"",""0"",""27961""
","
","null","run_exp/static/images/Set 6_rs/012a.jpg","null","","","","","","learn","SR",""
"","html-keyboard-response","36","93283","0.0-36.0","""event"",""trial"",""time""
""fullscreenenter"",""0"",""27961""
","
","
","""event"",""trial"",""time""
""fullscreenenter"",""0"",""27961""
","
","null","<p></p>","null","","","","","","","",""
"","image","37","94236","0.0-37.0","""event"",""trial"",""time""
""fullscreenenter"",""0"",""27961""
","
","
","""event"",""trial"",""time""
""fullscreenenter"",""0"",""27961""
","
","951.3999999761581","run_exp/static/images/Set 6_rs/152a.jpg","78","","","","","","learn","SR",""
"","show_choice","38","95296","0.0-38.0","""event"",""trial"",""time""
""fullscreenenter"",""0"",""27961""
","
","
","""event"",""trial"",""time""
""fullscreenenter"",""0"",""27961""
","
","null","run_exp/static/images/Set 6_rs/152a.jpg","null","","","","","","learn","SR",""
"","html-keyboard-response","39","95808","0.0-39.0","""event"",""trial"",""time""
""fullscreenenter"",""0"",""27961""
","
","
","""event"",""trial"",""time""
""fullscreenenter"",""0"",""27961""
","
","null","<p></p>","null","","","","","","","",""
"","image","40","96522","0.0-40.0","""event"",""trial"",""time""
""fullscreenenter"",""0"",""27961""
","
","
","""event"",""trial"",""time""
""fullscreenenter"",""0"",""27961""
","
","712.5","run_exp/static/images/Set 6_rs/108a.jpg","86","","","","","","learn","SR",""
"","show_choice","41","97824","0.0-41.0","""event"",""trial"",""time""
""fullscreenenter"",""0"",""27961""
","
","
","""event"",""trial"",""time""
""fullscreenenter"",""0"",""27961""
","
","null","run_exp/static/images/Set 6_rs/108a.jpg","null","","","","","","learn","SR",""
"","html-keyboard-response","42","98329","0.0-42.0","""event"",""trial"",""time""
""fullscreenenter"",""0"",""27961""
","
","
","""event"",""trial"",""time""
""fullscreenenter"",""0"",""27961""
","
","null","<p></p>","null","","","","","","","",""
"","image","43","99465","0.0-43.0","""event"",""trial"",""time""
""fullscreenenter"",""0"",""27961""
","
","
","""event"",""trial"",""time""
""fullscreenenter"",""0"",""27961""
","
","1134.5","run_exp/static/images/Set 6_rs/017a.jpg","86","","","","","","learn","SL",""
"","show_choice","44","100344","0.0-44.0","""event"",""trial"",""time""
""fullscreenenter"",""0"",""27961""
","
","
","""event"",""trial"",""time""
""fullscreenenter"",""0"",""27961""
","
","null","run_exp/static/images/Set 6_rs/017a.jpg","null","","","","","","learn","SL",""
"","html-keyboard-response","45","100849","0.0-45.0","""event"",""trial"",""time""
""fullscreenenter"",""0"",""27961""
","
","
","""event"",""trial"",""time""
""fullscreenenter"",""0"",""27961""
","
","null","<p></p>","null","","","","","","","",""
"","image","46","102076","0.0-46.0","""event"",""trial"",""time""
""fullscreenenter"",""0"",""27961""
","
","
","""event"",""trial"",""time""
""fullscreenenter"",""0"",""27961""
","
","1225.8000000715256","run_exp/static/images/Set 6_rs/122a.jpg","86","","","","","","learn","SR",""
"","show_choice","47","102859","0.0-47.0","""event"",""trial"",""time""
""fullscreenenter"",""0"",""27961""
","
","
","""event"",""trial"",""time""
""fullscreenenter"",""0"",""27961""
","
","null","run_exp/static/images/Set 6_rs/122a.jpg","null","","","","","","learn","SR",""
"","html-keyboard-response","48","103373","0.0-48.0","""event"",""trial"",""time""
""fullscreenenter"",""0"",""27961""
","
","
","""event"",""trial"",""time""
""fullscreenenter"",""0"",""27961""
","
","null","<p></p>","null","","","","","","","",""
"","image","49","104037","0.0-49.0","""event"",""trial"",""time""
""fullscreenenter"",""0"",""27961""
","
","
","""event"",""trial"",""time""
""fullscreenenter"",""0"",""27961""
","
","662.7000000476837","run_exp/static/images/Set 6_rs/023a.jpg","86","","","","","","learn","SR",""
"","show_choice","50","105387","0.0-50.0","""event"",""trial"",""time""
""fullscreenenter"",""0"",""27961""
","
","
","""event"",""trial"",""time""
""fullscreenenter"",""0"",""27961""
","
","null","run_exp/static/images/Set 6_rs/023a.jpg","null","","","","","","learn","SR",""
"","html-keyboard-response","51","105890","0.0-51.0","""event"",""trial"",""time""
""fullscreenenter"",""0"",""27961""
","
","
","""event"",""trial"",""time""
""fullscreenenter"",""0"",""27961""
","
","null","<p></p>","null","","","","","","","",""
"","image","52","106761","0.0-52.0","""event"",""trial"",""time""
""fullscreenenter"",""0"",""27961""
","
","
","""event"",""trial"",""time""
""fullscreenenter"",""0"",""27961""
","
","869.8000000715256","run_exp/static/images/Set 6_rs/117a.jpg","86","","","","","","learn","SL",""
"","show_choice","53","107904","0.0-53.0","""event"",""trial"",""time""
""fullscreenenter"",""0"",""27961""
","
","
","""event"",""trial"",""time""
""fullscreenenter"",""0"",""27961""
","
","null","run_exp/static/images/Set 6_rs/117a.jpg","null","","","","","","learn","SL",""
"","html-keyboard-response","54","108410","0.0-54.0","""event"",""trial"",""time""
""fullscreenenter"",""0"",""27961""
","
","
","""event"",""trial"",""time""
""fullscreenenter"",""0"",""27961""
","
","null","<p></p>","null","","","","","","","",""
"","image","55","109080","0.0-55.0","""event"",""trial"",""time""
""fullscreenenter"",""0"",""27961""
","
","
","""event"",""trial"",""time""
""fullscreenenter"",""0"",""27961""
","
","669.1999999284744","run_exp/static/images/Set 6_rs/111a.jpg","86","","","","","","learn","SL",""
"","show_choice","56","110414","0.0-56.0","""event"",""trial"",""time""
""fullscreenenter"",""0"",""27961""
","
","
","""event"",""trial"",""time""
""fullscreenenter"",""0"",""27961""
","
","null","run_exp/static/images/Set 6_rs/111a.jpg","null","","","","","","learn","SL",""
"","html-keyboard-response","57","110923","0.0-57.0","""event"",""trial"",""time""
""fullscreenenter"",""0"",""27961""
","
","
","""event"",""trial"",""time""
""fullscreenenter"",""0"",""27961""
","
","null","<p></p>","null","","","","","","","",""
"","image","58","111644","0.0-58.0","""event"",""trial"",""time""
""fullscreenenter"",""0"",""27961""
","
","
","""event"",""trial"",""time""
""fullscreenenter"",""0"",""27961""
","
","720.0999999046326","run_exp/static/images/Set 6_rs/150a.jpg","86","","","","","","learn","SR",""
"","show_choice","59","112928","0.0-59.0","""event"",""trial"",""time""
""fullscreenenter"",""0"",""27961""
","
","
","""event"",""trial"",""time""
""fullscreenenter"",""0"",""27961""
","
","null","run_exp/static/images/Set 6_rs/150a.jpg","null","","","","","","learn","SR",""
"","html-keyboard-response","60","113444","0.0-60.0","""event"",""trial"",""time""
""fullscreenenter"",""0"",""27961""
","
","
","""event"",""trial"",""time""
""fullscreenenter"",""0"",""27961""
","
","null","<p></p>","null","","","","","","","",""
"","image","61","114705","0.0-61.0","""event"",""trial"",""time""
""fullscreenenter"",""0"",""27961""
","
","
","""event"",""trial"",""time""
""fullscreenenter"",""0"",""27961""
","
","1260.5","run_exp/static/images/Set 6_rs/006a.jpg","86","","","","","","learn","SL",""
"","show_choice","62","115454","0.0-62.0","""event"",""trial"",""time""
""fullscreenenter"",""0"",""27961""
","
","
","""event"",""trial"",""time""
""fullscreenenter"",""0"",""27961""
","
","null","run_exp/static/images/Set 6_rs/006a.jpg","null","","","","","","learn","SL",""
"","html-keyboard-response","63","115959","0.0-63.0","""event"",""trial"",""time""
""fullscreenenter"",""0"",""27961""
","
","
","""event"",""trial"",""time""
""fullscreenenter"",""0"",""27961""
","
","null","<p></p>","null","","","","","","","",""
"","image","64","116692","0.0-64.0","""event"",""trial"",""time""
""fullscreenenter"",""0"",""27961""
","
","
","""event"",""trial"",""time""
""fullscreenenter"",""0"",""27961""
","
","731.7999999523163","run_exp/static/images/Set 6_rs/055a.jpg","86","","","","","","learn","SL",""
"","show_choice","65","117967","0.0-65.0","""event"",""trial"",""time""
""fullscreenenter"",""0"",""27961""
","
","
","""event"",""trial"",""time""
""fullscreenenter"",""0"",""27961""
","
","null","run_exp/static/images/Set 6_rs/055a.jpg","null","","","","","","learn","SL",""
"","html-keyboard-response","66","118477","0.0-66.0","""event"",""trial"",""time""
""fullscreenenter"",""0"",""27961""
","
","
","""event"",""trial"",""time""
""fullscreenenter"",""0"",""27961""
","
","null","<p></p>","null","","","","","","","",""
"","image","67","119330","0.0-67.0","""event"",""trial"",""time""
""fullscreenenter"",""0"",""27961""
","
","
","""event"",""trial"",""time""
""fullscreenenter"",""0"",""27961""
","
","851.6999999284744","run_exp/static/images/Set 6_rs/169a.jpg","78","","","","","","learn","SR",""
"","show_choice","68","120479","0.0-68.0","""event"",""trial"",""time""
""fullscreenenter"",""0"",""27961""
","
","
","""event"",""trial"",""time""
""fullscreenenter"",""0"",""27961""
","
","null","run_exp/static/images/Set 6_rs/169a.jpg","null","","","","","","learn","SR",""
"","html-keyboard-response","69","120993","0.0-69.0","""event"",""trial"",""time""
""fullscreenenter"",""0"",""27961""
","
","
","""event"",""trial"",""time""
""fullscreenenter"",""0"",""27961""
","
","null","<p></p>","null","","","","","","","",""
"","image","70","121569","0.0-70.0","""event"",""trial"",""time""
""fullscreenenter"",""0"",""27961""
","
","
","""event"",""trial"",""time""
""fullscreenenter"",""0"",""27961""
","
","574","run_exp/static/images/Set 6_rs/014a.jpg","86","","","","","","learn","SL",""
"","show_choice","71","123003","0.0-71.0","""event"",""trial"",""time""
""fullscreenenter"",""0"",""27961""
","
","
","""event"",""trial"",""time""
""fullscreenenter"",""0"",""27961""
","
","null","run_exp/static/images/Set 6_rs/014a.jpg","null","","","","","","learn","SL",""
"","html-keyboard-response","72","123514","0.0-72.0","""event"",""trial"",""time""
""fullscreenenter"",""0"",""27961""
","
","
","""event"",""trial"",""time""
""fullscreenenter"",""0"",""27961""
","
","null","<p></p>","null","","","","","","","",""
"","image","73","124317","0.0-73.0","""event"",""trial"",""time""
""fullscreenenter"",""0"",""27961""
","
","
","""event"",""trial"",""time""
""fullscreenenter"",""0"",""27961""
","
","802.6999999284744","run_exp/static/images/Set 6_rs/057a.jpg","86","","","","","","learn","SL",""
"","show_choice","74","125530","0.0-74.0","""event"",""trial"",""time""
""fullscreenenter"",""0"",""27961""
","
","
","""event"",""trial"",""time""
""fullscreenenter"",""0"",""27961""
","
","null","run_exp/static/images/Set 6_rs/057a.jpg","null","","","","","","learn","SL",""
"","html-keyboard-response","75","126035","0.0-75.0","""event"",""trial"",""time""
""fullscreenenter"",""0"",""27961""
","
","
","""event"",""trial"",""time""
""fullscreenenter"",""0"",""27961""
","
","null","<p></p>","null","","","","","","","",""
"","image","76","127141","0.0-76.0","""event"",""trial"",""time""
""fullscreenenter"",""0"",""27961""
","
","
","""event"",""trial"",""time""
""fullscreenenter"",""0"",""27961""
","
","1104.7999999523163","run_exp/static/images/Set 6_rs/191a.jpg","86","","","","","","learn","SL",""
"","show_choice","77","128045","0.0-77.0","""event"",""trial"",""time""
""fullscreenenter"",""0"",""27961""
","
","
","""event"",""trial"",""time""
""fullscreenenter"",""0"",""27961""
","
","null","run_exp/static/images/Set 6_rs/191a.jpg","null","","","","","","learn","SL",""
"","html-keyboard-response","78","128548","0.0-78.0","""event"",""trial"",""time""
""fullscreenenter"",""0"",""27961""
","
","
","""event"",""trial"",""time""
""fullscreenenter"",""0"",""27961""
","
","null","<p></p>","null","","","","","","","",""
"","image","79","129137","0.0-79.0","""event"",""trial"",""time""
""fullscreenenter"",""0"",""27961""
","
","
","""event"",""trial"",""time""
""fullscreenenter"",""0"",""27961""
","
","588.1999999284744","run_exp/static/images/Set 6_rs/070a.jpg","86","","","","","","learn","SR",""
"","show_choice","80","130559","0.0-80.0","""event"",""trial"",""time""
""fullscreenenter"",""0"",""27961""
","
","
","""event"",""trial"",""time""
""fullscreenenter"",""0"",""27961""
","
","null","run_exp/static/images/Set 6_rs/070a.jpg","null","","","","","","learn","SR",""
"","html-keyboard-response","81","131063","0.0-81.0","""event"",""trial"",""time""
""fullscreenenter"",""0"",""27961""
","
","
","""event"",""trial"",""time""
""fullscreenenter"",""0"",""27961""
","
","null","<p></p>","null","","","","","","","",""
"","image","82","131852","0.0-82.0","""event"",""trial"",""time""
""fullscreenenter"",""0"",""27961""
","
","
","""event"",""trial"",""time""
""fullscreenenter"",""0"",""27961""
","
","788","run_exp/static/images/Set 6_rs/016a.jpg","86","","","","","","learn","SL",""
"","show_choice","83","133068","0.0-83.0","""event"",""trial"",""time""
""fullscreenenter"",""0"",""27961""
","
","
","""event"",""trial"",""time""
""fullscreenenter"",""0"",""27961""
","
","null","run_exp/static/images/Set 6_rs/016a.jpg","null","","","","","","learn","SL",""
"","html-keyboard-response","84","133571","0.0-84.0","""event"",""trial"",""time""
""fullscreenenter"",""0"",""27961""
","
","
","""event"",""trial"",""time""
""fullscreenenter"",""0"",""27961""
","
","null","<p></p>","null","","","","","","","",""
"","image","85","134270","0.0-85.0","""event"",""trial"",""time""
""fullscreenenter"",""0"",""27961""
","
","
","""event"",""trial"",""time""
""fullscreenenter"",""0"",""27961""
","
","698.1000000238419","run_exp/static/images/Set 6_rs/126a.jpg","78","","","","","","learn","SR",""
"","show_choice","86","135585","0.0-86.0","""event"",""trial"",""time""
""fullscreenenter"",""0"",""27961""
","
","
","""event"",""trial"",""time""
""fullscreenenter"",""0"",""27961""
","
","null","run_exp/static/images/Set 6_rs/126a.jpg","null","","","","","","learn","SR",""
"","html-keyboard-response","87","136095","0.0-87.0","""event"",""trial"",""time""
""fullscreenenter"",""0"",""27961""
","
","
","""event"",""trial"",""time""
""fullscreenenter"",""0"",""27961""
","
","null","<p></p>","null","","","","","","","",""
"","image","88","136655","0.0-88.0","""event"",""trial"",""time""
""fullscreenenter"",""0"",""27961""
","
","
","""event"",""trial"",""time""
""fullscreenenter"",""0"",""27961""
","
","558.6999999284744","run_exp/static/images/Set 6_rs/007a.jpg","86","","","","","","learn","SR",""
"","show_choice","89","138105","0.0-89.0","""event"",""trial"",""time""
""fullscreenenter"",""0"",""27961""
","
","
","""event"",""trial"",""time""
""fullscreenenter"",""0"",""27961""
","
","null","run_exp/static/images/Set 6_rs/007a.jpg","null","","","","","","learn","SR",""
"","html-keyboard-response","90","138621","0.0-90.0","""event"",""trial"",""time""
""fullscreenenter"",""0"",""27961""
","
","
","""event"",""trial"",""time""
""fullscreenenter"",""0"",""27961""
","
","null","<p></p>","null","","","","","","","",""
"","image","91","139527","0.0-91.0","""event"",""trial"",""time""
""fullscreenenter"",""0"",""27961""
","
","
","""event"",""trial"",""time""
""fullscreenenter"",""0"",""27961""
","
","904.8999999761581","run_exp/static/images/Set 6_rs/141a.jpg","78","","","","","","learn","SR",""
"","show_choice","92","140629","0.0-92.0","""event"",""trial"",""time""
""fullscreenenter"",""0"",""27961""
","
","
","""event"",""trial"",""time""
""fullscreenenter"",""0"",""27961""
","
","null","run_exp/static/images/Set 6_rs/141a.jpg","null","","","","","","learn","SR",""
"","html-keyboard-response","93","141135","0.0-93.0","""event"",""trial"",""time""
""fullscreenenter"",""0"",""27961""
","
","
","""event"",""trial"",""time""
""fullscreenenter"",""0"",""27961""
","
","null","<p></p>","null","","","","","","","",""
"","image","94","142137","0.0-94.0","""event"",""trial"",""time""
""fullscreenenter"",""0"",""27961""
","
","
","""event"",""trial"",""time""
""fullscreenenter"",""0"",""27961""
","
","1000.6000000238419","run_exp/static/images/Set 6_rs/066a.jpg","86","","","","","","learn","SL",""
"","show_choice","95","143145","0.0-95.0","""event"",""trial"",""time""
""fullscreenenter"",""0"",""27961""
","
","
","""event"",""trial"",""time""
""fullscreenenter"",""0"",""27961""
","
","null","run_exp/static/images/Set 6_rs/066a.jpg","null","","","","","","learn","SL",""
"","html-keyboard-response","96","143649","0.0-96.0","""event"",""trial"",""time""
""fullscreenenter"",""0"",""27961""
","
","
","""event"",""trial"",""time""
""fullscreenenter"",""0"",""27961""
","
","null","<p></p>","null","","","","","","","",""
"","image","97","144745","0.0-97.0","""event"",""trial"",""time""
""fullscreenenter"",""0"",""27961""
","
","
","""event"",""trial"",""time""
""fullscreenenter"",""0"",""27961""
","
","1095.6999999284744","run_exp/static/images/Set 6_rs/134a.jpg","86","","","","","","learn","SR",""
"","show_choice","98","145659","0.0-98.0","""event"",""trial"",""time""
""fullscreenenter"",""0"",""27961""
","
","
","""event"",""trial"",""time""
""fullscreenenter"",""0"",""27961""
","
","null","run_exp/static/images/Set 6_rs/134a.jpg","null","","","","","","learn","SR",""
"","html-keyboard-response","99","146173","0.0-99.0","""event"",""trial"",""time""
""fullscreenenter"",""0"",""27961""
","
","
","""event"",""trial"",""time""
""fullscreenenter"",""0"",""27961""
","
","null","<p></p>","null","","","","","","","",""
"","image","100","147247","0.0-100.0","""event"",""trial"",""time""
""fullscreenenter"",""0"",""27961""
","
","
","""event"",""trial"",""time""
""fullscreenenter"",""0"",""27961""
","
","1073.4000000953674","run_exp/static/images/Set 6_rs/091a.jpg","86","","","","","","learn","SL",""
"","show_choice","101","148189","0.0-101.0","""event"",""trial"",""time""
""fullscreenenter"",""0"",""27961""
","
","
","""event"",""trial"",""time""
""fullscreenenter"",""0"",""27961""
","
","null","run_exp/static/images/Set 6_rs/091a.jpg","null","","","","","","learn","SL",""
"","html-keyboard-response","102","148701","0.0-102.0","""event"",""trial"",""time""
""fullscreenenter"",""0"",""27961""
","
","
","""event"",""trial"",""time""
""fullscreenenter"",""0"",""27961""
","
","null","<p></p>","null","","","","","","","",""
"","image","103","150023","0.0-103.0","""event"",""trial"",""time""
""fullscreenenter"",""0"",""27961""
","
","
","""event"",""trial"",""time""
""fullscreenenter"",""0"",""27961""
","
","1320.7000000476837","run_exp/static/images/Set 6_rs/073a.jpg","86","","","","","","learn","SL",""
"","show_choice","104","150715","0.0-104.0","""event"",""trial"",""time""
""fullscreenenter"",""0"",""27961""
","
","
","""event"",""trial"",""time""
""fullscreenenter"",""0"",""27961""
","
","null","run_exp/static/images/Set 6_rs/073a.jpg","null","","","","","","learn","SL",""
"","html-keyboard-response","105","151224","0.0-105.0","""event"",""trial"",""time""
""fullscreenenter"",""0"",""27961""
","
","
","""event"",""trial"",""time""
""fullscreenenter"",""0"",""27961""
","
","null","<p></p>","null","","","","","","","",""
"","image","106","152244","0.0-106.0","""event"",""trial"",""time""
""fullscreenenter"",""0"",""27961""
","
","
","""event"",""trial"",""time""
""fullscreenenter"",""0"",""27961""
","
","1018.8999999761581","run_exp/static/images/Set 6_rs/116a.jpg","86","","","","","","learn","SL",""
"","show_choice","107","153233","0.0-107.0","""event"",""trial"",""time""
""fullscreenenter"",""0"",""27961""
","
","
","""event"",""trial"",""time""
""fullscreenenter"",""0"",""27961""
","
","null","run_exp/static/images/Set 6_rs/116a.jpg","null","","","","","","learn","SL",""
"","html-keyboard-response","108","153749","0.0-108.0","""event"",""trial"",""time""
""fullscreenenter"",""0"",""27961""
","
","
","""event"",""trial"",""time""
""fullscreenenter"",""0"",""27961""
","
","null","<p></p>","null","","","","","","","",""
"","image","109","154567","0.0-109.0","""event"",""trial"",""time""
""fullscreenenter"",""0"",""27961""
","
","
","""event"",""trial"",""time""
""fullscreenenter"",""0"",""27961""
","
","817","run_exp/static/images/Set 6_rs/178a.jpg","78","","","","","","learn","SR",""
"","show_choice","110","155759","0.0-110.0","""event"",""trial"",""time""
""fullscreenenter"",""0"",""27961""
","
","
","""event"",""trial"",""time""
""fullscreenenter"",""0"",""27961""
","
","null","run_exp/static/images/Set 6_rs/178a.jpg","null","","","","","","learn","SR",""
"","html-keyboard-response","111","156261","0.0-111.0","""event"",""trial"",""time""
""fullscreenenter"",""0"",""27961""
","
","
","""event"",""trial"",""time""
""fullscreenenter"",""0"",""27961""
","
","null","<p></p>","null","","","","","","","",""
"","image","112","157535","0.0-112.0","""event"",""trial"",""time""
""fullscreenenter"",""0"",""27961""
","
","
","""event"",""trial"",""time""
""fullscreenenter"",""0"",""27961""
","
","1273.1999999284744","run_exp/static/images/Set 6_rs/167a.jpg","86","","","","","","learn","SL",""
"","show_choice","113","158271","0.0-113.0","""event"",""trial"",""time""
""fullscreenenter"",""0"",""27961""
","
","
","""event"",""trial"",""time""
""fullscreenenter"",""0"",""27961""
","
","null","run_exp/static/images/Set 6_rs/167a.jpg","null","","","","","","learn","SL",""
"","html-keyboard-response","114","158785","0.0-114.0","""event"",""trial"",""time""
""fullscreenenter"",""0"",""27961""
","
","
","""event"",""trial"",""time""
""fullscreenenter"",""0"",""27961""
","
","null","<p></p>","null","","","","","","","",""
"","image","115","159361","0.0-115.0","""event"",""trial"",""time""
""fullscreenenter"",""0"",""27961""
","
","
","""event"",""trial"",""time""
""fullscreenenter"",""0"",""27961""
","
","574.6999999284744","run_exp/static/images/Set 6_rs/112a.jpg","86","","","","","","learn","SR",""
"","show_choice","116","160795","0.0-116.0","""event"",""trial"",""time""
""fullscreenenter"",""0"",""27961""
","
","
","""event"",""trial"",""time""
""fullscreenenter"",""0"",""27961""
","
","null","run_exp/static/images/Set 6_rs/112a.jpg","null","","","","","","learn","SR",""
"","html-keyboard-response","117","161301","0.0-117.0","""event"",""trial"",""time""
""fullscreenenter"",""0"",""27961""
","
","
","""event"",""trial"",""time""
""fullscreenenter"",""0"",""27961""
","
","null","<p></p>","null","","","","","","","",""
"","image","118","162527","0.0-118.0","""event"",""trial"",""time""
""fullscreenenter"",""0"",""27961""
","
","
","""event"",""trial"",""time""
""fullscreenenter"",""0"",""27961""
","
","1225.5","run_exp/static/images/Set 6_rs/008a.jpg","86","","","","","","learn","SL",""
"","show_choice","119","163309","0.0-119.0","""event"",""trial"",""time""
""fullscreenenter"",""0"",""27961""
","
","
","""event"",""trial"",""time""
""fullscreenenter"",""0"",""27961""
","
","null","run_exp/static/images/Set 6_rs/008a.jpg","null","","","","","","learn","SL",""
"","html-keyboard-response","120","163825","0.0-120.0","""event"",""trial"",""time""
""fullscreenenter"",""0"",""27961""
","
","
","""event"",""trial"",""time""
""fullscreenenter"",""0"",""27961""
","
","null","<p></p>","null","","","","","","","",""
"","image","121","164729","0.0-121.0","""event"",""trial"",""time""
""fullscreenenter"",""0"",""27961""
","
","
","""event"",""trial"",""time""
""fullscreenenter"",""0"",""27961""
","
","903.2999999523163","run_exp/static/images/Set 6_rs/129a.jpg","86","","","","","","learn","SL",""
"","show_choice","122","165834","0.0-122.0","""event"",""trial"",""time""
""fullscreenenter"",""0"",""27961""
","
","
","""event"",""trial"",""time""
""fullscreenenter"",""0"",""27961""
","
","null","run_exp/static/images/Set 6_rs/129a.jpg","null","","","","","","learn","SL",""
"","html-keyboard-response","123","166339","0.0-123.0","""event"",""trial"",""time""
""fullscreenenter"",""0"",""27961""
","
","
","""event"",""trial"",""time""
""fullscreenenter"",""0"",""27961""
","
","null","<p></p>","null","","","","","","","",""
"","image","124","167011","0.0-124.0","""event"",""trial"",""time""
""fullscreenenter"",""0"",""27961""
","
","
","""event"",""trial"",""time""
""fullscreenenter"",""0"",""27961""
","
","671.3999999761581","run_exp/static/images/Set 6_rs/019a.jpg","86","","","","","","learn","SL",""
"","show_choice","125","168351","0.0-125.0","""event"",""trial"",""time""
""fullscreenenter"",""0"",""27961""
","
","
","""event"",""trial"",""time""
""fullscreenenter"",""0"",""27961""
","
","null","run_exp/static/images/Set 6_rs/019a.jpg","null","","","","","","learn","SL",""
"","html-keyboard-response","126","168865","0.0-126.0","""event"",""trial"",""time""
""fullscreenenter"",""0"",""27961""
","
","
","""event"",""trial"",""time""
""fullscreenenter"",""0"",""27961""
","
","null","<p></p>","null","","","","","","","",""
"","image","127","169837","0.0-127.0","""event"",""trial"",""time""
""fullscreenenter"",""0"",""27961""
","
","
","""event"",""trial"",""time""
""fullscreenenter"",""0"",""27961""
","
","971.4000000953674","run_exp/static/images/Set 6_rs/061a.jpg","78","","","","","","learn","SR",""
"","show_choice","128","170869","0.0-128.0","""event"",""trial"",""time""
""fullscreenenter"",""0"",""27961""
","
","
","""event"",""trial"",""time""
""fullscreenenter"",""0"",""27961""
","
","null","run_exp/static/images/Set 6_rs/061a.jpg","null","","","","","","learn","SR",""
"","html-keyboard-response","129","171387","0.0-129.0","""event"",""trial"",""time""
""fullscreenenter"",""0"",""27961""
","
","
","""event"",""trial"",""time""
""fullscreenenter"",""0"",""27961""
","
","null","<p></p>","null","","","","","","","",""
"","image","130","172115","0.0-130.0","""event"",""trial"",""time""
""fullscreenenter"",""0"",""27961""
","
","
","""event"",""trial"",""time""
""fullscreenenter"",""0"",""27961""
","
","727.1000000238419","run_exp/static/images/Set 6_rs/177a.jpg","78","","","","","","learn","SR",""
"","show_choice","131","173401","0.0-131.0","""event"",""trial"",""time""
""fullscreenenter"",""0"",""27961""
","
","
","""event"",""trial"",""time""
""fullscreenenter"",""0"",""27961""
","
","null","run_exp/static/images/Set 6_rs/177a.jpg","null","","","","","","learn","SR",""
"","html-keyboard-response","132","173915","0.0-132.0","""event"",""trial"",""time""
""fullscreenenter"",""0"",""27961""
","
","
","""event"",""trial"",""time""
""fullscreenenter"",""0"",""27961""
","
","null","<p></p>","null","","","","","","","",""
"","image","133","174639","0.0-133.0","""event"",""trial"",""time""
""fullscreenenter"",""0"",""27961""
","
","
","""event"",""trial"",""time""
""fullscreenenter"",""0"",""27961""
","
","722.8999999761581","run_exp/static/images/Set 6_rs/123a.jpg","78","","","","","","learn","SL",""
"","show_choice","134","175920","0.0-134.0","""event"",""trial"",""time""
""fullscreenenter"",""0"",""27961""
","
","
","""event"",""trial"",""time""
""fullscreenenter"",""0"",""27961""
","
","null","run_exp/static/images/Set 6_rs/123a.jpg","null","","","","","","learn","SL",""
"","html-keyboard-response","135","176429","0.0-135.0","""event"",""trial"",""time""
""fullscreenenter"",""0"",""27961""
","
","
","""event"",""trial"",""time""
""fullscreenenter"",""0"",""27961""
","
","null","<p></p>","null","","","","","","","",""
"","image","136","177423","0.0-136.0","""event"",""trial"",""time""
""fullscreenenter"",""0"",""27961""
","
","
","""event"",""trial"",""time""
""fullscreenenter"",""0"",""27961""
","
","992.6000000238419","run_exp/static/images/Set 6_rs/132a.jpg","78","","","","","","learn","SR",""
"","show_choice","137","178431","0.0-137.0","""event"",""trial"",""time""
""fullscreenenter"",""0"",""27961""
","
","
","""event"",""trial"",""time""
""fullscreenenter"",""0"",""27961""
","
","null","run_exp/static/images/Set 6_rs/132a.jpg","null","","","","","","learn","SR",""
"","html-keyboard-response","138","178940","0.0-138.0","""event"",""trial"",""time""
""fullscreenenter"",""0"",""27961""
","
","
","""event"",""trial"",""time""
""fullscreenenter"",""0"",""27961""
","
","null","<p></p>","null","","","","","","","",""
"","image","139","179873","0.0-139.0","""event"",""trial"",""time""
""fullscreenenter"",""0"",""27961""
","
","
","""event"",""trial"",""time""
""fullscreenenter"",""0"",""27961""
","
","931.6999999284744","run_exp/static/images/Set 6_rs/010a.jpg","86","","","","","","learn","SR",""
"","show_choice","140","180955","0.0-140.0","""event"",""trial"",""time""
""fullscreenenter"",""0"",""27961""
","
","
","""event"",""trial"",""time""
""fullscreenenter"",""0"",""27961""
","
","null","run_exp/static/images/Set 6_rs/010a.jpg","null","","","","","","learn","SR",""
"","html-keyboard-response","141","181470","0.0-141.0","""event"",""trial"",""time""
""fullscreenenter"",""0"",""27961""
","
","
","""event"",""trial"",""time""
""fullscreenenter"",""0"",""27961""
","
","null","<p></p>","null","","","","","","","",""
"","image","142","182629","0.0-142.0","""event"",""trial"",""time""
""fullscreenenter"",""0"",""27961""
","
","
","""event"",""trial"",""time""
""fullscreenenter"",""0"",""27961""
","
","1158.7999999523163","run_exp/static/images/Set 6_rs/088a.jpg","86","","","","","","learn","SR",""
"","show_choice","143","183481","0.0-143.0","""event"",""trial"",""time""
""fullscreenenter"",""0"",""27961""
","
","
","""event"",""trial"",""time""
""fullscreenenter"",""0"",""27961""
","
","null","run_exp/static/images/Set 6_rs/088a.jpg","null","","","","","","learn","SR",""
"","html-keyboard-response","144","183983","0.0-144.0","""event"",""trial"",""time""
""fullscreenenter"",""0"",""27961""
","
","
","""event"",""trial"",""time""
""fullscreenenter"",""0"",""27961""
","
","null","<p></p>","null","","","","","","","",""
"","image","145","185987","0.0-145.0","""event"",""trial"",""time""
""fullscreenenter"",""0"",""27961""
","
","
","""event"",""trial"",""time""
""fullscreenenter"",""0"",""27961""
","
","null","run_exp/static/images/Set 6_rs/166a.jpg","null","","","","","","learn","SR",""
"","show_choice","146","187995","0.0-146.0","""event"",""trial"",""time""
""fullscreenenter"",""0"",""27961""
","
","
","""event"",""trial"",""time""
""fullscreenenter"",""0"",""27961""
","
","null","run_exp/static/images/blank.png","null","","","","","","learn","SR",""
"","html-keyboard-response","147","188510","0.0-147.0","""event"",""trial"",""time""
""fullscreenenter"",""0"",""27961""
","
","
","""event"",""trial"",""time""
""fullscreenenter"",""0"",""27961""
","
","null","<p></p>","null","","","","","","","",""
"","image","148","189383","0.0-148.0","""event"",""trial"",""time""
""fullscreenenter"",""0"",""27961""
","
","
","""event"",""trial"",""time""
""fullscreenenter"",""0"",""27961""
","
","872","run_exp/static/images/Set 6_rs/181a.jpg","78","","","","","","learn","SL",""
"","show_choice","149","190519","0.0-149.0","""event"",""trial"",""time""
""fullscreenenter"",""0"",""27961""
","
","
","""event"",""trial"",""time""
""fullscreenenter"",""0"",""27961""
","
","null","run_exp/static/images/Set 6_rs/181a.jpg","null","","","","","","learn","SL",""
"","html-keyboard-response","150","191021","0.0-150.0","""event"",""trial"",""time""
""fullscreenenter"",""0"",""27961""
","
","
","""event"",""trial"",""time""
""fullscreenenter"",""0"",""27961""
","
","null","<p></p>","null","","","","","","","",""
"","image","151","192963","0.0-151.0","""event"",""trial"",""time""
""fullscreenenter"",""0"",""27961""
","
","
","""event"",""trial"",""time""
""fullscreenenter"",""0"",""27961""
","
","1940.5","run_exp/static/images/Set 6_rs/075a.jpg","78","","","","","","learn","SR",""
"","show_choice","152","193036","0.0-152.0","""event"",""trial"",""time""
""fullscreenenter"",""0"",""27961""
","
","
","""event"",""trial"",""time""
""fullscreenenter"",""0"",""27961""
","
","null","run_exp/static/images/Set 6_rs/075a.jpg","null","","","","","","learn","SR",""
"","html-keyboard-response","153","193545","0.0-153.0","""event"",""trial"",""time""
""fullscreenenter"",""0"",""27961""
","
","
","""event"",""trial"",""time""
""fullscreenenter"",""0"",""27961""
","
","null","<p></p>","null","","","","","","","",""
"","image","154","194170","0.0-154.0","""event"",""trial"",""time""
""fullscreenenter"",""0"",""27961""
","
","
","""event"",""trial"",""time""
""fullscreenenter"",""0"",""27961""
","
","624.2000000476837","run_exp/static/images/Set 6_rs/172a.jpg","78","","","","","","learn","SR",""
"","show_choice","155","195559","0.0-155.0","""event"",""trial"",""time""
""fullscreenenter"",""0"",""27961""
","
","
","""event"",""trial"",""time""
""fullscreenenter"",""0"",""27961""
","
","null","run_exp/static/images/Set 6_rs/172a.jpg","null","","","","","","learn","SR",""
"","html-keyboard-response","156","196067","0.0-156.0","""event"",""trial"",""time""
""fullscreenenter"",""0"",""27961""
","
","
","""event"",""trial"",""time""
""fullscreenenter"",""0"",""27961""
","
","null","<p></p>","null","","","","","","","",""
"","image","157","196796","0.0-157.0","""event"",""trial"",""time""
""fullscreenenter"",""0"",""27961""
","
","
","""event"",""trial"",""time""
""fullscreenenter"",""0"",""27961""
","
","727.6999999284744","run_exp/static/images/Set 6_rs/025a.jpg","78","","","","","","learn","SL",""
"","show_choice","158","198080","0.0-158.0","""event"",""trial"",""time""
""fullscreenenter"",""0"",""27961""
","
","
","""event"",""trial"",""time""
""fullscreenenter"",""0"",""27961""
","
","null","run_exp/static/images/Set 6_rs/025a.jpg","null","","","","","","learn","SL",""
"","html-keyboard-response","159","198582","0.0-159.0","""event"",""trial"",""time""
""fullscreenenter"",""0"",""27961""
","
","
","""event"",""trial"",""time""
""fullscreenenter"",""0"",""27961""
","
","null","<p></p>","null","","","","","","","",""
"","image","160","199389","0.0-160.0","""event"",""trial"",""time""
""fullscreenenter"",""0"",""27961""
","
","
","""event"",""trial"",""time""
""fullscreenenter"",""0"",""27961""
","
","806.2999999523163","run_exp/static/images/Set 6_rs/186a.jpg","86","","","","","","learn","SR",""
"","show_choice","161","200597","0.0-161.0","""event"",""trial"",""time""
""fullscreenenter"",""0"",""27961""
","
","
","""event"",""trial"",""time""
""fullscreenenter"",""0"",""27961""
","
","null","run_exp/static/images/Set 6_rs/186a.jpg","null","","","","","","learn","SR",""
"","html-keyboard-response","162","201109","0.0-162.0","""event"",""trial"",""time""
""fullscreenenter"",""0"",""27961""
","
","
","""event"",""trial"",""time""
""fullscreenenter"",""0"",""27961""
","
","null","<p></p>","null","","","","","","","",""
"","image","163","202310","0.0-163.0","""event"",""trial"",""time""
""fullscreenenter"",""0"",""27961""
","
","
","""event"",""trial"",""time""
""fullscreenenter"",""0"",""27961""
","
","1199.8999999761581","run_exp/static/images/Set 6_rs/050a.jpg","86","","","","","","learn","SL",""
"","show_choice","164","203115","0.0-164.0","""event"",""trial"",""time""
""fullscreenenter"",""0"",""27961""
","
","
","""event"",""trial"",""time""
""fullscreenenter"",""0"",""27961""
","
","null","run_exp/static/images/Set 6_rs/050a.jpg","null","","","","","","learn","SL",""
"","html-keyboard-response","165","203629","0.0-165.0","""event"",""trial"",""time""
""fullscreenenter"",""0"",""27961""
","
","
","""event"",""trial"",""time""
""fullscreenenter"",""0"",""27961""
","
","null","<p></p>","null","","","","","","","",""
"","image","166","205347","0.0-166.0","""event"",""trial"",""time""
""fullscreenenter"",""0"",""27961""
","
","
","""event"",""trial"",""time""
""fullscreenenter"",""0"",""27961""
","
","1716.8000000715256","run_exp/static/images/Set 6_rs/079a.jpg","78","","","","","","learn","SL",""
"","show_choice","167","205646","0.0-167.0","""event"",""trial"",""time""
""fullscreenenter"",""0"",""27961""
","
","
","""event"",""trial"",""time""
""fullscreenenter"",""0"",""27961""
","
","null","run_exp/static/images/Set 6_rs/079a.jpg","null","","","","","","learn","SL",""
"","html-keyboard-response","168","206160","0.0-168.0","""event"",""trial"",""time""
""fullscreenenter"",""0"",""27961""
","
","
","""event"",""trial"",""time""
""fullscreenenter"",""0"",""27961""
","
","null","<p></p>","null","","","","","","","",""
"","image","169","206861","0.0-169.0","""event"",""trial"",""time""
""fullscreenenter"",""0"",""27961""
","
","
","""event"",""trial"",""time""
""fullscreenenter"",""0"",""27961""
","
","699.5","run_exp/static/images/Set 6_rs/045a.jpg","86","","","","","","learn","SR",""
"","show_choice","170","208167","0.0-170.0","""event"",""trial"",""time""
""fullscreenenter"",""0"",""27961""
","
","
","""event"",""trial"",""time""
""fullscreenenter"",""0"",""27961""
","
","null","run_exp/static/images/Set 6_rs/045a.jpg","null","","","","","","learn","SR",""
"","html-keyboard-response","171","208671","0.0-171.0","""event"",""trial"",""time""
""fullscreenenter"",""0"",""27961""
","
","
","""event"",""trial"",""time""
""fullscreenenter"",""0"",""27961""
","
","null","<p></p>","null","","","","","","","",""
"","image","172","209537","0.0-172.0","""event"",""trial"",""time""
""fullscreenenter"",""0"",""27961""
","
","
","""event"",""trial"",""time""
""fullscreenenter"",""0"",""27961""
","
","864.7000000476837","run_exp/static/images/Set 6_rs/074a.jpg","86","","","","","","learn","SL",""
"","show_choice","173","210679","0.0-173.0","""event"",""trial"",""time""
""fullscreenenter"",""0"",""27961""
","
","
","""event"",""trial"",""time""
""fullscreenenter"",""0"",""27961""
","
","null","run_exp/static/images/Set 6_rs/074a.jpg","null","","","","","","learn","SL",""
"","html-keyboard-response","174","211189","0.0-174.0","""event"",""trial"",""time""
""fullscreenenter"",""0"",""27961""
","
","
","""event"",""trial"",""time""
""fullscreenenter"",""0"",""27961""
","
","null","<p></p>","null","","","","","","","",""
"","image","175","212306","0.0-175.0","""event"",""trial"",""time""
""fullscreenenter"",""0"",""27961""
","
","
","""event"",""trial"",""time""
""fullscreenenter"",""0"",""27961""
","
","1115.1999999284744","run_exp/static/images/Set 6_rs/168a.jpg","86","","","","","","learn","SL",""
"","show_choice","176","213195","0.0-176.0","""event"",""trial"",""time""
""fullscreenenter"",""0"",""27961""
","
","
","""event"",""trial"",""time""
""fullscreenenter"",""0"",""27961""
","
","null","run_exp/static/images/Set 6_rs/168a.jpg","null","","","","","","learn","SL",""
"","html-keyboard-response","177","213711","0.0-177.0","""event"",""trial"",""time""
""fullscreenenter"",""0"",""27961""
","
","
","""event"",""trial"",""time""
""fullscreenenter"",""0"",""27961""
","
","null","<p></p>","null","","","","","","","",""
"","image","178","214625","0.0-178.0","""event"",""trial"",""time""
""fullscreenenter"",""0"",""27961""
","
","
","""event"",""trial"",""time""
""fullscreenenter"",""0"",""27961""
","
","912.7000000476837","run_exp/static/images/Set 6_rs/071a.jpg","86","","","","","","learn","SL",""
"","show_choice","179","215719","0.0-179.0","""event"",""trial"",""time""
""fullscreenenter"",""0"",""27961""
","
","
","""event"",""trial"",""time""
""fullscreenenter"",""0"",""27961""
","
","null","run_exp/static/images/Set 6_rs/071a.jpg","null","","","","","","learn","SL",""
"","html-keyboard-response","180","216235","0.0-180.0","""event"",""trial"",""time""
""fullscreenenter"",""0"",""27961""
","
","
","""event"",""trial"",""time""
""fullscreenenter"",""0"",""27961""
","
","null","<p></p>","null","","","","","","","",""
"","image","181","217172","0.0-181.0","""event"",""trial"",""time""
""fullscreenenter"",""0"",""27961""
","
","
","""event"",""trial"",""time""
""fullscreenenter"",""0"",""27961""
","
","935.1000000238419","run_exp/static/images/Set 6_rs/089a.jpg","86","","","","","","learn","SL",""
"","show_choice","182","218248","0.0-182.0","""event"",""trial"",""time""
""fullscreenenter"",""0"",""27961""
","
","
","""event"",""trial"",""time""
""fullscreenenter"",""0"",""27961""
","
","null","run_exp/static/images/Set 6_rs/089a.jpg","null","","","","","","learn","SL",""
"","html-keyboard-response","183","218755","0.0-183.0","""event"",""trial"",""time""
""fullscreenenter"",""0"",""27961""
","
","
","""event"",""trial"",""time""
""fullscreenenter"",""0"",""27961""
","
","null","<p></p>","null","","","","","","","",""
"","image","184","219386","0.0-184.0","""event"",""trial"",""time""
""fullscreenenter"",""0"",""27961""
","
","
","""event"",""trial"",""time""
""fullscreenenter"",""0"",""27961""
","
","629.8999999761581","run_exp/static/images/Set 6_rs/187a.jpg","86","","","","","","learn","SR",""
"","show_choice","185","220765","0.0-185.0","""event"",""trial"",""time""
""fullscreenenter"",""0"",""27961""
","
","
","""event"",""trial"",""time""
""fullscreenenter"",""0"",""27961""
","
","null","run_exp/static/images/Set 6_rs/187a.jpg","null","","","","","","learn","SR",""
"","html-keyboard-response","186","221274","0.0-186.0","""event"",""trial"",""time""
""fullscreenenter"",""0"",""27961""
","
","
","""event"",""trial"",""time""
""fullscreenenter"",""0"",""27961""
","
","null","<p></p>","null","","","","","","","",""
"","image","187","222447","0.0-187.0","""event"",""trial"",""time""
""fullscreenenter"",""0"",""27961""
","
","
","""event"",""trial"",""time""
""fullscreenenter"",""0"",""27961""
","
","1171.6000000238419","run_exp/static/images/Set 6_rs/121a.jpg","86","","","","","","learn","SR",""
"","show_choice","188","223280","0.0-188.0","""event"",""trial"",""time""
""fullscreenenter"",""0"",""27961""
","
","
","""event"",""trial"",""time""
""fullscreenenter"",""0"",""27961""
","
","null","run_exp/static/images/Set 6_rs/121a.jpg","null","","","","","","learn","SR",""
"","html-keyboard-response","189","223790","0.0-189.0","""event"",""trial"",""time""
""fullscreenenter"",""0"",""27961""
","
","
","""event"",""trial"",""time""
""fullscreenenter"",""0"",""27961""
","
","null","<p></p>","null","","","","","","","",""
"","image","190","225401","0.0-190.0","""event"",""trial"",""time""
""fullscreenenter"",""0"",""27961""
","
","
","""event"",""trial"",""time""
""fullscreenenter"",""0"",""27961""
","
","1609.1000000238419","run_exp/static/images/Set 6_rs/144a.jpg","86","","","","","","learn","SL",""
"","show_choice","191","225795","0.0-191.0","""event"",""trial"",""time""
""fullscreenenter"",""0"",""27961""
","
","
","""event"",""trial"",""time""
""fullscreenenter"",""0"",""27961""
","
","null","run_exp/static/images/Set 6_rs/144a.jpg","null","","","","","","learn","SL",""
"","html-keyboard-response","192","226299","0.0-192.0","""event"",""trial"",""time""
""fullscreenenter"",""0"",""27961""
","
","
","""event"",""trial"",""time""
""fullscreenenter"",""0"",""27961""
","
","null","<p></p>","null","","","","","","","",""
"","image","193","227512","0.0-193.0","""event"",""trial"",""time""
""fullscreenenter"",""0"",""27961""
","
","
","""event"",""trial"",""time""
""fullscreenenter"",""0"",""27961""
","
","1211.7999999523163","run_exp/static/images/Set 6_rs/095a.jpg","86","","","","","","learn","SL",""
"","show_choice","194","228305","0.0-194.0","""event"",""trial"",""time""
""fullscreenenter"",""0"",""27961""
","
","
","""event"",""trial"",""time""
""fullscreenenter"",""0"",""27961""
","
","null","run_exp/static/images/Set 6_rs/095a.jpg","null","","","","","","learn","SL",""
"","html-keyboard-response","195","228816","0.0-195.0","""event"",""trial"",""time""
""fullscreenenter"",""0"",""27961""
","
","
","""event"",""trial"",""time""
""fullscreenenter"",""0"",""27961""
","
","null","<p></p>","null","","","","","","","",""
"","test_intro","196","266312","0.0-196.0","""event"",""trial"",""time""
""fullscreenenter"",""0"",""27961""
","
","
","""event"",""trial"",""time""
""fullscreenenter"",""0"",""27961""
","
","null","run_exp/static/audio/clip_2_memory.m4a","null","","","","","<div class='center'><p>Now, lets see how much you remember about the items you just saw.  For each item, you need to indicate if it was <b>old</b> by pressing the <b>v</b> key, <b>similar</b> by pressing the <b>b</b> key, or <b>new</b> by pressing the <b>n</b> key.</p><p>Old refers to an item that you saw before in the indoor/outdoor game that you just played, new refers to an item you have <b>not</b> seen before within the indoor/outdoor game, and similar refers to an item that is similar to an item youve seen before but is not exactly the same. </p><p>Before we begin, lets go over some brief demonstrations to make sure you understand.</p></div>","","",""
"","html-keyboard-response","197","293156","0.0-197.0","""event"",""trial"",""time""
""fullscreenenter"",""0"",""27961""
","
","
","""event"",""trial"",""time""
""fullscreenenter"",""0"",""27961""
","
","26843.599999904633","<div class='center'><p>Now, lets see how much you remember about the items you just saw.  For each item, you need to indicate if it was <b>old</b> by pressing the <b>v</b> key, <b>similar</b> by pressing the <b>b</b> key, or <b>new</b> by pressing the <b>n</b> key.</p><p>Old refers to an item that you saw before in the indoor/outdoor game that you just played, new refers to an item you have <b>not</b> seen before within the indoor/outdoor game, and similar refers to an item that is similar to an item youve seen before but is not exactly the same. </p><p>Before we begin, lets go over some brief demonstrations to make sure you understand.</p><div><p><b>[Press the space bar to continue]</b></p></div>","32","","","","","","","",""
"","items","198","300665","0.0-198.0","""event"",""trial"",""time""
""fullscreenenter"",""0"",""27961""
","
","
","""event"",""trial"",""time""
""fullscreenenter"",""0"",""27961""
","
","null","run_exp/static/audio/clip_3_items.m4a","null","","","","","","","",""
"","mop","199","305171","0.0-199.0","""event"",""trial"",""time""
""fullscreenenter"",""0"",""27961""
","
","
","""event"",""trial"",""time""
""fullscreenenter"",""0"",""27961""
","
","null","run_exp/static/audio/clip_4_mop.m4a","null","","","","","","","",""
"","baseball","200","308681","0.0-200.0","""event"",""trial"",""time""
""fullscreenenter"",""0"",""27961""
","
","
","""event"",""trial"",""time""
""fullscreenenter"",""0"",""27961""
","
","null","run_exp/static/audio/clip_5_baseball.m4a","null","","","","","","","",""
"","trumpet","201","312187","0.0-201.0","""event"",""trial"",""time""
""fullscreenenter"",""0"",""27961""
","
","
","""event"",""trial"",""time""
""fullscreenenter"",""0"",""27961""
","
","null","run_exp/static/audio/clip_6_trumpet.m4a","null","","","","","","","",""
"","gummies","202","315702","0.0-202.0","""event"",""trial"",""time""
""fullscreenenter"",""0"",""27961""
","
","
","""event"",""trial"",""time""
""fullscreenenter"",""0"",""27961""
","
","null","run_exp/static/audio/clip_7_gummies.m4a","null","","","","","","","",""
"","osn","203","320215","0.0-203.0","""event"",""trial"",""time""
""fullscreenenter"",""0"",""27961""
","
","
","""event"",""trial"",""time""
""fullscreenenter"",""0"",""27961""
","
","null","run_exp/static/audio/clip_8_osn.m4a","null","","","","","","","",""
"","old_1","204","326722","0.0-204.0","""event"",""trial"",""time""
""fullscreenenter"",""0"",""27961""
","
","
","""event"",""trial"",""time""
""fullscreenenter"",""0"",""27961""
","
","null","run_exp/static/audio/clip_9_old_trumpet.m4a","null","","","","","","","",""
"","new_1","205","334226","0.0-205.0","""event"",""trial"",""time""
""fullscreenenter"",""0"",""27961""
","
","
","""event"",""trial"",""time""
""fullscreenenter"",""0"",""27961""
","
","null","run_exp/static/audio/clip_10_new_balloon.m4a","null","","","","","","","",""
"","similar_1a","206","338737","0.0-206.0","""event"",""trial"",""time""
""fullscreenenter"",""0"",""27961""
","
","
","""event"",""trial"",""time""
""fullscreenenter"",""0"",""27961""
","
","null","run_exp/static/audio/clip_11a_similar_mop.m4a","null","","","","","","","",""
"","similar_1b","207","345242","0.0-207.0","""event"",""trial"",""time""
""fullscreenenter"",""0"",""27961""
","
","
","""event"",""trial"",""time""
""fullscreenenter"",""0"",""27961""
","
","null","run_exp/static/audio/clip_11b_similar_mop.m4a","null","","","","","","","",""
"","new_2","208","348755","0.0-208.0","""event"",""trial"",""time""
""fullscreenenter"",""0"",""27961""
","
","
","""event"",""trial"",""time""
""fullscreenenter"",""0"",""27961""
","
","null","run_exp/static/audio/clip_12_new_stoplight.m4a","null","","","","","","","",""
"","old_2","209","352258","0.0-209.0","""event"",""trial"",""time""
""fullscreenenter"",""0"",""27961""
","
","
","""event"",""trial"",""time""
""fullscreenenter"",""0"",""27961""
","
","null","run_exp/static/audio/clip_13_old_baseball.m4a","null","","","","","","","",""
"","similar_2a","210","355768","0.0-210.0","""event"",""trial"",""time""
""fullscreenenter"",""0"",""27961""
","
","
","""event"",""trial"",""time""
""fullscreenenter"",""0"",""27961""
","
","null","run_exp/static/audio/clip_14a_similar_gummies.m4a","null","","","","","","","",""
"","similar_2b","211","363272","0.0-211.0","""event"",""trial"",""time""
""fullscreenenter"",""0"",""27961""
","
","
","""event"",""trial"",""time""
""fullscreenenter"",""0"",""27961""
","
","null","run_exp/static/audio/clip_14b_similar_gummies.m4a","null","","","","","","","",""
"","practice","212","405388","0.0-212.0","""event"",""trial"",""time""
""fullscreenenter"",""0"",""27961""
","
","
","""event"",""trial"",""time""
""fullscreenenter"",""0"",""27961""
","
","null","run_exp/static/audio/clip_15_practice.m4a","null","","","","","<div class='center'><p>Lets practice a little to make sure you understand the difference between new, similar, and old. Lets say you saw these three items in the indoor/outdoor game.</p><p> Try your best to remember these images because youll soon be tested on them in a practice game. In the practice game, youll be shown images and youll have to say if they are old (one of the three images belows), similar (similar to one of the images below but not exactly the same), or new (are not one of the images below nor similar to them).</p><p>Once you press the space bar youll be shown these images again but one at time. Then youll begin the practice game.</p><p><img src='run_exp/static/images/tutorial/test/three_indoor_outdoor.png' height='300'></p></div>","","",""
"","html-keyboard-response","213","406576","0.0-213.0","""event"",""trial"",""time""
""fullscreenenter"",""0"",""27961""
","
","
","""event"",""trial"",""time""
""fullscreenenter"",""0"",""27961""
","
","1186.4000000953674","<div class='center'><p>Lets practice a little to make sure you understand the difference between new, similar, and old. Lets say you saw these three items in the indoor/outdoor game.</p><p> Try your best to remember these images because youll soon be tested on them in a practice game. In the practice game, youll be shown images and youll have to say if they are old (one of the three images belows), similar (similar to one of the images below but not exactly the same), or new (are not one of the images below nor similar to them).</p><p>Once you press the space bar youll be shown these images again but one at time. Then youll begin the practice game.</p><p><img src='run_exp/static/images/tutorial/test/three_indoor_outdoor.png' height='300'></p><div><p><b>[Press the space bar to continue]</b></p></div>","32","","","","","","","",""
"","planet","214","408587","0.0-214.0","""event"",""trial"",""time""
""fullscreenenter"",""0"",""27961""
","
","
","""event"",""trial"",""time""
""fullscreenenter"",""0"",""27961""
","
","null","run_exp/static/images/tutorial/test/008a.jpg","null","","","","","","","",""
"","boot","215","410601","0.0-215.0","""event"",""trial"",""time""
""fullscreenenter"",""0"",""27961""
","
","
","""event"",""trial"",""time""
""fullscreenenter"",""0"",""27961""
","
","null","run_exp/static/images/tutorial/test/011a.jpg","null","","","","","","","",""
"","lemon","216","412615","0.0-216.0","""event"",""trial"",""time""
""fullscreenenter"",""0"",""27961""
","
","
","""event"",""trial"",""time""
""fullscreenenter"",""0"",""27961""
","
","null","run_exp/static/images/tutorial/test/018a.jpg","null","","","","","","","",""
"","practice_q1","217","415698","0.0-217.0","""event"",""trial"",""time""
""fullscreenenter"",""0"",""27961""
","
","
","""event"",""trial"",""time""
""fullscreenenter"",""0"",""27961""
","
","3081.100000023842","run_exp/static/audio/clip_16_practice_question.m4a","78","","","","","","","",""
"","correct","218","417609","0.0-218.0-0.0","""event"",""trial"",""time""
""fullscreenenter"",""0"",""27961""
","
","
","""event"",""trial"",""time""
""fullscreenenter"",""0"",""27961""
","
","null","run_exp/static/audio/clip_17_correct.m4a","null","","","","","<div class='center'><p>That's correct!</p></div>","","",""
"","html-keyboard-response","219","418462","0.0-218.0-1.0","""event"",""trial"",""time""
""fullscreenenter"",""0"",""27961""
","
","
","""event"",""trial"",""time""
""fullscreenenter"",""0"",""27961""
","
","851.9000000953674","<div class='center'><p>That's correct!</p><div><p><b>[Press the space bar to continue]</b></p></div>","32","","","","","","","",""
"","practice_q2","220","421029","0.0-218.0-2.0","""event"",""trial"",""time""
""fullscreenenter"",""0"",""27961""
","
","
","""event"",""trial"",""time""
""fullscreenenter"",""0"",""27961""
","
","2564.899999976158","run_exp/static/audio/clip_16_practice_question.m4a","86","","","","","","","",""
"","correct","221","422929","0.0-219.0-0.0","""event"",""trial"",""time""
""fullscreenenter"",""0"",""27961""
","
","
","""event"",""trial"",""time""
""fullscreenenter"",""0"",""27961""
","
","null","run_exp/static/audio/clip_17_correct.m4a","null","","","","","<div class='center'><p>That's correct!</p></div>","","",""
"","html-keyboard-response","222","423511","0.0-219.0-1.0","""event"",""trial"",""time""
""fullscreenenter"",""0"",""27961""
","
","
","""event"",""trial"",""time""
""fullscreenenter"",""0"",""27961""
","
","581.3000000715256","<div class='center'><p>That's correct!</p><div><p><b>[Press the space bar to continue]</b></p></div>","32","","","","","","","",""
"","practice_q3","223","424193","0.0-219.0-2.0","""event"",""trial"",""time""
""fullscreenenter"",""0"",""27961""
","
","
","""event"",""trial"",""time""
""fullscreenenter"",""0"",""27961""
","
","680.3999999761581","run_exp/static/audio/clip_16_practice_question.m4a","86","","","","","","","",""
"","incorrect_q3","224","426949","0.0-220.0-0.0","""event"",""trial"",""time""
""fullscreenenter"",""0"",""27961""
","
","
","""event"",""trial"",""time""
""fullscreenenter"",""0"",""27961""
","
","null","run_exp/static/audio/clip_20_incorrect_similar.m4a","null","","","","","<div class='center'><p>Thats incorrect. Its similar.</p><p><img src='run_exp/static/images/tutorial/test/boot_comparison.png' height='300'></p></div>","","",""
"","html-keyboard-response","225","428368","0.0-220.0-1.0","""event"",""trial"",""time""
""fullscreenenter"",""0"",""27961""
","
","
","""event"",""trial"",""time""
""fullscreenenter"",""0"",""27961""
","
","1418.1000000238419","<div class='center'><p>Thats incorrect. Its similar.</p><p><img src='run_exp/static/images/tutorial/test/boot_comparison.png' height='300'></p><div><p><b>[Press the space bar to continue]</b></p></div>","32","","","","","","","",""
"","repeat","226","433108","0.0-221.0-0.0","""event"",""trial"",""time""
""fullscreenenter"",""0"",""27961""
","
","
","""event"",""trial"",""time""
""fullscreenenter"",""0"",""27961""
","
","null","run_exp/static/audio/clip_21_practice_again.m4a","null","","","","","<div class='center'><p>Oops. you missed at least one of these questions. Let's try practicing again. </p></div>","","",""
"","html-keyboard-response","227","433544","0.0-221.0-1.0","""event"",""trial"",""time""
""fullscreenenter"",""0"",""27961""
","
","
","""event"",""trial"",""time""
""fullscreenenter"",""0"",""27961""
","
","434.90000009536743","<div class='center'><p>Oops. you missed at least one of these questions. Let's try practicing again. </p><div><p><b>[Press the space bar to continue]</b></p></div>","32","","","","","","","",""
"","practice_q1","228","434564","0.0-221.0-2.0","""event"",""trial"",""time""
""fullscreenenter"",""0"",""27961""
","
","
","""event"",""trial"",""time""
""fullscreenenter"",""0"",""27961""
","
","1018","run_exp/static/audio/clip_16_practice_question.m4a","86","","","","","","","",""
"","incorrect_q1","229","437408","0.0-222.0-0.0","""event"",""trial"",""time""
""fullscreenenter"",""0"",""27961""
","
","
","""event"",""trial"",""time""
""fullscreenenter"",""0"",""27961""
","
","null","run_exp/static/audio/clip_18_incorrect_new.m4a","null","","","","","<div class='center'><p>Thats incorrect. Its new.</p></div>","","",""
"","html-keyboard-response","230","438193","0.0-222.0-1.0","""event"",""trial"",""time""
""fullscreenenter"",""0"",""27961""
","
","
","""event"",""trial"",""time""
""fullscreenenter"",""0"",""27961""
","
","783.8999999761581","<div class='center'><p>Thats incorrect. Its new.</p><div><p><b>[Press the space bar to continue]</b></p></div>","32","","","","","","","",""
"","practice_q2","231","439862","0.0-222.0-2.0","""event"",""trial"",""time""
""fullscreenenter"",""0"",""27961""
","
","
","""event"",""trial"",""time""
""fullscreenenter"",""0"",""27961""
","
","1667.2000000476837","run_exp/static/audio/clip_16_practice_question.m4a","86","","","","","","","",""
"","correct","232","441768","0.0-223.0-0.0","""event"",""trial"",""time""
""fullscreenenter"",""0"",""27961""
","
","
","""event"",""trial"",""time""
""fullscreenenter"",""0"",""27961""
","
","null","run_exp/static/audio/clip_17_correct.m4a","null","","","","","<div class='center'><p>That's correct!</p></div>","","",""
"","html-keyboard-response","233","442309","0.0-223.0-1.0","""event"",""trial"",""time""
""fullscreenenter"",""0"",""27961""
","
","
","""event"",""trial"",""time""
""fullscreenenter"",""0"",""27961""
","
","539.5999999046326","<div class='center'><p>That's correct!</p><div><p><b>[Press the space bar to continue]</b></p></div>","32","","","","","","","",""
"","practice_q3","234","444011","0.0-223.0-2.0","""event"",""trial"",""time""
""fullscreenenter"",""0"",""27961""
","
","
","""event"",""trial"",""time""
""fullscreenenter"",""0"",""27961""
","
","1700.5","run_exp/static/audio/clip_16_practice_question.m4a","66","","","","","","","",""
"","correct","235","445909","0.0-224.0-0.0","""event"",""trial"",""time""
""fullscreenenter"",""0"",""27961""
","
","
","""event"",""trial"",""time""
""fullscreenenter"",""0"",""27961""
","
","null","run_exp/static/audio/clip_17_correct.m4a","null","","","","","<div class='center'><p>That's correct!</p></div>","","",""
"","html-keyboard-response","236","446488","0.0-224.0-1.0","""event"",""trial"",""time""
""fullscreenenter"",""0"",""27961""
","
","
","""event"",""trial"",""time""
""fullscreenenter"",""0"",""27961""
","
","578.2999999523163","<div class='center'><p>That's correct!</p><div><p><b>[Press the space bar to continue]</b></p></div>","32","","","","","","","",""
"","repeat","237","451229","0.0-225.0-0.0","""event"",""trial"",""time""
""fullscreenenter"",""0"",""27961""
","
","
","""event"",""trial"",""time""
""fullscreenenter"",""0"",""27961""
","
","null","run_exp/static/audio/clip_21_practice_again.m4a","null","","","","","<div class='center'><p>Oops. you missed at least one of these questions. Let's try practicing again. </p></div>","","",""
"","html-keyboard-response","238","452335","0.0-225.0-1.0","""event"",""trial"",""time""
""fullscreenenter"",""0"",""27961""
","
","
","""event"",""trial"",""time""
""fullscreenenter"",""0"",""27961""
","
","1104.7000000476837","<div class='center'><p>Oops. you missed at least one of these questions. Let's try practicing again. </p><div><p><b>[Press the space bar to continue]</b></p></div>","32","","","","","","","",""
"","practice_q1","239","454744","0.0-225.0-2.0","""event"",""trial"",""time""
""fullscreenenter"",""0"",""27961""
","
","
","""event"",""trial"",""time""
""fullscreenenter"",""0"",""27961""
","
","2407.899999976158","run_exp/static/audio/clip_16_practice_question.m4a","78","","","","","","","",""
"","correct","240","456628","0.0-226.0-0.0","""event"",""trial"",""time""
""fullscreenenter"",""0"",""27961""
","
","
","""event"",""trial"",""time""
""fullscreenenter"",""0"",""27961""
","
","null","run_exp/static/audio/clip_17_correct.m4a","null","","","","","<div class='center'><p>That's correct!</p></div>","","",""
"","html-keyboard-response","241","457068","0.0-226.0-1.0","""event"",""trial"",""time""
""fullscreenenter"",""0"",""27961""
","
","
","""event"",""trial"",""time""
""fullscreenenter"",""0"",""27961""
","
","437.7000000476837","<div class='center'><p>That's correct!</p><div><p><b>[Press the space bar to continue]</b></p></div>","32","","","","","","","",""
"","practice_q2","242","457881","0.0-226.0-2.0","""event"",""trial"",""time""
""fullscreenenter"",""0"",""27961""
","
","
","""event"",""trial"",""time""
""fullscreenenter"",""0"",""27961""
","
","812.7000000476837","run_exp/static/audio/clip_16_practice_question.m4a","86","","","","","","","",""
"","correct","243","459768","0.0-227.0-0.0","""event"",""trial"",""time""
""fullscreenenter"",""0"",""27961""
","
","
","""event"",""trial"",""time""
""fullscreenenter"",""0"",""27961""
","
","null","run_exp/static/audio/clip_17_correct.m4a","null","","","","","<div class='center'><p>That's correct!</p></div>","","",""
"","html-keyboard-response","244","460262","0.0-227.0-1.0","""event"",""trial"",""time""
""fullscreenenter"",""0"",""27961""
","
","
","""event"",""trial"",""time""
""fullscreenenter"",""0"",""27961""
","
","492.59999990463257","<div class='center'><p>That's correct!</p><div><p><b>[Press the space bar to continue]</b></p></div>","32","","","","","","","",""
"","practice_q3","245","460598","0.0-227.0-2.0","""event"",""trial"",""time""
""fullscreenenter"",""0"",""27961""
","
","
","""event"",""trial"",""time""
""fullscreenenter"",""0"",""27961""
","
","334.2000000476837","run_exp/static/audio/clip_16_practice_question.m4a","66","","","","","","","",""
"","correct","246","462588","0.0-228.0-0.0","""event"",""trial"",""time""
""fullscreenenter"",""0"",""27961""
","
","
","""event"",""trial"",""time""
""fullscreenenter"",""0"",""27961""
","
","null","run_exp/static/audio/clip_17_correct.m4a","null","","","","","<div class='center'><p>That's correct!</p></div>","","",""
"","html-keyboard-response","247","462910","0.0-228.0-1.0","""event"",""trial"",""time""
""fullscreenenter"",""0"",""27961""
","
","
","""event"",""trial"",""time""
""fullscreenenter"",""0"",""27961""
","
","321.10000002384186","<div class='center'><p>That's correct!</p><div><p><b>[Press the space bar to continue]</b></p></div>","32","","","","","","","",""
"","begin_text","248","481389","0.0-229.0-0.0","""event"",""trial"",""time""
""fullscreenenter"",""0"",""27961""
","
","
","""event"",""trial"",""time""
""fullscreenenter"",""0"",""27961""
","
","null","run_exp/static/audio/clip_22_begin_test.m4a","null","","","","","<div class='center'><p>On to the real game where well test your memory of items from the indoor/outdoor game. For each item, you need to indicate if the item is <b>old</b> by pressing the <b>v</b> key, <b>similar</b> by pressing the <b>b</b> key, or <b>new</b> by pressing the <b>n</b> key. </p></div>","","",""
"","html-keyboard-response","249","483571","0.0-229.0-1.0","""event"",""trial"",""time""
""fullscreenenter"",""0"",""27961""
","
","
","""event"",""trial"",""time""
""fullscreenenter"",""0"",""27961""
","
","2179.899999976158","<div class='center'><p>On to the real game where well test your memory of items from the indoor/outdoor game. For each item, you need to indicate if the item is <b>old</b> by pressing the <b>v</b> key, <b>similar</b> by pressing the <b>b</b> key, or <b>new</b> by pressing the <b>n</b> key. </p><div><p><b>[Press the space bar to continue]</b></p></div>","32","","","","","","","",""
"","image","250","484583","0.0-230.0-0.0","""event"",""trial"",""time""
""fullscreenenter"",""0"",""27961""
","
","
","""event"",""trial"",""time""
""fullscreenenter"",""0"",""27961""
","
","1011","run_exp/static/images/Set 6_rs/008b.jpg","86","","","","","","test","TL","2"
"","show_choice","251","485087","0.0-230.0-1.0","""event"",""trial"",""time""
""fullscreenenter"",""0"",""27961""
","
","
","""event"",""trial"",""time""
""fullscreenenter"",""0"",""27961""
","
","null","run_exp/static/images/Set 6_rs/008b.jpg","null","","","","","","test","TL",""
"","html-keyboard-response","252","485601","0.0-230.0-2.0","""event"",""trial"",""time""
""fullscreenenter"",""0"",""27961""
","
","
","""event"",""trial"",""time""
""fullscreenenter"",""0"",""27961""
","
","null","<p></p>","null","","","","","","","",""
"","image","253","487011","0.0-231.0-0.0","""event"",""trial"",""time""
""fullscreenenter"",""0"",""27961""
","
","
","""event"",""trial"",""time""
""fullscreenenter"",""0"",""27961""
","
","1408.8000000715256","run_exp/static/images/Set 6_rs/154a.jpg","86","","","","","","test","TR","3"
"","show_choice","254","487518","0.0-231.0-1.0","""event"",""trial"",""time""
""fullscreenenter"",""0"",""27961""
","
","
","""event"",""trial"",""time""
""fullscreenenter"",""0"",""27961""
","
","null","run_exp/static/images/Set 6_rs/154a.jpg","null","","","","","","test","TR",""
"","html-keyboard-response","255","488022","0.0-231.0-2.0","""event"",""trial"",""time""
""fullscreenenter"",""0"",""27961""
","
","
","""event"",""trial"",""time""
""fullscreenenter"",""0"",""27961""
","
","null","<p></p>","null","","","","","","","",""
"","image","256","489241","0.0-232.0-0.0","""event"",""trial"",""time""
""fullscreenenter"",""0"",""27961""
","
","
","""event"",""trial"",""time""
""fullscreenenter"",""0"",""27961""
","
","1218","run_exp/static/images/Set 6_rs/011a.jpg","66","","","","","","test","TF","3"
"","show_choice","257","489748","0.0-232.0-1.0","""event"",""trial"",""time""
""fullscreenenter"",""0"",""27961""
","
","
","""event"",""trial"",""time""
""fullscreenenter"",""0"",""27961""
","
","null","run_exp/static/images/Set 6_rs/011a.jpg","null","","","","","","test","TF",""
"","html-keyboard-response","258","490258","0.0-232.0-2.0","""event"",""trial"",""time""
""fullscreenenter"",""0"",""27961""
","
","
","""event"",""trial"",""time""
""fullscreenenter"",""0"",""27961""
","
","null","<p></p>","null","","","","","","","",""
"","image","259","491590","0.0-233.0-0.0","""event"",""trial"",""time""
""fullscreenenter"",""0"",""27961""
","
","
","""event"",""trial"",""time""
""fullscreenenter"",""0"",""27961""
","
","1331.6000000238419","run_exp/static/images/Set 6_rs/091b.jpg","66","","","","","","test","TL","3"
"","show_choice","260","492105","0.0-233.0-1.0","""event"",""trial"",""time""
""fullscreenenter"",""0"",""27961""
","
","
","""event"",""trial"",""time""
""fullscreenenter"",""0"",""27961""
","
","null","run_exp/static/images/Set 6_rs/091b.jpg","null","","","","","","test","TL",""
"","html-keyboard-response","261","492617","0.0-233.0-2.0","""event"",""trial"",""time""
""fullscreenenter"",""0"",""27961""
","
","
","""event"",""trial"",""time""
""fullscreenenter"",""0"",""27961""
","
","null","<p></p>","null","","","","","","","",""
"","image","262","493646","0.0-234.0-0.0","""event"",""trial"",""time""
""fullscreenenter"",""0"",""27961""
","
","
","""event"",""trial"",""time""
""fullscreenenter"",""0"",""27961""
","
","1027.5","run_exp/static/images/Set 6_rs/118a.jpg","78","","","","","","test","TF","5"
"","show_choice","263","494149","0.0-234.0-1.0","""event"",""trial"",""time""
""fullscreenenter"",""0"",""27961""
","
","
","""event"",""trial"",""time""
""fullscreenenter"",""0"",""27961""
","
","null","run_exp/static/images/Set 6_rs/118a.jpg","null","","","","","","test","TF",""
"","html-keyboard-response","264","494665","0.0-234.0-2.0","""event"",""trial"",""time""
""fullscreenenter"",""0"",""27961""
","
","
","""event"",""trial"",""time""
""fullscreenenter"",""0"",""27961""
","
","null","<p></p>","null","","","","","","","",""
"","image","265","495992","0.0-235.0-0.0","""event"",""trial"",""time""
""fullscreenenter"",""0"",""27961""
","
","
","""event"",""trial"",""time""
""fullscreenenter"",""0"",""27961""
","
","1325.6999999284744","run_exp/static/images/Set 6_rs/014b.jpg","86","","","","","","test","TL","5"
"","show_choice","266","496495","0.0-235.0-1.0","""event"",""trial"",""time""
""fullscreenenter"",""0"",""27961""
","
","
","""event"",""trial"",""time""
""fullscreenenter"",""0"",""27961""
","
","null","run_exp/static/images/Set 6_rs/014b.jpg","null","","","","","","test","TL",""
"","html-keyboard-response","267","496999","0.0-235.0-2.0","""event"",""trial"",""time""
""fullscreenenter"",""0"",""27961""
","
","
","""event"",""trial"",""time""
""fullscreenenter"",""0"",""27961""
","
","null","<p></p>","null","","","","","","","",""
"","image","268","498405","0.0-236.0-0.0","""event"",""trial"",""time""
""fullscreenenter"",""0"",""27961""
","
","
","""event"",""trial"",""time""
""fullscreenenter"",""0"",""27961""
","
","1405.1999999284744","run_exp/static/images/Set 6_rs/035a.jpg","78","","","","","","test","TF","4"
"","show_choice","269","498919","0.0-236.0-1.0","""event"",""trial"",""time""
""fullscreenenter"",""0"",""27961""
","
","
","""event"",""trial"",""time""
""fullscreenenter"",""0"",""27961""
","
","null","run_exp/static/images/Set 6_rs/035a.jpg","null","","","","","","test","TF",""
"","html-keyboard-response","270","499429","0.0-236.0-2.0","""event"",""trial"",""time""
""fullscreenenter"",""0"",""27961""
","
","
","""event"",""trial"",""time""
""fullscreenenter"",""0"",""27961""
","
","null","<p></p>","null","","","","","","","",""
"","image","271","500621","0.0-237.0-0.0","""event"",""trial"",""time""
""fullscreenenter"",""0"",""27961""
","
","
","""event"",""trial"",""time""
""fullscreenenter"",""0"",""27961""
","
","1191","run_exp/static/images/Set 6_rs/186a.jpg","86","","","","","","test","TR","5"
"","show_choice","272","501129","0.0-237.0-1.0","""event"",""trial"",""time""
""fullscreenenter"",""0"",""27961""
","
","
","""event"",""trial"",""time""
""fullscreenenter"",""0"",""27961""
","
","null","run_exp/static/images/Set 6_rs/186a.jpg","null","","","","","","test","TR",""
"","html-keyboard-response","273","501631","0.0-237.0-2.0","""event"",""trial"",""time""
""fullscreenenter"",""0"",""27961""
","
","
","""event"",""trial"",""time""
""fullscreenenter"",""0"",""27961""
","
","null","<p></p>","null","","","","","","","",""
"","image","274","503167","0.0-238.0-0.0","""event"",""trial"",""time""
""fullscreenenter"",""0"",""27961""
","
","
","""event"",""trial"",""time""
""fullscreenenter"",""0"",""27961""
","
","1534","run_exp/static/images/Set 6_rs/006b.jpg","86","","","","","","test","TL","2"
"","show_choice","275","503674","0.0-238.0-1.0","""event"",""trial"",""time""
""fullscreenenter"",""0"",""27961""
","
","
","""event"",""trial"",""time""
""fullscreenenter"",""0"",""27961""
","
","null","run_exp/static/images/Set 6_rs/006b.jpg","null","","","","","","test","TL",""
"","html-keyboard-response","276","504187","0.0-238.0-2.0","""event"",""trial"",""time""
""fullscreenenter"",""0"",""27961""
","
","
","""event"",""trial"",""time""
""fullscreenenter"",""0"",""27961""
","
","null","<p></p>","null","","","","","","","",""
"","image","277","505406","0.0-239.0-0.0","""event"",""trial"",""time""
""fullscreenenter"",""0"",""27961""
","
","
","""event"",""trial"",""time""
""fullscreenenter"",""0"",""27961""
","
","1218.1999999284744","run_exp/static/images/Set 6_rs/085b.jpg","66","","","","","","test","TL","1"
"","show_choice","278","505919","0.0-239.0-1.0","""event"",""trial"",""time""
""fullscreenenter"",""0"",""27961""
","
","
","""event"",""trial"",""time""
""fullscreenenter"",""0"",""27961""
","
","null","run_exp/static/images/Set 6_rs/085b.jpg","null","","","","","","test","TL",""
"","html-keyboard-response","279","506428","0.0-239.0-2.0","""event"",""trial"",""time""
""fullscreenenter"",""0"",""27961""
","
","
","""event"",""trial"",""time""
""fullscreenenter"",""0"",""27961""
","
","null","<p></p>","null","","","","","","","",""
"","image","280","507560","0.0-240.0-0.0","""event"",""trial"",""time""
""fullscreenenter"",""0"",""27961""
","
","
","""event"",""trial"",""time""
""fullscreenenter"",""0"",""27961""
","
","1131.1999999284744","run_exp/static/images/Set 6_rs/116b.jpg","66","","","","","","test","TL","2"
"","show_choice","281","508067","0.0-240.0-1.0","""event"",""trial"",""time""
""fullscreenenter"",""0"",""27961""
","
","
","""event"",""trial"",""time""
""fullscreenenter"",""0"",""27961""
","
","null","run_exp/static/images/Set 6_rs/116b.jpg","null","","","","","","test","TL",""
"","html-keyboard-response","282","508578","0.0-240.0-2.0","""event"",""trial"",""time""
""fullscreenenter"",""0"",""27961""
","
","
","""event"",""trial"",""time""
""fullscreenenter"",""0"",""27961""
","
","null","<p></p>","null","","","","","","","",""
"","image","283","509857","0.0-241.0-0.0","""event"",""trial"",""time""
""fullscreenenter"",""0"",""27961""
","
","
","""event"",""trial"",""time""
""fullscreenenter"",""0"",""27961""
","
","1276.7999999523163","run_exp/static/images/Set 6_rs/070a.jpg","86","","","","","","test","TR","2"
"","show_choice","284","510369","0.0-241.0-1.0","""event"",""trial"",""time""
""fullscreenenter"",""0"",""27961""
","
","
","""event"",""trial"",""time""
""fullscreenenter"",""0"",""27961""
","
","null","run_exp/static/images/Set 6_rs/070a.jpg","null","","","","","","test","TR",""
"","html-keyboard-response","285","510883","0.0-241.0-2.0","""event"",""trial"",""time""
""fullscreenenter"",""0"",""27961""
","
","
","""event"",""trial"",""time""
""fullscreenenter"",""0"",""27961""
","
","null","<p></p>","null","","","","","","","",""
"","image","286","511861","0.0-242.0-0.0","""event"",""trial"",""time""
""fullscreenenter"",""0"",""27961""
","
","
","""event"",""trial"",""time""
""fullscreenenter"",""0"",""27961""
","
","976.9000000953674","run_exp/static/images/Set 6_rs/001a.jpg","78","","","","","","test","TF","1"
"","show_choice","287","512368","0.0-242.0-1.0","""event"",""trial"",""time""
""fullscreenenter"",""0"",""27961""
","
","
","""event"",""trial"",""time""
""fullscreenenter"",""0"",""27961""
","
","null","run_exp/static/images/Set 6_rs/001a.jpg","null","","","","","","test","TF",""
"","html-keyboard-response","288","512878","0.0-242.0-2.0","""event"",""trial"",""time""
""fullscreenenter"",""0"",""27961""
","
","
","""event"",""trial"",""time""
""fullscreenenter"",""0"",""27961""
","
","null","<p></p>","null","","","","","","","",""
"","image","289","514100","0.0-243.0-0.0","""event"",""trial"",""time""
""fullscreenenter"",""0"",""27961""
","
","
","""event"",""trial"",""time""
""fullscreenenter"",""0"",""27961""
","
","1220.5","run_exp/static/images/Set 6_rs/012a.jpg","86","","","","","","test","TR","1"
"","show_choice","290","514605","0.0-243.0-1.0","""event"",""trial"",""time""
""fullscreenenter"",""0"",""27961""
","
","
","""event"",""trial"",""time""
""fullscreenenter"",""0"",""27961""
","
","null","run_exp/static/images/Set 6_rs/012a.jpg","null","","","","","","test","TR",""
"","html-keyboard-response","291","515115","0.0-243.0-2.0","""event"",""trial"",""time""
""fullscreenenter"",""0"",""27961""
","
","
","""event"",""trial"",""time""
""fullscreenenter"",""0"",""27961""
","
","null","<p></p>","null","","","","","","","",""
"","image","292","516108","0.0-244.0-0.0","""event"",""trial"",""time""
""fullscreenenter"",""0"",""27961""
","
","
","""event"",""trial"",""time""
""fullscreenenter"",""0"",""27961""
","
","992.3999999761581","run_exp/static/images/Set 6_rs/136a.jpg","78","","","","","","test","TF","4"
"","show_choice","293","516614","0.0-244.0-1.0","""event"",""trial"",""time""
""fullscreenenter"",""0"",""27961""
","
","
","""event"",""trial"",""time""
""fullscreenenter"",""0"",""27961""
","
","null","run_exp/static/images/Set 6_rs/136a.jpg","null","","","","","","test","TF",""
"","html-keyboard-response","294","517125","0.0-244.0-2.0","""event"",""trial"",""time""
""fullscreenenter"",""0"",""27961""
","
","
","""event"",""trial"",""time""
""fullscreenenter"",""0"",""27961""
","
","null","<p></p>","null","","","","","","","",""
"","image","295","518187","0.0-245.0-0.0","""event"",""trial"",""time""
""fullscreenenter"",""0"",""27961""
","
","
","""event"",""trial"",""time""
""fullscreenenter"",""0"",""27961""
","
","1060.9000000953674","run_exp/static/images/Set 6_rs/141a.jpg","66","","","","","","test","TR","2"
"","show_choice","296","518698","0.0-245.0-1.0","""event"",""trial"",""time""
""fullscreenenter"",""0"",""27961""
","
","
","""event"",""trial"",""time""
""fullscreenenter"",""0"",""27961""
","
","null","run_exp/static/images/Set 6_rs/141a.jpg","null","","","","","","test","TR",""
"","html-keyboard-response","297","519200","0.0-245.0-2.0","""event"",""trial"",""time""
""fullscreenenter"",""0"",""27961""
","
","
","""event"",""trial"",""time""
""fullscreenenter"",""0"",""27961""
","
","null","<p></p>","null","","","","","","","",""
"","image","298","520360","0.0-246.0-0.0","""event"",""trial"",""time""
""fullscreenenter"",""0"",""27961""
","
","
","""event"",""trial"",""time""
""fullscreenenter"",""0"",""27961""
","
","1158.7000000476837","run_exp/static/images/Set 6_rs/074b.jpg","66","","","","","","test","TL","4"
"","show_choice","299","520875","0.0-246.0-1.0","""event"",""trial"",""time""
""fullscreenenter"",""0"",""27961""
","
","
","""event"",""trial"",""time""
""fullscreenenter"",""0"",""27961""
","
","null","run_exp/static/images/Set 6_rs/074b.jpg","null","","","","","","test","TL",""
"","html-keyboard-response","300","521378","0.0-246.0-2.0","""event"",""trial"",""time""
""fullscreenenter"",""0"",""27961""
","
","
","""event"",""trial"",""time""
""fullscreenenter"",""0"",""27961""
","
","null","<p></p>","null","","","","","","","",""
"","image","301","522342","0.0-247.0-0.0","""event"",""trial"",""time""
""fullscreenenter"",""0"",""27961""
","
","
","""event"",""trial"",""time""
""fullscreenenter"",""0"",""27961""
","
","962.5","run_exp/static/images/Set 6_rs/025b.jpg","66","","","","","","test","TL","5"
"","show_choice","302","522847","0.0-247.0-1.0","""event"",""trial"",""time""
""fullscreenenter"",""0"",""27961""
","
","
","""event"",""trial"",""time""
""fullscreenenter"",""0"",""27961""
","
","null","run_exp/static/images/Set 6_rs/025b.jpg","null","","","","","","test","TL",""
"","html-keyboard-response","303","523355","0.0-247.0-2.0","""event"",""trial"",""time""
""fullscreenenter"",""0"",""27961""
","
","
","""event"",""trial"",""time""
""fullscreenenter"",""0"",""27961""
","
","null","<p></p>","null","","","","","","","",""
"","image","304","524312","0.0-248.0-0.0","""event"",""trial"",""time""
""fullscreenenter"",""0"",""27961""
","
","
","""event"",""trial"",""time""
""fullscreenenter"",""0"",""27961""
","
","955.8999999761581","run_exp/static/images/Set 6_rs/021a.jpg","78","","","","","","test","TF","2"
"","show_choice","305","524825","0.0-248.0-1.0","""event"",""trial"",""time""
""fullscreenenter"",""0"",""27961""
","
","
","""event"",""trial"",""time""
""fullscreenenter"",""0"",""27961""
","
","null","run_exp/static/images/Set 6_rs/021a.jpg","null","","","","","","test","TF",""
"","html-keyboard-response","306","525339","0.0-248.0-2.0","""event"",""trial"",""time""
""fullscreenenter"",""0"",""27961""
","
","
","""event"",""trial"",""time""
""fullscreenenter"",""0"",""27961""
","
","null","<p></p>","null","","","","","","","",""
"","image","307","526822","0.0-249.0-0.0","""event"",""trial"",""time""
""fullscreenenter"",""0"",""27961""
","
","
","""event"",""trial"",""time""
""fullscreenenter"",""0"",""27961""
","
","1482","run_exp/static/images/Set 6_rs/166a.jpg","78","","","","","","test","TR","1"
"","show_choice","308","527324","0.0-249.0-1.0","""event"",""trial"",""time""
""fullscreenenter"",""0"",""27961""
","
","
","""event"",""trial"",""time""
""fullscreenenter"",""0"",""27961""
","
","null","run_exp/static/images/Set 6_rs/166a.jpg","null","","","","","","test","TR",""
"","html-keyboard-response","309","527838","0.0-249.0-2.0","""event"",""trial"",""time""
""fullscreenenter"",""0"",""27961""
","
","
","""event"",""trial"",""time""
""fullscreenenter"",""0"",""27961""
","
","null","<p></p>","null","","","","","","","",""
"","image","310","529129","0.0-250.0-0.0","""event"",""trial"",""time""
""fullscreenenter"",""0"",""27961""
","
","
","""event"",""trial"",""time""
""fullscreenenter"",""0"",""27961""
","
","1289.8000000715256","run_exp/static/images/Set 6_rs/088a.jpg","86","","","","","","test","TR","2"
"","show_choice","311","529637","0.0-250.0-1.0","""event"",""trial"",""time""
""fullscreenenter"",""0"",""27961""
","
","
","""event"",""trial"",""time""
""fullscreenenter"",""0"",""27961""
","
","null","run_exp/static/images/Set 6_rs/088a.jpg","null","","","","","","test","TR",""
"","html-keyboard-response","312","530138","0.0-250.0-2.0","""event"",""trial"",""time""
""fullscreenenter"",""0"",""27961""
","
","
","""event"",""trial"",""time""
""fullscreenenter"",""0"",""27961""
","
","null","<p></p>","null","","","","","","","",""
"","image","313","531426","0.0-251.0-0.0","""event"",""trial"",""time""
""fullscreenenter"",""0"",""27961""
","
","
","""event"",""trial"",""time""
""fullscreenenter"",""0"",""27961""
","
","1286.6000000238419","run_exp/static/images/Set 6_rs/105a.jpg","66","","","","","","test","TF","5"
"","show_choice","314","531938","0.0-251.0-1.0","""event"",""trial"",""time""
""fullscreenenter"",""0"",""27961""
","
","
","""event"",""trial"",""time""
""fullscreenenter"",""0"",""27961""
","
","null","run_exp/static/images/Set 6_rs/105a.jpg","null","","","","","","test","TF",""
"","html-keyboard-response","315","532444","0.0-251.0-2.0","""event"",""trial"",""time""
""fullscreenenter"",""0"",""27961""
","
","
","""event"",""trial"",""time""
""fullscreenenter"",""0"",""27961""
","
","null","<p></p>","null","","","","","","","",""
"","image","316","533543","0.0-252.0-0.0","""event"",""trial"",""time""
""fullscreenenter"",""0"",""27961""
","
","
","""event"",""trial"",""time""
""fullscreenenter"",""0"",""27961""
","
","1097.2999999523163","run_exp/static/images/Set 6_rs/086a.jpg","78","","","","","","test","TF","1"
"","show_choice","317","534053","0.0-252.0-1.0","""event"",""trial"",""time""
""fullscreenenter"",""0"",""27961""
","
","
","""event"",""trial"",""time""
""fullscreenenter"",""0"",""27961""
","
","null","run_exp/static/images/Set 6_rs/086a.jpg","null","","","","","","test","TF",""
"","html-keyboard-response","318","534561","0.0-252.0-2.0","""event"",""trial"",""time""
""fullscreenenter"",""0"",""27961""
","
","
","""event"",""trial"",""time""
""fullscreenenter"",""0"",""27961""
","
","null","<p></p>","null","","","","","","","",""
"","image","319","535672","0.0-253.0-0.0","""event"",""trial"",""time""
""fullscreenenter"",""0"",""27961""
","
","
","""event"",""trial"",""time""
""fullscreenenter"",""0"",""27961""
","
","1110.1999999284744","run_exp/static/images/Set 6_rs/079b.jpg","66","","","","","","test","TL","5"
"","show_choice","320","536174","0.0-253.0-1.0","""event"",""trial"",""time""
""fullscreenenter"",""0"",""27961""
","
","
","""event"",""trial"",""time""
""fullscreenenter"",""0"",""27961""
","
","null","run_exp/static/images/Set 6_rs/079b.jpg","null","","","","","","test","TL",""
"","html-keyboard-response","321","536678","0.0-253.0-2.0","""event"",""trial"",""time""
""fullscreenenter"",""0"",""27961""
","
","
","""event"",""trial"",""time""
""fullscreenenter"",""0"",""27961""
","
","null","<p></p>","null","","","","","","","",""
"","image","322","538032","0.0-254.0-0.0","""event"",""trial"",""time""
""fullscreenenter"",""0"",""27961""
","
","
","""event"",""trial"",""time""
""fullscreenenter"",""0"",""27961""
","
","1353","run_exp/static/images/Set 6_rs/178a.jpg","86","","","","","","test","TR","3"
"","show_choice","323","538538","0.0-254.0-1.0","""event"",""trial"",""time""
""fullscreenenter"",""0"",""27961""
","
","
","""event"",""trial"",""time""
""fullscreenenter"",""0"",""27961""
","
","null","run_exp/static/images/Set 6_rs/178a.jpg","null","","","","","","test","TR",""
"","html-keyboard-response","324","539055","0.0-254.0-2.0","""event"",""trial"",""time""
""fullscreenenter"",""0"",""27961""
","
","
","""event"",""trial"",""time""
""fullscreenenter"",""0"",""27961""
","
","null","<p></p>","null","","","","","","","",""
"","image","325","540128","0.0-255.0-0.0","""event"",""trial"",""time""
""fullscreenenter"",""0"",""27961""
","
","
","""event"",""trial"",""time""
""fullscreenenter"",""0"",""27961""
","
","1072.2999999523163","run_exp/static/images/Set 6_rs/129b.jpg","86","","","","","","test","TL","1"
"","show_choice","326","540634","0.0-255.0-1.0","""event"",""trial"",""time""
""fullscreenenter"",""0"",""27961""
","
","
","""event"",""trial"",""time""
""fullscreenenter"",""0"",""27961""
","
","null","run_exp/static/images/Set 6_rs/129b.jpg","null","","","","","","test","TL",""
"","html-keyboard-response","327","541144","0.0-255.0-2.0","""event"",""trial"",""time""
""fullscreenenter"",""0"",""27961""
","
","
","""event"",""trial"",""time""
""fullscreenenter"",""0"",""27961""
","
","null","<p></p>","null","","","","","","","",""
"","image","328","542225","0.0-256.0-0.0","""event"",""trial"",""time""
""fullscreenenter"",""0"",""27961""
","
","
","""event"",""trial"",""time""
""fullscreenenter"",""0"",""27961""
","
","1079.9000000953674","run_exp/static/images/Set 6_rs/095b.jpg","86","","","","","","test","TL","5"
"","show_choice","329","542731","0.0-256.0-1.0","""event"",""trial"",""time""
""fullscreenenter"",""0"",""27961""
","
","
","""event"",""trial"",""time""
""fullscreenenter"",""0"",""27961""
","
","null","run_exp/static/images/Set 6_rs/095b.jpg","null","","","","","","test","TL",""
"","html-keyboard-response","330","543235","0.0-256.0-2.0","""event"",""trial"",""time""
""fullscreenenter"",""0"",""27961""
","
","
","""event"",""trial"",""time""
""fullscreenenter"",""0"",""27961""
","
","null","<p></p>","null","","","","","","","",""
"","image","331","544515","0.0-257.0-0.0","""event"",""trial"",""time""
""fullscreenenter"",""0"",""27961""
","
","
","""event"",""trial"",""time""
""fullscreenenter"",""0"",""27961""
","
","1279.1999999284744","run_exp/static/images/Set 6_rs/191b.jpg","66","","","","","","test","TL","2"
"","show_choice","332","545024","0.0-257.0-1.0","""event"",""trial"",""time""
""fullscreenenter"",""0"",""27961""
","
","
","""event"",""trial"",""time""
""fullscreenenter"",""0"",""27961""
","
