"success","trial_type","trial_index","time_elapsed","internal_node_id","interactions","blur_events","focus_events","fullscreenenter_events","fullscreenexit_events","rt","stimulus","key_press","subject_id","participant_id","age","gender","prompt","phase","condition","lure_bin"
"true","fullscreen","0","7315","0.0-0.0","""event"",""trial"",""time""
""fullscreenenter"",""0"",""6323""
","
","
","""event"",""trial"",""time""
""fullscreenenter"",""0"",""6323""
","
","","","","","","","","","","",""
"","pavlovia","1","7321","0.0-1.0","""event"",""trial"",""time""
""fullscreenenter"",""0"",""6323""
","
","
","""event"",""trial"",""time""
""fullscreenenter"",""0"",""6323""
","
","","","","","","","","","","",""
"","welcome","2","42247","0.0-2.0","""event"",""trial"",""time""
""fullscreenenter"",""0"",""6323""
","
","
","""event"",""trial"",""time""
""fullscreenenter"",""0"",""6323""
","
","null","run_exp/static/audio/clip_1_welcome.m4a","null","577","923","13","Male","<div class='center'><p>Welcome to the third part of the study! First, you'll be shown pictures of items one at a time. For each picture, you have to decide if the item is typically found indoors or outdoors.</p><p>If you think it's usually found indoors, then press <b>v</b> key on your keyboard. If you think it's usually found outdoors, then press the <b>n</b> key.There will be reminders on the screen to help you remember which keys to press. </p><p>If you're not sure whether the item is an indoor item or an outdoor item, go ahead and take a guess but try your best not to skip that choice. </p></div>","","",""
"","html-keyboard-response","3","42981","0.0-3.0","""event"",""trial"",""time""
""fullscreenenter"",""0"",""6323""
","
","
","""event"",""trial"",""time""
""fullscreenenter"",""0"",""6323""
","
","731.2000000178814","<div class='center'><p>Welcome to the third part of the study! First, you'll be shown pictures of items one at a time. For each picture, you have to decide if the item is typically found indoors or outdoors.</p><p>If you think it's usually found indoors, then press <b>v</b> key on your keyboard. If you think it's usually found outdoors, then press the <b>n</b> key.There will be reminders on the screen to help you remember which keys to press. </p><p>If you're not sure whether the item is an indoor item or an outdoor item, go ahead and take a guess but try your best not to skip that choice. </p><div><p><b>[Press the space bar to continue]</b></p></div>","32","","","","","","","",""
"","image","4","44652","0.0-4.0","""event"",""trial"",""time""
""fullscreenenter"",""0"",""6323""
","
","
","""event"",""trial"",""time""
""fullscreenenter"",""0"",""6323""
","
","1668.800000011921","run_exp/static/images/Set 6_rs/141a.jpg","78","","","","","","learn","SR",""
"","show_choice","5","44995","0.0-5.0","""event"",""trial"",""time""
""fullscreenenter"",""0"",""6323""
","
","
","""event"",""trial"",""time""
""fullscreenenter"",""0"",""6323""
","
","null","run_exp/static/images/Set 6_rs/141a.jpg","null","","","","","","learn","SR",""
"","html-keyboard-response","6","45514","0.0-6.0","""event"",""trial"",""time""
""fullscreenenter"",""0"",""6323""
","
","
","""event"",""trial"",""time""
""fullscreenenter"",""0"",""6323""
","
","null","<p></p>","null","","","","","","","",""
"","image","7","46796","0.0-7.0","""event"",""trial"",""time""
""fullscreenenter"",""0"",""6323""
","
","
","""event"",""trial"",""time""
""fullscreenenter"",""0"",""6323""
","
","1280.4000000059605","run_exp/static/images/Set 6_rs/076a.jpg","78","","","","","","learn","SR",""
"","show_choice","8","47534","0.0-8.0","""event"",""trial"",""time""
""fullscreenenter"",""0"",""6323""
","
","
","""event"",""trial"",""time""
""fullscreenenter"",""0"",""6323""
","
","null","run_exp/static/images/Set 6_rs/076a.jpg","null","","","","","","learn","SR",""
"","html-keyboard-response","9","48054","0.0-9.0","""event"",""trial"",""time""
""fullscreenenter"",""0"",""6323""
","
","
","""event"",""trial"",""time""
""fullscreenenter"",""0"",""6323""
","
","null","<p></p>","null","","","","","","","",""
"","image","10","49096","0.0-10.0","""event"",""trial"",""time""
""fullscreenenter"",""0"",""6323""
","
","
","""event"",""trial"",""time""
""fullscreenenter"",""0"",""6323""
","
","1040.4000000059605","run_exp/static/images/Set 6_rs/089a.jpg","86","","","","","","learn","SL",""
"","show_choice","11","50074","0.0-11.0","""event"",""trial"",""time""
""fullscreenenter"",""0"",""6323""
","
","
","""event"",""trial"",""time""
""fullscreenenter"",""0"",""6323""
","
","null","run_exp/static/images/Set 6_rs/089a.jpg","null","","","","","","learn","SL",""
"","html-keyboard-response","12","50594","0.0-12.0","""event"",""trial"",""time""
""fullscreenenter"",""0"",""6323""
","
","
","""event"",""trial"",""time""
""fullscreenenter"",""0"",""6323""
","
","null","<p></p>","null","","","","","","","",""
"","image","13","51825","0.0-13.0","""event"",""trial"",""time""
""fullscreenenter"",""0"",""6323""
","
","
","""event"",""trial"",""time""
""fullscreenenter"",""0"",""6323""
","
","1228.5","run_exp/static/images/Set 6_rs/117a.jpg","78","","","","","","learn","SL",""
"","show_choice","14","52614","0.0-14.0","""event"",""trial"",""time""
""fullscreenenter"",""0"",""6323""
","
","
","""event"",""trial"",""time""
""fullscreenenter"",""0"",""6323""
","
","null","run_exp/static/images/Set 6_rs/117a.jpg","null","","","","","","learn","SL",""
"","html-keyboard-response","15","53124","0.0-15.0","""event"",""trial"",""time""
""fullscreenenter"",""0"",""6323""
","
","
","""event"",""trial"",""time""
""fullscreenenter"",""0"",""6323""
","
","null","<p></p>","null","","","","","","","",""
"","image","16","55086","0.0-16.0","""event"",""trial"",""time""
""fullscreenenter"",""0"",""6323""
","
","
","""event"",""trial"",""time""
""fullscreenenter"",""0"",""6323""
","
","1965.199999988079","run_exp/static/images/Set 6_rs/116a.jpg","78","","","","","","learn","SL",""
"","show_choice","17","55129","0.0-17.0","""event"",""trial"",""time""
""fullscreenenter"",""0"",""6323""
","
","
","""event"",""trial"",""time""
""fullscreenenter"",""0"",""6323""
","
","null","run_exp/static/images/Set 6_rs/116a.jpg","null","","","","","","learn","SL",""
"","html-keyboard-response","18","55634","0.0-18.0","""event"",""trial"",""time""
""fullscreenenter"",""0"",""6323""
","
","
","""event"",""trial"",""time""
""fullscreenenter"",""0"",""6323""
","
","null","<p></p>","null","","","","","","","",""
"","image","19","57150","0.0-19.0","""event"",""trial"",""time""
""fullscreenenter"",""0"",""6323""
","
","
","""event"",""trial"",""time""
""fullscreenenter"",""0"",""6323""
","
","1514.5999999940395","run_exp/static/images/Set 6_rs/172a.jpg","78","","","","","","learn","SR",""
"","show_choice","20","57642","0.0-20.0","""event"",""trial"",""time""
""fullscreenenter"",""0"",""6323""
","
","
","""event"",""trial"",""time""
""fullscreenenter"",""0"",""6323""
","
","null","run_exp/static/images/Set 6_rs/172a.jpg","null","","","","","","learn","SR",""
"","html-keyboard-response","21","58145","0.0-21.0","""event"",""trial"",""time""
""fullscreenenter"",""0"",""6323""
","
","
","""event"",""trial"",""time""
""fullscreenenter"",""0"",""6323""
","
","null","<p></p>","null","","","","","","","",""
"","image","22","59469","0.0-22.0","""event"",""trial"",""time""
""fullscreenenter"",""0"",""6323""
","
","
","""event"",""trial"",""time""
""fullscreenenter"",""0"",""6323""
","
","1322.4000000059605","run_exp/static/images/Set 6_rs/191a.jpg","86","","","","","","learn","SL",""
"","show_choice","23","60152","0.0-23.0","""event"",""trial"",""time""
""fullscreenenter"",""0"",""6323""
","
","
","""event"",""trial"",""time""
""fullscreenenter"",""0"",""6323""
","
","null","run_exp/static/images/Set 6_rs/191a.jpg","null","","","","","","learn","SL",""
"","html-keyboard-response","24","60659","0.0-24.0","""event"",""trial"",""time""
""fullscreenenter"",""0"",""6323""
","
","
","""event"",""trial"",""time""
""fullscreenenter"",""0"",""6323""
","
","null","<p></p>","null","","","","","","","",""
"","image","25","62348","0.0-25.0","""event"",""trial"",""time""
""fullscreenenter"",""0"",""6323""
","
","
","""event"",""trial"",""time""
""fullscreenenter"",""0"",""6323""
","
","1687.5999999940395","run_exp/static/images/Set 6_rs/108a.jpg","78","","","","","","learn","SR",""
"","show_choice","26","62674","0.0-26.0","""event"",""trial"",""time""
""fullscreenenter"",""0"",""6323""
","
","
","""event"",""trial"",""time""
""fullscreenenter"",""0"",""6323""
","
","null","run_exp/static/images/Set 6_rs/108a.jpg","null","","","","","","learn","SR",""
"","html-keyboard-response","27","63178","0.0-27.0","""event"",""trial"",""time""
""fullscreenenter"",""0"",""6323""
","
","
","""event"",""trial"",""time""
""fullscreenenter"",""0"",""6323""
","
","null","<p></p>","null","","","","","","","",""
"","image","28","65188","0.0-28.0","""event"",""trial"",""time""
""fullscreenenter"",""0"",""6323""
","
","
","""event"",""trial"",""time""
""fullscreenenter"",""0"",""6323""
","
","null","run_exp/static/images/Set 6_rs/177a.jpg","null","","","","","","learn","SR",""
"","show_choice","29","67203","0.0-29.0","""event"",""trial"",""time""
""fullscreenenter"",""0"",""6323""
","
","
","""event"",""trial"",""time""
""fullscreenenter"",""0"",""6323""
","
","null","run_exp/static/images/blank.png","null","","","","","","learn","SR",""
"","html-keyboard-response","30","67707","0.0-30.0","""event"",""trial"",""time""
""fullscreenenter"",""0"",""6323""
","
","
","""event"",""trial"",""time""
""fullscreenenter"",""0"",""6323""
","
","null","<p></p>","null","","","","","","","",""
"","image","31","68965","0.0-31.0","""event"",""trial"",""time""
""fullscreenenter"",""0"",""6323""
","
","
","""event"",""trial"",""time""
""fullscreenenter"",""0"",""6323""
","
","1256.5999999940395","run_exp/static/images/Set 6_rs/071a.jpg","86","","","","","","learn","SL",""
"","show_choice","32","69721","0.0-32.0","""event"",""trial"",""time""
""fullscreenenter"",""0"",""6323""
","
","
","""event"",""trial"",""time""
""fullscreenenter"",""0"",""6323""
","
","null","run_exp/static/images/Set 6_rs/071a.jpg","null","","","","","","learn","SL",""
"","html-keyboard-response","33","70223","0.0-33.0","""event"",""trial"",""time""
""fullscreenenter"",""0"",""6323""
","
","
","""event"",""trial"",""time""
""fullscreenenter"",""0"",""6323""
","
","null","<p></p>","null","","","","","","","",""
"","image","34","71389","0.0-34.0","""event"",""trial"",""time""
""fullscreenenter"",""0"",""6323""
","
","
","""event"",""trial"",""time""
""fullscreenenter"",""0"",""6323""
","
","1164.0999999940395","run_exp/static/images/Set 6_rs/138a.jpg","86","","","","","","learn","SL",""
"","show_choice","35","72235","0.0-35.0","""event"",""trial"",""time""
""fullscreenenter"",""0"",""6323""
","
","
","""event"",""trial"",""time""
""fullscreenenter"",""0"",""6323""
","
","null","run_exp/static/images/Set 6_rs/138a.jpg","null","","","","","","learn","SL",""
"","html-keyboard-response","36","72739","0.0-36.0","""event"",""trial"",""time""
""fullscreenenter"",""0"",""6323""
","
","
","""event"",""trial"",""time""
""fullscreenenter"",""0"",""6323""
","
","null","<p></p>","null","","","","","","","",""
"","image","37","73644","0.0-37.0","""event"",""trial"",""time""
""fullscreenenter"",""0"",""6323""
","
","
","""event"",""trial"",""time""
""fullscreenenter"",""0"",""6323""
","
","903.4000000059605","run_exp/static/images/Set 6_rs/024a.jpg","86","","","","","","learn","SR",""
"","show_choice","38","74745","0.0-38.0","""event"",""trial"",""time""
""fullscreenenter"",""0"",""6323""
","
","
","""event"",""trial"",""time""
""fullscreenenter"",""0"",""6323""
","
","null","run_exp/static/images/Set 6_rs/024a.jpg","null","","","","","","learn","SR",""
"","html-keyboard-response","39","75251","0.0-39.0","""event"",""trial"",""time""
""fullscreenenter"",""0"",""6323""
","
","
","""event"",""trial"",""time""
""fullscreenenter"",""0"",""6323""
","
","null","<p></p>","null","","","","","","","",""
"","image","40","76669","0.0-40.0","""event"",""trial"",""time""
""fullscreenenter"",""0"",""6323""
","
","
","""event"",""trial"",""time""
""fullscreenenter"",""0"",""6323""
","
","1416.5999999940395","run_exp/static/images/Set 6_rs/123a.jpg","86","","","","","","learn","SL",""
"","show_choice","41","77262","0.0-41.0","""event"",""trial"",""time""
""fullscreenenter"",""0"",""6323""
","
","
","""event"",""trial"",""time""
""fullscreenenter"",""0"",""6323""
","
","null","run_exp/static/images/Set 6_rs/123a.jpg","null","","","","","","learn","SL",""
"","html-keyboard-response","42","77770","0.0-42.0","""event"",""trial"",""time""
""fullscreenenter"",""0"",""6323""
","
","
","""event"",""trial"",""time""
""fullscreenenter"",""0"",""6323""
","
","null","<p></p>","null","","","","","","","",""
"","image","43","78506","0.0-43.0","""event"",""trial"",""time""
""fullscreenenter"",""0"",""6323""
","
","
","""event"",""trial"",""time""
""fullscreenenter"",""0"",""6323""
","
","735.5","run_exp/static/images/Set 6_rs/063a.jpg","86","","","","","","learn","SR",""
"","show_choice","44","79784","0.0-44.0","""event"",""trial"",""time""
""fullscreenenter"",""0"",""6323""
","
","
","""event"",""trial"",""time""
""fullscreenenter"",""0"",""6323""
","
","null","run_exp/static/images/Set 6_rs/063a.jpg","null","","","","","","learn","SR",""
"","html-keyboard-response","45","80292","0.0-45.0","""event"",""trial"",""time""
""fullscreenenter"",""0"",""6323""
","
","
","""event"",""trial"",""time""
""fullscreenenter"",""0"",""6323""
","
","null","<p></p>","null","","","","","","","",""
"","image","46","81848","0.0-46.0","""event"",""trial"",""time""
""fullscreenenter"",""0"",""6323""
","
","
","""event"",""trial"",""time""
""fullscreenenter"",""0"",""6323""
","
","1554.4000000059605","run_exp/static/images/Set 6_rs/066a.jpg","86","","","","","","learn","SL",""
"","show_choice","47","82303","0.0-47.0","""event"",""trial"",""time""
""fullscreenenter"",""0"",""6323""
","
","
","""event"",""trial"",""time""
""fullscreenenter"",""0"",""6323""
","
","null","run_exp/static/images/Set 6_rs/066a.jpg","null","","","","","","learn","SL",""
"","html-keyboard-response","48","82806","0.0-48.0","""event"",""trial"",""time""
""fullscreenenter"",""0"",""6323""
","
","
","""event"",""trial"",""time""
""fullscreenenter"",""0"",""6323""
","
","null","<p></p>","null","","","","","","","",""
"","image","49","83840","0.0-49.0","""event"",""trial"",""time""
""fullscreenenter"",""0"",""6323""
","
","
","""event"",""trial"",""time""
""fullscreenenter"",""0"",""6323""
","
","1033.199999988079","run_exp/static/images/Set 6_rs/012a.jpg","86","","","","","","learn","SR",""
"","show_choice","50","84817","0.0-50.0","""event"",""trial"",""time""
""fullscreenenter"",""0"",""6323""
","
","
","""event"",""trial"",""time""
""fullscreenenter"",""0"",""6323""
","
","null","run_exp/static/images/Set 6_rs/012a.jpg","null","","","","","","learn","SR",""
"","html-keyboard-response","51","85319","0.0-51.0","""event"",""trial"",""time""
""fullscreenenter"",""0"",""6323""
","
","
","""event"",""trial"",""time""
""fullscreenenter"",""0"",""6323""
","
","null","<p></p>","null","","","","","","","",""
"","image","52","86060","0.0-52.0","""event"",""trial"",""time""
""fullscreenenter"",""0"",""6323""
","
","
","""event"",""trial"",""time""
""fullscreenenter"",""0"",""6323""
","
","739.3999999761581","run_exp/static/images/Set 6_rs/079a.jpg","86","","","","","","learn","SL",""
"","show_choice","53","87322","0.0-53.0","""event"",""trial"",""time""
""fullscreenenter"",""0"",""6323""
","
","
","""event"",""trial"",""time""
""fullscreenenter"",""0"",""6323""
","
","null","run_exp/static/images/Set 6_rs/079a.jpg","null","","","","","","learn","SL",""
"","html-keyboard-response","54","87831","0.0-54.0","""event"",""trial"",""time""
""fullscreenenter"",""0"",""6323""
","
","
","""event"",""trial"",""time""
""fullscreenenter"",""0"",""6323""
","
","null","<p></p>","null","","","","","","","",""
"","image","55","89580","0.0-55.0","""event"",""trial"",""time""
""fullscreenenter"",""0"",""6323""
","
","
","""event"",""trial"",""time""
""fullscreenenter"",""0"",""6323""
","
","1747.9000000059605","run_exp/static/images/Set 6_rs/036a.jpg","86","","","","","","learn","SL",""
"","show_choice","56","89847","0.0-56.0","""event"",""trial"",""time""
""fullscreenenter"",""0"",""6323""
","
","
","""event"",""trial"",""time""
""fullscreenenter"",""0"",""6323""
","
","null","run_exp/static/images/Set 6_rs/036a.jpg","null","","","","","","learn","SL",""
"","html-keyboard-response","57","90349","0.0-57.0","""event"",""trial"",""time""
""fullscreenenter"",""0"",""6323""
","
","
","""event"",""trial"",""time""
""fullscreenenter"",""0"",""6323""
","
","null","<p></p>","null","","","","","","","",""
"","image","58","91729","0.0-58.0","""event"",""trial"",""time""
""fullscreenenter"",""0"",""6323""
","
","
","""event"",""trial"",""time""
""fullscreenenter"",""0"",""6323""
","
","1378.1000000238419","run_exp/static/images/Set 6_rs/131a.jpg","86","","","","","","learn","SR",""
"","show_choice","59","92356","0.0-59.0","""event"",""trial"",""time""
""fullscreenenter"",""0"",""6323""
","
","
","""event"",""trial"",""time""
""fullscreenenter"",""0"",""6323""
","
","null","run_exp/static/images/Set 6_rs/131a.jpg","null","","","","","","learn","SR",""
"","html-keyboard-response","60","92866","0.0-60.0","""event"",""trial"",""time""
""fullscreenenter"",""0"",""6323""
","
","
","""event"",""trial"",""time""
""fullscreenenter"",""0"",""6323""
","
","null","<p></p>","null","","","","","","","",""
"","image","61","94139","0.0-61.0","""event"",""trial"",""time""
""fullscreenenter"",""0"",""6323""
","
","
","""event"",""trial"",""time""
""fullscreenenter"",""0"",""6323""
","
","1270.3999999761581","run_exp/static/images/Set 6_rs/019a.jpg","86","","","","","","learn","SL",""
"","show_choice","62","94880","0.0-62.0","""event"",""trial"",""time""
""fullscreenenter"",""0"",""6323""
","
","
","""event"",""trial"",""time""
""fullscreenenter"",""0"",""6323""
","
","null","run_exp/static/images/Set 6_rs/019a.jpg","null","","","","","","learn","SL",""
"","html-keyboard-response","63","95382","0.0-63.0","""event"",""trial"",""time""
""fullscreenenter"",""0"",""6323""
","
","
","""event"",""trial"",""time""
""fullscreenenter"",""0"",""6323""
","
","null","<p></p>","null","","","","","","","",""
"","image","64","96452","0.0-64.0","""event"",""trial"",""time""
""fullscreenenter"",""0"",""6323""
","
","
","""event"",""trial"",""time""
""fullscreenenter"",""0"",""6323""
","
","1068.5999999940395","run_exp/static/images/Set 6_rs/166a.jpg","78","","","","","","learn","SR",""
"","show_choice","65","97399","0.0-65.0","""event"",""trial"",""time""
""fullscreenenter"",""0"",""6323""
","
","
","""event"",""trial"",""time""
""fullscreenenter"",""0"",""6323""
","
","null","run_exp/static/images/Set 6_rs/166a.jpg","null","","","","","","learn","SR",""
"","html-keyboard-response","66","97901","0.0-66.0","""event"",""trial"",""time""
""fullscreenenter"",""0"",""6323""
","
","
","""event"",""trial"",""time""
""fullscreenenter"",""0"",""6323""
","
","null","<p></p>","null","","","","","","","",""
"","image","67","98816","0.0-67.0","""event"",""trial"",""time""
""fullscreenenter"",""0"",""6323""
","
","
","""event"",""trial"",""time""
""fullscreenenter"",""0"",""6323""
","
","913","run_exp/static/images/Set 6_rs/045a.jpg","86","","","","","","learn","SR",""
"","show_choice","68","99912","0.0-68.0","""event"",""trial"",""time""
""fullscreenenter"",""0"",""6323""
","
","
","""event"",""trial"",""time""
""fullscreenenter"",""0"",""6323""
","
","null","run_exp/static/images/Set 6_rs/045a.jpg","null","","","","","","learn","SR",""
"","html-keyboard-response","69","100425","0.0-69.0","""event"",""trial"",""time""
""fullscreenenter"",""0"",""6323""
","
","
","""event"",""trial"",""time""
""fullscreenenter"",""0"",""6323""
","
","null","<p></p>","null","","","","","","","",""
"","image","70","101327","0.0-70.0","""event"",""trial"",""time""
""fullscreenenter"",""0"",""6323""
","
","
","""event"",""trial"",""time""
""fullscreenenter"",""0"",""6323""
","
","900.1999999880791","run_exp/static/images/Set 6_rs/070a.jpg","86","","","","","","learn","SR",""
"","show_choice","71","102439","0.0-71.0","""event"",""trial"",""time""
""fullscreenenter"",""0"",""6323""
","
","
","""event"",""trial"",""time""
""fullscreenenter"",""0"",""6323""
","
","null","run_exp/static/images/Set 6_rs/070a.jpg","null","","","","","","learn","SR",""
"","html-keyboard-response","72","102960","0.0-72.0","""event"",""trial"",""time""
""fullscreenenter"",""0"",""6323""
","
","
","""event"",""trial"",""time""
""fullscreenenter"",""0"",""6323""
","
","null","<p></p>","null","","","","","","","",""
"","image","73","103955","0.0-73.0","""event"",""trial"",""time""
""fullscreenenter"",""0"",""6323""
","
","
","""event"",""trial"",""time""
""fullscreenenter"",""0"",""6323""
","
","993.5","run_exp/static/images/Set 6_rs/186a.jpg","86","","","","","","learn","SR",""
"","show_choice","74","104965","0.0-74.0","""event"",""trial"",""time""
""fullscreenenter"",""0"",""6323""
","
","
","""event"",""trial"",""time""
""fullscreenenter"",""0"",""6323""
","
","null","run_exp/static/images/Set 6_rs/186a.jpg","null","","","","","","learn","SR",""
"","html-keyboard-response","75","105477","0.0-75.0","""event"",""trial"",""time""
""fullscreenenter"",""0"",""6323""
","
","
","""event"",""trial"",""time""
""fullscreenenter"",""0"",""6323""
","
","null","<p></p>","null","","","","","","","",""
"","image","76","106900","0.0-76.0","""event"",""trial"",""time""
""fullscreenenter"",""0"",""6323""
","
","
","""event"",""trial"",""time""
""fullscreenenter"",""0"",""6323""
","
","1422.1000000238419","run_exp/static/images/Set 6_rs/008a.jpg","86","","","","","","learn","SL",""
"","show_choice","77","107487","0.0-77.0","""event"",""trial"",""time""
""fullscreenenter"",""0"",""6323""
","
","
","""event"",""trial"",""time""
""fullscreenenter"",""0"",""6323""
","
","null","run_exp/static/images/Set 6_rs/008a.jpg","null","","","","","","learn","SL",""
"","html-keyboard-response","78","107992","0.0-78.0","""event"",""trial"",""time""
""fullscreenenter"",""0"",""6323""
","
","
","""event"",""trial"",""time""
""fullscreenenter"",""0"",""6323""
","
","null","<p></p>","null","","","","","","","",""
"","image","79","108825","0.0-79.0","""event"",""trial"",""time""
""fullscreenenter"",""0"",""6323""
","
","
","""event"",""trial"",""time""
""fullscreenenter"",""0"",""6323""
","
","831.4000000059605","run_exp/static/images/Set 6_rs/010a.jpg","86","","","","","","learn","SR",""
"","show_choice","80","109998","0.0-80.0","""event"",""trial"",""time""
""fullscreenenter"",""0"",""6323""
","
","
","""event"",""trial"",""time""
""fullscreenenter"",""0"",""6323""
","
","null","run_exp/static/images/Set 6_rs/010a.jpg","null","","","","","","learn","SR",""
"","html-keyboard-response","81","110509","0.0-81.0","""event"",""trial"",""time""
""fullscreenenter"",""0"",""6323""
","
","
","""event"",""trial"",""time""
""fullscreenenter"",""0"",""6323""
","
","null","<p></p>","null","","","","","","","",""
"","image","82","112525","0.0-82.0","""event"",""trial"",""time""
""fullscreenenter"",""0"",""6323""
","
","
","""event"",""trial"",""time""
""fullscreenenter"",""0"",""6323""
","
","null","run_exp/static/images/Set 6_rs/074a.jpg","null","","","","","","learn","SL",""
"","show_choice","83","114528","0.0-83.0","""event"",""trial"",""time""
""fullscreenenter"",""0"",""6323""
","
","
","""event"",""trial"",""time""
""fullscreenenter"",""0"",""6323""
","
","null","run_exp/static/images/blank.png","null","","","","","","learn","SL",""
"","html-keyboard-response","84","115031","0.0-84.0","""event"",""trial"",""time""
""fullscreenenter"",""0"",""6323""
","
","
","""event"",""trial"",""time""
""fullscreenenter"",""0"",""6323""
","
","null","<p></p>","null","","","","","","","",""
"","image","85","115847","0.0-85.0","""event"",""trial"",""time""
""fullscreenenter"",""0"",""6323""
","
","
","""event"",""trial"",""time""
""fullscreenenter"",""0"",""6323""
","
","812.5","run_exp/static/images/Set 6_rs/088a.jpg","86","","","","","","learn","SR",""
"","show_choice","86","117047","0.0-86.0","""event"",""trial"",""time""
""fullscreenenter"",""0"",""6323""
","
","
","""event"",""trial"",""time""
""fullscreenenter"",""0"",""6323""
","
","null","run_exp/static/images/Set 6_rs/088a.jpg","null","","","","","","learn","SR",""
"","html-keyboard-response","87","117551","0.0-87.0","""event"",""trial"",""time""
""fullscreenenter"",""0"",""6323""
","
","
","""event"",""trial"",""time""
""fullscreenenter"",""0"",""6323""
","
","null","<p></p>","null","","","","","","","",""
"","image","88","118603","0.0-88.0","""event"",""trial"",""time""
""fullscreenenter"",""0"",""6323""
","
","
","""event"",""trial"",""time""
""fullscreenenter"",""0"",""6323""
","
","1050.7000000178814","run_exp/static/images/Set 6_rs/134a.jpg","86","","","","","","learn","SR",""
"","show_choice","89","119566","0.0-89.0","""event"",""trial"",""time""
""fullscreenenter"",""0"",""6323""
","
","
","""event"",""trial"",""time""
""fullscreenenter"",""0"",""6323""
","
","null","run_exp/static/images/Set 6_rs/134a.jpg","null","","","","","","learn","SR",""
"","html-keyboard-response","90","120076","0.0-90.0","""event"",""trial"",""time""
""fullscreenenter"",""0"",""6323""
","
","
","""event"",""trial"",""time""
""fullscreenenter"",""0"",""6323""
","
","null","<p></p>","null","","","","","","","",""
"","image","91","121107","0.0-91.0","""event"",""trial"",""time""
""fullscreenenter"",""0"",""6323""
","
","
","""event"",""trial"",""time""
""fullscreenenter"",""0"",""6323""
","
","1029.4000000059605","run_exp/static/images/Set 6_rs/150a.jpg","86","","","","","","learn","SR",""
"","show_choice","92","122086","0.0-92.0","""event"",""trial"",""time""
""fullscreenenter"",""0"",""6323""
","
","
","""event"",""trial"",""time""
""fullscreenenter"",""0"",""6323""
","
","null","run_exp/static/images/Set 6_rs/150a.jpg","null","","","","","","learn","SR",""
"","html-keyboard-response","93","122591","0.0-93.0","""event"",""trial"",""time""
""fullscreenenter"",""0"",""6323""
","
","
","""event"",""trial"",""time""
""fullscreenenter"",""0"",""6323""
","
","null","<p></p>","null","","","","","","","",""
"","image","94","123445","0.0-94.0","""event"",""trial"",""time""
""fullscreenenter"",""0"",""6323""
","
","
","""event"",""trial"",""time""
""fullscreenenter"",""0"",""6323""
","
","852.2000000178814","run_exp/static/images/Set 6_rs/062a.jpg","86","","","","","","learn","SL",""
"","show_choice","95","124597","0.0-95.0","""event"",""trial"",""time""
""fullscreenenter"",""0"",""6323""
","
","
","""event"",""trial"",""time""
""fullscreenenter"",""0"",""6323""
","
","null","run_exp/static/images/Set 6_rs/062a.jpg","null","","","","","","learn","SL",""
"","html-keyboard-response","96","125099","0.0-96.0","""event"",""trial"",""time""
""fullscreenenter"",""0"",""6323""
","
","
","""event"",""trial"",""time""
""fullscreenenter"",""0"",""6323""
","
","null","<p></p>","null","","","","","","","",""
"","image","97","125816","0.0-97.0","""event"",""trial"",""time""
""fullscreenenter"",""0"",""6323""
","
","
","""event"",""trial"",""time""
""fullscreenenter"",""0"",""6323""
","
","716.1000000238419","run_exp/static/images/Set 6_rs/025a.jpg","86","","","","","","learn","SL",""
"","show_choice","98","127108","0.0-98.0","""event"",""trial"",""time""
""fullscreenenter"",""0"",""6323""
","
","
","""event"",""trial"",""time""
""fullscreenenter"",""0"",""6323""
","
","null","run_exp/static/images/Set 6_rs/025a.jpg","null","","","","","","learn","SL",""
"","html-keyboard-response","99","127610","0.0-99.0","""event"",""trial"",""time""
""fullscreenenter"",""0"",""6323""
","
","
","""event"",""trial"",""time""
""fullscreenenter"",""0"",""6323""
","
","null","<p></p>","null","","","","","","","",""
"","image","100","128434","0.0-100.0","""event"",""trial"",""time""
""fullscreenenter"",""0"",""6323""
","
","
","""event"",""trial"",""time""
""fullscreenenter"",""0"",""6323""
","
","822.0999999940395","run_exp/static/images/Set 6_rs/006a.jpg","86","","","","","","learn","SL",""
"","show_choice","101","129619","0.0-101.0","""event"",""trial"",""time""
""fullscreenenter"",""0"",""6323""
","
","
","""event"",""trial"",""time""
""fullscreenenter"",""0"",""6323""
","
","null","run_exp/static/images/Set 6_rs/006a.jpg","null","","","","","","learn","SL",""
"","html-keyboard-response","102","130130","0.0-102.0","""event"",""trial"",""time""
""fullscreenenter"",""0"",""6323""
","
","
","""event"",""trial"",""time""
""fullscreenenter"",""0"",""6323""
","
","null","<p></p>","null","","","","","","","",""
"","image","103","130961","0.0-103.0","""event"",""trial"",""time""
""fullscreenenter"",""0"",""6323""
","
","
","""event"",""trial"",""time""
""fullscreenenter"",""0"",""6323""
","
","829.1999999880791","run_exp/static/images/Set 6_rs/144a.jpg","86","","","","","","learn","SL",""
"","show_choice","104","132147","0.0-104.0","""event"",""trial"",""time""
""fullscreenenter"",""0"",""6323""
","
","
","""event"",""trial"",""time""
""fullscreenenter"",""0"",""6323""
","
","null","run_exp/static/images/Set 6_rs/144a.jpg","null","","","","","","learn","SL",""
"","html-keyboard-response","105","132654","0.0-105.0","""event"",""trial"",""time""
""fullscreenenter"",""0"",""6323""
","
","
","""event"",""trial"",""time""
""fullscreenenter"",""0"",""6323""
","
","null","<p></p>","null","","","","","","","",""
"","image","106","133357","0.0-106.0","""event"",""trial"",""time""
""fullscreenenter"",""0"",""6323""
","
","
","""event"",""trial"",""time""
""fullscreenenter"",""0"",""6323""
","
","701.3000000119209","run_exp/static/images/Set 6_rs/111a.jpg","86","","","","","","learn","SL",""
"","show_choice","107","134658","0.0-107.0","""event"",""trial"",""time""
""fullscreenenter"",""0"",""6323""
","
","
","""event"",""trial"",""time""
""fullscreenenter"",""0"",""6323""
","
","null","run_exp/static/images/Set 6_rs/111a.jpg","null","","","","","","learn","SL",""
"","html-keyboard-response","108","135169","0.0-108.0","""event"",""trial"",""time""
""fullscreenenter"",""0"",""6323""
","
","
","""event"",""trial"",""time""
""fullscreenenter"",""0"",""6323""
","
","null","<p></p>","null","","","","","","","",""
"","image","109","136012","0.0-109.0","""event"",""trial"",""time""
""fullscreenenter"",""0"",""6323""
","
","
","""event"",""trial"",""time""
""fullscreenenter"",""0"",""6323""
","
","841.7999999821186","run_exp/static/images/Set 6_rs/016a.jpg","86","","","","","","learn","SL",""
"","show_choice","110","137177","0.0-110.0","""event"",""trial"",""time""
""fullscreenenter"",""0"",""6323""
","
","
","""event"",""trial"",""time""
""fullscreenenter"",""0"",""6323""
","
","null","run_exp/static/images/Set 6_rs/016a.jpg","null","","","","","","learn","SL",""
"","html-keyboard-response","111","137686","0.0-111.0","""event"",""trial"",""time""
""fullscreenenter"",""0"",""6323""
","
","
","""event"",""trial"",""time""
""fullscreenenter"",""0"",""6323""
","
","null","<p></p>","null","","","","","","","",""
"","image","112","138310","0.0-112.0","""event"",""trial"",""time""
""fullscreenenter"",""0"",""6323""
","
","
","""event"",""trial"",""time""
""fullscreenenter"",""0"",""6323""
","
","623","run_exp/static/images/Set 6_rs/073a.jpg","86","","","","","","learn","SL",""
"","show_choice","113","139694","0.0-113.0","""event"",""trial"",""time""
""fullscreenenter"",""0"",""6323""
","
","
","""event"",""trial"",""time""
""fullscreenenter"",""0"",""6323""
","
","null","run_exp/static/images/Set 6_rs/073a.jpg","null","","","","","","learn","SL",""
"","html-keyboard-response","114","140202","0.0-114.0","""event"",""trial"",""time""
""fullscreenenter"",""0"",""6323""
","
","
","""event"",""trial"",""time""
""fullscreenenter"",""0"",""6323""
","
","null","<p></p>","null","","","","","","","",""
"","image","115","141015","0.0-115.0","""event"",""trial"",""time""
""fullscreenenter"",""0"",""6323""
","
","
","""event"",""trial"",""time""
""fullscreenenter"",""0"",""6323""
","
","811.4000000059605","run_exp/static/images/Set 6_rs/085a.jpg","86","","","","","","learn","SL",""
"","show_choice","116","142208","0.0-116.0","""event"",""trial"",""time""
""fullscreenenter"",""0"",""6323""
","
","
","""event"",""trial"",""time""
""fullscreenenter"",""0"",""6323""
","
","null","run_exp/static/images/Set 6_rs/085a.jpg","null","","","","","","learn","SL",""
"","html-keyboard-response","117","142717","0.0-117.0","""event"",""trial"",""time""
""fullscreenenter"",""0"",""6323""
","
","
","""event"",""trial"",""time""
""fullscreenenter"",""0"",""6323""
","
","null","<p></p>","null","","","","","","","",""
"","image","118","143925","0.0-118.0","""event"",""trial"",""time""
""fullscreenenter"",""0"",""6323""
","
","
","""event"",""trial"",""time""
""fullscreenenter"",""0"",""6323""
","
","1206.5","run_exp/static/images/Set 6_rs/095a.jpg","86","","","","","","learn","SL",""
"","show_choice","119","144731","0.0-119.0","""event"",""trial"",""time""
""fullscreenenter"",""0"",""6323""
","
","
","""event"",""trial"",""time""
""fullscreenenter"",""0"",""6323""
","
","null","run_exp/static/images/Set 6_rs/095a.jpg","null","","","","","","learn","SL",""
"","html-keyboard-response","120","145237","0.0-120.0","""event"",""trial"",""time""
""fullscreenenter"",""0"",""6323""
","
","
","""event"",""trial"",""time""
""fullscreenenter"",""0"",""6323""
","
","null","<p></p>","null","","","","","","","",""
"","image","121","146183","0.0-121.0","""event"",""trial"",""time""
""fullscreenenter"",""0"",""6323""
","
","
","""event"",""trial"",""time""
""fullscreenenter"",""0"",""6323""
","
","945.3000000119209","run_exp/static/images/Set 6_rs/112a.jpg","86","","","","","","learn","SR",""
"","show_choice","122","147243","0.0-122.0","""event"",""trial"",""time""
""fullscreenenter"",""0"",""6323""
","
","
","""event"",""trial"",""time""
""fullscreenenter"",""0"",""6323""
","
","null","run_exp/static/images/Set 6_rs/112a.jpg","null","","","","","","learn","SR",""
"","html-keyboard-response","123","147752","0.0-123.0","""event"",""trial"",""time""
""fullscreenenter"",""0"",""6323""
","
","
","""event"",""trial"",""time""
""fullscreenenter"",""0"",""6323""
","
","null","<p></p>","null","","","","","","","",""
"","image","124","148645","0.0-124.0","""event"",""trial"",""time""
""fullscreenenter"",""0"",""6323""
","
","
","""event"",""trial"",""time""
""fullscreenenter"",""0"",""6323""
","
","891","run_exp/static/images/Set 6_rs/168a.jpg","86","","","","","","learn","SL",""
"","show_choice","125","149766","0.0-125.0","""event"",""trial"",""time""
""fullscreenenter"",""0"",""6323""
","
","
","""event"",""trial"",""time""
""fullscreenenter"",""0"",""6323""
","
","null","run_exp/static/images/Set 6_rs/168a.jpg","null","","","","","","learn","SL",""
"","html-keyboard-response","126","150269","0.0-126.0","""event"",""trial"",""time""
""fullscreenenter"",""0"",""6323""
","
","
","""event"",""trial"",""time""
""fullscreenenter"",""0"",""6323""
","
","null","<p></p>","null","","","","","","","",""
"","image","127","151113","0.0-127.0","""event"",""trial"",""time""
""fullscreenenter"",""0"",""6323""
","
","
","""event"",""trial"",""time""
""fullscreenenter"",""0"",""6323""
","
","842.3000000119209","run_exp/static/images/Set 6_rs/017a.jpg","86","","","","","","learn","SL",""
"","show_choice","128","152282","0.0-128.0","""event"",""trial"",""time""
""fullscreenenter"",""0"",""6323""
","
","
","""event"",""trial"",""time""
""fullscreenenter"",""0"",""6323""
","
","null","run_exp/static/images/Set 6_rs/017a.jpg","null","","","","","","learn","SL",""
"","html-keyboard-response","129","152785","0.0-129.0","""event"",""trial"",""time""
""fullscreenenter"",""0"",""6323""
","
","
","""event"",""trial"",""time""
""fullscreenenter"",""0"",""6323""
","
","null","<p></p>","null","","","","","","","",""
"","image","130","153899","0.0-130.0","""event"",""trial"",""time""
""fullscreenenter"",""0"",""6323""
","
","
","""event"",""trial"",""time""
""fullscreenenter"",""0"",""6323""
","
","1111.699999988079","run_exp/static/images/Set 6_rs/167a.jpg","86","","","","","","learn","SL",""
"","show_choice","131","154790","0.0-131.0","""event"",""trial"",""time""
""fullscreenenter"",""0"",""6323""
","
","
","""event"",""trial"",""time""
""fullscreenenter"",""0"",""6323""
","
","null","run_exp/static/images/Set 6_rs/167a.jpg","null","","","","","","learn","SL",""
"","html-keyboard-response","132","155301","0.0-132.0","""event"",""trial"",""time""
""fullscreenenter"",""0"",""6323""
","
","
","""event"",""trial"",""time""
""fullscreenenter"",""0"",""6323""
","
","null","<p></p>","null","","","","","","","",""
"","image","133","156451","0.0-133.0","""event"",""trial"",""time""
""fullscreenenter"",""0"",""6323""
","
","
","""event"",""trial"",""time""
""fullscreenenter"",""0"",""6323""
","
","1149.300000011921","run_exp/static/images/Set 6_rs/091a.jpg","86","","","","","","learn","SL",""
"","show_choice","134","157314","0.0-134.0","""event"",""trial"",""time""
""fullscreenenter"",""0"",""6323""
","
","
","""event"",""trial"",""time""
""fullscreenenter"",""0"",""6323""
","
","null","run_exp/static/images/Set 6_rs/091a.jpg","null","","","","","","learn","SL",""
"","html-keyboard-response","135","157816","0.0-135.0","""event"",""trial"",""time""
""fullscreenenter"",""0"",""6323""
","
","
","""event"",""trial"",""time""
""fullscreenenter"",""0"",""6323""
","
","null","<p></p>","null","","","","","","","",""
"","image","136","158861","0.0-136.0","""event"",""trial"",""time""
""fullscreenenter"",""0"",""6323""
","
","
","""event"",""trial"",""time""
""fullscreenenter"",""0"",""6323""
","
","1043.4000000059605","run_exp/static/images/Set 6_rs/061a.jpg","86","","","","","","learn","SR",""
"","show_choice","137","159827","0.0-137.0","""event"",""trial"",""time""
""fullscreenenter"",""0"",""6323""
","
","
","""event"",""trial"",""time""
""fullscreenenter"",""0"",""6323""
","
","null","run_exp/static/images/Set 6_rs/061a.jpg","null","","","","","","learn","SR",""
"","html-keyboard-response","138","160339","0.0-138.0","""event"",""trial"",""time""
""fullscreenenter"",""0"",""6323""
","
","
","""event"",""trial"",""time""
""fullscreenenter"",""0"",""6323""
","
","null","<p></p>","null","","","","","","","",""
"","image","139","162043","0.0-139.0","""event"",""trial"",""time""
""fullscreenenter"",""0"",""6323""
","
","
","""event"",""trial"",""time""
""fullscreenenter"",""0"",""6323""
","
","1702.199999988079","run_exp/static/images/Set 6_rs/014a.jpg","86","","","","","","learn","SL",""
"","show_choice","140","162354","0.0-140.0","""event"",""trial"",""time""
""fullscreenenter"",""0"",""6323""
","
","
","""event"",""trial"",""time""
""fullscreenenter"",""0"",""6323""
","
","null","run_exp/static/images/Set 6_rs/014a.jpg","null","","","","","","learn","SL",""
"","html-keyboard-response","141","162865","0.0-141.0","""event"",""trial"",""time""
""fullscreenenter"",""0"",""6323""
","
","
","""event"",""trial"",""time""
""fullscreenenter"",""0"",""6323""
","
","null","<p></p>","null","","","","","","","",""
"","image","142","163739","0.0-142.0","""event"",""trial"",""time""
""fullscreenenter"",""0"",""6323""
","
","
","""event"",""trial"",""time""
""fullscreenenter"",""0"",""6323""
","
","873.1000000238419","run_exp/static/images/Set 6_rs/169a.jpg","86","","","","","","learn","SR",""
"","show_choice","143","164871","0.0-143.0","""event"",""trial"",""time""
""fullscreenenter"",""0"",""6323""
","
","
","""event"",""trial"",""time""
""fullscreenenter"",""0"",""6323""
","
","null","run_exp/static/images/Set 6_rs/169a.jpg","null","","","","","","learn","SR",""
"","html-keyboard-response","144","165382","0.0-144.0","""event"",""trial"",""time""
""fullscreenenter"",""0"",""6323""
","
","
","""event"",""trial"",""time""
""fullscreenenter"",""0"",""6323""
","
","null","<p></p>","null","","","","","","","",""
"","image","145","166629","0.0-145.0","""event"",""trial"",""time""
""fullscreenenter"",""0"",""6323""
","
","
","""event"",""trial"",""time""
""fullscreenenter"",""0"",""6323""
","
","1246.199999988079","run_exp/static/images/Set 6_rs/126a.jpg","78","","","","","","learn","SR",""
"","show_choice","146","167393","0.0-146.0","""event"",""trial"",""time""
""fullscreenenter"",""0"",""6323""
","
","
","""event"",""trial"",""time""
""fullscreenenter"",""0"",""6323""
","
","null","run_exp/static/images/Set 6_rs/126a.jpg","null","","","","","","learn","SR",""
"","html-keyboard-response","147","167903","0.0-147.0","""event"",""trial"",""time""
""fullscreenenter"",""0"",""6323""
","
","
","""event"",""trial"",""time""
""fullscreenenter"",""0"",""6323""
","
","null","<p></p>","null","","","","","","","",""
"","image","148","169309","0.0-148.0","""event"",""trial"",""time""
""fullscreenenter"",""0"",""6323""
","
","
","""event"",""trial"",""time""
""fullscreenenter"",""0"",""6323""
","
","1404.7999999821186","run_exp/static/images/Set 6_rs/178a.jpg","86","","","","","","learn","SR",""
"","show_choice","149","169906","0.0-149.0","""event"",""trial"",""time""
""fullscreenenter"",""0"",""6323""
","
","
","""event"",""trial"",""time""
""fullscreenenter"",""0"",""6323""
","
","null","run_exp/static/images/Set 6_rs/178a.jpg","null","","","","","","learn","SR",""
"","html-keyboard-response","150","170411","0.0-150.0","""event"",""trial"",""time""
""fullscreenenter"",""0"",""6323""
","
","
","""event"",""trial"",""time""
""fullscreenenter"",""0"",""6323""
","
","null","<p></p>","null","","","","","","","",""
"","image","151","171498","0.0-151.0","""event"",""trial"",""time""
""fullscreenenter"",""0"",""6323""
","
","
","""event"",""trial"",""time""
""fullscreenenter"",""0"",""6323""
","
","1085.7000000178814","run_exp/static/images/Set 6_rs/121a.jpg","86","","","","","","learn","SR",""
"","show_choice","152","172415","0.0-152.0","""event"",""trial"",""time""
""fullscreenenter"",""0"",""6323""
","
","
","""event"",""trial"",""time""
""fullscreenenter"",""0"",""6323""
","
","null","run_exp/static/images/Set 6_rs/121a.jpg","null","","","","","","learn","SR",""
"","html-keyboard-response","153","172917","0.0-153.0","""event"",""trial"",""time""
""fullscreenenter"",""0"",""6323""
","
","
","""event"",""trial"",""time""
""fullscreenenter"",""0"",""6323""
","
","null","<p></p>","null","","","","","","","",""
"","image","154","174419","0.0-154.0","""event"",""trial"",""time""
""fullscreenenter"",""0"",""6323""
","
","
","""event"",""trial"",""time""
""fullscreenenter"",""0"",""6323""
","
","1500.5999999940395","run_exp/static/images/Set 6_rs/064a.jpg","86","","","","","","learn","SR",""
"","show_choice","155","174932","0.0-155.0","""event"",""trial"",""time""
""fullscreenenter"",""0"",""6323""
","
","
","""event"",""trial"",""time""
""fullscreenenter"",""0"",""6323""
","
","null","run_exp/static/images/Set 6_rs/064a.jpg","null","","","","","","learn","SR",""
"","html-keyboard-response","156","175445","0.0-156.0","""event"",""trial"",""time""
""fullscreenenter"",""0"",""6323""
","
","
","""event"",""trial"",""time""
""fullscreenenter"",""0"",""6323""
","
","null","<p></p>","null","","","","","","","",""
"","image","157","176464","0.0-157.0","""event"",""trial"",""time""
""fullscreenenter"",""0"",""6323""
","
","
","""event"",""trial"",""time""
""fullscreenenter"",""0"",""6323""
","
","1025.800000011921","run_exp/static/images/Set 6_rs/057a.jpg","86","","","","","","learn","SL",""
"","show_choice","158","177445","0.0-158.0","""event"",""trial"",""time""
""fullscreenenter"",""0"",""6323""
","
","
","""event"",""trial"",""time""
""fullscreenenter"",""0"",""6323""
","
","null","run_exp/static/images/Set 6_rs/057a.jpg","null","","","","","","learn","SL",""
"","html-keyboard-response","159","177951","0.0-159.0","""event"",""trial"",""time""
""fullscreenenter"",""0"",""6323""
","
","
","""event"",""trial"",""time""
""fullscreenenter"",""0"",""6323""
","
","null","<p></p>","null","","","","","","","",""
"","image","160","179259","0.0-160.0","""event"",""trial"",""time""
""fullscreenenter"",""0"",""6323""
","
","
","""event"",""trial"",""time""
""fullscreenenter"",""0"",""6323""
","
","1305.8999999761581","run_exp/static/images/Set 6_rs/129a.jpg","86","","","","","","learn","SL",""
"","show_choice","161","179955","0.0-161.0","""event"",""trial"",""time""
""fullscreenenter"",""0"",""6323""
","
","
","""event"",""trial"",""time""
""fullscreenenter"",""0"",""6323""
","
","null","run_exp/static/images/Set 6_rs/129a.jpg","null","","","","","","learn","SL",""
"","html-keyboard-response","162","180466","0.0-162.0","""event"",""trial"",""time""
""fullscreenenter"",""0"",""6323""
","
","
","""event"",""trial"",""time""
""fullscreenenter"",""0"",""6323""
","
","null","<p></p>","null","","","","","","","",""
"","image","163","181964","0.0-163.0","""event"",""trial"",""time""
""fullscreenenter"",""0"",""6323""
","
","
","""event"",""trial"",""time""
""fullscreenenter"",""0"",""6323""
","
","1496.5","run_exp/static/images/Set 6_rs/122a.jpg","86","","","","","","learn","SR",""
"","show_choice","164","182474","0.0-164.0","""event"",""trial"",""time""
""fullscreenenter"",""0"",""6323""
","
","
","""event"",""trial"",""time""
""fullscreenenter"",""0"",""6323""
","
","null","run_exp/static/images/Set 6_rs/122a.jpg","null","","","","","","learn","SR",""
"","html-keyboard-response","165","182985","0.0-165.0","""event"",""trial"",""time""
""fullscreenenter"",""0"",""6323""
","
","
","""event"",""trial"",""time""
""fullscreenenter"",""0"",""6323""
","
","null","<p></p>","null","","","","","","","",""
"","image","166","184057","0.0-166.0","""event"",""trial"",""time""
""fullscreenenter"",""0"",""6323""
","
","
","""event"",""trial"",""time""
""fullscreenenter"",""0"",""6323""
","
","1070.199999988079","run_exp/static/images/Set 6_rs/007a.jpg","86","","","","","","learn","SR",""
"","show_choice","167","184988","0.0-167.0","""event"",""trial"",""time""
""fullscreenenter"",""0"",""6323""
","
","
","""event"",""trial"",""time""
""fullscreenenter"",""0"",""6323""
","
","null","run_exp/static/images/Set 6_rs/007a.jpg","null","","","","","","learn","SR",""
"","html-keyboard-response","168","185499","0.0-168.0","""event"",""trial"",""time""
""fullscreenenter"",""0"",""6323""
","
","
","""event"",""trial"",""time""
""fullscreenenter"",""0"",""6323""
","
","null","<p></p>","null","","","","","","","",""
"","image","169","187413","0.0-169.0","""event"",""trial"",""time""
""fullscreenenter"",""0"",""6323""
","
","
","""event"",""trial"",""time""
""fullscreenenter"",""0"",""6323""
","
","1912.5999999940395","run_exp/static/images/Set 6_rs/132a.jpg","86","","","","","","learn","SR",""
"","show_choice","170","187509","0.0-170.0","""event"",""trial"",""time""
""fullscreenenter"",""0"",""6323""
","
","
","""event"",""trial"",""time""
""fullscreenenter"",""0"",""6323""
","
","null","run_exp/static/images/Set 6_rs/132a.jpg","null","","","","","","learn","SR",""
"","html-keyboard-response","171","188015","0.0-171.0","""event"",""trial"",""time""
""fullscreenenter"",""0"",""6323""
","
","
","""event"",""trial"",""time""
""fullscreenenter"",""0"",""6323""
","
","null","<p></p>","null","","","","","","","",""
"","image","172","189346","0.0-172.0","""event"",""trial"",""time""
""fullscreenenter"",""0"",""6323""
","
","
","""event"",""trial"",""time""
""fullscreenenter"",""0"",""6323""
","
","1329.9000000059605","run_exp/static/images/Set 6_rs/152a.jpg","78","","","","","","learn","SR",""
"","show_choice","173","190023","0.0-173.0","""event"",""trial"",""time""
""fullscreenenter"",""0"",""6323""
","
","
","""event"",""trial"",""time""
""fullscreenenter"",""0"",""6323""
","
","null","run_exp/static/images/Set 6_rs/152a.jpg","null","","","","","","learn","SR",""
"","html-keyboard-response","174","190524","0.0-174.0","""event"",""trial"",""time""
""fullscreenenter"",""0"",""6323""
","
","
","""event"",""trial"",""time""
""fullscreenenter"",""0"",""6323""
","
","null","<p></p>","null","","","","","","","",""
"","image","175","191120","0.0-175.0","""event"",""trial"",""time""
""fullscreenenter"",""0"",""6323""
","
","
","""event"",""trial"",""time""
""fullscreenenter"",""0"",""6323""
","
","593.8999999761581","run_exp/static/images/Set 6_rs/050a.jpg","86","","","","","","learn","SL",""
"","show_choice","176","192528","0.0-176.0","""event"",""trial"",""time""
""fullscreenenter"",""0"",""6323""
","
","
","""event"",""trial"",""time""
""fullscreenenter"",""0"",""6323""
","
","null","run_exp/static/images/Set 6_rs/050a.jpg","null","","","","","","learn","SL",""
"","html-keyboard-response","177","193032","0.0-177.0","""event"",""trial"",""time""
""fullscreenenter"",""0"",""6323""
","
","
","""event"",""trial"",""time""
""fullscreenenter"",""0"",""6323""
","
","null","<p></p>","null","","","","","","","",""
"","image","178","194586","0.0-178.0","""event"",""trial"",""time""
""fullscreenenter"",""0"",""6323""
","
","
","""event"",""trial"",""time""
""fullscreenenter"",""0"",""6323""
","
","1552.199999988079","run_exp/static/images/Set 6_rs/075a.jpg","86","","","","","","learn","SR",""
"","show_choice","179","195049","0.0-179.0","""event"",""trial"",""time""
""fullscreenenter"",""0"",""6323""
","
","
","""event"",""trial"",""time""
""fullscreenenter"",""0"",""6323""
","
","null","run_exp/static/images/Set 6_rs/075a.jpg","null","","","","","","learn","SR",""
"","html-keyboard-response","180","195552","0.0-180.0","""event"",""trial"",""time""
""fullscreenenter"",""0"",""6323""
","
","
","""event"",""trial"",""time""
""fullscreenenter"",""0"",""6323""
","
","null","<p></p>","null","","","","","","","",""
"","image","181","196900","0.0-181.0","""event"",""trial"",""time""
""fullscreenenter"",""0"",""6323""
","
","
","""event"",""trial"",""time""
""fullscreenenter"",""0"",""6323""
","
","1346.199999988079","run_exp/static/images/Set 6_rs/181a.jpg","78","","","","","","learn","SL",""
"","show_choice","182","197569","0.0-182.0","""event"",""trial"",""time""
""fullscreenenter"",""0"",""6323""
","
","
","""event"",""trial"",""time""
""fullscreenenter"",""0"",""6323""
","
","null","run_exp/static/images/Set 6_rs/181a.jpg","null","","","","","","learn","SL",""
"","html-keyboard-response","183","198081","0.0-183.0","""event"",""trial"",""time""
""fullscreenenter"",""0"",""6323""
","
","
","""event"",""trial"",""time""
""fullscreenenter"",""0"",""6323""
","
","null","<p></p>","null","","","","","","","",""
"","image","184","199405","0.0-184.0","""event"",""trial"",""time""
""fullscreenenter"",""0"",""6323""
","
","
","""event"",""trial"",""time""
""fullscreenenter"",""0"",""6323""
","
","1322","run_exp/static/images/Set 6_rs/154a.jpg","86","","","","","","learn","SR",""
"","show_choice","185","200088","0.0-185.0","""event"",""trial"",""time""
""fullscreenenter"",""0"",""6323""
","
","
","""event"",""trial"",""time""
""fullscreenenter"",""0"",""6323""
","
","null","run_exp/static/images/Set 6_rs/154a.jpg","null","","","","","","learn","SR",""
"","html-keyboard-response","186","200595","0.0-186.0","""event"",""trial"",""time""
""fullscreenenter"",""0"",""6323""
","
","
","""event"",""trial"",""time""
""fullscreenenter"",""0"",""6323""
","
","null","<p></p>","null","","","","","","","",""
"","image","187","201949","0.0-187.0","""event"",""trial"",""time""
""fullscreenenter"",""0"",""6323""
","
","
","""event"",""trial"",""time""
""fullscreenenter"",""0"",""6323""
","
","1352.5","run_exp/static/images/Set 6_rs/187a.jpg","78","","","","","","learn","SR",""
"","show_choice","188","202602","0.0-188.0","""event"",""trial"",""time""
""fullscreenenter"",""0"",""6323""
","
","
","""event"",""trial"",""time""
""fullscreenenter"",""0"",""6323""
","
","null","run_exp/static/images/Set 6_rs/187a.jpg","null","","","","","","learn","SR",""
"","html-keyboard-response","189","203109","0.0-189.0","""event"",""trial"",""time""
""fullscreenenter"",""0"",""6323""
","
","
","""event"",""trial"",""time""
""fullscreenenter"",""0"",""6323""
","
","null","<p></p>","null","","","","","","","",""
"","image","190","204001","0.0-190.0","""event"",""trial"",""time""
""fullscreenenter"",""0"",""6323""
","
","
","""event"",""trial"",""time""
""fullscreenenter"",""0"",""6323""
","
","891.0999999940395","run_exp/static/images/Set 6_rs/023a.jpg","86","","","","","","learn","SR",""
"","show_choice","191","205123","0.0-191.0","""event"",""trial"",""time""
""fullscreenenter"",""0"",""6323""
","
","
","""event"",""trial"",""time""
""fullscreenenter"",""0"",""6323""
","
","null","run_exp/static/images/Set 6_rs/023a.jpg","null","","","","","","learn","SR",""
"","html-keyboard-response","192","205635","0.0-192.0","""event"",""trial"",""time""
""fullscreenenter"",""0"",""6323""
","
","
","""event"",""trial"",""time""
""fullscreenenter"",""0"",""6323""
","
","null","<p></p>","null","","","","","","","",""
"","image","193","206221","0.0-193.0","""event"",""trial"",""time""
""fullscreenenter"",""0"",""6323""
","
","
","""event"",""trial"",""time""
""fullscreenenter"",""0"",""6323""
","
","584.2000000178814","run_exp/static/images/Set 6_rs/055a.jpg","86","","","","","","learn","SL",""
"","show_choice","194","207649","0.0-194.0","""event"",""trial"",""time""
""fullscreenenter"",""0"",""6323""
","
","
","""event"",""trial"",""time""
""fullscreenenter"",""0"",""6323""
","
","null","run_exp/static/images/Set 6_rs/055a.jpg","null","","","","","","learn","SL",""
"","html-keyboard-response","195","208161","0.0-195.0","""event"",""trial"",""time""
""fullscreenenter"",""0"",""6323""
","
","
","""event"",""trial"",""time""
""fullscreenenter"",""0"",""6323""
","
","null","<p></p>","null","","","","","","","",""
"","test_intro","196","245493","0.0-196.0","""event"",""trial"",""time""
""fullscreenenter"",""0"",""6323""
","
","
","""event"",""trial"",""time""
""fullscreenenter"",""0"",""6323""
","
","null","run_exp/static/audio/clip_2_memory.m4a","null","","","","","<div class='center'><p>Now, lets see how much you remember about the items you just saw.  For each item, you need to indicate if it was <b>old</b> by pressing the <b>v</b> key, <b>similar</b> by pressing the <b>b</b> key, or <b>new</b> by pressing the <b>n</b> key.</p><p>Old refers to an item that you saw before in the indoor/outdoor game that you just played, new refers to an item you have <b>not</b> seen before within the indoor/outdoor game, and similar refers to an item that is similar to an item youve seen before but is not exactly the same. </p><p>Before we begin, lets go over some brief demonstrations to make sure you understand.</p></div>","","",""
"","html-keyboard-response","197","246484","0.0-197.0","""event"",""trial"",""time""
""fullscreenenter"",""0"",""6323""
","
","
","""event"",""trial"",""time""
""fullscreenenter"",""0"",""6323""
","
","989.4000000059605","<div class='center'><p>Now, lets see how much you remember about the items you just saw.  For each item, you need to indicate if it was <b>old</b> by pressing the <b>v</b> key, <b>similar</b> by pressing the <b>b</b> key, or <b>new</b> by pressing the <b>n</b> key.</p><p>Old refers to an item that you saw before in the indoor/outdoor game that you just played, new refers to an item you have <b>not</b> seen before within the indoor/outdoor game, and similar refers to an item that is similar to an item youve seen before but is not exactly the same. </p><p>Before we begin, lets go over some brief demonstrations to make sure you understand.</p><div><p><b>[Press the space bar to continue]</b></p></div>","32","","","","","","","",""
"","items","198","253992","0.0-198.0","""event"",""trial"",""time""
""fullscreenenter"",""0"",""6323""
","
","
","""event"",""trial"",""time""
""fullscreenenter"",""0"",""6323""
","
","null","run_exp/static/audio/clip_3_items.m4a","null","","","","","","","",""
"","mop","199","258512","0.0-199.0","""event"",""trial"",""time""
""fullscreenenter"",""0"",""6323""
","
","
","""event"",""trial"",""time""
""fullscreenenter"",""0"",""6323""
","
","null","run_exp/static/audio/clip_4_mop.m4a","null","","","","","","","",""
"","baseball","200","262032","0.0-200.0","""event"",""trial"",""time""
""fullscreenenter"",""0"",""6323""
","
","
","""event"",""trial"",""time""
""fullscreenenter"",""0"",""6323""
","
","null","run_exp/static/audio/clip_5_baseball.m4a","null","","","","","","","",""
"","trumpet","201","265542","0.0-201.0","""event"",""trial"",""time""
""fullscreenenter"",""0"",""6323""
","
","
","""event"",""trial"",""time""
""fullscreenenter"",""0"",""6323""
","
","null","run_exp/static/audio/clip_6_trumpet.m4a","null","","","","","","","",""
"","gummies","202","269062","0.0-202.0","""event"",""trial"",""time""
""fullscreenenter"",""0"",""6323""
","
","
","""event"",""trial"",""time""
""fullscreenenter"",""0"",""6323""
","
","null","run_exp/static/audio/clip_7_gummies.m4a","null","","","","","","","",""
"","osn","203","273582","0.0-203.0","""event"",""trial"",""time""
""fullscreenenter"",""0"",""6323""
","
","
","""event"",""trial"",""time""
""fullscreenenter"",""0"",""6323""
","
","null","run_exp/static/audio/clip_8_osn.m4a","null","","","","","","","",""
"","old_1","204","280102","0.0-204.0","""event"",""trial"",""time""
""fullscreenenter"",""0"",""6323""
","
","
","""event"",""trial"",""time""
""fullscreenenter"",""0"",""6323""
","
","null","run_exp/static/audio/clip_9_old_trumpet.m4a","null","","","","","","","",""
"","new_1","205","287622","0.0-205.0","""event"",""trial"",""time""
""fullscreenenter"",""0"",""6323""
","
","
","""event"",""trial"",""time""
""fullscreenenter"",""0"",""6323""
","
","null","run_exp/static/audio/clip_10_new_balloon.m4a","null","","","","","","","",""
"","similar_1a","206","292142","0.0-206.0","""event"",""trial"",""time""
""fullscreenenter"",""0"",""6323""
","
","
","""event"",""trial"",""time""
""fullscreenenter"",""0"",""6323""
","
","null","run_exp/static/audio/clip_11a_similar_mop.m4a","null","","","","","","","",""
"","similar_1b","207","298652","0.0-207.0","""event"",""trial"",""time""
""fullscreenenter"",""0"",""6323""
","
","
","""event"",""trial"",""time""
""fullscreenenter"",""0"",""6323""
","
","null","run_exp/static/audio/clip_11b_similar_mop.m4a","null","","","","","","","",""
"","new_2","208","302172","0.0-208.0","""event"",""trial"",""time""
""fullscreenenter"",""0"",""6323""
","
","
","""event"",""trial"",""time""
""fullscreenenter"",""0"",""6323""
","
","null","run_exp/static/audio/clip_12_new_stoplight.m4a","null","","","","","","","",""
"","old_2","209","305683","0.0-209.0","""event"",""trial"",""time""
""fullscreenenter"",""0"",""6323""
","
","
","""event"",""trial"",""time""
""fullscreenenter"",""0"",""6323""
","
","null","run_exp/static/audio/clip_13_old_baseball.m4a","null","","","","","","","",""
"","similar_2a","210","309204","0.0-210.0","""event"",""trial"",""time""
""fullscreenenter"",""0"",""6323""
","
","
","""event"",""trial"",""time""
""fullscreenenter"",""0"",""6323""
","
","null","run_exp/static/audio/clip_14a_similar_gummies.m4a","null","","","","","","","",""
"","similar_2b","211","316724","0.0-211.0","""event"",""trial"",""time""
""fullscreenenter"",""0"",""6323""
","
","
","""event"",""trial"",""time""
""fullscreenenter"",""0"",""6323""
","
","null","run_exp/static/audio/clip_14b_similar_gummies.m4a","null","","","","","","","",""
"","practice","212","358836","0.0-212.0","""event"",""trial"",""time""
""fullscreenenter"",""0"",""6323""
","
","
","""event"",""trial"",""time""
""fullscreenenter"",""0"",""6323""
","
","null","run_exp/static/audio/clip_15_practice.m4a","null","","","","","<div class='center'><p>Lets practice a little to make sure you understand the difference between new, similar, and old. Lets say you saw these three items in the indoor/outdoor game.</p><p> Try your best to remember these images because youll soon be tested on them in a practice game. In the practice game, youll be shown images and youll have to say if they are old (one of the three images belows), similar (similar to one of the images below but not exactly the same), or new (are not one of the images below nor similar to them).</p><p>Once you press the space bar youll be shown these images again but one at time. Then youll begin the practice game.</p><p><img src='run_exp/static/images/tutorial/test/three_indoor_outdoor.png' height='300'></p></div>","","",""
"","html-keyboard-response","213","361019","0.0-213.0","""event"",""trial"",""time""
""fullscreenenter"",""0"",""6323""
","
","
","""event"",""trial"",""time""
""fullscreenenter"",""0"",""6323""
","
","2181.2000000178814","<div class='center'><p>Lets practice a little to make sure you understand the difference between new, similar, and old. Lets say you saw these three items in the indoor/outdoor game.</p><p> Try your best to remember these images because youll soon be tested on them in a practice game. In the practice game, youll be shown images and youll have to say if they are old (one of the three images belows), similar (similar to one of the images below but not exactly the same), or new (are not one of the images below nor similar to them).</p><p>Once you press the space bar youll be shown these images again but one at time. Then youll begin the practice game.</p><p><img src='run_exp/static/images/tutorial/test/three_indoor_outdoor.png' height='300'></p><div><p><b>[Press the space bar to continue]</b></p></div>","32","","","","","","","",""
"","planet","214","363034","0.0-214.0","""event"",""trial"",""time""
""fullscreenenter"",""0"",""6323""
","
","
","""event"",""trial"",""time""
""fullscreenenter"",""0"",""6323""
","
","null","run_exp/static/images/tutorial/test/008a.jpg","null","","","","","","","",""
"","boot","215","365044","0.0-215.0","""event"",""trial"",""time""
""fullscreenenter"",""0"",""6323""
","
","
","""event"",""trial"",""time""
""fullscreenenter"",""0"",""6323""
","
","null","run_exp/static/images/tutorial/test/011a.jpg","null","","","","","","","",""
"","lemon","216","367064","0.0-216.0","""event"",""trial"",""time""
""fullscreenenter"",""0"",""6323""
","
","
","""event"",""trial"",""time""
""fullscreenenter"",""0"",""6323""
","
","null","run_exp/static/images/tutorial/test/018a.jpg","null","","","","","","","",""
"","practice_q1","217","369441","0.0-217.0","""event"",""trial"",""time""
""fullscreenenter"",""0"",""6323""
","
","
","""event"",""trial"",""time""
""fullscreenenter"",""0"",""6323""
","
","2374","run_exp/static/audio/clip_16_practice_question.m4a","78","","","","","","","",""
"","correct","218","371356","0.0-218.0-0.0","""event"",""trial"",""time""
""fullscreenenter"",""0"",""6323""
","
","
","""event"",""trial"",""time""
""fullscreenenter"",""0"",""6323""
","
","null","run_exp/static/audio/clip_17_correct.m4a","null","","","","","<div class='center'><p>That's correct!</p></div>","","",""
"","html-keyboard-response","219","372316","0.0-218.0-1.0","""event"",""trial"",""time""
""fullscreenenter"",""0"",""6323""
","
","
","""event"",""trial"",""time""
""fullscreenenter"",""0"",""6323""
","
","958.5","<div class='center'><p>That's correct!</p><div><p><b>[Press the space bar to continue]</b></p></div>","32","","","","","","","",""
"","practice_q2","220","373277","0.0-218.0-2.0","""event"",""trial"",""time""
""fullscreenenter"",""0"",""6323""
","
","
","""event"",""trial"",""time""
""fullscreenenter"",""0"",""6323""
","
","957.4000000059605","run_exp/static/audio/clip_16_practice_question.m4a","86","","","","","","","",""
"","correct","221","375176","0.0-219.0-0.0","""event"",""trial"",""time""
""fullscreenenter"",""0"",""6323""
","
","
","""event"",""trial"",""time""
""fullscreenenter"",""0"",""6323""
","
","null","run_exp/static/audio/clip_17_correct.m4a","null","","","","","<div class='center'><p>That's correct!</p></div>","","",""
"","html-keyboard-response","222","375845","0.0-219.0-1.0","""event"",""trial"",""time""
""fullscreenenter"",""0"",""6323""
","
","
","""event"",""trial"",""time""
""fullscreenenter"",""0"",""6323""
","
","668.5999999940395","<div class='center'><p>That's correct!</p><div><p><b>[Press the space bar to continue]</b></p></div>","32","","","","","","","",""
"","practice_q3","223","377097","0.0-219.0-2.0","""event"",""trial"",""time""
""fullscreenenter"",""0"",""6323""
","
","
","""event"",""trial"",""time""
""fullscreenenter"",""0"",""6323""
","
","1249.199999988079","run_exp/static/audio/clip_16_practice_question.m4a","66","","","","","","","",""
"","correct","224","379236","0.0-220.0-0.0","""event"",""trial"",""time""
""fullscreenenter"",""0"",""6323""
","
","
","""event"",""trial"",""time""
""fullscreenenter"",""0"",""6323""
","
","null","run_exp/static/audio/clip_17_correct.m4a","null","","","","","<div class='center'><p>That's correct!</p></div>","","",""
"","html-keyboard-response","225","380087","0.0-220.0-1.0","""event"",""trial"",""time""
""fullscreenenter"",""0"",""6323""
","
","
","""event"",""trial"",""time""
""fullscreenenter"",""0"",""6323""
","
","848.9000000059605","<div class='center'><p>That's correct!</p><div><p><b>[Press the space bar to continue]</b></p></div>","32","","","","","","","",""
"","begin_text","226","398577","0.0-221.0-0.0","""event"",""trial"",""time""
""fullscreenenter"",""0"",""6323""
","
","
","""event"",""trial"",""time""
""fullscreenenter"",""0"",""6323""
","
","null","run_exp/static/audio/clip_22_begin_test.m4a","null","","","","","<div class='center'><p>On to the real game where well test your memory of items from the indoor/outdoor game. For each item, you need to indicate if the item is <b>old</b> by pressing the <b>v</b> key, <b>similar</b> by pressing the <b>b</b> key, or <b>new</b> by pressing the <b>n</b> key. </p></div>","","",""
"","html-keyboard-response","227","399612","0.0-221.0-1.0","""event"",""trial"",""time""
""fullscreenenter"",""0"",""6323""
","
","
","""event"",""trial"",""time""
""fullscreenenter"",""0"",""6323""
","
","1033.5","<div class='center'><p>On to the real game where well test your memory of items from the indoor/outdoor game. For each item, you need to indicate if the item is <b>old</b> by pressing the <b>v</b> key, <b>similar</b> by pressing the <b>b</b> key, or <b>new</b> by pressing the <b>n</b> key. </p><div><p><b>[Press the space bar to continue]</b></p></div>","32","","","","","","","",""
"","image","228","401565","0.0-222.0-0.0","""event"",""trial"",""time""
""fullscreenenter"",""0"",""6323""
","
","
","""event"",""trial"",""time""
""fullscreenenter"",""0"",""6323""
","
","1950.8999999761581","run_exp/static/images/Set 6_rs/019b.jpg","66","","","","","","test","TL","2"
"","show_choice","229","402085","0.0-222.0-1.0","""event"",""trial"",""time""
""fullscreenenter"",""0"",""6323""
","
","
","""event"",""trial"",""time""
""fullscreenenter"",""0"",""6323""
","
","null","run_exp/static/images/Set 6_rs/019b.jpg","null","","","","","","test","TL",""
"","html-keyboard-response","230","402605","0.0-222.0-2.0","""event"",""trial"",""time""
""fullscreenenter"",""0"",""6323""
","
","
","""event"",""trial"",""time""
""fullscreenenter"",""0"",""6323""
","
","null","<p></p>","null","","","","","","","",""
"","image","231","403838","0.0-223.0-0.0","""event"",""trial"",""time""
""fullscreenenter"",""0"",""6323""
","
","
","""event"",""trial"",""time""
""fullscreenenter"",""0"",""6323""
","
","1231.0999999940395","run_exp/static/images/Set 6_rs/074b.jpg","66","","","","","","test","TL","4"
"","show_choice","232","404345","0.0-223.0-1.0","""event"",""trial"",""time""
""fullscreenenter"",""0"",""6323""
","
","
","""event"",""trial"",""time""
""fullscreenenter"",""0"",""6323""
","
","null","run_exp/static/images/Set 6_rs/074b.jpg","null","","","","","","test","TL",""
"","html-keyboard-response","233","404865","0.0-223.0-2.0","""event"",""trial"",""time""
""fullscreenenter"",""0"",""6323""
","
","
","""event"",""trial"",""time""
""fullscreenenter"",""0"",""6323""
","
","null","<p></p>","null","","","","","","","",""
"","image","234","406337","0.0-224.0-0.0","""event"",""trial"",""time""
""fullscreenenter"",""0"",""6323""
","
","
","""event"",""trial"",""time""
""fullscreenenter"",""0"",""6323""
","
","1470.300000011921","run_exp/static/images/Set 6_rs/047a.jpg","78","","","","","","test","TF","3"
"","show_choice","235","406855","0.0-224.0-1.0","""event"",""trial"",""time""
""fullscreenenter"",""0"",""6323""
","
","
","""event"",""trial"",""time""
""fullscreenenter"",""0"",""6323""
","
","null","run_exp/static/images/Set 6_rs/047a.jpg","null","","","","","","test","TF",""
"","html-keyboard-response","236","407365","0.0-224.0-2.0","""event"",""trial"",""time""
""fullscreenenter"",""0"",""6323""
","
","
","""event"",""trial"",""time""
""fullscreenenter"",""0"",""6323""
","
","null","<p></p>","null","","","","","","","",""
"","image","237","408380","0.0-225.0-0.0","""event"",""trial"",""time""
""fullscreenenter"",""0"",""6323""
","
","
","""event"",""trial"",""time""
""fullscreenenter"",""0"",""6323""
","
","1013.8999999761581","run_exp/static/images/Set 6_rs/065a.jpg","78","","","","","","test","TF","3"
"","show_choice","238","408890","0.0-225.0-1.0","""event"",""trial"",""time""
""fullscreenenter"",""0"",""6323""
","
","
","""event"",""trial"",""time""
""fullscreenenter"",""0"",""6323""
","
","null","run_exp/static/images/Set 6_rs/065a.jpg","null","","","","","","test","TF",""
"","html-keyboard-response","239","409397","0.0-225.0-2.0","""event"",""trial"",""time""
""fullscreenenter"",""0"",""6323""
","
","
","""event"",""trial"",""time""
""fullscreenenter"",""0"",""6323""
","
","null","<p></p>","null","","","","","","","",""
"","image","240","410529","0.0-226.0-0.0","""event"",""trial"",""time""
""fullscreenenter"",""0"",""6323""
","
","
","""event"",""trial"",""time""
""fullscreenenter"",""0"",""6323""
","
","1129.8999999761581","run_exp/static/images/Set 6_rs/001a.jpg","78","","","","","","test","TF","1"
"","show_choice","241","411036","0.0-226.0-1.0","""event"",""trial"",""time""
""fullscreenenter"",""0"",""6323""
","
","
","""event"",""trial"",""time""
""fullscreenenter"",""0"",""6323""
","
","null","run_exp/static/images/Set 6_rs/001a.jpg","null","","","","","","test","TF",""
"","html-keyboard-response","242","411538","0.0-226.0-2.0","""event"",""trial"",""time""
""fullscreenenter"",""0"",""6323""
","
","
","""event"",""trial"",""time""
""fullscreenenter"",""0"",""6323""
","
","null","<p></p>","null","","","","","","","",""
"","image","243","412802","0.0-227.0-0.0","""event"",""trial"",""time""
""fullscreenenter"",""0"",""6323""
","
","
","""event"",""trial"",""time""
""fullscreenenter"",""0"",""6323""
","
","1261.9000000059605","run_exp/static/images/Set 6_rs/076a.jpg","86","","","","","","test","TR","4"
"","show_choice","244","413318","0.0-227.0-1.0","""event"",""trial"",""time""
""fullscreenenter"",""0"",""6323""
","
","
","""event"",""trial"",""time""
""fullscreenenter"",""0"",""6323""
","
","null","run_exp/static/images/Set 6_rs/076a.jpg","null","","","","","","test","TR",""
"","html-keyboard-response","245","413821","0.0-227.0-2.0","""event"",""trial"",""time""
""fullscreenenter"",""0"",""6323""
","
","
","""event"",""trial"",""time""
""fullscreenenter"",""0"",""6323""
","
","null","<p></p>","null","","","","","","","",""
"","image","246","414770","0.0-228.0-0.0","""event"",""trial"",""time""
""fullscreenenter"",""0"",""6323""
","
","
","""event"",""trial"",""time""
""fullscreenenter"",""0"",""6323""
","
","948.2000000178814","run_exp/static/images/Set 6_rs/188a.jpg","78","","","","","","test","TF","3"
"","show_choice","247","415278","0.0-228.0-1.0","""event"",""trial"",""time""
""fullscreenenter"",""0"",""6323""
","
","
","""event"",""trial"",""time""
""fullscreenenter"",""0"",""6323""
","
","null","run_exp/static/images/Set 6_rs/188a.jpg","null","","","","","","test","TF",""
"","html-keyboard-response","248","415780","0.0-228.0-2.0","""event"",""trial"",""time""
""fullscreenenter"",""0"",""6323""
","
","
","""event"",""trial"",""time""
""fullscreenenter"",""0"",""6323""
","
","null","<p></p>","null","","","","","","","",""
"","image","249","417078","0.0-229.0-0.0","""event"",""trial"",""time""
""fullscreenenter"",""0"",""6323""
","
","
","""event"",""trial"",""time""
""fullscreenenter"",""0"",""6323""
","
","1296.300000011921","run_exp/static/images/Set 6_rs/022a.jpg","78","","","","","","test","TF","4"
"","show_choice","250","417583","0.0-229.0-1.0","""event"",""trial"",""time""
""fullscreenenter"",""0"",""6323""
","
","
","""event"",""trial"",""time""
""fullscreenenter"",""0"",""6323""
","
","null","run_exp/static/images/Set 6_rs/022a.jpg","null","","","","","","test","TF",""
"","html-keyboard-response","251","418090","0.0-229.0-2.0","""event"",""trial"",""time""
""fullscreenenter"",""0"",""6323""
","
","
","""event"",""trial"",""time""
""fullscreenenter"",""0"",""6323""
","
","null","<p></p>","null","","","","","","","",""
"","image","252","419277","0.0-230.0-0.0","""event"",""trial"",""time""
""fullscreenenter"",""0"",""6323""
","
","
","""event"",""trial"",""time""
""fullscreenenter"",""0"",""6323""
","
","1185.2000000178814","run_exp/static/images/Set 6_rs/073b.jpg","66","","","","","","test","TL","3"
"","show_choice","253","419786","0.0-230.0-1.0","""event"",""trial"",""time""
""fullscreenenter"",""0"",""6323""
","
","
","""event"",""trial"",""time""
""fullscreenenter"",""0"",""6323""
","
","null","run_exp/static/images/Set 6_rs/073b.jpg","null","","","","","","test","TL",""
"","html-keyboard-response","254","420289","0.0-230.0-2.0","""event"",""trial"",""time""
""fullscreenenter"",""0"",""6323""
","
","
","""event"",""trial"",""time""
""fullscreenenter"",""0"",""6323""
","
","null","<p></p>","null","","","","","","","",""
"","image","255","421871","0.0-231.0-0.0","""event"",""trial"",""time""
""fullscreenenter"",""0"",""6323""
","
","
","""event"",""trial"",""time""
""fullscreenenter"",""0"",""6323""
","
","1579.9000000059605","run_exp/static/images/Set 6_rs/088a.jpg","86","","","","","","test","TR","2"
"","show_choice","256","422374","0.0-231.0-1.0","""event"",""trial"",""time""
""fullscreenenter"",""0"",""6323""
","
","
","""event"",""trial"",""time""
""fullscreenenter"",""0"",""6323""
","
","null","run_exp/static/images/Set 6_rs/088a.jpg","null","","","","","","test","TR",""
"","html-keyboard-response","257","422876","0.0-231.0-2.0","""event"",""trial"",""time""
""fullscreenenter"",""0"",""6323""
","
","
","""event"",""trial"",""time""
""fullscreenenter"",""0"",""6323""
","
","null","<p></p>","null","","","","","","","",""
"","image","258","424250","0.0-232.0-0.0","""event"",""trial"",""time""
""fullscreenenter"",""0"",""6323""
","
","
","""event"",""trial"",""time""
""fullscreenenter"",""0"",""6323""
","
","1372.7000000178814","run_exp/static/images/Set 6_rs/095b.jpg","66","","","","","","test","TL","5"
"","show_choice","259","424753","0.0-232.0-1.0","""event"",""trial"",""time""
""fullscreenenter"",""0"",""6323""
","
","
","""event"",""trial"",""time""
""fullscreenenter"",""0"",""6323""
","
","null","run_exp/static/images/Set 6_rs/095b.jpg","null","","","","","","test","TL",""
"","html-keyboard-response","260","425265","0.0-232.0-2.0","""event"",""trial"",""time""
""fullscreenenter"",""0"",""6323""
","
","
","""event"",""trial"",""time""
""fullscreenenter"",""0"",""6323""
","
","null","<p></p>","null","","","","","","","",""
"","image","261","426833","0.0-233.0-0.0","""event"",""trial"",""time""
""fullscreenenter"",""0"",""6323""
","
","
","""event"",""trial"",""time""
""fullscreenenter"",""0"",""6323""
","
","1565.800000011921","run_exp/static/images/Set 6_rs/144b.jpg","66","","","","","","test","TL","4"
"","show_choice","262","427343","0.0-233.0-1.0","""event"",""trial"",""time""
""fullscreenenter"",""0"",""6323""
","
","
","""event"",""trial"",""time""
""fullscreenenter"",""0"",""6323""
","
","null","run_exp/static/images/Set 6_rs/144b.jpg","null","","","","","","test","TL",""
"","html-keyboard-response","263","427851","0.0-233.0-2.0","""event"",""trial"",""time""
""fullscreenenter"",""0"",""6323""
","
","
","""event"",""trial"",""time""
""fullscreenenter"",""0"",""6323""
","
","null","<p></p>","null","","","","","","","",""
"","image","264","428847","0.0-234.0-0.0","""event"",""trial"",""time""
""fullscreenenter"",""0"",""6323""
","
","
","""event"",""trial"",""time""
""fullscreenenter"",""0"",""6323""
","
","994.5","run_exp/static/images/Set 6_rs/006b.jpg","66","","","","","","test","TL","2"
"","show_choice","265","429363","0.0-234.0-1.0","""event"",""trial"",""time""
""fullscreenenter"",""0"",""6323""
","
","
","""event"",""trial"",""time""
""fullscreenenter"",""0"",""6323""
","
","null","run_exp/static/images/Set 6_rs/006b.jpg","null","","","","","","test","TL",""
"","html-keyboard-response","266","429876","0.0-234.0-2.0","""event"",""trial"",""time""
""fullscreenenter"",""0"",""6323""
","
","
","""event"",""trial"",""time""
""fullscreenenter"",""0"",""6323""
","
","null","<p></p>","null","","","","","","","",""
"","image","267","431179","0.0-235.0-0.0","""event"",""trial"",""time""
""fullscreenenter"",""0"",""6323""
","
","
","""event"",""trial"",""time""
""fullscreenenter"",""0"",""6323""
","
","1301.800000011921","run_exp/static/images/Set 6_rs/100a.jpg","78","","","","","","test","TF","2"
"","show_choice","268","431685","0.0-235.0-1.0","""event"",""trial"",""time""
""fullscreenenter"",""0"",""6323""
","
","
","""event"",""trial"",""time""
""fullscreenenter"",""0"",""6323""
","
","null","run_exp/static/images/Set 6_rs/100a.jpg","null","","","","","","test","TF",""
"","html-keyboard-response","269","432189","0.0-235.0-2.0","""event"",""trial"",""time""
""fullscreenenter"",""0"",""6323""
","
","
","""event"",""trial"",""time""
""fullscreenenter"",""0"",""6323""
","
","null","<p></p>","null","","","","","","","",""
"","image","270","434350","0.0-236.0-0.0","""event"",""trial"",""time""
""fullscreenenter"",""0"",""6323""
","
","
","""event"",""trial"",""time""
""fullscreenenter"",""0"",""6323""
","
","2159.5","run_exp/static/images/Set 6_rs/014b.jpg","66","","","","","","test","TL","5"
"","show_choice","271","434853","0.0-236.0-1.0","""event"",""trial"",""time""
""fullscreenenter"",""0"",""6323""
","
","
","""event"",""trial"",""time""
""fullscreenenter"",""0"",""6323""
","
","null","run_exp/static/images/Set 6_rs/014b.jpg","null","","","","","","test","TL",""
"","html-keyboard-response","272","435365","0.0-236.0-2.0","""event"",""trial"",""time""
""fullscreenenter"",""0"",""6323""
","
","
","""event"",""trial"",""time""
""fullscreenenter"",""0"",""6323""
","
","null","<p></p>","null","","","","","","","",""
"","image","273","436623","0.0-237.0-0.0","""event"",""trial"",""time""
""fullscreenenter"",""0"",""6323""
","
","
","""event"",""trial"",""time""
""fullscreenenter"",""0"",""6323""
","
","1256.5999999940395","run_exp/static/images/Set 6_rs/136a.jpg","86","","","","","","test","TF","4"
"","show_choice","274","437132","0.0-237.0-1.0","""event"",""trial"",""time""
""fullscreenenter"",""0"",""6323""
","
","
","""event"",""trial"",""time""
""fullscreenenter"",""0"",""6323""
","
","null","run_exp/static/images/Set 6_rs/136a.jpg","null","","","","","","test","TF",""
"","html-keyboard-response","275","437640","0.0-237.0-2.0","""event"",""trial"",""time""
""fullscreenenter"",""0"",""6323""
","
","
","""event"",""trial"",""time""
""fullscreenenter"",""0"",""6323""
","
","null","<p></p>","null","","","","","","","",""
"","image","276","438626","0.0-238.0-0.0","""event"",""trial"",""time""
""fullscreenenter"",""0"",""6323""
","
","
","""event"",""trial"",""time""
""fullscreenenter"",""0"",""6323""
","
","984.5999999940395","run_exp/static/images/Set 6_rs/187a.jpg","86","","","","","","test","TR","3"
"","show_choice","277","439137","0.0-238.0-1.0","""event"",""trial"",""time""
""fullscreenenter"",""0"",""6323""
","
","
","""event"",""trial"",""time""
""fullscreenenter"",""0"",""6323""
","
","null","run_exp/static/images/Set 6_rs/187a.jpg","null","","","","","","test","TR",""
"","html-keyboard-response","278","439640","0.0-238.0-2.0","""event"",""trial"",""time""
""fullscreenenter"",""0"",""6323""
","
","
","""event"",""trial"",""time""
""fullscreenenter"",""0"",""6323""
","
","null","<p></p>","null","","","","","","","",""
"","image","279","440374","0.0-239.0-0.0","""event"",""trial"",""time""
""fullscreenenter"",""0"",""6323""
","
","
","""event"",""trial"",""time""
""fullscreenenter"",""0"",""6323""
","
","732.2999999821186","run_exp/static/images/Set 6_rs/010a.jpg","86","","","","","","test","TR","5"
"","show_choice","280","440881","0.0-239.0-1.0","""event"",""trial"",""time""
""fullscreenenter"",""0"",""6323""
","
","
","""event"",""trial"",""time""
""fullscreenenter"",""0"",""6323""
","
","null","run_exp/static/images/Set 6_rs/010a.jpg","null","","","","","","test","TR",""
"","html-keyboard-response","281","441389","0.0-239.0-2.0","""event"",""trial"",""time""
""fullscreenenter"",""0"",""6323""
","
","
","""event"",""trial"",""time""
""fullscreenenter"",""0"",""6323""
","
","null","<p></p>","null","","","","","","","",""
"","image","282","442527","0.0-240.0-0.0","""event"",""trial"",""time""
""fullscreenenter"",""0"",""6323""
","
","
","""event"",""trial"",""time""
""fullscreenenter"",""0"",""6323""
","
","1136.199999988079","run_exp/static/images/Set 6_rs/016b.jpg","66","","","","","","test","TL","1"
"","show_choice","283","443033","0.0-240.0-1.0","""event"",""trial"",""time""
""fullscreenenter"",""0"",""6323""
","
","
","""event"",""trial"",""time""
""fullscreenenter"",""0"",""6323""
","
","null","run_exp/static/images/Set 6_rs/016b.jpg","null","","","","","","test","TL",""
"","html-keyboard-response","284","443537","0.0-240.0-2.0","""event"",""trial"",""time""
""fullscreenenter"",""0"",""6323""
","
","
","""event"",""trial"",""time""
""fullscreenenter"",""0"",""6323""
","
","null","<p></p>","null","","","","","","","",""
"","image","285","445117","0.0-241.0-0.0","""event"",""trial"",""time""
""fullscreenenter"",""0"",""6323""
","
","
","""event"",""trial"",""time""
""fullscreenenter"",""0"",""6323""
","
","1577.800000011921","run_exp/static/images/Set 6_rs/021a.jpg","66","","","","","","test","TF","2"
"","show_choice","286","445629","0.0-241.0-1.0","""event"",""trial"",""time""
""fullscreenenter"",""0"",""6323""
","
","
","""event"",""trial"",""time""
""fullscreenenter"",""0"",""6323""
","
","null","run_exp/static/images/Set 6_rs/021a.jpg","null","","","","","","test","TF",""
"","html-keyboard-response","287","446135","0.0-241.0-2.0","""event"",""trial"",""time""
""fullscreenenter"",""0"",""6323""
","
","
","""event"",""trial"",""time""
""fullscreenenter"",""0"",""6323""
","
","null","<p></p>","null","","","","","","","",""
"","image","288","447599","0.0-242.0-0.0","""event"",""trial"",""time""
""fullscreenenter"",""0"",""6323""
","
","
","""event"",""trial"",""time""
""fullscreenenter"",""0"",""6323""
","
","1462.800000011921","run_exp/static/images/Set 6_rs/005a.jpg","78","","","","","","test","TF","5"
"","show_choice","289","448112","0.0-242.0-1.0","""event"",""trial"",""time""
""fullscreenenter"",""0"",""6323""
","
","
","""event"",""trial"",""time""
""fullscreenenter"",""0"",""6323""
","
","null","run_exp/static/images/Set 6_rs/005a.jpg","null","","","","","","test","TF",""
"","html-keyboard-response","290","448615","0.0-242.0-2.0","""event"",""trial"",""time""
""fullscreenenter"",""0"",""6323""
","
","
","""event"",""trial"",""time""
""fullscreenenter"",""0"",""6323""
","
","null","<p></p>","null","","","","","","","",""
"","image","291","449637","0.0-243.0-0.0","""event"",""trial"",""time""
""fullscreenenter"",""0"",""6323""
","
","
","""event"",""trial"",""time""
""fullscreenenter"",""0"",""6323""
","
","1019.7000000178814","run_exp/static/images/Set 6_rs/090a.jpg","78","","","","","","test","TF","5"
"","show_choice","292","450145","0.0-243.0-1.0","""event"",""trial"",""time""
""fullscreenenter"",""0"",""6323""
","
","
","""event"",""trial"",""time""
""fullscreenenter"",""0"",""6323""
","
","null","run_exp/static/images/Set 6_rs/090a.jpg","null","","","","","","test","TF",""
"","html-keyboard-response","293","450647","0.0-243.0-2.0","""event"",""trial"",""time""
""fullscreenenter"",""0"",""6323""
","
","
","""event"",""trial"",""time""
""fullscreenenter"",""0"",""6323""
","
","null","<p></p>","null","","","","","","","",""
"","image","294","451837","0.0-244.0-0.0","""event"",""trial"",""time""
""fullscreenenter"",""0"",""6323""
","
","
","""event"",""trial"",""time""
""fullscreenenter"",""0"",""6323""
","
","1187.7999999821186","run_exp/static/images/Set 6_rs/172a.jpg","86","","","","","","test","TR","1"
"","show_choice","295","452347","0.0-244.0-1.0","""event"",""trial"",""time""
""fullscreenenter"",""0"",""6323""
","
","
","""event"",""trial"",""time""
""fullscreenenter"",""0"",""6323""
","
","null","run_exp/static/images/Set 6_rs/172a.jpg","null","","","","","","test","TR",""
"","html-keyboard-response","296","452849","0.0-244.0-2.0","""event"",""trial"",""time""
""fullscreenenter"",""0"",""6323""
","
","
","""event"",""trial"",""time""
""fullscreenenter"",""0"",""6323""
","
","null","<p></p>","null","","","","","","","",""
"","image","297","453844","0.0-245.0-0.0","""event"",""trial"",""time""
""fullscreenenter"",""0"",""6323""
","
","
","""event"",""trial"",""time""
""fullscreenenter"",""0"",""6323""
","
","992.7999999821186","run_exp/static/images/Set 6_rs/117b.jpg","86","","","","","","test","TL","5"
"","show_choice","298","454361","0.0-245.0-1.0","""event"",""trial"",""time""
""fullscreenenter"",""0"",""6323""
","
","
","""event"",""trial"",""time""
""fullscreenenter"",""0"",""6323""
","
","null","run_exp/static/images/Set 6_rs/117b.jpg","null","","","","","","test","TL",""
"","html-keyboard-response","299","454865","0.0-245.0-2.0","""event"",""trial"",""time""
""fullscreenenter"",""0"",""6323""
","
","
","""event"",""trial"",""time""
""fullscreenenter"",""0"",""6323""
","
","null","<p></p>","null","","","","","","","",""
"","image","300","455571","0.0-246.0-0.0","""event"",""trial"",""time""
""fullscreenenter"",""0"",""6323""
","
","
","""event"",""trial"",""time""
""fullscreenenter"",""0"",""6323""
","
","704.5","run_exp/static/images/Set 6_rs/063a.jpg","86","","","","","","test","TR","2"
"","show_choice","301","456083","0.0-246.0-1.0","""event"",""trial"",""time""
""fullscreenenter"",""0"",""6323""
","
","
","""event"",""trial"",""time""
""fullscreenenter"",""0"",""6323""
","
","null","run_exp/static/images/Set 6_rs/063a.jpg","null","","","","","","test","TR",""
"","html-keyboard-response","302","456593","0.0-246.0-2.0","""event"",""trial"",""time""
""fullscreenenter"",""0"",""6323""
","
","
","""event"",""trial"",""time""
""fullscreenenter"",""0"",""6323""
","
","null","<p></p>","null","","","","","","","",""
"","image","303","457624","0.0-247.0-0.0","""event"",""trial"",""time""
""fullscreenenter"",""0"",""6323""
","
","
","""event"",""trial"",""time""
""fullscreenenter"",""0"",""6323""
","
","1029.5","run_exp/static/images/Set 6_rs/086a.jpg","78","","","","","","test","TF","1"
"","show_choice","304","458134","0.0-247.0-1.0","""event"",""trial"",""time""
""fullscreenenter"",""0"",""6323""
","
","
","""event"",""trial"",""time""
""fullscreenenter"",""0"",""6323""
","
","null","run_exp/static/images/Set 6_rs/086a.jpg","null","","","","","","test","TF",""
"","html-keyboard-response","305","458644","0.0-247.0-2.0","""event"",""trial"",""time""
""fullscreenenter"",""0"",""6323""
","
","
","""event"",""trial"",""time""
""fullscreenenter"",""0"",""6323""
","
","null","<p></p>","null","","","","","","","",""
"","image","306","459738","0.0-248.0-0.0","""event"",""trial"",""time""
""fullscreenenter"",""0"",""6323""
","
","
","""event"",""trial"",""time""
""fullscreenenter"",""0"",""6323""
","
","1091.6000000238419","run_exp/static/images/Set 6_rs/048a.jpg","78","","","","","","test","TF","4"
"","show_choice","307","460249","0.0-248.0-1.0","""event"",""trial"",""time""
""fullscreenenter"",""0"",""6323""
","
","
","""event"",""trial"",""time""
""fullscreenenter"",""0"",""6323""
","
","null","run_exp/static/images/Set 6_rs/048a.jpg","null","","","","","","test","TF",""
"","html-keyboard-response","308","460759","0.0-248.0-2.0","""event"",""trial"",""time""
""fullscreenenter"",""0"",""6323""
","
","
","""event"",""trial"",""time""
""fullscreenenter"",""0"",""6323""
","
","null","<p></p>","null","","","","","","","",""
"","image","309","461927","0.0-249.0-0.0","""event"",""trial"",""time""
""fullscreenenter"",""0"",""6323""
","
","
","""event"",""trial"",""time""
""fullscreenenter"",""0"",""6323""
","
","1166.699999988079","run_exp/static/images/Set 6_rs/075a.jpg","86","","","","","","test","TR","1"
"","show_choice","310","462429","0.0-249.0-1.0","""event"",""trial"",""time""
""fullscreenenter"",""0"",""6323""
","
","
","""event"",""trial"",""time""
""fullscreenenter"",""0"",""6323""
","
","null","run_exp/static/images/Set 6_rs/075a.jpg","null","","","","","","test","TR",""
"","html-keyboard-response","311","462933","0.0-249.0-2.0","""event"",""trial"",""time""
""fullscreenenter"",""0"",""6323""
","
","
","""event"",""trial"",""time""
""fullscreenenter"",""0"",""6323""
","
","null","<p></p>","null","","","","","","","",""
"","image","312","464685","0.0-250.0-0.0","""event"",""trial"",""time""
""fullscreenenter"",""0"",""6323""
","
","
","""event"",""trial"",""time""
""fullscreenenter"",""0"",""6323""
","
","1750","run_exp/static/images/Set 6_rs/140a.jpg","78","","","","","","test","TF","1"
"","show_choice","313","465192","0.0-250.0-1.0","""event"",""trial"",""time""
""fullscreenenter"",""0"",""6323""
","
","
","""event"",""trial"",""time""
""fullscreenenter"",""0"",""6323""
","
","null","run_exp/static/images/Set 6_rs/140a.jpg","null","","","","","","test","TF",""
"","html-keyboard-response","314","465697","0.0-250.0-2.0","""event"",""trial"",""time""
""fullscreenenter"",""0"",""6323""
","
","
","""event"",""trial"",""time""
""fullscreenenter"",""0"",""6323""
","
","null","<p></p>","null","","","","","","","",""
"","image","315","466563","0.0-251.0-0.0","""event"",""trial"",""time""
""fullscreenenter"",""0"",""6323""
","
","
","""event"",""trial"",""time""
""fullscreenenter"",""0"",""6323""
","
","864.1999999880791","run_exp/static/images/Set 6_rs/070a.jpg","86","","","","","","test","TR","2"
"","show_choice","316","467076","0.0-251.0-1.0","""event"",""trial"",""time""
""fullscreenenter"",""0"",""6323""
","
","
","""event"",""trial"",""time""
""fullscreenenter"",""0"",""6323""
","
","null","run_exp/static/images/Set 6_rs/070a.jpg","null","","","","","","test","TR",""
"","html-keyboard-response","317","467578","0.0-251.0-2.0","""event"",""trial"",""time""
""fullscreenenter"",""0"",""6323""
","
","
","""event"",""trial"",""time""
""fullscreenenter"",""0"",""6323""
","
","null","<p></p>","null","","","","","","","",""
"","image","318","468956","0.0-252.0-0.0","""event"",""trial"",""time""
""fullscreenenter"",""0"",""6323""
","
","
","""event"",""trial"",""time""
""fullscreenenter"",""0"",""6323""
","
","1376.8999999761581","run_exp/static/images/Set 6_rs/097a.jpg","78","","","","","","test","TF","5"
"","show_choice","319","469473","0.0-252.0-1.0","""event"",""trial"",""time""
""fullscreenenter"",""0"",""6323""
","
","
","""event"",""trial"",""time""
""fullscreenenter"",""0"",""6323""
","
","null","run_exp/static/images/Set 6_rs/097a.jpg","null","","","","","","test","TF",""
"","html-keyboard-response","320","469976","0.0-252.0-2.0","""event"",""trial"",""time""
""fullscreenenter"",""0"",""6323""
","
","
","""event"",""trial"",""time""
""fullscreenenter"",""0"",""6323""
","
","null","<p></p>","null","","","","","","","",""
"","image","321","471105","0.0-253.0-0.0","""event"",""trial"",""time""
""fullscreenenter"",""0"",""6323""
","
","
","""event"",""trial"",""time""
""fullscreenenter"",""0"",""6323""
","
","1126.7999999821186","run_exp/static/images/Set 6_rs/121a.jpg","86","","","","","","test","TR","4"
"","show_choice","322","471610","0.0-253.0-1.0","""event"",""trial"",""time""
""fullscreenenter"",""0"",""6323""
","
","
","""event"",""trial"",""time""
""fullscreenenter"",""0"",""6323""
","
","null","run_exp/static/images/Set 6_rs/121a.jpg","null","","","","","","test","TR",""
"","html-keyboard-response","323","472121","0.0-253.0-2.0","""event"",""trial"",""time""
""fullscreenenter"",""0"",""6323""
","
","
","""event"",""trial"",""time""
""fullscreenenter"",""0"",""6323""
","
","null","<p></p>","null","","","","","","","",""
"","image","324","473007","0.0-254.0-0.0","""event"",""trial"",""time""
""fullscreenenter"",""0"",""6323""
","
","
","""event"",""trial"",""time""
""fullscreenenter"",""0"",""6323""
","
","883.7999999821186","run_exp/static/images/Set 6_rs/178a.jpg","86","","","","","","test","TR","3"
"","show_choice","325","473511","0.0-254.0-1.0","""event"",""trial"",""time""
""fullscreenenter"",""0"",""6323""
","
","
","""event"",""trial"",""time""
""fullscreenenter"",""0"",""6323""
","
","null","run_exp/static/images/Set 6_rs/178a.jpg","null","","","","","","test","TR",""
"","html-keyboard-response","326","474014","0.0-254.0-2.0","""event"",""trial"",""time""
""fullscreenenter"",""0"",""6323""
","
","
","""event"",""trial"",""time""
""fullscreenenter"",""0"",""6323""
","
","null","<p></p>","null","","","","","","","",""
"","image","327","474961","0.0-255.0-0.0","""event"",""trial"",""time""
""fullscreenenter"",""0"",""6323""
","
","
","""event"",""trial"",""time""
""fullscreenenter"",""0"",""6323""
","
","944.1999999880791","run_exp/static/images/Set 6_rs/186a.jpg","86","","","","","","test","TR","5"
"","show_choice","328","475471","0.0-255.0-1.0","""event"",""trial"",""time""
""fullscreenenter"",""0"",""6323""
","
","
","""event"",""trial"",""time""
""fullscreenenter"",""0"",""6323""
","
","null","run_exp/static/images/Set 6_rs/186a.jpg","null","","","","","","test","TR",""
"","html-keyboard-response","329","475977","0.0-255.0-2.0","""event"",""trial"",""time""
""fullscreenenter"",""0"",""6323""
","
","
","""event"",""trial"",""time""
""fullscreenenter"",""0"",""6323""
","
","null","<p></p>","null","","","","","","","",""
"","image","330","477008","0.0-256.0-0.0","""event"",""trial"",""time""
""fullscreenenter"",""0"",""6323""
","
","
","""event"",""trial"",""time""
""fullscreenenter"",""0"",""6323""
","
","1029.4000000059605","run_exp/static/images/Set 6_rs/079b.jpg","66","","","","","","test","TL","5"
"","show_choice","331","477512","0.0-256.0-1.0","""event"",""trial"",""time""
""fullscreenenter"",""0"",""6323""
","
","
","""event"",""trial"",""time""
""fullscreenenter"",""0"",""6323""
","
","null","run_exp/static/images/Set 6_rs/079b.jpg","null","","","","","","test","TL",""
"","html-keyboard-response","332","478023","0.0-256.0-2.0","""event"",""trial"",""time""
""fullscreenenter"",""0"",""6323""
","
","
","""event"",""trial"",""time""
""fullscreenenter"",""0"",""6323""
","
","null","<p></p>","null","","","","","","","",""
"","image","333","479038","0.0-257.0-0.0","""event"",""trial"",""time""
""fullscreenenter"",""0"",""6323""
","
","
","""event"",""trial"",""time""
""fullscreenenter"",""0"",""6323""
","
","1013","run_exp/static/images/Set 6_rs/023a.jpg","86","","","","","","test","TR","3"
"","show_choice","334","479541","0.0-257.0-1.0","""event"",""trial"",""time""
""fullscreenenter"",""0"",""6323""
","
","
","""event"",""trial"",""time""
""fullscreenenter"",""0"",""6323""
","
","null","run_exp/static/images/Set 6_rs/023a.jpg","null","","","","","","test","TR",""
"","html-keyboard-response","335","480043","0.0-257.0-2.0","""event"",""trial"",""time""
""fullscreenenter"",""0"",""6323""
","
","
","""event"",""trial"",""time""
""fullscreenenter"",""0"",""6323""
","
","null","<p></p>","null","","","","","","","",""
"","image","336","481276","0.0-258.0-0.0","""event"",""trial"",""time""
""fullscreenenter"",""0"",""6323""
","
","
","""event"",""trial"",""time""
""fullscreenenter"",""0"",""6323""
","
","1231.7000000178814","run_exp/static/images/Set 6_rs/028a.jpg","78","","","","","","test","TF","1"
"","show_choice","337","481789","0.0-258.0-1.0","""event"",""trial"",""time""
""fullscreenenter"",""0"",""6323""
","
","
","""event"",""trial"",""time""
""fullscreenenter"",""0"",""6323""
","
","null","run_exp/static/images/Set 6_rs/028a.jpg","null","","","","","","test","TF",""
"","html-keyboard-response","338","482295","0.0-258.0-2.0","""event"",""trial"",""time""
""fullscreenenter"",""0"",""6323""
","
","
","""event"",""trial"",""time""
""fullscreenenter"",""0"",""6323""
","
","null","<p></p>","null","","","","","","","",""
"","image","339","483234","0.0-259.0-0.0","""event"",""trial"",""time""
""fullscreenenter"",""0"",""6323""
","
","
","""event"",""trial"",""time""
""fullscreenenter"",""0"",""6323""
","
","938.0999999940395","run_exp/static/images/Set 6_rs/166a.jpg","86","","","","","","test","TR","1"
"","show_choice","340","483738","0.0-259.0-1.0","""event"",""trial"",""time""
""fullscreenenter"",""0"",""6323""
","
","
","""event"",""trial"",""time""
""fullscreenenter"",""0"",""6323""
","
","null","run_exp/static/images/Set 6_rs/166a.jpg","null","","","","","","test","TR",""
