"success","trial_type","trial_index","time_elapsed","internal_node_id","interactions","blur_events","focus_events","fullscreenenter_events","fullscreenexit_events","rt","stimulus","key_press","subject_id","participant_id","age","gender","prompt","phase","condition","lure_bin"
"true","fullscreen","0","4356","0.0-0.0","""event"",""trial"",""time""
""fullscreenenter"",""0"",""3359""
","
","
","""event"",""trial"",""time""
""fullscreenenter"",""0"",""3359""
","
","","","","","","","","","","",""
"","pavlovia","1","4365","0.0-1.0","""event"",""trial"",""time""
""fullscreenenter"",""0"",""3359""
","
","
","""event"",""trial"",""time""
""fullscreenenter"",""0"",""3359""
","
","","","","","","","","","","",""
"","welcome","2","39176","0.0-2.0","""event"",""trial"",""time""
""fullscreenenter"",""0"",""3359""
","
","
","""event"",""trial"",""time""
""fullscreenenter"",""0"",""3359""
","
","null","run_exp/static/audio/clip_1_welcome.m4a","null","567","625","10","Male","<div class='center'><p>Welcome to the third part of the study! First, you'll be shown pictures of items one at a time. For each picture, you have to decide if the item is typically found indoors or outdoors.</p><p>If you think it's usually found indoors, then press <b>v</b> key on your keyboard. If you think it's usually found outdoors, then press the <b>n</b> key.There will be reminders on the screen to help you remember which keys to press. </p><p>If you're not sure whether the item is an indoor item or an outdoor item, go ahead and take a guess but try your best not to skip that choice. </p></div>","","",""
"","html-keyboard-response","3","40347","0.0-3.0","""event"",""trial"",""time""
""fullscreenenter"",""0"",""3359""
","
","
","""event"",""trial"",""time""
""fullscreenenter"",""0"",""3359""
","
","1167.4000000059605","<div class='center'><p>Welcome to the third part of the study! First, you'll be shown pictures of items one at a time. For each picture, you have to decide if the item is typically found indoors or outdoors.</p><p>If you think it's usually found indoors, then press <b>v</b> key on your keyboard. If you think it's usually found outdoors, then press the <b>n</b> key.There will be reminders on the screen to help you remember which keys to press. </p><p>If you're not sure whether the item is an indoor item or an outdoor item, go ahead and take a guess but try your best not to skip that choice. </p><div><p><b>[Press the space bar to continue]</b></p></div>","32","","","","","","","",""
"","image","4","41674","0.0-4.0","""event"",""trial"",""time""
""fullscreenenter"",""0"",""3359""
","
","
","""event"",""trial"",""time""
""fullscreenenter"",""0"",""3359""
","
","1324.3999999761581","run_exp/static/images/Set 6_rs/088a.jpg","78","","","","","","learn","SR",""
"","show_choice","5","42353","0.0-5.0","""event"",""trial"",""time""
""fullscreenenter"",""0"",""3359""
","
","
","""event"",""trial"",""time""
""fullscreenenter"",""0"",""3359""
","
","null","run_exp/static/images/Set 6_rs/088a.jpg","null","","","","","","learn","SR",""
"","html-keyboard-response","6","42865","0.0-6.0","""event"",""trial"",""time""
""fullscreenenter"",""0"",""3359""
","
","
","""event"",""trial"",""time""
""fullscreenenter"",""0"",""3359""
","
","null","<p></p>","null","","","","","","","",""
"","image","7","44095","0.0-7.0","""event"",""trial"",""time""
""fullscreenenter"",""0"",""3359""
","
","
","""event"",""trial"",""time""
""fullscreenenter"",""0"",""3359""
","
","1228.3999999761581","run_exp/static/images/Set 6_rs/187a.jpg","78","","","","","","learn","SR",""
"","show_choice","8","44869","0.0-8.0","""event"",""trial"",""time""
""fullscreenenter"",""0"",""3359""
","
","
","""event"",""trial"",""time""
""fullscreenenter"",""0"",""3359""
","
","null","run_exp/static/images/Set 6_rs/187a.jpg","null","","","","","","learn","SR",""
"","html-keyboard-response","9","45372","0.0-9.0","""event"",""trial"",""time""
""fullscreenenter"",""0"",""3359""
","
","
","""event"",""trial"",""time""
""fullscreenenter"",""0"",""3359""
","
","null","<p></p>","null","","","","","","","",""
"","image","10","46624","0.0-10.0","""event"",""trial"",""time""
""fullscreenenter"",""0"",""3359""
","
","
","""event"",""trial"",""time""
""fullscreenenter"",""0"",""3359""
","
","1250.2000000178814","run_exp/static/images/Set 6_rs/166a.jpg","86","","","","","","learn","SR",""
"","show_choice","11","47376","0.0-11.0","""event"",""trial"",""time""
""fullscreenenter"",""0"",""3359""
","
","
","""event"",""trial"",""time""
""fullscreenenter"",""0"",""3359""
","
","null","run_exp/static/images/Set 6_rs/166a.jpg","null","","","","","","learn","SR",""
"","html-keyboard-response","12","47879","0.0-12.0","""event"",""trial"",""time""
""fullscreenenter"",""0"",""3359""
","
","
","""event"",""trial"",""time""
""fullscreenenter"",""0"",""3359""
","
","null","<p></p>","null","","","","","","","",""
"","image","13","49487","0.0-13.0","""event"",""trial"",""time""
""fullscreenenter"",""0"",""3359""
","
","
","""event"",""trial"",""time""
""fullscreenenter"",""0"",""3359""
","
","1605.4000000059605","run_exp/static/images/Set 6_rs/075a.jpg","86","","","","","","learn","SR",""
"","show_choice","14","49883","0.0-14.0","""event"",""trial"",""time""
""fullscreenenter"",""0"",""3359""
","
","
","""event"",""trial"",""time""
""fullscreenenter"",""0"",""3359""
","
","null","run_exp/static/images/Set 6_rs/075a.jpg","null","","","","","","learn","SR",""
"","html-keyboard-response","15","50385","0.0-15.0","""event"",""trial"",""time""
""fullscreenenter"",""0"",""3359""
","
","
","""event"",""trial"",""time""
""fullscreenenter"",""0"",""3359""
","
","null","<p></p>","null","","","","","","","",""
"","image","16","52086","0.0-16.0","""event"",""trial"",""time""
""fullscreenenter"",""0"",""3359""
","
","
","""event"",""trial"",""time""
""fullscreenenter"",""0"",""3359""
","
","1699.9000000059605","run_exp/static/images/Set 6_rs/008a.jpg","86","","","","","","learn","SL",""
"","show_choice","17","52388","0.0-17.0","""event"",""trial"",""time""
""fullscreenenter"",""0"",""3359""
","
","
","""event"",""trial"",""time""
""fullscreenenter"",""0"",""3359""
","
","null","run_exp/static/images/Set 6_rs/008a.jpg","null","","","","","","learn","SL",""
"","html-keyboard-response","18","52891","0.0-18.0","""event"",""trial"",""time""
""fullscreenenter"",""0"",""3359""
","
","
","""event"",""trial"",""time""
""fullscreenenter"",""0"",""3359""
","
","null","<p></p>","null","","","","","","","",""
"","image","19","54109","0.0-19.0","""event"",""trial"",""time""
""fullscreenenter"",""0"",""3359""
","
","
","""event"",""trial"",""time""
""fullscreenenter"",""0"",""3359""
","
","1215.9000000059605","run_exp/static/images/Set 6_rs/061a.jpg","86","","","","","","learn","SR",""
"","show_choice","20","54895","0.0-20.0","""event"",""trial"",""time""
""fullscreenenter"",""0"",""3359""
","
","
","""event"",""trial"",""time""
""fullscreenenter"",""0"",""3359""
","
","null","run_exp/static/images/Set 6_rs/061a.jpg","null","","","","","","learn","SR",""
"","html-keyboard-response","21","55407","0.0-21.0","""event"",""trial"",""time""
""fullscreenenter"",""0"",""3359""
","
","
","""event"",""trial"",""time""
""fullscreenenter"",""0"",""3359""
","
","null","<p></p>","null","","","","","","","",""
"","image","22","57091","0.0-22.0","""event"",""trial"",""time""
""fullscreenenter"",""0"",""3359""
","
","
","""event"",""trial"",""time""
""fullscreenenter"",""0"",""3359""
","
","1681.800000011921","run_exp/static/images/Set 6_rs/055a.jpg","86","","","","","","learn","SL",""
"","show_choice","23","57412","0.0-23.0","""event"",""trial"",""time""
""fullscreenenter"",""0"",""3359""
","
","
","""event"",""trial"",""time""
""fullscreenenter"",""0"",""3359""
","
","null","run_exp/static/images/Set 6_rs/055a.jpg","null","","","","","","learn","SL",""
"","html-keyboard-response","24","57914","0.0-24.0","""event"",""trial"",""time""
""fullscreenenter"",""0"",""3359""
","
","
","""event"",""trial"",""time""
""fullscreenenter"",""0"",""3359""
","
","null","<p></p>","null","","","","","","","",""
"","image","25","58739","0.0-25.0","""event"",""trial"",""time""
""fullscreenenter"",""0"",""3359""
","
","
","""event"",""trial"",""time""
""fullscreenenter"",""0"",""3359""
","
","823.5","run_exp/static/images/Set 6_rs/025a.jpg","86","","","","","","learn","SL",""
"","show_choice","26","59919","0.0-26.0","""event"",""trial"",""time""
""fullscreenenter"",""0"",""3359""
","
","
","""event"",""trial"",""time""
""fullscreenenter"",""0"",""3359""
","
","null","run_exp/static/images/Set 6_rs/025a.jpg","null","","","","","","learn","SL",""
"","html-keyboard-response","27","60421","0.0-27.0","""event"",""trial"",""time""
""fullscreenenter"",""0"",""3359""
","
","
","""event"",""trial"",""time""
""fullscreenenter"",""0"",""3359""
","
","null","<p></p>","null","","","","","","","",""
"","image","28","61504","0.0-28.0","""event"",""trial"",""time""
""fullscreenenter"",""0"",""3359""
","
","
","""event"",""trial"",""time""
""fullscreenenter"",""0"",""3359""
","
","1081.699999988079","run_exp/static/images/Set 6_rs/141a.jpg","86","","","","","","learn","SR",""
"","show_choice","29","62438","0.0-29.0","""event"",""trial"",""time""
""fullscreenenter"",""0"",""3359""
","
","
","""event"",""trial"",""time""
""fullscreenenter"",""0"",""3359""
","
","null","run_exp/static/images/Set 6_rs/141a.jpg","null","","","","","","learn","SR",""
"","html-keyboard-response","30","62940","0.0-30.0","""event"",""trial"",""time""
""fullscreenenter"",""0"",""3359""
","
","
","""event"",""trial"",""time""
""fullscreenenter"",""0"",""3359""
","
","null","<p></p>","null","","","","","","","",""
"","image","31","64222","0.0-31.0","""event"",""trial"",""time""
""fullscreenenter"",""0"",""3359""
","
","
","""event"",""trial"",""time""
""fullscreenenter"",""0"",""3359""
","
","1280.699999988079","run_exp/static/images/Set 6_rs/045a.jpg","86","","","","","","learn","SR",""
"","show_choice","32","64944","0.0-32.0","""event"",""trial"",""time""
""fullscreenenter"",""0"",""3359""
","
","
","""event"",""trial"",""time""
""fullscreenenter"",""0"",""3359""
","
","null","run_exp/static/images/Set 6_rs/045a.jpg","null","","","","","","learn","SR",""
"","html-keyboard-response","33","65448","0.0-33.0","""event"",""trial"",""time""
""fullscreenenter"",""0"",""3359""
","
","
","""event"",""trial"",""time""
""fullscreenenter"",""0"",""3359""
","
","null","<p></p>","null","","","","","","","",""
"","image","34","66922","0.0-34.0","""event"",""trial"",""time""
""fullscreenenter"",""0"",""3359""
","
","
","""event"",""trial"",""time""
""fullscreenenter"",""0"",""3359""
","
","1471.7999999821186","run_exp/static/images/Set 6_rs/006a.jpg","86","","","","","","learn","SL",""
"","show_choice","35","67453","0.0-35.0","""event"",""trial"",""time""
""fullscreenenter"",""0"",""3359""
","
","
","""event"",""trial"",""time""
""fullscreenenter"",""0"",""3359""
","
","null","run_exp/static/images/Set 6_rs/006a.jpg","null","","","","","","learn","SL",""
"","html-keyboard-response","36","67970","0.0-36.0","""event"",""trial"",""time""
""fullscreenenter"",""0"",""3359""
","
","
","""event"",""trial"",""time""
""fullscreenenter"",""0"",""3359""
","
","null","<p></p>","null","","","","","","","",""
"","image","37","69256","0.0-37.0","""event"",""trial"",""time""
""fullscreenenter"",""0"",""3359""
","
","
","""event"",""trial"",""time""
""fullscreenenter"",""0"",""3359""
","
","1284.0999999940395","run_exp/static/images/Set 6_rs/076a.jpg","78","","","","","","learn","SR",""
"","show_choice","38","69973","0.0-38.0","""event"",""trial"",""time""
""fullscreenenter"",""0"",""3359""
","
","
","""event"",""trial"",""time""
""fullscreenenter"",""0"",""3359""
","
","null","run_exp/static/images/Set 6_rs/076a.jpg","null","","","","","","learn","SR",""
"","html-keyboard-response","39","70474","0.0-39.0","""event"",""trial"",""time""
""fullscreenenter"",""0"",""3359""
","
","
","""event"",""trial"",""time""
""fullscreenenter"",""0"",""3359""
","
","null","<p></p>","null","","","","","","","",""
"","image","40","71595","0.0-40.0","""event"",""trial"",""time""
""fullscreenenter"",""0"",""3359""
","
","
","""event"",""trial"",""time""
""fullscreenenter"",""0"",""3359""
","
","1119.0999999940395","run_exp/static/images/Set 6_rs/062a.jpg","86","","","","","","learn","SL",""
"","show_choice","41","72478","0.0-41.0","""event"",""trial"",""time""
""fullscreenenter"",""0"",""3359""
","
","
","""event"",""trial"",""time""
""fullscreenenter"",""0"",""3359""
","
","null","run_exp/static/images/Set 6_rs/062a.jpg","null","","","","","","learn","SL",""
"","html-keyboard-response","42","72979","0.0-42.0","""event"",""trial"",""time""
""fullscreenenter"",""0"",""3359""
","
","
","""event"",""trial"",""time""
""fullscreenenter"",""0"",""3359""
","
","null","<p></p>","null","","","","","","","",""
"","image","43","73843","0.0-43.0","""event"",""trial"",""time""
""fullscreenenter"",""0"",""3359""
","
","
","""event"",""trial"",""time""
""fullscreenenter"",""0"",""3359""
","
","862.0999999940395","run_exp/static/images/Set 6_rs/071a.jpg","86","","","","","","learn","SL",""
"","show_choice","44","74981","0.0-44.0","""event"",""trial"",""time""
""fullscreenenter"",""0"",""3359""
","
","
","""event"",""trial"",""time""
""fullscreenenter"",""0"",""3359""
","
","null","run_exp/static/images/Set 6_rs/071a.jpg","null","","","","","","learn","SL",""
"","html-keyboard-response","45","75483","0.0-45.0","""event"",""trial"",""time""
""fullscreenenter"",""0"",""3359""
","
","
","""event"",""trial"",""time""
""fullscreenenter"",""0"",""3359""
","
","null","<p></p>","null","","","","","","","",""
"","image","46","77133","0.0-46.0","""event"",""trial"",""time""
""fullscreenenter"",""0"",""3359""
","
","
","""event"",""trial"",""time""
""fullscreenenter"",""0"",""3359""
","
","1648.4000000059605","run_exp/static/images/Set 6_rs/123a.jpg","86","","","","","","learn","SL",""
"","show_choice","47","77486","0.0-47.0","""event"",""trial"",""time""
""fullscreenenter"",""0"",""3359""
","
","
","""event"",""trial"",""time""
""fullscreenenter"",""0"",""3359""
","
","null","run_exp/static/images/Set 6_rs/123a.jpg","null","","","","","","learn","SL",""
"","html-keyboard-response","48","77988","0.0-48.0","""event"",""trial"",""time""
""fullscreenenter"",""0"",""3359""
","
","
","""event"",""trial"",""time""
""fullscreenenter"",""0"",""3359""
","
","null","<p></p>","null","","","","","","","",""
"","image","49","79824","0.0-49.0","""event"",""trial"",""time""
""fullscreenenter"",""0"",""3359""
","
","
","""event"",""trial"",""time""
""fullscreenenter"",""0"",""3359""
","
","1835.4000000059605","run_exp/static/images/Set 6_rs/117a.jpg","86","","","","","","learn","SL",""
"","show_choice","50","79990","0.0-50.0","""event"",""trial"",""time""
""fullscreenenter"",""0"",""3359""
","
","
","""event"",""trial"",""time""
""fullscreenenter"",""0"",""3359""
","
","null","run_exp/static/images/Set 6_rs/117a.jpg","null","","","","","","learn","SL",""
"","html-keyboard-response","51","80497","0.0-51.0","""event"",""trial"",""time""
""fullscreenenter"",""0"",""3359""
","
","
","""event"",""trial"",""time""
""fullscreenenter"",""0"",""3359""
","
","null","<p></p>","null","","","","","","","",""
"","image","52","82376","0.0-52.0","""event"",""trial"",""time""
""fullscreenenter"",""0"",""3359""
","
","
","""event"",""trial"",""time""
""fullscreenenter"",""0"",""3359""
","
","1876.199999988079","run_exp/static/images/Set 6_rs/066a.jpg","86","","","","","","learn","SL",""
"","show_choice","53","82502","0.0-53.0","""event"",""trial"",""time""
""fullscreenenter"",""0"",""3359""
","
","
","""event"",""trial"",""time""
""fullscreenenter"",""0"",""3359""
","
","null","run_exp/static/images/Set 6_rs/066a.jpg","null","","","","","","learn","SL",""
"","html-keyboard-response","54","83004","0.0-54.0","""event"",""trial"",""time""
""fullscreenenter"",""0"",""3359""
","
","
","""event"",""trial"",""time""
""fullscreenenter"",""0"",""3359""
","
","null","<p></p>","null","","","","","","","",""
"","image","55","85007","0.0-55.0","""event"",""trial"",""time""
""fullscreenenter"",""0"",""3359""
","
","
","""event"",""trial"",""time""
""fullscreenenter"",""0"",""3359""
","
","null","run_exp/static/images/Set 6_rs/134a.jpg","null","","","","","","learn","SR",""
"","show_choice","56","87009","0.0-56.0","""event"",""trial"",""time""
""fullscreenenter"",""0"",""3359""
","
","
","""event"",""trial"",""time""
""fullscreenenter"",""0"",""3359""
","
","null","run_exp/static/images/blank.png","null","","","","","","learn","SR",""
"","html-keyboard-response","57","87511","0.0-57.0","""event"",""trial"",""time""
""fullscreenenter"",""0"",""3359""
","
","
","""event"",""trial"",""time""
""fullscreenenter"",""0"",""3359""
","
","null","<p></p>","null","","","","","","","",""
"","image","58","88604","0.0-58.0","""event"",""trial"",""time""
""fullscreenenter"",""0"",""3359""
","
","
","""event"",""trial"",""time""
""fullscreenenter"",""0"",""3359""
","
","1091.9000000059605","run_exp/static/images/Set 6_rs/074a.jpg","78","","","","","","learn","SL",""
"","show_choice","59","89527","0.0-59.0","""event"",""trial"",""time""
""fullscreenenter"",""0"",""3359""
","
","
","""event"",""trial"",""time""
""fullscreenenter"",""0"",""3359""
","
","null","run_exp/static/images/Set 6_rs/074a.jpg","null","","","","","","learn","SL",""
"","html-keyboard-response","60","90029","0.0-60.0","""event"",""trial"",""time""
""fullscreenenter"",""0"",""3359""
","
","
","""event"",""trial"",""time""
""fullscreenenter"",""0"",""3359""
","
","null","<p></p>","null","","","","","","","",""
"","image","61","91040","0.0-61.0","""event"",""trial"",""time""
""fullscreenenter"",""0"",""3359""
","
","
","""event"",""trial"",""time""
""fullscreenenter"",""0"",""3359""
","
","1009.6999999880791","run_exp/static/images/Set 6_rs/144a.jpg","86","","","","","","learn","SL",""
"","show_choice","62","92033","0.0-62.0","""event"",""trial"",""time""
""fullscreenenter"",""0"",""3359""
","
","
","""event"",""trial"",""time""
""fullscreenenter"",""0"",""3359""
","
","null","run_exp/static/images/Set 6_rs/144a.jpg","null","","","","","","learn","SL",""
"","html-keyboard-response","63","92544","0.0-63.0","""event"",""trial"",""time""
""fullscreenenter"",""0"",""3359""
","
","
","""event"",""trial"",""time""
""fullscreenenter"",""0"",""3359""
","
","null","<p></p>","null","","","","","","","",""
"","image","64","94209","0.0-64.0","""event"",""trial"",""time""
""fullscreenenter"",""0"",""3359""
","
","
","""event"",""trial"",""time""
""fullscreenenter"",""0"",""3359""
","
","1663.5","run_exp/static/images/Set 6_rs/089a.jpg","86","","","","","","learn","SL",""
"","show_choice","65","94548","0.0-65.0","""event"",""trial"",""time""
""fullscreenenter"",""0"",""3359""
","
","
","""event"",""trial"",""time""
""fullscreenenter"",""0"",""3359""
","
","null","run_exp/static/images/Set 6_rs/089a.jpg","null","","","","","","learn","SL",""
"","html-keyboard-response","66","95049","0.0-66.0","""event"",""trial"",""time""
""fullscreenenter"",""0"",""3359""
","
","
","""event"",""trial"",""time""
""fullscreenenter"",""0"",""3359""
","
","null","<p></p>","null","","","","","","","",""
"","image","67","96456","0.0-67.0","""event"",""trial"",""time""
""fullscreenenter"",""0"",""3359""
","
","
","""event"",""trial"",""time""
""fullscreenenter"",""0"",""3359""
","
","1404.7000000178814","run_exp/static/images/Set 6_rs/186a.jpg","86","","","","","","learn","SR",""
"","show_choice","68","97054","0.0-68.0","""event"",""trial"",""time""
""fullscreenenter"",""0"",""3359""
","
","
","""event"",""trial"",""time""
""fullscreenenter"",""0"",""3359""
","
","null","run_exp/static/images/Set 6_rs/186a.jpg","null","","","","","","learn","SR",""
"","html-keyboard-response","69","97556","0.0-69.0","""event"",""trial"",""time""
""fullscreenenter"",""0"",""3359""
","
","
","""event"",""trial"",""time""
""fullscreenenter"",""0"",""3359""
","
","null","<p></p>","null","","","","","","","",""
"","image","70","98801","0.0-70.0","""event"",""trial"",""time""
""fullscreenenter"",""0"",""3359""
","
","
","""event"",""trial"",""time""
""fullscreenenter"",""0"",""3359""
","
","1243.699999988079","run_exp/static/images/Set 6_rs/116a.jpg","78","","","","","","learn","SL",""
"","show_choice","71","99560","0.0-71.0","""event"",""trial"",""time""
""fullscreenenter"",""0"",""3359""
","
","
","""event"",""trial"",""time""
""fullscreenenter"",""0"",""3359""
","
","null","run_exp/static/images/Set 6_rs/116a.jpg","null","","","","","","learn","SL",""
"","html-keyboard-response","72","100062","0.0-72.0","""event"",""trial"",""time""
""fullscreenenter"",""0"",""3359""
","
","
","""event"",""trial"",""time""
""fullscreenenter"",""0"",""3359""
","
","null","<p></p>","null","","","","","","","",""
"","image","73","101568","0.0-73.0","""event"",""trial"",""time""
""fullscreenenter"",""0"",""3359""
","
","
","""event"",""trial"",""time""
""fullscreenenter"",""0"",""3359""
","
","1504.699999988079","run_exp/static/images/Set 6_rs/191a.jpg","86","","","","","","learn","SL",""
"","show_choice","74","102066","0.0-74.0","""event"",""trial"",""time""
""fullscreenenter"",""0"",""3359""
","
","
","""event"",""trial"",""time""
""fullscreenenter"",""0"",""3359""
","
","null","run_exp/static/images/Set 6_rs/191a.jpg","null","","","","","","learn","SL",""
"","html-keyboard-response","75","102569","0.0-75.0","""event"",""trial"",""time""
""fullscreenenter"",""0"",""3359""
","
","
","""event"",""trial"",""time""
""fullscreenenter"",""0"",""3359""
","
","null","<p></p>","null","","","","","","","",""
"","image","76","103503","0.0-76.0","""event"",""trial"",""time""
""fullscreenenter"",""0"",""3359""
","
","
","""event"",""trial"",""time""
""fullscreenenter"",""0"",""3359""
","
","932.5999999940395","run_exp/static/images/Set 6_rs/152a.jpg","86","","","","","","learn","SR",""
"","show_choice","77","104586","0.0-77.0","""event"",""trial"",""time""
""fullscreenenter"",""0"",""3359""
","
","
","""event"",""trial"",""time""
""fullscreenenter"",""0"",""3359""
","
","null","run_exp/static/images/Set 6_rs/152a.jpg","null","","","","","","learn","SR",""
"","html-keyboard-response","78","105088","0.0-78.0","""event"",""trial"",""time""
""fullscreenenter"",""0"",""3359""
","
","
","""event"",""trial"",""time""
""fullscreenenter"",""0"",""3359""
","
","null","<p></p>","null","","","","","","","",""
"","image","79","106081","0.0-79.0","""event"",""trial"",""time""
""fullscreenenter"",""0"",""3359""
","
","
","""event"",""trial"",""time""
""fullscreenenter"",""0"",""3359""
","
","991.8000000119209","run_exp/static/images/Set 6_rs/091a.jpg","78","","","","","","learn","SL",""
"","show_choice","80","107091","0.0-80.0","""event"",""trial"",""time""
""fullscreenenter"",""0"",""3359""
","
","
","""event"",""trial"",""time""
""fullscreenenter"",""0"",""3359""
","
","null","run_exp/static/images/Set 6_rs/091a.jpg","null","","","","","","learn","SL",""
"","html-keyboard-response","81","107592","0.0-81.0","""event"",""trial"",""time""
""fullscreenenter"",""0"",""3359""
","
","
","""event"",""trial"",""time""
""fullscreenenter"",""0"",""3359""
","
","null","<p></p>","null","","","","","","","",""
"","image","82","109341","0.0-82.0","""event"",""trial"",""time""
""fullscreenenter"",""0"",""3359""
","
","
","""event"",""trial"",""time""
""fullscreenenter"",""0"",""3359""
","
","1747.5","run_exp/static/images/Set 6_rs/169a.jpg","86","","","","","","learn","SR",""
"","show_choice","83","109595","0.0-83.0","""event"",""trial"",""time""
""fullscreenenter"",""0"",""3359""
","
","
","""event"",""trial"",""time""
""fullscreenenter"",""0"",""3359""
","
","null","run_exp/static/images/Set 6_rs/169a.jpg","null","","","","","","learn","SR",""
"","html-keyboard-response","84","110096","0.0-84.0","""event"",""trial"",""time""
""fullscreenenter"",""0"",""3359""
","
","
","""event"",""trial"",""time""
""fullscreenenter"",""0"",""3359""
","
","null","<p></p>","null","","","","","","","",""
"","image","85","111660","0.0-85.0","""event"",""trial"",""time""
""fullscreenenter"",""0"",""3359""
","
","
","""event"",""trial"",""time""
""fullscreenenter"",""0"",""3359""
","
","1561.9000000059605","run_exp/static/images/Set 6_rs/122a.jpg","86","","","","","","learn","SR",""
"","show_choice","86","112100","0.0-86.0","""event"",""trial"",""time""
""fullscreenenter"",""0"",""3359""
","
","
","""event"",""trial"",""time""
""fullscreenenter"",""0"",""3359""
","
","null","run_exp/static/images/Set 6_rs/122a.jpg","null","","","","","","learn","SR",""
"","html-keyboard-response","87","112601","0.0-87.0","""event"",""trial"",""time""
""fullscreenenter"",""0"",""3359""
","
","
","""event"",""trial"",""time""
""fullscreenenter"",""0"",""3359""
","
","null","<p></p>","null","","","","","","","",""
"","image","88","114022","0.0-88.0","""event"",""trial"",""time""
""fullscreenenter"",""0"",""3359""
","
","
","""event"",""trial"",""time""
""fullscreenenter"",""0"",""3359""
","
","1418.699999988079","run_exp/static/images/Set 6_rs/178a.jpg","78","","","","","","learn","SR",""
"","show_choice","89","114605","0.0-89.0","""event"",""trial"",""time""
""fullscreenenter"",""0"",""3359""
","
","
","""event"",""trial"",""time""
""fullscreenenter"",""0"",""3359""
","
","null","run_exp/static/images/Set 6_rs/178a.jpg","null","","","","","","learn","SR",""
"","html-keyboard-response","90","115107","0.0-90.0","""event"",""trial"",""time""
""fullscreenenter"",""0"",""3359""
","
","
","""event"",""trial"",""time""
""fullscreenenter"",""0"",""3359""
","
","null","<p></p>","null","","","","","","","",""
"","image","91","116641","0.0-91.0","""event"",""trial"",""time""
""fullscreenenter"",""0"",""3359""
","
","
","""event"",""trial"",""time""
""fullscreenenter"",""0"",""3359""
","
","1532.0999999940395","run_exp/static/images/Set 6_rs/024a.jpg","86","","","","","","learn","SR",""
"","show_choice","92","117110","0.0-92.0","""event"",""trial"",""time""
""fullscreenenter"",""0"",""3359""
","
","
","""event"",""trial"",""time""
""fullscreenenter"",""0"",""3359""
","
","null","run_exp/static/images/Set 6_rs/024a.jpg","null","","","","","","learn","SR",""
"","html-keyboard-response","93","117611","0.0-93.0","""event"",""trial"",""time""
""fullscreenenter"",""0"",""3359""
","
","
","""event"",""trial"",""time""
""fullscreenenter"",""0"",""3359""
","
","null","<p></p>","null","","","","","","","",""
"","image","94","118889","0.0-94.0","""event"",""trial"",""time""
""fullscreenenter"",""0"",""3359""
","
","
","""event"",""trial"",""time""
""fullscreenenter"",""0"",""3359""
","
","1276.699999988079","run_exp/static/images/Set 6_rs/121a.jpg","86","","","","","","learn","SR",""
"","show_choice","95","119614","0.0-95.0","""event"",""trial"",""time""
""fullscreenenter"",""0"",""3359""
","
","
","""event"",""trial"",""time""
""fullscreenenter"",""0"",""3359""
","
","null","run_exp/static/images/Set 6_rs/121a.jpg","null","","","","","","learn","SR",""
"","html-keyboard-response","96","120117","0.0-96.0","""event"",""trial"",""time""
""fullscreenenter"",""0"",""3359""
","
","
","""event"",""trial"",""time""
""fullscreenenter"",""0"",""3359""
","
","null","<p></p>","null","","","","","","","",""
"","image","97","120286","0.0-97.0","""event"",""trial"",""time""
""fullscreenenter"",""0"",""3359""
","
","
","""event"",""trial"",""time""
""fullscreenenter"",""0"",""3359""
","
","167.19999998807907","run_exp/static/images/Set 6_rs/063a.jpg","78","","","","","","learn","SR",""
"","show_choice","98","122120","0.0-98.0","""event"",""trial"",""time""
""fullscreenenter"",""0"",""3359""
","
","
","""event"",""trial"",""time""
""fullscreenenter"",""0"",""3359""
","
","null","run_exp/static/images/Set 6_rs/063a.jpg","null","","","","","","learn","SR",""
"","html-keyboard-response","99","122625","0.0-99.0","""event"",""trial"",""time""
""fullscreenenter"",""0"",""3359""
","
","
","""event"",""trial"",""time""
""fullscreenenter"",""0"",""3359""
","
","null","<p></p>","null","","","","","","","",""
"","image","100","123560","0.0-100.0","""event"",""trial"",""time""
""fullscreenenter"",""0"",""3359""
","
","
","""event"",""trial"",""time""
""fullscreenenter"",""0"",""3359""
","
","933.4000000059605","run_exp/static/images/Set 6_rs/168a.jpg","78","","","","","","learn","SL",""
"","show_choice","101","124628","0.0-101.0","""event"",""trial"",""time""
""fullscreenenter"",""0"",""3359""
","
","
","""event"",""trial"",""time""
""fullscreenenter"",""0"",""3359""
","
","null","run_exp/static/images/Set 6_rs/168a.jpg","null","","","","","","learn","SL",""
"","html-keyboard-response","102","125129","0.0-102.0","""event"",""trial"",""time""
""fullscreenenter"",""0"",""3359""
","
","
","""event"",""trial"",""time""
""fullscreenenter"",""0"",""3359""
","
","null","<p></p>","null","","","","","","","",""
"","image","103","126697","0.0-103.0","""event"",""trial"",""time""
""fullscreenenter"",""0"",""3359""
","
","
","""event"",""trial"",""time""
""fullscreenenter"",""0"",""3359""
","
","1566.199999988079","run_exp/static/images/Set 6_rs/172a.jpg","86","","","","","","learn","SR",""
"","show_choice","104","127132","0.0-104.0","""event"",""trial"",""time""
""fullscreenenter"",""0"",""3359""
","
","
","""event"",""trial"",""time""
""fullscreenenter"",""0"",""3359""
","
","null","run_exp/static/images/Set 6_rs/172a.jpg","null","","","","","","learn","SR",""
"","html-keyboard-response","105","127635","0.0-105.0","""event"",""trial"",""time""
""fullscreenenter"",""0"",""3359""
","
","
","""event"",""trial"",""time""
""fullscreenenter"",""0"",""3359""
","
","null","<p></p>","null","","","","","","","",""
"","image","106","127944","0.0-106.0","""event"",""trial"",""time""
""fullscreenenter"",""0"",""3359""
","
","
","""event"",""trial"",""time""
""fullscreenenter"",""0"",""3359""
","
","307.69999998807907","run_exp/static/images/Set 6_rs/079a.jpg","78","","","","","","learn","SL",""
"","show_choice","107","129639","0.0-107.0","""event"",""trial"",""time""
""fullscreenenter"",""0"",""3359""
","
","
","""event"",""trial"",""time""
""fullscreenenter"",""0"",""3359""
","
","null","run_exp/static/images/Set 6_rs/079a.jpg","null","","","","","","learn","SL",""
"","html-keyboard-response","108","130140","0.0-108.0","""event"",""trial"",""time""
""fullscreenenter"",""0"",""3359""
","
","
","""event"",""trial"",""time""
""fullscreenenter"",""0"",""3359""
","
","null","<p></p>","null","","","","","","","",""
"","image","109","130207","0.0-109.0","""event"",""trial"",""time""
""fullscreenenter"",""0"",""3359""
","
","
","""event"",""trial"",""time""
""fullscreenenter"",""0"",""3359""
","
","65.09999999403954","run_exp/static/images/Set 6_rs/129a.jpg","86","","","","","","learn","SL",""
"","show_choice","110","132143","0.0-110.0","""event"",""trial"",""time""
""fullscreenenter"",""0"",""3359""
","
","
","""event"",""trial"",""time""
""fullscreenenter"",""0"",""3359""
","
","null","run_exp/static/images/Set 6_rs/129a.jpg","null","","","","","","learn","SL",""
"","html-keyboard-response","111","132646","0.0-111.0","""event"",""trial"",""time""
""fullscreenenter"",""0"",""3359""
","
","
","""event"",""trial"",""time""
""fullscreenenter"",""0"",""3359""
","
","null","<p></p>","null","","","","","","","",""
"","image","112","134040","0.0-112.0","""event"",""trial"",""time""
""fullscreenenter"",""0"",""3359""
","
","
","""event"",""trial"",""time""
""fullscreenenter"",""0"",""3359""
","
","1392.4000000059605","run_exp/static/images/Set 6_rs/023a.jpg","86","","","","","","learn","SR",""
"","show_choice","113","134650","0.0-113.0","""event"",""trial"",""time""
""fullscreenenter"",""0"",""3359""
","
","
","""event"",""trial"",""time""
""fullscreenenter"",""0"",""3359""
","
","null","run_exp/static/images/Set 6_rs/023a.jpg","null","","","","","","learn","SR",""
"","html-keyboard-response","114","135152","0.0-114.0","""event"",""trial"",""time""
""fullscreenenter"",""0"",""3359""
","
","
","""event"",""trial"",""time""
""fullscreenenter"",""0"",""3359""
","
","null","<p></p>","null","","","","","","","",""
"","image","115","135435","0.0-115.0","""event"",""trial"",""time""
""fullscreenenter"",""0"",""3359""
","
","
","""event"",""trial"",""time""
""fullscreenenter"",""0"",""3359""
","
","281.59999999403954","run_exp/static/images/Set 6_rs/154a.jpg","78","","","","","","learn","SR",""
"","show_choice","116","137156","0.0-116.0","""event"",""trial"",""time""
""fullscreenenter"",""0"",""3359""
","
","
","""event"",""trial"",""time""
""fullscreenenter"",""0"",""3359""
","
","null","run_exp/static/images/Set 6_rs/154a.jpg","null","","","","","","learn","SR",""
"","html-keyboard-response","117","137658","0.0-117.0","""event"",""trial"",""time""
""fullscreenenter"",""0"",""3359""
","
","
","""event"",""trial"",""time""
""fullscreenenter"",""0"",""3359""
","
","null","<p></p>","null","","","","","","","",""
"","image","118","137888","0.0-118.0","""event"",""trial"",""time""
""fullscreenenter"",""0"",""3359""
","
","
","""event"",""trial"",""time""
""fullscreenenter"",""0"",""3359""
","
","228.89999997615814","run_exp/static/images/Set 6_rs/132a.jpg","78","","","","","","learn","SR",""
"","show_choice","119","139662","0.0-119.0","""event"",""trial"",""time""
""fullscreenenter"",""0"",""3359""
","
","
","""event"",""trial"",""time""
""fullscreenenter"",""0"",""3359""
","
","null","run_exp/static/images/Set 6_rs/132a.jpg","null","","","","","","learn","SR",""
"","html-keyboard-response","120","140170","0.0-120.0","""event"",""trial"",""time""
""fullscreenenter"",""0"",""3359""
","
","
","""event"",""trial"",""time""
""fullscreenenter"",""0"",""3359""
","
","null","<p></p>","null","","","","","","","",""
"","image","121","141813","0.0-121.0","""event"",""trial"",""time""
""fullscreenenter"",""0"",""3359""
","
","
","""event"",""trial"",""time""
""fullscreenenter"",""0"",""3359""
","
","1640.7999999821186","run_exp/static/images/Set 6_rs/167a.jpg","86","","","","","","learn","SL",""
"","show_choice","122","142173","0.0-122.0","""event"",""trial"",""time""
""fullscreenenter"",""0"",""3359""
","
","
","""event"",""trial"",""time""
""fullscreenenter"",""0"",""3359""
","
","null","run_exp/static/images/Set 6_rs/167a.jpg","null","","","","","","learn","SL",""
"","html-keyboard-response","123","142676","0.0-123.0","""event"",""trial"",""time""
""fullscreenenter"",""0"",""3359""
","
","
","""event"",""trial"",""time""
""fullscreenenter"",""0"",""3359""
","
","null","<p></p>","null","","","","","","","",""
"","image","124","144544","0.0-124.0","""event"",""trial"",""time""
""fullscreenenter"",""0"",""3359""
","
","
","""event"",""trial"",""time""
""fullscreenenter"",""0"",""3359""
","
","1866.699999988079","run_exp/static/images/Set 6_rs/095a.jpg","86","","","","","","learn","SL",""
"","show_choice","125","144680","0.0-125.0","""event"",""trial"",""time""
""fullscreenenter"",""0"",""3359""
","
","
","""event"",""trial"",""time""
""fullscreenenter"",""0"",""3359""
","
","null","run_exp/static/images/Set 6_rs/095a.jpg","null","","","","","","learn","SL",""
"","html-keyboard-response","126","145190","0.0-126.0","""event"",""trial"",""time""
""fullscreenenter"",""0"",""3359""
","
","
","""event"",""trial"",""time""
""fullscreenenter"",""0"",""3359""
","
","null","<p></p>","null","","","","","","","",""
"","image","127","146446","0.0-127.0","""event"",""trial"",""time""
""fullscreenenter"",""0"",""3359""
","
","
","""event"",""trial"",""time""
""fullscreenenter"",""0"",""3359""
","
","1254.5","run_exp/static/images/Set 6_rs/016a.jpg","86","","","","","","learn","SL",""
"","show_choice","128","147194","0.0-128.0","""event"",""trial"",""time""
""fullscreenenter"",""0"",""3359""
","
","
","""event"",""trial"",""time""
""fullscreenenter"",""0"",""3359""
","
","null","run_exp/static/images/Set 6_rs/016a.jpg","null","","","","","","learn","SL",""
"","html-keyboard-response","129","147695","0.0-129.0","""event"",""trial"",""time""
""fullscreenenter"",""0"",""3359""
","
","
","""event"",""trial"",""time""
""fullscreenenter"",""0"",""3359""
","
","null","<p></p>","null","","","","","","","",""
"","image","130","148706","0.0-130.0","""event"",""trial"",""time""
""fullscreenenter"",""0"",""3359""
","
","
","""event"",""trial"",""time""
""fullscreenenter"",""0"",""3359""
","
","1009.1999999880791","run_exp/static/images/Set 6_rs/108a.jpg","86","","","","","","learn","SR",""
"","show_choice","131","149697","0.0-131.0","""event"",""trial"",""time""
""fullscreenenter"",""0"",""3359""
","
","
","""event"",""trial"",""time""
""fullscreenenter"",""0"",""3359""
","
","null","run_exp/static/images/Set 6_rs/108a.jpg","null","","","","","","learn","SR",""
"","html-keyboard-response","132","150199","0.0-132.0","""event"",""trial"",""time""
""fullscreenenter"",""0"",""3359""
","
","
","""event"",""trial"",""time""
""fullscreenenter"",""0"",""3359""
","
","null","<p></p>","null","","","","","","","",""
"","image","133","150941","0.0-133.0","""event"",""trial"",""time""
""fullscreenenter"",""0"",""3359""
","
","
","""event"",""trial"",""time""
""fullscreenenter"",""0"",""3359""
","
","740.3000000119209","run_exp/static/images/Set 6_rs/070a.jpg","86","","","","","","learn","SR",""
"","show_choice","134","152202","0.0-134.0","""event"",""trial"",""time""
""fullscreenenter"",""0"",""3359""
","
","
","""event"",""trial"",""time""
""fullscreenenter"",""0"",""3359""
","
","null","run_exp/static/images/Set 6_rs/070a.jpg","null","","","","","","learn","SR",""
"","html-keyboard-response","135","152704","0.0-135.0","""event"",""trial"",""time""
""fullscreenenter"",""0"",""3359""
","
","
","""event"",""trial"",""time""
""fullscreenenter"",""0"",""3359""
","
","null","<p></p>","null","","","","","","","",""
"","image","136","152719","0.0-136.0","""event"",""trial"",""time""
""fullscreenenter"",""0"",""3359""
","
","
","""event"",""trial"",""time""
""fullscreenenter"",""0"",""3359""
","
","13.299999982118607","run_exp/static/images/Set 6_rs/177a.jpg","86","","","","","","learn","SR",""
"","show_choice","137","154707","0.0-137.0","""event"",""trial"",""time""
""fullscreenenter"",""0"",""3359""
","
","
","""event"",""trial"",""time""
""fullscreenenter"",""0"",""3359""
","
","null","run_exp/static/images/Set 6_rs/177a.jpg","null","","","","","","learn","SR",""
"","html-keyboard-response","138","155215","0.0-138.0","""event"",""trial"",""time""
""fullscreenenter"",""0"",""3359""
","
","
","""event"",""trial"",""time""
""fullscreenenter"",""0"",""3359""
","
","null","<p></p>","null","","","","","","","",""
"","image","139","155882","0.0-139.0","""event"",""trial"",""time""
""fullscreenenter"",""0"",""3359""
","
","
","""event"",""trial"",""time""
""fullscreenenter"",""0"",""3359""
","
","665.2999999821186","run_exp/static/images/Set 6_rs/012a.jpg","86","","","","","","learn","SR",""
"","show_choice","140","157218","0.0-140.0","""event"",""trial"",""time""
""fullscreenenter"",""0"",""3359""
","
","
","""event"",""trial"",""time""
""fullscreenenter"",""0"",""3359""
","
","null","run_exp/static/images/Set 6_rs/012a.jpg","null","","","","","","learn","SR",""
"","html-keyboard-response","141","157720","0.0-141.0","""event"",""trial"",""time""
""fullscreenenter"",""0"",""3359""
","
","
","""event"",""trial"",""time""
""fullscreenenter"",""0"",""3359""
","
","null","<p></p>","null","","","","","","","",""
"","image","142","158370","0.0-142.0","""event"",""trial"",""time""
""fullscreenenter"",""0"",""3359""
","
","
","""event"",""trial"",""time""
""fullscreenenter"",""0"",""3359""
","
","648.9000000059605","run_exp/static/images/Set 6_rs/131a.jpg","86","","","","","","learn","SR",""
"","show_choice","143","159724","0.0-143.0","""event"",""trial"",""time""
""fullscreenenter"",""0"",""3359""
","
","
","""event"",""trial"",""time""
""fullscreenenter"",""0"",""3359""
","
","null","run_exp/static/images/Set 6_rs/131a.jpg","null","","","","","","learn","SR",""
"","html-keyboard-response","144","160226","0.0-144.0","""event"",""trial"",""time""
""fullscreenenter"",""0"",""3359""
","
","
","""event"",""trial"",""time""
""fullscreenenter"",""0"",""3359""
","
","null","<p></p>","null","","","","","","","",""
"","image","145","160866","0.0-145.0","""event"",""trial"",""time""
""fullscreenenter"",""0"",""3359""
","
","
","""event"",""trial"",""time""
""fullscreenenter"",""0"",""3359""
","
","638.4000000059605","run_exp/static/images/Set 6_rs/126a.jpg","86","","","","","","learn","SR",""
"","show_choice","146","162229","0.0-146.0","""event"",""trial"",""time""
""fullscreenenter"",""0"",""3359""
","
","
","""event"",""trial"",""time""
""fullscreenenter"",""0"",""3359""
","
","null","run_exp/static/images/Set 6_rs/126a.jpg","null","","","","","","learn","SR",""
"","html-keyboard-response","147","162733","0.0-147.0","""event"",""trial"",""time""
""fullscreenenter"",""0"",""3359""
","
","
","""event"",""trial"",""time""
""fullscreenenter"",""0"",""3359""
","
","null","<p></p>","null","","","","","","","",""
"","image","148","163764","0.0-148.0","""event"",""trial"",""time""
""fullscreenenter"",""0"",""3359""
","
","
","""event"",""trial"",""time""
""fullscreenenter"",""0"",""3359""
","
","1029.0999999940395","run_exp/static/images/Set 6_rs/073a.jpg","86","","","","","","learn","SL",""
"","show_choice","149","164736","0.0-149.0","""event"",""trial"",""time""
""fullscreenenter"",""0"",""3359""
","
","
","""event"",""trial"",""time""
""fullscreenenter"",""0"",""3359""
","
","null","run_exp/static/images/Set 6_rs/073a.jpg","null","","","","","","learn","SL",""
"","html-keyboard-response","150","165237","0.0-150.0","""event"",""trial"",""time""
""fullscreenenter"",""0"",""3359""
","
","
","""event"",""trial"",""time""
""fullscreenenter"",""0"",""3359""
","
","null","<p></p>","null","","","","","","","",""
"","image","151","165984","0.0-151.0","""event"",""trial"",""time""
""fullscreenenter"",""0"",""3359""
","
","
","""event"",""trial"",""time""
""fullscreenenter"",""0"",""3359""
","
","745.0999999940395","run_exp/static/images/Set 6_rs/007a.jpg","86","","","","","","learn","SR",""
"","show_choice","152","167247","0.0-152.0","""event"",""trial"",""time""
""fullscreenenter"",""0"",""3359""
","
","
","""event"",""trial"",""time""
""fullscreenenter"",""0"",""3359""
","
","null","run_exp/static/images/Set 6_rs/007a.jpg","null","","","","","","learn","SR",""
"","html-keyboard-response","153","167749","0.0-153.0","""event"",""trial"",""time""
""fullscreenenter"",""0"",""3359""
","
","
","""event"",""trial"",""time""
""fullscreenenter"",""0"",""3359""
","
","null","<p></p>","null","","","","","","","",""
"","image","154","169160","0.0-154.0","""event"",""trial"",""time""
""fullscreenenter"",""0"",""3359""
","
","
","""event"",""trial"",""time""
""fullscreenenter"",""0"",""3359""
","
","1410.0999999940395","run_exp/static/images/Set 6_rs/050a.jpg","86","","","","","","learn","SL",""
"","show_choice","155","169751","0.0-155.0","""event"",""trial"",""time""
""fullscreenenter"",""0"",""3359""
","
","
","""event"",""trial"",""time""
""fullscreenenter"",""0"",""3359""
","
","null","run_exp/static/images/Set 6_rs/050a.jpg","null","","","","","","learn","SL",""
"","html-keyboard-response","156","170253","0.0-156.0","""event"",""trial"",""time""
""fullscreenenter"",""0"",""3359""
","
","
","""event"",""trial"",""time""
""fullscreenenter"",""0"",""3359""
","
","null","<p></p>","null","","","","","","","",""
"","image","157","171635","0.0-157.0","""event"",""trial"",""time""
""fullscreenenter"",""0"",""3359""
","
","
","""event"",""trial"",""time""
""fullscreenenter"",""0"",""3359""
","
","1380.199999988079","run_exp/static/images/Set 6_rs/019a.jpg","86","","","","","","learn","SL",""
"","show_choice","158","172256","0.0-158.0","""event"",""trial"",""time""
""fullscreenenter"",""0"",""3359""
","
","
","""event"",""trial"",""time""
""fullscreenenter"",""0"",""3359""
","
","null","run_exp/static/images/Set 6_rs/019a.jpg","null","","","","","","learn","SL",""
"","html-keyboard-response","159","172759","0.0-159.0","""event"",""trial"",""time""
""fullscreenenter"",""0"",""3359""
","
","
","""event"",""trial"",""time""
""fullscreenenter"",""0"",""3359""
","
","null","<p></p>","null","","","","","","","",""
"","image","160","173575","0.0-160.0","""event"",""trial"",""time""
""fullscreenenter"",""0"",""3359""
","
","
","""event"",""trial"",""time""
""fullscreenenter"",""0"",""3359""
","
","814.3999999761581","run_exp/static/images/Set 6_rs/112a.jpg","86","","","","","","learn","SR",""
"","show_choice","161","174766","0.0-161.0","""event"",""trial"",""time""
""fullscreenenter"",""0"",""3359""
","
","
","""event"",""trial"",""time""
""fullscreenenter"",""0"",""3359""
","
","null","run_exp/static/images/Set 6_rs/112a.jpg","null","","","","","","learn","SR",""
"","html-keyboard-response","162","175268","0.0-162.0","""event"",""trial"",""time""
""fullscreenenter"",""0"",""3359""
","
","
","""event"",""trial"",""time""
""fullscreenenter"",""0"",""3359""
","
","null","<p></p>","null","","","","","","","",""
"","image","163","176186","0.0-163.0","""event"",""trial"",""time""
""fullscreenenter"",""0"",""3359""
","
","
","""event"",""trial"",""time""
""fullscreenenter"",""0"",""3359""
","
","916.2999999821186","run_exp/static/images/Set 6_rs/085a.jpg","86","","","","","","learn","SL",""
"","show_choice","164","177270","0.0-164.0","""event"",""trial"",""time""
""fullscreenenter"",""0"",""3359""
","
","
","""event"",""trial"",""time""
""fullscreenenter"",""0"",""3359""
","
","null","run_exp/static/images/Set 6_rs/085a.jpg","null","","","","","","learn","SL",""
"","html-keyboard-response","165","177772","0.0-165.0","""event"",""trial"",""time""
""fullscreenenter"",""0"",""3359""
","
","
","""event"",""trial"",""time""
""fullscreenenter"",""0"",""3359""
","
","null","<p></p>","null","","","","","","","",""
"","image","166","179150","0.0-166.0","""event"",""trial"",""time""
""fullscreenenter"",""0"",""3359""
","
","
","""event"",""trial"",""time""
""fullscreenenter"",""0"",""3359""
","
","1376.699999988079","run_exp/static/images/Set 6_rs/150a.jpg","86","","","","","","learn","SR",""
"","show_choice","167","179775","0.0-167.0","""event"",""trial"",""time""
""fullscreenenter"",""0"",""3359""
","
","
","""event"",""trial"",""time""
""fullscreenenter"",""0"",""3359""
","
","null","run_exp/static/images/Set 6_rs/150a.jpg","null","","","","","","learn","SR",""
"","html-keyboard-response","168","180277","0.0-168.0","""event"",""trial"",""time""
""fullscreenenter"",""0"",""3359""
","
","
","""event"",""trial"",""time""
""fullscreenenter"",""0"",""3359""
","
","null","<p></p>","null","","","","","","","",""
"","image","169","181542","0.0-169.0","""event"",""trial"",""time""
""fullscreenenter"",""0"",""3359""
","
","
","""event"",""trial"",""time""
""fullscreenenter"",""0"",""3359""
","
","1263.0999999940395","run_exp/static/images/Set 6_rs/111a.jpg","86","","","","","","learn","SL",""
"","show_choice","170","182281","0.0-170.0","""event"",""trial"",""time""
""fullscreenenter"",""0"",""3359""
","
","
","""event"",""trial"",""time""
""fullscreenenter"",""0"",""3359""
","
","null","run_exp/static/images/Set 6_rs/111a.jpg","null","","","","","","learn","SL",""
"","html-keyboard-response","171","182783","0.0-171.0","""event"",""trial"",""time""
""fullscreenenter"",""0"",""3359""
","
","
","""event"",""trial"",""time""
""fullscreenenter"",""0"",""3359""
","
","null","<p></p>","null","","","","","","","",""
"","image","172","184131","0.0-172.0","""event"",""trial"",""time""
""fullscreenenter"",""0"",""3359""
","
","
","""event"",""trial"",""time""
""fullscreenenter"",""0"",""3359""
","
","1345.5999999940395","run_exp/static/images/Set 6_rs/036a.jpg","78","","","","","","learn","SL",""
"","show_choice","173","184786","0.0-173.0","""event"",""trial"",""time""
""fullscreenenter"",""0"",""3359""
","
","
","""event"",""trial"",""time""
""fullscreenenter"",""0"",""3359""
","
","null","run_exp/static/images/Set 6_rs/036a.jpg","null","","","","","","learn","SL",""
"","html-keyboard-response","174","185288","0.0-174.0","""event"",""trial"",""time""
""fullscreenenter"",""0"",""3359""
","
","
","""event"",""trial"",""time""
""fullscreenenter"",""0"",""3359""
","
","null","<p></p>","null","","","","","","","",""
"","image","175","187057","0.0-175.0","""event"",""trial"",""time""
""fullscreenenter"",""0"",""3359""
","
","
","""event"",""trial"",""time""
""fullscreenenter"",""0"",""3359""
","
","1766.7999999821186","run_exp/static/images/Set 6_rs/014a.jpg","86","","","","","","learn","SL",""
"","show_choice","176","187291","0.0-176.0","""event"",""trial"",""time""
""fullscreenenter"",""0"",""3359""
","
","
","""event"",""trial"",""time""
""fullscreenenter"",""0"",""3359""
","
","null","run_exp/static/images/Set 6_rs/014a.jpg","null","","","","","","learn","SL",""
"","html-keyboard-response","177","187793","0.0-177.0","""event"",""trial"",""time""
""fullscreenenter"",""0"",""3359""
","
","
","""event"",""trial"",""time""
""fullscreenenter"",""0"",""3359""
","
","null","<p></p>","null","","","","","","","",""
"","image","178","189156","0.0-178.0","""event"",""trial"",""time""
""fullscreenenter"",""0"",""3359""
","
","
","""event"",""trial"",""time""
""fullscreenenter"",""0"",""3359""
","
","1362","run_exp/static/images/Set 6_rs/138a.jpg","86","","","","","","learn","SL",""
"","show_choice","179","189795","0.0-179.0","""event"",""trial"",""time""
""fullscreenenter"",""0"",""3359""
","
","
","""event"",""trial"",""time""
""fullscreenenter"",""0"",""3359""
","
","null","run_exp/static/images/Set 6_rs/138a.jpg","null","","","","","","learn","SL",""
"","html-keyboard-response","180","190297","0.0-180.0","""event"",""trial"",""time""
""fullscreenenter"",""0"",""3359""
","
","
","""event"",""trial"",""time""
""fullscreenenter"",""0"",""3359""
","
","null","<p></p>","null","","","","","","","",""
"","image","181","192056","0.0-181.0","""event"",""trial"",""time""
""fullscreenenter"",""0"",""3359""
","
","
","""event"",""trial"",""time""
""fullscreenenter"",""0"",""3359""
","
","1757.8999999761581","run_exp/static/images/Set 6_rs/064a.jpg","78","","","","","","learn","SR",""
"","show_choice","182","192301","0.0-182.0","""event"",""trial"",""time""
""fullscreenenter"",""0"",""3359""
","
","
","""event"",""trial"",""time""
""fullscreenenter"",""0"",""3359""
","
","null","run_exp/static/images/Set 6_rs/064a.jpg","null","","","","","","learn","SR",""
"","html-keyboard-response","183","192802","0.0-183.0","""event"",""trial"",""time""
""fullscreenenter"",""0"",""3359""
","
","
","""event"",""trial"",""time""
""fullscreenenter"",""0"",""3359""
","
","null","<p></p>","null","","","","","","","",""
"","image","184","194804","0.0-184.0","""event"",""trial"",""time""
""fullscreenenter"",""0"",""3359""
","
","
","""event"",""trial"",""time""
""fullscreenenter"",""0"",""3359""
","
","null","run_exp/static/images/Set 6_rs/017a.jpg","null","","","","","","learn","SL",""
"","show_choice","185","196807","0.0-185.0","""event"",""trial"",""time""
""fullscreenenter"",""0"",""3359""
","
","
","""event"",""trial"",""time""
""fullscreenenter"",""0"",""3359""
","
","null","run_exp/static/images/blank.png","null","","","","","","learn","SL",""
"","html-keyboard-response","186","197308","0.0-186.0","""event"",""trial"",""time""
""fullscreenenter"",""0"",""3359""
","
","
","""event"",""trial"",""time""
""fullscreenenter"",""0"",""3359""
","
","null","<p></p>","null","","","","","","","",""
"","image","187","198360","0.0-187.0","""event"",""trial"",""time""
""fullscreenenter"",""0"",""3359""
","
","
","""event"",""trial"",""time""
""fullscreenenter"",""0"",""3359""
","
","1051.4000000059605","run_exp/static/images/Set 6_rs/010a.jpg","86","","","","","","learn","SR",""
"","show_choice","188","199310","0.0-188.0","""event"",""trial"",""time""
""fullscreenenter"",""0"",""3359""
","
","
","""event"",""trial"",""time""
""fullscreenenter"",""0"",""3359""
","
","null","run_exp/static/images/Set 6_rs/010a.jpg","null","","","","","","learn","SR",""
"","html-keyboard-response","189","199811","0.0-189.0","""event"",""trial"",""time""
""fullscreenenter"",""0"",""3359""
","
","
","""event"",""trial"",""time""
""fullscreenenter"",""0"",""3359""
","
","null","<p></p>","null","","","","","","","",""
"","image","190","200796","0.0-190.0","""event"",""trial"",""time""
""fullscreenenter"",""0"",""3359""
","
","
","""event"",""trial"",""time""
""fullscreenenter"",""0"",""3359""
","
","983.0999999940395","run_exp/static/images/Set 6_rs/181a.jpg","78","","","","","","learn","SL",""
"","show_choice","191","201814","0.0-191.0","""event"",""trial"",""time""
""fullscreenenter"",""0"",""3359""
","
","
","""event"",""trial"",""time""
""fullscreenenter"",""0"",""3359""
","
","null","run_exp/static/images/Set 6_rs/181a.jpg","null","","","","","","learn","SL",""
"","html-keyboard-response","192","202317","0.0-192.0","""event"",""trial"",""time""
""fullscreenenter"",""0"",""3359""
","
","
","""event"",""trial"",""time""
""fullscreenenter"",""0"",""3359""
","
","null","<p></p>","null","","","","","","","",""
"","image","193","203388","0.0-193.0","""event"",""trial"",""time""
""fullscreenenter"",""0"",""3359""
","
","
","""event"",""trial"",""time""
""fullscreenenter"",""0"",""3359""
","
","1069.7999999821186","run_exp/static/images/Set 6_rs/057a.jpg","86","","","","","","learn","SL",""
"","show_choice","194","204321","0.0-194.0","""event"",""trial"",""time""
""fullscreenenter"",""0"",""3359""
","
","
","""event"",""trial"",""time""
""fullscreenenter"",""0"",""3359""
","
","null","run_exp/static/images/Set 6_rs/057a.jpg","null","","","","","","learn","SL",""
"","html-keyboard-response","195","204822","0.0-195.0","""event"",""trial"",""time""
""fullscreenenter"",""0"",""3359""
""blur"",""196"",""218817""
""focus"",""196"",""221274""
""blur"",""196"",""224404""
""focus"",""196"",""232705""
""fullscreenexit"",""196"",""237993""
""blur"",""196"",""238858""
","""event"",""trial"",""time""
""blur"",""196"",""218817""
""blur"",""196"",""224404""
""blur"",""196"",""238858""
","""event"",""trial"",""time""
""focus"",""196"",""221274""
""focus"",""196"",""232705""
","""event"",""trial"",""time""
""fullscreenenter"",""0"",""3359""
","""event"",""trial"",""time""
""fullscreenexit"",""196"",""237993""
","null","<p></p>","null","","","","","","","",""
"","test_intro","196","241678","0.0-196.0","""event"",""trial"",""time""
""fullscreenenter"",""0"",""3359""
""blur"",""196"",""218817""
""focus"",""196"",""221274""
""blur"",""196"",""224404""
""focus"",""196"",""232705""
""fullscreenexit"",""196"",""237993""
""blur"",""196"",""238858""
""focus"",""197"",""242869""
""blur"",""197"",""247682""
""focus"",""197"",""277607""
","""event"",""trial"",""time""
""blur"",""196"",""218817""
""blur"",""196"",""224404""
""blur"",""196"",""238858""
""blur"",""197"",""247682""
","""event"",""trial"",""time""
""focus"",""196"",""221274""
""focus"",""196"",""232705""
""focus"",""197"",""242869""
""focus"",""197"",""277607""
","""event"",""trial"",""time""
""fullscreenenter"",""0"",""3359""
","""event"",""trial"",""time""
""fullscreenexit"",""196"",""237993""
","null","run_exp/static/audio/clip_2_memory.m4a","null","","","","","<div class='center'><p>Now, lets see how much you remember about the items you just saw.  For each item, you need to indicate if it was <b>old</b> by pressing the <b>v</b> key, <b>similar</b> by pressing the <b>b</b> key, or <b>new</b> by pressing the <b>n</b> key.</p><p>Old refers to an item that you saw before in the indoor/outdoor game that you just played, new refers to an item you have <b>not</b> seen before within the indoor/outdoor game, and similar refers to an item that is similar to an item youve seen before but is not exactly the same. </p><p>Before we begin, lets go over some brief demonstrations to make sure you understand.</p></div>","","",""
"","html-keyboard-response","197","280106","0.0-197.0","""event"",""trial"",""time""
""fullscreenenter"",""0"",""3359""
""blur"",""196"",""218817""
""focus"",""196"",""221274""
""blur"",""196"",""224404""
""focus"",""196"",""232705""
""fullscreenexit"",""196"",""237993""
""blur"",""196"",""238858""
""focus"",""197"",""242869""
""blur"",""197"",""247682""
""focus"",""197"",""277607""
","""event"",""trial"",""time""
""blur"",""196"",""218817""
""blur"",""196"",""224404""
""blur"",""196"",""238858""
""blur"",""197"",""247682""
","""event"",""trial"",""time""
""focus"",""196"",""221274""
""focus"",""196"",""232705""
""focus"",""197"",""242869""
""focus"",""197"",""277607""
","""event"",""trial"",""time""
""fullscreenenter"",""0"",""3359""
","""event"",""trial"",""time""
""fullscreenexit"",""196"",""237993""
","38425.80000001192","<div class='center'><p>Now, lets see how much you remember about the items you just saw.  For each item, you need to indicate if it was <b>old</b> by pressing the <b>v</b> key, <b>similar</b> by pressing the <b>b</b> key, or <b>new</b> by pressing the <b>n</b> key.</p><p>Old refers to an item that you saw before in the indoor/outdoor game that you just played, new refers to an item you have <b>not</b> seen before within the indoor/outdoor game, and similar refers to an item that is similar to an item youve seen before but is not exactly the same. </p><p>Before we begin, lets go over some brief demonstrations to make sure you understand.</p><div><p><b>[Press the space bar to continue]</b></p></div>","32","","","","","","","",""
"","items","198","287607","0.0-198.0","""event"",""trial"",""time""
""fullscreenenter"",""0"",""3359""
""blur"",""196"",""218817""
""focus"",""196"",""221274""
""blur"",""196"",""224404""
""focus"",""196"",""232705""
""fullscreenexit"",""196"",""237993""
""blur"",""196"",""238858""
""focus"",""197"",""242869""
""blur"",""197"",""247682""
""focus"",""197"",""277607""
","""event"",""trial"",""time""
""blur"",""196"",""218817""
""blur"",""196"",""224404""
""blur"",""196"",""238858""
""blur"",""197"",""247682""
","""event"",""trial"",""time""
""focus"",""196"",""221274""
""focus"",""196"",""232705""
""focus"",""197"",""242869""
""focus"",""197"",""277607""
","""event"",""trial"",""time""
""fullscreenenter"",""0"",""3359""
","""event"",""trial"",""time""
""fullscreenexit"",""196"",""237993""
","null","run_exp/static/audio/clip_3_items.m4a","null","","","","","","","",""
"","mop","199","292112","0.0-199.0","""event"",""trial"",""time""
""fullscreenenter"",""0"",""3359""
""blur"",""196"",""218817""
""focus"",""196"",""221274""
""blur"",""196"",""224404""
""focus"",""196"",""232705""
""fullscreenexit"",""196"",""237993""
""blur"",""196"",""238858""
""focus"",""197"",""242869""
""blur"",""197"",""247682""
""focus"",""197"",""277607""
","""event"",""trial"",""time""
""blur"",""196"",""218817""
""blur"",""196"",""224404""
""blur"",""196"",""238858""
""blur"",""197"",""247682""
","""event"",""trial"",""time""
""focus"",""196"",""221274""
""focus"",""196"",""232705""
""focus"",""197"",""242869""
""focus"",""197"",""277607""
","""event"",""trial"",""time""
""fullscreenenter"",""0"",""3359""
","""event"",""trial"",""time""
""fullscreenexit"",""196"",""237993""
","null","run_exp/static/audio/clip_4_mop.m4a","null","","","","","","","",""
"","baseball","200","295616","0.0-200.0","""event"",""trial"",""time""
""fullscreenenter"",""0"",""3359""
""blur"",""196"",""218817""
""focus"",""196"",""221274""
""blur"",""196"",""224404""
""focus"",""196"",""232705""
""fullscreenexit"",""196"",""237993""
""blur"",""196"",""238858""
""focus"",""197"",""242869""
""blur"",""197"",""247682""
""focus"",""197"",""277607""
","""event"",""trial"",""time""
""blur"",""196"",""218817""
""blur"",""196"",""224404""
""blur"",""196"",""238858""
""blur"",""197"",""247682""
","""event"",""trial"",""time""
""focus"",""196"",""221274""
""focus"",""196"",""232705""
""focus"",""197"",""242869""
""focus"",""197"",""277607""
","""event"",""trial"",""time""
""fullscreenenter"",""0"",""3359""
","""event"",""trial"",""time""
""fullscreenexit"",""196"",""237993""
","null","run_exp/static/audio/clip_5_baseball.m4a","null","","","","","","","",""
"","trumpet","201","299119","0.0-201.0","""event"",""trial"",""time""
""fullscreenenter"",""0"",""3359""
""blur"",""196"",""218817""
""focus"",""196"",""221274""
""blur"",""196"",""224404""
""focus"",""196"",""232705""
""fullscreenexit"",""196"",""237993""
""blur"",""196"",""238858""
""focus"",""197"",""242869""
""blur"",""197"",""247682""
""focus"",""197"",""277607""
","""event"",""trial"",""time""
""blur"",""196"",""218817""
""blur"",""196"",""224404""
""blur"",""196"",""238858""
""blur"",""197"",""247682""
","""event"",""trial"",""time""
""focus"",""196"",""221274""
""focus"",""196"",""232705""
""focus"",""197"",""242869""
""focus"",""197"",""277607""
","""event"",""trial"",""time""
""fullscreenenter"",""0"",""3359""
","""event"",""trial"",""time""
""fullscreenexit"",""196"",""237993""
","null","run_exp/static/audio/clip_6_trumpet.m4a","null","","","","","","","",""
"","gummies","202","302622","0.0-202.0","""event"",""trial"",""time""
""fullscreenenter"",""0"",""3359""
""blur"",""196"",""218817""
""focus"",""196"",""221274""
""blur"",""196"",""224404""
""focus"",""196"",""232705""
""fullscreenexit"",""196"",""237993""
""blur"",""196"",""238858""
""focus"",""197"",""242869""
""blur"",""197"",""247682""
""focus"",""197"",""277607""
","""event"",""trial"",""time""
""blur"",""196"",""218817""
""blur"",""196"",""224404""
""blur"",""196"",""238858""
""blur"",""197"",""247682""
","""event"",""trial"",""time""
""focus"",""196"",""221274""
""focus"",""196"",""232705""
""focus"",""197"",""242869""
""focus"",""197"",""277607""
","""event"",""trial"",""time""
""fullscreenenter"",""0"",""3359""
","""event"",""trial"",""time""
""fullscreenexit"",""196"",""237993""
","null","run_exp/static/audio/clip_7_gummies.m4a","null","","","","","","","",""
"","osn","203","307124","0.0-203.0","""event"",""trial"",""time""
""fullscreenenter"",""0"",""3359""
""blur"",""196"",""218817""
""focus"",""196"",""221274""
""blur"",""196"",""224404""
""focus"",""196"",""232705""
""fullscreenexit"",""196"",""237993""
""blur"",""196"",""238858""
""focus"",""197"",""242869""
""blur"",""197"",""247682""
""focus"",""197"",""277607""
","""event"",""trial"",""time""
""blur"",""196"",""218817""
""blur"",""196"",""224404""
""blur"",""196"",""238858""
""blur"",""197"",""247682""
","""event"",""trial"",""time""
""focus"",""196"",""221274""
""focus"",""196"",""232705""
""focus"",""197"",""242869""
""focus"",""197"",""277607""
","""event"",""trial"",""time""
""fullscreenenter"",""0"",""3359""
","""event"",""trial"",""time""
""fullscreenexit"",""196"",""237993""
","null","run_exp/static/audio/clip_8_osn.m4a","null","","","","","","","",""
"","old_1","204","313628","0.0-204.0","""event"",""trial"",""time""
""fullscreenenter"",""0"",""3359""
""blur"",""196"",""218817""
""focus"",""196"",""221274""
""blur"",""196"",""224404""
""focus"",""196"",""232705""
""fullscreenexit"",""196"",""237993""
""blur"",""196"",""238858""
""focus"",""197"",""242869""
""blur"",""197"",""247682""
""focus"",""197"",""277607""
","""event"",""trial"",""time""
""blur"",""196"",""218817""
""blur"",""196"",""224404""
""blur"",""196"",""238858""
""blur"",""197"",""247682""
","""event"",""trial"",""time""
""focus"",""196"",""221274""
""focus"",""196"",""232705""
""focus"",""197"",""242869""
""focus"",""197"",""277607""
","""event"",""trial"",""time""
""fullscreenenter"",""0"",""3359""
","""event"",""trial"",""time""
""fullscreenexit"",""196"",""237993""
","null","run_exp/static/audio/clip_9_old_trumpet.m4a","null","","","","","","","",""
"","new_1","205","321132","0.0-205.0","""event"",""trial"",""time""
""fullscreenenter"",""0"",""3359""
""blur"",""196"",""218817""
""focus"",""196"",""221274""
""blur"",""196"",""224404""
""focus"",""196"",""232705""
""fullscreenexit"",""196"",""237993""
""blur"",""196"",""238858""
""focus"",""197"",""242869""
""blur"",""197"",""247682""
""focus"",""197"",""277607""
","""event"",""trial"",""time""
""blur"",""196"",""218817""
""blur"",""196"",""224404""
""blur"",""196"",""238858""
""blur"",""197"",""247682""
","""event"",""trial"",""time""
""focus"",""196"",""221274""
""focus"",""196"",""232705""
""focus"",""197"",""242869""
""focus"",""197"",""277607""
","""event"",""trial"",""time""
""fullscreenenter"",""0"",""3359""
","""event"",""trial"",""time""
""fullscreenexit"",""196"",""237993""
","null","run_exp/static/audio/clip_10_new_balloon.m4a","null","","","","","","","",""
"","similar_1a","206","325636","0.0-206.0","""event"",""trial"",""time""
""fullscreenenter"",""0"",""3359""
""blur"",""196"",""218817""
""focus"",""196"",""221274""
""blur"",""196"",""224404""
""focus"",""196"",""232705""
""fullscreenexit"",""196"",""237993""
""blur"",""196"",""238858""
""focus"",""197"",""242869""
""blur"",""197"",""247682""
""focus"",""197"",""277607""
","""event"",""trial"",""time""
""blur"",""196"",""218817""
""blur"",""196"",""224404""
""blur"",""196"",""238858""
""blur"",""197"",""247682""
","""event"",""trial"",""time""
""focus"",""196"",""221274""
""focus"",""196"",""232705""
""focus"",""197"",""242869""
""focus"",""197"",""277607""
","""event"",""trial"",""time""
""fullscreenenter"",""0"",""3359""
","""event"",""trial"",""time""
""fullscreenexit"",""196"",""237993""
","null","run_exp/static/audio/clip_11a_similar_mop.m4a","null","","","","","","","",""
"","similar_1b","207","332140","0.0-207.0","""event"",""trial"",""time""
""fullscreenenter"",""0"",""3359""
""blur"",""196"",""218817""
""focus"",""196"",""221274""
""blur"",""196"",""224404""
""focus"",""196"",""232705""
""fullscreenexit"",""196"",""237993""
""blur"",""196"",""238858""
""focus"",""197"",""242869""
""blur"",""197"",""247682""
""focus"",""197"",""277607""
","""event"",""trial"",""time""
""blur"",""196"",""218817""
""blur"",""196"",""224404""
""blur"",""196"",""238858""
""blur"",""197"",""247682""
","""event"",""trial"",""time""
""focus"",""196"",""221274""
""focus"",""196"",""232705""
""focus"",""197"",""242869""
""focus"",""197"",""277607""
","""event"",""trial"",""time""
""fullscreenenter"",""0"",""3359""
","""event"",""trial"",""time""
""fullscreenexit"",""196"",""237993""
","null","run_exp/static/audio/clip_11b_similar_mop.m4a","null","","","","","","","",""
"","new_2","208","335642","0.0-208.0","""event"",""trial"",""time""
""fullscreenenter"",""0"",""3359""
""blur"",""196"",""218817""
""focus"",""196"",""221274""
""blur"",""196"",""224404""
""focus"",""196"",""232705""
""fullscreenexit"",""196"",""237993""
""blur"",""196"",""238858""
""focus"",""197"",""242869""
""blur"",""197"",""247682""
""focus"",""197"",""277607""
","""event"",""trial"",""time""
""blur"",""196"",""218817""
""blur"",""196"",""224404""
""blur"",""196"",""238858""
""blur"",""197"",""247682""
","""event"",""trial"",""time""
""focus"",""196"",""221274""
""focus"",""196"",""232705""
""focus"",""197"",""242869""
""focus"",""197"",""277607""
","""event"",""trial"",""time""
""fullscreenenter"",""0"",""3359""
","""event"",""trial"",""time""
""fullscreenexit"",""196"",""237993""
","null","run_exp/static/audio/clip_12_new_stoplight.m4a","null","","","","","","","",""
"","old_2","209","339146","0.0-209.0","""event"",""trial"",""time""
""fullscreenenter"",""0"",""3359""
""blur"",""196"",""218817""
""focus"",""196"",""221274""
""blur"",""196"",""224404""
""focus"",""196"",""232705""
""fullscreenexit"",""196"",""237993""
""blur"",""196"",""238858""
""focus"",""197"",""242869""
""blur"",""197"",""247682""
""focus"",""197"",""277607""
","""event"",""trial"",""time""
""blur"",""196"",""218817""
""blur"",""196"",""224404""
""blur"",""196"",""238858""
""blur"",""197"",""247682""
","""event"",""trial"",""time""
""focus"",""196"",""221274""
""focus"",""196"",""232705""
""focus"",""197"",""242869""
""focus"",""197"",""277607""
","""event"",""trial"",""time""
""fullscreenenter"",""0"",""3359""
","""event"",""trial"",""time""
""fullscreenexit"",""196"",""237993""
","null","run_exp/static/audio/clip_13_old_baseball.m4a","null","","","","","","","",""
"","similar_2a","210","342650","0.0-210.0","""event"",""trial"",""time""
""fullscreenenter"",""0"",""3359""
""blur"",""196"",""218817""
""focus"",""196"",""221274""
""blur"",""196"",""224404""
""focus"",""196"",""232705""
""fullscreenexit"",""196"",""237993""
""blur"",""196"",""238858""
""focus"",""197"",""242869""
""blur"",""197"",""247682""
""focus"",""197"",""277607""
","""event"",""trial"",""time""
""blur"",""196"",""218817""
""blur"",""196"",""224404""
""blur"",""196"",""238858""
""blur"",""197"",""247682""
","""event"",""trial"",""time""
""focus"",""196"",""221274""
""focus"",""196"",""232705""
""focus"",""197"",""242869""
""focus"",""197"",""277607""
","""event"",""trial"",""time""
""fullscreenenter"",""0"",""3359""
","""event"",""trial"",""time""
""fullscreenexit"",""196"",""237993""
","null","run_exp/static/audio/clip_14a_similar_gummies.m4a","null","","","","","","","",""
"","similar_2b","211","350153","0.0-211.0","""event"",""trial"",""time""
""fullscreenenter"",""0"",""3359""
""blur"",""196"",""218817""
""focus"",""196"",""221274""
""blur"",""196"",""224404""
""focus"",""196"",""232705""
""fullscreenexit"",""196"",""237993""
""blur"",""196"",""238858""
""focus"",""197"",""242869""
""blur"",""197"",""247682""
""focus"",""197"",""277607""
","""event"",""trial"",""time""
""blur"",""196"",""218817""
""blur"",""196"",""224404""
""blur"",""196"",""238858""
""blur"",""197"",""247682""
","""event"",""trial"",""time""
""focus"",""196"",""221274""
""focus"",""196"",""232705""
""focus"",""197"",""242869""
""focus"",""197"",""277607""
","""event"",""trial"",""time""
""fullscreenenter"",""0"",""3359""
","""event"",""trial"",""time""
""fullscreenexit"",""196"",""237993""
","null","run_exp/static/audio/clip_14b_similar_gummies.m4a","null","","","","","","","",""
"","practice","212","392278","0.0-212.0","""event"",""trial"",""time""
""fullscreenenter"",""0"",""3359""
""blur"",""196"",""218817""
""focus"",""196"",""221274""
""blur"",""196"",""224404""
""focus"",""196"",""232705""
""fullscreenexit"",""196"",""237993""
""blur"",""196"",""238858""
""focus"",""197"",""242869""
""blur"",""197"",""247682""
""focus"",""197"",""277607""
","""event"",""trial"",""time""
""blur"",""196"",""218817""
""blur"",""196"",""224404""
""blur"",""196"",""238858""
""blur"",""197"",""247682""
","""event"",""trial"",""time""
""focus"",""196"",""221274""
""focus"",""196"",""232705""
""focus"",""197"",""242869""
""focus"",""197"",""277607""
","""event"",""trial"",""time""
""fullscreenenter"",""0"",""3359""
","""event"",""trial"",""time""
""fullscreenexit"",""196"",""237993""
","null","run_exp/static/audio/clip_15_practice.m4a","null","","","","","<div class='center'><p>Lets practice a little to make sure you understand the difference between new, similar, and old. Lets say you saw these three items in the indoor/outdoor game.</p><p> Try your best to remember these images because youll soon be tested on them in a practice game. In the practice game, youll be shown images and youll have to say if they are old (one of the three images belows), similar (similar to one of the images below but not exactly the same), or new (are not one of the images below nor similar to them).</p><p>Once you press the space bar youll be shown these images again but one at time. Then youll begin the practice game.</p><p><img src='run_exp/static/images/tutorial/test/three_indoor_outdoor.png' height='300'></p></div>","","",""
"","html-keyboard-response","213","392450","0.0-213.0","""event"",""trial"",""time""
""fullscreenenter"",""0"",""3359""
""blur"",""196"",""218817""
""focus"",""196"",""221274""
""blur"",""196"",""224404""
""focus"",""196"",""232705""
""fullscreenexit"",""196"",""237993""
""blur"",""196"",""238858""
""focus"",""197"",""242869""
""blur"",""197"",""247682""
""focus"",""197"",""277607""
","""event"",""trial"",""time""
""blur"",""196"",""218817""
""blur"",""196"",""224404""
""blur"",""196"",""238858""
""blur"",""197"",""247682""
","""event"",""trial"",""time""
""focus"",""196"",""221274""
""focus"",""196"",""232705""
""focus"",""197"",""242869""
""focus"",""197"",""277607""
","""event"",""trial"",""time""
""fullscreenenter"",""0"",""3359""
","""event"",""trial"",""time""
""fullscreenexit"",""196"",""237993""
","169.09999999403954","<div class='center'><p>Lets practice a little to make sure you understand the difference between new, similar, and old. Lets say you saw these three items in the indoor/outdoor game.</p><p> Try your best to remember these images because youll soon be tested on them in a practice game. In the practice game, youll be shown images and youll have to say if they are old (one of the three images belows), similar (similar to one of the images below but not exactly the same), or new (are not one of the images below nor similar to them).</p><p>Once you press the space bar youll be shown these images again but one at time. Then youll begin the practice game.</p><p><img src='run_exp/static/images/tutorial/test/three_indoor_outdoor.png' height='300'></p><div><p><b>[Press the space bar to continue]</b></p></div>","32","","","","","","","",""
"","planet","214","394452","0.0-214.0","""event"",""trial"",""time""
""fullscreenenter"",""0"",""3359""
""blur"",""196"",""218817""
""focus"",""196"",""221274""
""blur"",""196"",""224404""
""focus"",""196"",""232705""
""fullscreenexit"",""196"",""237993""
""blur"",""196"",""238858""
""focus"",""197"",""242869""
""blur"",""197"",""247682""
""focus"",""197"",""277607""
","""event"",""trial"",""time""
""blur"",""196"",""218817""
""blur"",""196"",""224404""
""blur"",""196"",""238858""
""blur"",""197"",""247682""
","""event"",""trial"",""time""
""focus"",""196"",""221274""
""focus"",""196"",""232705""
""focus"",""197"",""242869""
""focus"",""197"",""277607""
","""event"",""trial"",""time""
""fullscreenenter"",""0"",""3359""
","""event"",""trial"",""time""
""fullscreenexit"",""196"",""237993""
","null","run_exp/static/images/tutorial/test/008a.jpg","null","","","","","","","",""
"","boot","215","396454","0.0-215.0","""event"",""trial"",""time""
""fullscreenenter"",""0"",""3359""
""blur"",""196"",""218817""
""focus"",""196"",""221274""
""blur"",""196"",""224404""
""focus"",""196"",""232705""
""fullscreenexit"",""196"",""237993""
""blur"",""196"",""238858""
""focus"",""197"",""242869""
""blur"",""197"",""247682""
""focus"",""197"",""277607""
","""event"",""trial"",""time""
""blur"",""196"",""218817""
""blur"",""196"",""224404""
""blur"",""196"",""238858""
""blur"",""197"",""247682""
","""event"",""trial"",""time""
""focus"",""196"",""221274""
""focus"",""196"",""232705""
""focus"",""197"",""242869""
""focus"",""197"",""277607""
","""event"",""trial"",""time""
""fullscreenenter"",""0"",""3359""
","""event"",""trial"",""time""
""fullscreenexit"",""196"",""237993""
","null","run_exp/static/images/tutorial/test/011a.jpg","null","","","","","","","",""
"","lemon","216","398457","0.0-216.0","""event"",""trial"",""time""
""fullscreenenter"",""0"",""3359""
""blur"",""196"",""218817""
""focus"",""196"",""221274""
""blur"",""196"",""224404""
""focus"",""196"",""232705""
""fullscreenexit"",""196"",""237993""
""blur"",""196"",""238858""
""focus"",""197"",""242869""
""blur"",""197"",""247682""
""focus"",""197"",""277607""
","""event"",""trial"",""time""
""blur"",""196"",""218817""
""blur"",""196"",""224404""
""blur"",""196"",""238858""
""blur"",""197"",""247682""
","""event"",""trial"",""time""
""focus"",""196"",""221274""
""focus"",""196"",""232705""
""focus"",""197"",""242869""
""focus"",""197"",""277607""
","""event"",""trial"",""time""
""fullscreenenter"",""0"",""3359""
","""event"",""trial"",""time""
""fullscreenexit"",""196"",""237993""
","null","run_exp/static/images/tutorial/test/018a.jpg","null","","","","","","","",""
"","practice_q1","217","405326","0.0-217.0","""event"",""trial"",""time""
""fullscreenenter"",""0"",""3359""
""blur"",""196"",""218817""
""focus"",""196"",""221274""
""blur"",""196"",""224404""
""focus"",""196"",""232705""
""fullscreenexit"",""196"",""237993""
""blur"",""196"",""238858""
""focus"",""197"",""242869""
""blur"",""197"",""247682""
""focus"",""197"",""277607""
","""event"",""trial"",""time""
""blur"",""196"",""218817""
""blur"",""196"",""224404""
""blur"",""196"",""238858""
""blur"",""197"",""247682""
","""event"",""trial"",""time""
""focus"",""196"",""221274""
""focus"",""196"",""232705""
""focus"",""197"",""242869""
""focus"",""197"",""277607""
","""event"",""trial"",""time""
""fullscreenenter"",""0"",""3359""
","""event"",""trial"",""time""
""fullscreenexit"",""196"",""237993""
","6866.0999999940395","run_exp/static/audio/clip_16_practice_question.m4a","78","","","","","","","",""
"","correct","218","407238","0.0-218.0-0.0","""event"",""trial"",""time""
""fullscreenenter"",""0"",""3359""
""blur"",""196"",""218817""
""focus"",""196"",""221274""
""blur"",""196"",""224404""
""focus"",""196"",""232705""
""fullscreenexit"",""196"",""237993""
""blur"",""196"",""238858""
""focus"",""197"",""242869""
""blur"",""197"",""247682""
""focus"",""197"",""277607""
","""event"",""trial"",""time""
""blur"",""196"",""218817""
""blur"",""196"",""224404""
""blur"",""196"",""238858""
""blur"",""197"",""247682""
","""event"",""trial"",""time""
""focus"",""196"",""221274""
""focus"",""196"",""232705""
""focus"",""197"",""242869""
""focus"",""197"",""277607""
","""event"",""trial"",""time""
""fullscreenenter"",""0"",""3359""
","""event"",""trial"",""time""
""fullscreenexit"",""196"",""237993""
","null","run_exp/static/audio/clip_17_correct.m4a","null","","","","","<div class='center'><p>That's correct!</p></div>","","",""
"","html-keyboard-response","219","409100","0.0-218.0-1.0","""event"",""trial"",""time""
""fullscreenenter"",""0"",""3359""
""blur"",""196"",""218817""
""focus"",""196"",""221274""
""blur"",""196"",""224404""
""focus"",""196"",""232705""
""fullscreenexit"",""196"",""237993""
""blur"",""196"",""238858""
""focus"",""197"",""242869""
""blur"",""197"",""247682""
""focus"",""197"",""277607""
","""event"",""trial"",""time""
""blur"",""196"",""218817""
""blur"",""196"",""224404""
""blur"",""196"",""238858""
""blur"",""197"",""247682""
","""event"",""trial"",""time""
""focus"",""196"",""221274""
""focus"",""196"",""232705""
""focus"",""197"",""242869""
""focus"",""197"",""277607""
","""event"",""trial"",""time""
""fullscreenenter"",""0"",""3359""
","""event"",""trial"",""time""
""fullscreenexit"",""196"",""237993""
","1859.800000011921","<div class='center'><p>That's correct!</p><div><p><b>[Press the space bar to continue]</b></p></div>","32","","","","","","","",""
"","practice_q2","220","412412","0.0-218.0-2.0","""event"",""trial"",""time""
""fullscreenenter"",""0"",""3359""
""blur"",""196"",""218817""
""focus"",""196"",""221274""
""blur"",""196"",""224404""
""focus"",""196"",""232705""
""fullscreenexit"",""196"",""237993""
""blur"",""196"",""238858""
""focus"",""197"",""242869""
""blur"",""197"",""247682""
""focus"",""197"",""277607""
","""event"",""trial"",""time""
""blur"",""196"",""218817""
""blur"",""196"",""224404""
""blur"",""196"",""238858""
""blur"",""197"",""247682""
","""event"",""trial"",""time""
""focus"",""196"",""221274""
""focus"",""196"",""232705""
""focus"",""197"",""242869""
""focus"",""197"",""277607""
","""event"",""trial"",""time""
""fullscreenenter"",""0"",""3359""
","""event"",""trial"",""time""
""fullscreenexit"",""196"",""237993""
","3309.5","run_exp/static/audio/clip_16_practice_question.m4a","86","","","","","","","",""
"","correct","221","414318","0.0-219.0-0.0","""event"",""trial"",""time""
""fullscreenenter"",""0"",""3359""
""blur"",""196"",""218817""
""focus"",""196"",""221274""
""blur"",""196"",""224404""
""focus"",""196"",""232705""
""fullscreenexit"",""196"",""237993""
""blur"",""196"",""238858""
""focus"",""197"",""242869""
""blur"",""197"",""247682""
""focus"",""197"",""277607""
","""event"",""trial"",""time""
""blur"",""196"",""218817""
""blur"",""196"",""224404""
""blur"",""196"",""238858""
""blur"",""197"",""247682""
","""event"",""trial"",""time""
""focus"",""196"",""221274""
""focus"",""196"",""232705""
""focus"",""197"",""242869""
""focus"",""197"",""277607""
","""event"",""trial"",""time""
""fullscreenenter"",""0"",""3359""
","""event"",""trial"",""time""
""fullscreenexit"",""196"",""237993""
","null","run_exp/static/audio/clip_17_correct.m4a","null","","","","","<div class='center'><p>That's correct!</p></div>","","",""
"","html-keyboard-response","222","415267","0.0-219.0-1.0","""event"",""trial"",""time""
""fullscreenenter"",""0"",""3359""
""blur"",""196"",""218817""
""focus"",""196"",""221274""
""blur"",""196"",""224404""
""focus"",""196"",""232705""
""fullscreenexit"",""196"",""237993""
""blur"",""196"",""238858""
""focus"",""197"",""242869""
""blur"",""197"",""247682""
""focus"",""197"",""277607""
","""event"",""trial"",""time""
""blur"",""196"",""218817""
""blur"",""196"",""224404""
""blur"",""196"",""238858""
""blur"",""197"",""247682""
","""event"",""trial"",""time""
""focus"",""196"",""221274""
""focus"",""196"",""232705""
""focus"",""197"",""242869""
""focus"",""197"",""277607""
","""event"",""trial"",""time""
""fullscreenenter"",""0"",""3359""
","""event"",""trial"",""time""
""fullscreenexit"",""196"",""237993""
","947.5999999940395","<div class='center'><p>That's correct!</p><div><p><b>[Press the space bar to continue]</b></p></div>","32","","","","","","","",""
"","practice_q3","223","417117","0.0-219.0-2.0","""event"",""trial"",""time""
""fullscreenenter"",""0"",""3359""
""blur"",""196"",""218817""
""focus"",""196"",""221274""
""blur"",""196"",""224404""
""focus"",""196"",""232705""
""fullscreenexit"",""196"",""237993""
""blur"",""196"",""238858""
""focus"",""197"",""242869""
""blur"",""197"",""247682""
""focus"",""197"",""277607""
","""event"",""trial"",""time""
""blur"",""196"",""218817""
""blur"",""196"",""224404""
""blur"",""196"",""238858""
""blur"",""197"",""247682""
","""event"",""trial"",""time""
""focus"",""196"",""221274""
""focus"",""196"",""232705""
""focus"",""197"",""242869""
""focus"",""197"",""277607""
","""event"",""trial"",""time""
""fullscreenenter"",""0"",""3359""
","""event"",""trial"",""time""
""fullscreenexit"",""196"",""237993""
","1847.5999999940395","run_exp/static/audio/clip_16_practice_question.m4a","86","","","","","","","",""
"","incorrect_q3","224","419878","0.0-220.0-0.0","""event"",""trial"",""time""
""fullscreenenter"",""0"",""3359""
""blur"",""196"",""218817""
""focus"",""196"",""221274""
""blur"",""196"",""224404""
""focus"",""196"",""232705""
""fullscreenexit"",""196"",""237993""
""blur"",""196"",""238858""
""focus"",""197"",""242869""
""blur"",""197"",""247682""
""focus"",""197"",""277607""
","""event"",""trial"",""time""
""blur"",""196"",""218817""
""blur"",""196"",""224404""
""blur"",""196"",""238858""
""blur"",""197"",""247682""
","""event"",""trial"",""time""
""focus"",""196"",""221274""
""focus"",""196"",""232705""
""focus"",""197"",""242869""
""focus"",""197"",""277607""
","""event"",""trial"",""time""
""fullscreenenter"",""0"",""3359""
","""event"",""trial"",""time""
""fullscreenexit"",""196"",""237993""
","null","run_exp/static/audio/clip_20_incorrect_similar.m4a","null","","","","","<div class='center'><p>Thats incorrect. Its similar.</p><p><img src='run_exp/static/images/tutorial/test/boot_comparison.png' height='300'></p></div>","","",""
"","html-keyboard-response","225","420987","0.0-220.0-1.0","""event"",""trial"",""time""
""fullscreenenter"",""0"",""3359""
""blur"",""196"",""218817""
""focus"",""196"",""221274""
""blur"",""196"",""224404""
""focus"",""196"",""232705""
""fullscreenexit"",""196"",""237993""
""blur"",""196"",""238858""
""focus"",""197"",""242869""
""blur"",""197"",""247682""
""focus"",""197"",""277607""
","""event"",""trial"",""time""
""blur"",""196"",""218817""
""blur"",""196"",""224404""
""blur"",""196"",""238858""
""blur"",""197"",""247682""
","""event"",""trial"",""time""
""focus"",""196"",""221274""
""focus"",""196"",""232705""
""focus"",""197"",""242869""
""focus"",""197"",""277607""
","""event"",""trial"",""time""
""fullscreenenter"",""0"",""3359""
","""event"",""trial"",""time""
""fullscreenexit"",""196"",""237993""
","1107.4000000059605","<div class='center'><p>Thats incorrect. Its similar.</p><p><img src='run_exp/static/images/tutorial/test/boot_comparison.png' height='300'></p><div><p><b>[Press the space bar to continue]</b></p></div>","32","","","","","","","",""
"","repeat","226","425758","0.0-221.0-0.0","""event"",""trial"",""time""
""fullscreenenter"",""0"",""3359""
""blur"",""196"",""218817""
""focus"",""196"",""221274""
""blur"",""196"",""224404""
""focus"",""196"",""232705""
""fullscreenexit"",""196"",""237993""
""blur"",""196"",""238858""
""focus"",""197"",""242869""
""blur"",""197"",""247682""
""focus"",""197"",""277607""
","""event"",""trial"",""time""
""blur"",""196"",""218817""
""blur"",""196"",""224404""
""blur"",""196"",""238858""
""blur"",""197"",""247682""
","""event"",""trial"",""time""
""focus"",""196"",""221274""
""focus"",""196"",""232705""
""focus"",""197"",""242869""
""focus"",""197"",""277607""
","""event"",""trial"",""time""
""fullscreenenter"",""0"",""3359""
","""event"",""trial"",""time""
""fullscreenexit"",""196"",""237993""
","null","run_exp/static/audio/clip_21_practice_again.m4a","null","","","","","<div class='center'><p>Oops. you missed at least one of these questions. Let's try practicing again. </p></div>","","",""
"","html-keyboard-response","227","426557","0.0-221.0-1.0","""event"",""trial"",""time""
""fullscreenenter"",""0"",""3359""
""blur"",""196"",""218817""
""focus"",""196"",""221274""
""blur"",""196"",""224404""
""focus"",""196"",""232705""
""fullscreenexit"",""196"",""237993""
""blur"",""196"",""238858""
""focus"",""197"",""242869""
""blur"",""197"",""247682""
""focus"",""197"",""277607""
","""event"",""trial"",""time""
""blur"",""196"",""218817""
""blur"",""196"",""224404""
""blur"",""196"",""238858""
""blur"",""197"",""247682""
","""event"",""trial"",""time""
""focus"",""196"",""221274""
""focus"",""196"",""232705""
""focus"",""197"",""242869""
""focus"",""197"",""277607""
","""event"",""trial"",""time""
""fullscreenenter"",""0"",""3359""
","""event"",""trial"",""time""
""fullscreenexit"",""196"",""237993""
","797.0999999940395","<div class='center'><p>Oops. you missed at least one of these questions. Let's try practicing again. </p><div><p><b>[Press the space bar to continue]</b></p></div>","32","","","","","","","",""
"","practice_q1","228","426576","0.0-221.0-2.0","""event"",""trial"",""time""
""fullscreenenter"",""0"",""3359""
""blur"",""196"",""218817""
""focus"",""196"",""221274""
""blur"",""196"",""224404""
""focus"",""196"",""232705""
""fullscreenexit"",""196"",""237993""
""blur"",""196"",""238858""
""focus"",""197"",""242869""
""blur"",""197"",""247682""
""focus"",""197"",""277607""
","""event"",""trial"",""time""
""blur"",""196"",""218817""
""blur"",""196"",""224404""
""blur"",""196"",""238858""
""blur"",""197"",""247682""
","""event"",""trial"",""time""
""focus"",""196"",""221274""
""focus"",""196"",""232705""
""focus"",""197"",""242869""
""focus"",""197"",""277607""
","""event"",""trial"",""time""
""fullscreenenter"",""0"",""3359""
","""event"",""trial"",""time""
""fullscreenexit"",""196"",""237993""
","16.299999982118607","run_exp/static/audio/clip_16_practice_question.m4a","78","","","","","","","",""
"","correct","229","428478","0.0-222.0-0.0","""event"",""trial"",""time""
""fullscreenenter"",""0"",""3359""
""blur"",""196"",""218817""
""focus"",""196"",""221274""
""blur"",""196"",""224404""
""focus"",""196"",""232705""
""fullscreenexit"",""196"",""237993""
""blur"",""196"",""238858""
""focus"",""197"",""242869""
""blur"",""197"",""247682""
""focus"",""197"",""277607""
","""event"",""trial"",""time""
""blur"",""196"",""218817""
""blur"",""196"",""224404""
""blur"",""196"",""238858""
""blur"",""197"",""247682""
","""event"",""trial"",""time""
""focus"",""196"",""221274""
""focus"",""196"",""232705""
""focus"",""197"",""242869""
""focus"",""197"",""277607""
","""event"",""trial"",""time""
""fullscreenenter"",""0"",""3359""
","""event"",""trial"",""time""
""fullscreenexit"",""196"",""237993""
","null","run_exp/static/audio/clip_17_correct.m4a","null","","","","","<div class='center'><p>That's correct!</p></div>","","",""
"","html-keyboard-response","230","429035","0.0-222.0-1.0","""event"",""trial"",""time""
""fullscreenenter"",""0"",""3359""
""blur"",""196"",""218817""
""focus"",""196"",""221274""
""blur"",""196"",""224404""
""focus"",""196"",""232705""
""fullscreenexit"",""196"",""237993""
""blur"",""196"",""238858""
""focus"",""197"",""242869""
""blur"",""197"",""247682""
""focus"",""197"",""277607""
","""event"",""trial"",""time""
""blur"",""196"",""218817""
""blur"",""196"",""224404""
""blur"",""196"",""238858""
""blur"",""197"",""247682""
","""event"",""trial"",""time""
""focus"",""196"",""221274""
""focus"",""196"",""232705""
""focus"",""197"",""242869""
""focus"",""197"",""277607""
","""event"",""trial"",""time""
""fullscreenenter"",""0"",""3359""
","""event"",""trial"",""time""
""fullscreenexit"",""196"",""237993""
","554.3999999761581","<div class='center'><p>That's correct!</p><div><p><b>[Press the space bar to continue]</b></p></div>","32","","","","","","","",""
"","practice_q2","231","432674","0.0-222.0-2.0","""event"",""trial"",""time""
""fullscreenenter"",""0"",""3359""
""blur"",""196"",""218817""
""focus"",""196"",""221274""
""blur"",""196"",""224404""
""focus"",""196"",""232705""
""fullscreenexit"",""196"",""237993""
""blur"",""196"",""238858""
""focus"",""197"",""242869""
""blur"",""197"",""247682""
""focus"",""197"",""277607""
","""event"",""trial"",""time""
""blur"",""196"",""218817""
""blur"",""196"",""224404""
""blur"",""196"",""238858""
""blur"",""197"",""247682""
","""event"",""trial"",""time""
""focus"",""196"",""221274""
""focus"",""196"",""232705""
""focus"",""197"",""242869""
""focus"",""197"",""277607""
","""event"",""trial"",""time""
""fullscreenenter"",""0"",""3359""
","""event"",""trial"",""time""
""fullscreenexit"",""196"",""237993""
","3636","run_exp/static/audio/clip_16_practice_question.m4a","78","","","","","","","",""
"","incorrect_q2","232","435758","0.0-223.0-0.0","""event"",""trial"",""time""
""fullscreenenter"",""0"",""3359""
""blur"",""196"",""218817""
""focus"",""196"",""221274""
""blur"",""196"",""224404""
""focus"",""196"",""232705""
""fullscreenexit"",""196"",""237993""
""blur"",""196"",""238858""
""focus"",""197"",""242869""
""blur"",""197"",""247682""
""focus"",""197"",""277607""
","""event"",""trial"",""time""
""blur"",""196"",""218817""
""blur"",""196"",""224404""
""blur"",""196"",""238858""
""blur"",""197"",""247682""
","""event"",""trial"",""time""
""focus"",""196"",""221274""
""focus"",""196"",""232705""
""focus"",""197"",""242869""
""focus"",""197"",""277607""
","""event"",""trial"",""time""
""fullscreenenter"",""0"",""3359""
","""event"",""trial"",""time""
""fullscreenexit"",""196"",""237993""
","null","run_exp/static/audio/clip_19_incorrect_old.m4a","null","","","","","<div class='center'><p>Thats incorrect. Its old.</p></div>","","",""
"","html-keyboard-response","233","437182","0.0-223.0-1.0","""event"",""trial"",""time""
""fullscreenenter"",""0"",""3359""
""blur"",""196"",""218817""
""focus"",""196"",""221274""
""blur"",""196"",""224404""
""focus"",""196"",""232705""
""fullscreenexit"",""196"",""237993""
""blur"",""196"",""238858""
""focus"",""197"",""242869""
""blur"",""197"",""247682""
""focus"",""197"",""277607""
","""event"",""trial"",""time""
""blur"",""196"",""218817""
""blur"",""196"",""224404""
""blur"",""196"",""238858""
""blur"",""197"",""247682""
","""event"",""trial"",""time""
""focus"",""196"",""221274""
""focus"",""196"",""232705""
""focus"",""197"",""242869""
""focus"",""197"",""277607""
","""event"",""trial"",""time""
""fullscreenenter"",""0"",""3359""
","""event"",""trial"",""time""
""fullscreenexit"",""196"",""237993""
","1422.5999999940395","<div class='center'><p>Thats incorrect. Its old.</p><div><p><b>[Press the space bar to continue]</b></p></div>","32","","","","","","","",""
"","practice_q3","234","438719","0.0-223.0-2.0","""event"",""trial"",""time""
""fullscreenenter"",""0"",""3359""
""blur"",""196"",""218817""
""focus"",""196"",""221274""
""blur"",""196"",""224404""
""focus"",""196"",""232705""
""fullscreenexit"",""196"",""237993""
""blur"",""196"",""238858""
""focus"",""197"",""242869""
""blur"",""197"",""247682""
""focus"",""197"",""277607""
","""event"",""trial"",""time""
""blur"",""196"",""218817""
""blur"",""196"",""224404""
""blur"",""196"",""238858""
""blur"",""197"",""247682""
","""event"",""trial"",""time""
""focus"",""196"",""221274""
""focus"",""196"",""232705""
""focus"",""197"",""242869""
""focus"",""197"",""277607""
","""event"",""trial"",""time""
""fullscreenenter"",""0"",""3359""
","""event"",""trial"",""time""
""fullscreenexit"",""196"",""237993""
","1533.5","run_exp/static/audio/clip_16_practice_question.m4a","66","","","","","","","",""
"","correct","235","440618","0.0-224.0-0.0","""event"",""trial"",""time""
""fullscreenenter"",""0"",""3359""
""blur"",""196"",""218817""
""focus"",""196"",""221274""
""blur"",""196"",""224404""
""focus"",""196"",""232705""
""fullscreenexit"",""196"",""237993""
""blur"",""196"",""238858""
""focus"",""197"",""242869""
""blur"",""197"",""247682""
""focus"",""197"",""277607""
","""event"",""trial"",""time""
""blur"",""196"",""218817""
""blur"",""196"",""224404""
""blur"",""196"",""238858""
""blur"",""197"",""247682""
","""event"",""trial"",""time""
""focus"",""196"",""221274""
""focus"",""196"",""232705""
""focus"",""197"",""242869""
""focus"",""197"",""277607""
","""event"",""trial"",""time""
""fullscreenenter"",""0"",""3359""
","""event"",""trial"",""time""
""fullscreenexit"",""196"",""237993""
","null","run_exp/static/audio/clip_17_correct.m4a","null","","","","","<div class='center'><p>That's correct!</p></div>","","",""
"","html-keyboard-response","236","440843","0.0-224.0-1.0","""event"",""trial"",""time""
""fullscreenenter"",""0"",""3359""
""blur"",""196"",""218817""
""focus"",""196"",""221274""
""blur"",""196"",""224404""
""focus"",""196"",""232705""
""fullscreenexit"",""196"",""237993""
""blur"",""196"",""238858""
""focus"",""197"",""242869""
""blur"",""197"",""247682""
""focus"",""197"",""277607""
","""event"",""trial"",""time""
""blur"",""196"",""218817""
""blur"",""196"",""224404""
""blur"",""196"",""238858""
""blur"",""197"",""247682""
","""event"",""trial"",""time""
""focus"",""196"",""221274""
""focus"",""196"",""232705""
""focus"",""197"",""242869""
""focus"",""197"",""277607""
","""event"",""trial"",""time""
""fullscreenenter"",""0"",""3359""
","""event"",""trial"",""time""
""fullscreenexit"",""196"",""237993""
","223.5","<div class='center'><p>That's correct!</p><div><p><b>[Press the space bar to continue]</b></p></div>","32","","","","","","","",""
"","repeat","237","445578","0.0-225.0-0.0","""event"",""trial"",""time""
""fullscreenenter"",""0"",""3359""
""blur"",""196"",""218817""
""focus"",""196"",""221274""
""blur"",""196"",""224404""
""focus"",""196"",""232705""
""fullscreenexit"",""196"",""237993""
""blur"",""196"",""238858""
""focus"",""197"",""242869""
""blur"",""197"",""247682""
""focus"",""197"",""277607""
","""event"",""trial"",""time""
""blur"",""196"",""218817""
""blur"",""196"",""224404""
""blur"",""196"",""238858""
""blur"",""197"",""247682""
","""event"",""trial"",""time""
""focus"",""196"",""221274""
""focus"",""196"",""232705""
""focus"",""197"",""242869""
""focus"",""197"",""277607""
","""event"",""trial"",""time""
""fullscreenenter"",""0"",""3359""
","""event"",""trial"",""time""
""fullscreenexit"",""196"",""237993""
","null","run_exp/static/audio/clip_21_practice_again.m4a","null","","","","","<div class='center'><p>Oops. you missed at least one of these questions. Let's try practicing again. </p></div>","","",""
"","html-keyboard-response","238","447531","0.0-225.0-1.0","""event"",""trial"",""time""
""fullscreenenter"",""0"",""3359""
""blur"",""196"",""218817""
""focus"",""196"",""221274""
""blur"",""196"",""224404""
""focus"",""196"",""232705""
""fullscreenexit"",""196"",""237993""
""blur"",""196"",""238858""
""focus"",""197"",""242869""
""blur"",""197"",""247682""
""focus"",""197"",""277607""
","""event"",""trial"",""time""
""blur"",""196"",""218817""
""blur"",""196"",""224404""
""blur"",""196"",""238858""
""blur"",""197"",""247682""
","""event"",""trial"",""time""
""focus"",""196"",""221274""
""focus"",""196"",""232705""
""focus"",""197"",""242869""
""focus"",""197"",""277607""
","""event"",""trial"",""time""
""fullscreenenter"",""0"",""3359""
","""event"",""trial"",""time""
""fullscreenexit"",""196"",""237993""
","1951.5999999940395","<div class='center'><p>Oops. you missed at least one of these questions. Let's try practicing again. </p><div><p><b>[Press the space bar to continue]</b></p></div>","32","","","","","","","",""
"","practice_q1","239","447627","0.0-225.0-2.0","""event"",""trial"",""time""
""fullscreenenter"",""0"",""3359""
""blur"",""196"",""218817""
""focus"",""196"",""221274""
""blur"",""196"",""224404""
""focus"",""196"",""232705""
""fullscreenexit"",""196"",""237993""
""blur"",""196"",""238858""