"success","trial_type","trial_index","time_elapsed","internal_node_id","interactions","blur_events","focus_events","fullscreenenter_events","fullscreenexit_events","rt","stimulus","key_press","subject_id","participant_id","age","gender","prompt","phase","condition","lure_bin"
"true","fullscreen","0","3399","0.0-0.0","""event"",""trial"",""time""
""fullscreenenter"",""0"",""2419""
","
","
","""event"",""trial"",""time""
""fullscreenenter"",""0"",""2419""
","
","","","","","","","","","","",""
"","pavlovia","1","3405","0.0-1.0","""event"",""trial"",""time""
""fullscreenenter"",""0"",""2419""
","
","
","""event"",""trial"",""time""
""fullscreenenter"",""0"",""2419""
","
","","","","","","","","","","",""
"","welcome","2","38246","0.0-2.0","""event"",""trial"",""time""
""fullscreenenter"",""0"",""2419""
","
","
","""event"",""trial"",""time""
""fullscreenenter"",""0"",""2419""
","
","null","run_exp/static/audio/clip_1_welcome.m4a","null","574","759","10","Female","<div class='center'><p>Welcome to the third part of the study! First, you'll be shown pictures of items one at a time. For each picture, you have to decide if the item is typically found indoors or outdoors.</p><p>If you think it's usually found indoors, then press <b>v</b> key on your keyboard. If you think it's usually found outdoors, then press the <b>n</b> key.There will be reminders on the screen to help you remember which keys to press. </p><p>If you're not sure whether the item is an indoor item or an outdoor item, go ahead and take a guess but try your best not to skip that choice. </p></div>","","",""
"","html-keyboard-response","3","38586","0.0-3.0","""event"",""trial"",""time""
""fullscreenenter"",""0"",""2419""
","
","
","""event"",""trial"",""time""
""fullscreenenter"",""0"",""2419""
","
","336.69999999925494","<div class='center'><p>Welcome to the third part of the study! First, you'll be shown pictures of items one at a time. For each picture, you have to decide if the item is typically found indoors or outdoors.</p><p>If you think it's usually found indoors, then press <b>v</b> key on your keyboard. If you think it's usually found outdoors, then press the <b>n</b> key.There will be reminders on the screen to help you remember which keys to press. </p><p>If you're not sure whether the item is an indoor item or an outdoor item, go ahead and take a guess but try your best not to skip that choice. </p><div><p><b>[Press the space bar to continue]</b></p></div>","32","","","","","","","",""
"","image","4","40589","0.0-4.0","""event"",""trial"",""time""
""fullscreenenter"",""0"",""2419""
","
","
","""event"",""trial"",""time""
""fullscreenenter"",""0"",""2419""
","
","null","run_exp/static/images/Set 6_rs/117a.jpg","null","","","","","","learn","SL",""
"","show_choice","5","42591","0.0-5.0","""event"",""trial"",""time""
""fullscreenenter"",""0"",""2419""
","
","
","""event"",""trial"",""time""
""fullscreenenter"",""0"",""2419""
","
","null","run_exp/static/images/blank.png","null","","","","","","learn","SL",""
"","html-keyboard-response","6","43093","0.0-6.0","""event"",""trial"",""time""
""fullscreenenter"",""0"",""2419""
","
","
","""event"",""trial"",""time""
""fullscreenenter"",""0"",""2419""
","
","null","<p></p>","null","","","","","","","",""
"","image","7","44070","0.0-7.0","""event"",""trial"",""time""
""fullscreenenter"",""0"",""2419""
","
","
","""event"",""trial"",""time""
""fullscreenenter"",""0"",""2419""
","
","975.8000000007451","run_exp/static/images/Set 6_rs/014a.jpg","78","","","","","","learn","SL",""
"","show_choice","8","45096","0.0-8.0","""event"",""trial"",""time""
""fullscreenenter"",""0"",""2419""
","
","
","""event"",""trial"",""time""
""fullscreenenter"",""0"",""2419""
","
","null","run_exp/static/images/Set 6_rs/014a.jpg","null","","","","","","learn","SL",""
"","html-keyboard-response","9","45598","0.0-9.0","""event"",""trial"",""time""
""fullscreenenter"",""0"",""2419""
","
","
","""event"",""trial"",""time""
""fullscreenenter"",""0"",""2419""
","
","null","<p></p>","null","","","","","","","",""
"","image","10","47097","0.0-10.0","""event"",""trial"",""time""
""fullscreenenter"",""0"",""2419""
","
","
","""event"",""trial"",""time""
""fullscreenenter"",""0"",""2419""
","
","1497.5","run_exp/static/images/Set 6_rs/017a.jpg","86","","","","","","learn","SL",""
"","show_choice","11","47601","0.0-11.0","""event"",""trial"",""time""
""fullscreenenter"",""0"",""2419""
","
","
","""event"",""trial"",""time""
""fullscreenenter"",""0"",""2419""
","
","null","run_exp/static/images/Set 6_rs/017a.jpg","null","","","","","","learn","SL",""
"","html-keyboard-response","12","48102","0.0-12.0","""event"",""trial"",""time""
""fullscreenenter"",""0"",""2419""
","
","
","""event"",""trial"",""time""
""fullscreenenter"",""0"",""2419""
","
","null","<p></p>","null","","","","","","","",""
"","image","13","49268","0.0-13.0","""event"",""trial"",""time""
""fullscreenenter"",""0"",""2419""
","
","
","""event"",""trial"",""time""
""fullscreenenter"",""0"",""2419""
","
","1164.6000000014901","run_exp/static/images/Set 6_rs/019a.jpg","86","","","","","","learn","SL",""
"","show_choice","14","50105","0.0-14.0","""event"",""trial"",""time""
""fullscreenenter"",""0"",""2419""
","
","
","""event"",""trial"",""time""
""fullscreenenter"",""0"",""2419""
","
","null","run_exp/static/images/Set 6_rs/019a.jpg","null","","","","","","learn","SL",""
"","html-keyboard-response","15","50606","0.0-15.0","""event"",""trial"",""time""
""fullscreenenter"",""0"",""2419""
","
","
","""event"",""trial"",""time""
""fullscreenenter"",""0"",""2419""
","
","null","<p></p>","null","","","","","","","",""
"","image","16","51633","0.0-16.0","""event"",""trial"",""time""
""fullscreenenter"",""0"",""2419""
","
","
","""event"",""trial"",""time""
""fullscreenenter"",""0"",""2419""
","
","1025","run_exp/static/images/Set 6_rs/134a.jpg","86","","","","","","learn","SR",""
"","show_choice","17","52610","0.0-17.0","""event"",""trial"",""time""
""fullscreenenter"",""0"",""2419""
","
","
","""event"",""trial"",""time""
""fullscreenenter"",""0"",""2419""
","
","null","run_exp/static/images/Set 6_rs/134a.jpg","null","","","","","","learn","SR",""
"","html-keyboard-response","18","53111","0.0-18.0","""event"",""trial"",""time""
""fullscreenenter"",""0"",""2419""
","
","
","""event"",""trial"",""time""
""fullscreenenter"",""0"",""2419""
","
","null","<p></p>","null","","","","","","","",""
"","image","19","53966","0.0-19.0","""event"",""trial"",""time""
""fullscreenenter"",""0"",""2419""
","
","
","""event"",""trial"",""time""
""fullscreenenter"",""0"",""2419""
","
","853.1000000014901","run_exp/static/images/Set 6_rs/177a.jpg","78","","","","","","learn","SR",""
"","show_choice","20","55114","0.0-20.0","""event"",""trial"",""time""
""fullscreenenter"",""0"",""2419""
","
","
","""event"",""trial"",""time""
""fullscreenenter"",""0"",""2419""
","
","null","run_exp/static/images/Set 6_rs/177a.jpg","null","","","","","","learn","SR",""
"","html-keyboard-response","21","55615","0.0-21.0","""event"",""trial"",""time""
""fullscreenenter"",""0"",""2419""
","
","
","""event"",""trial"",""time""
""fullscreenenter"",""0"",""2419""
","
","null","<p></p>","null","","","","","","","",""
"","image","22","56641","0.0-22.0","""event"",""trial"",""time""
""fullscreenenter"",""0"",""2419""
","
","
","""event"",""trial"",""time""
""fullscreenenter"",""0"",""2419""
","
","1025.0999999977648","run_exp/static/images/Set 6_rs/108a.jpg","86","","","","","","learn","SR",""
"","show_choice","23","57617","0.0-23.0","""event"",""trial"",""time""
""fullscreenenter"",""0"",""2419""
","
","
","""event"",""trial"",""time""
""fullscreenenter"",""0"",""2419""
","
","null","run_exp/static/images/Set 6_rs/108a.jpg","null","","","","","","learn","SR",""
"","html-keyboard-response","24","58118","0.0-24.0","""event"",""trial"",""time""
""fullscreenenter"",""0"",""2419""
","
","
","""event"",""trial"",""time""
""fullscreenenter"",""0"",""2419""
","
","null","<p></p>","null","","","","","","","",""
"","image","25","58973","0.0-25.0","""event"",""trial"",""time""
""fullscreenenter"",""0"",""2419""
","
","
","""event"",""trial"",""time""
""fullscreenenter"",""0"",""2419""
","
","852.8000000007451","run_exp/static/images/Set 6_rs/071a.jpg","78","","","","","","learn","SL",""
"","show_choice","26","60122","0.0-26.0","""event"",""trial"",""time""
""fullscreenenter"",""0"",""2419""
","
","
","""event"",""trial"",""time""
""fullscreenenter"",""0"",""2419""
","
","null","run_exp/static/images/Set 6_rs/071a.jpg","null","","","","","","learn","SL",""
"","html-keyboard-response","27","60623","0.0-27.0","""event"",""trial"",""time""
""fullscreenenter"",""0"",""2419""
","
","
","""event"",""trial"",""time""
""fullscreenenter"",""0"",""2419""
","
","null","<p></p>","null","","","","","","","",""
"","image","28","61341","0.0-28.0","""event"",""trial"",""time""
""fullscreenenter"",""0"",""2419""
","
","
","""event"",""trial"",""time""
""fullscreenenter"",""0"",""2419""
","
","716.5","run_exp/static/images/Set 6_rs/050a.jpg","86","","","","","","learn","SL",""
"","show_choice","29","62626","0.0-29.0","""event"",""trial"",""time""
""fullscreenenter"",""0"",""2419""
","
","
","""event"",""trial"",""time""
""fullscreenenter"",""0"",""2419""
","
","null","run_exp/static/images/Set 6_rs/050a.jpg","null","","","","","","learn","SL",""
"","html-keyboard-response","30","63128","0.0-30.0","""event"",""trial"",""time""
""fullscreenenter"",""0"",""2419""
","
","
","""event"",""trial"",""time""
""fullscreenenter"",""0"",""2419""
","
","null","<p></p>","null","","","","","","","",""
"","image","31","64651","0.0-31.0","""event"",""trial"",""time""
""fullscreenenter"",""0"",""2419""
","
","
","""event"",""trial"",""time""
""fullscreenenter"",""0"",""2419""
","
","1521.0999999977648","run_exp/static/images/Set 6_rs/062a.jpg","86","","","","","","learn","SL",""
"","show_choice","32","65130","0.0-32.0","""event"",""trial"",""time""
""fullscreenenter"",""0"",""2419""
","
","
","""event"",""trial"",""time""
""fullscreenenter"",""0"",""2419""
","
","null","run_exp/static/images/Set 6_rs/062a.jpg","null","","","","","","learn","SL",""
"","html-keyboard-response","33","65631","0.0-33.0","""event"",""trial"",""time""
""fullscreenenter"",""0"",""2419""
","
","
","""event"",""trial"",""time""
""fullscreenenter"",""0"",""2419""
","
","null","<p></p>","null","","","","","","","",""
"","image","34","66561","0.0-34.0","""event"",""trial"",""time""
""fullscreenenter"",""0"",""2419""
","
","
","""event"",""trial"",""time""
""fullscreenenter"",""0"",""2419""
","
","927.6000000014901","run_exp/static/images/Set 6_rs/079a.jpg","86","","","","","","learn","SL",""
"","show_choice","35","67634","0.0-35.0","""event"",""trial"",""time""
""fullscreenenter"",""0"",""2419""
","
","
","""event"",""trial"",""time""
""fullscreenenter"",""0"",""2419""
","
","null","run_exp/static/images/Set 6_rs/079a.jpg","null","","","","","","learn","SL",""
"","html-keyboard-response","36","68136","0.0-36.0","""event"",""trial"",""time""
""fullscreenenter"",""0"",""2419""
","
","
","""event"",""trial"",""time""
""fullscreenenter"",""0"",""2419""
","
","null","<p></p>","null","","","","","","","",""
"","image","37","69235","0.0-37.0","""event"",""trial"",""time""
""fullscreenenter"",""0"",""2419""
","
","
","""event"",""trial"",""time""
""fullscreenenter"",""0"",""2419""
","
","1097.2000000029802","run_exp/static/images/Set 6_rs/138a.jpg","78","","","","","","learn","SL",""
"","show_choice","38","70139","0.0-38.0","""event"",""trial"",""time""
""fullscreenenter"",""0"",""2419""
","
","
","""event"",""trial"",""time""
""fullscreenenter"",""0"",""2419""
","
","null","run_exp/static/images/Set 6_rs/138a.jpg","null","","","","","","learn","SL",""
"","html-keyboard-response","39","70640","0.0-39.0","""event"",""trial"",""time""
""fullscreenenter"",""0"",""2419""
","
","
","""event"",""trial"",""time""
""fullscreenenter"",""0"",""2419""
","
","null","<p></p>","null","","","","","","","",""
"","image","40","71646","0.0-40.0","""event"",""trial"",""time""
""fullscreenenter"",""0"",""2419""
","
","
","""event"",""trial"",""time""
""fullscreenenter"",""0"",""2419""
","
","1004.2999999970198","run_exp/static/images/Set 6_rs/152a.jpg","78","","","","","","learn","SR",""
"","show_choice","41","72642","0.0-41.0","""event"",""trial"",""time""
""fullscreenenter"",""0"",""2419""
","
","
","""event"",""trial"",""time""
""fullscreenenter"",""0"",""2419""
","
","null","run_exp/static/images/Set 6_rs/152a.jpg","null","","","","","","learn","SR",""
"","html-keyboard-response","42","73144","0.0-42.0","""event"",""trial"",""time""
""fullscreenenter"",""0"",""2419""
","
","
","""event"",""trial"",""time""
""fullscreenenter"",""0"",""2419""
","
","null","<p></p>","null","","","","","","","",""
"","image","43","74027","0.0-43.0","""event"",""trial"",""time""
""fullscreenenter"",""0"",""2419""
","
","
","""event"",""trial"",""time""
""fullscreenenter"",""0"",""2419""
","
","881.5","run_exp/static/images/Set 6_rs/055a.jpg","86","","","","","","learn","SL",""
"","show_choice","44","75146","0.0-44.0","""event"",""trial"",""time""
""fullscreenenter"",""0"",""2419""
","
","
","""event"",""trial"",""time""
""fullscreenenter"",""0"",""2419""
","
","null","run_exp/static/images/Set 6_rs/055a.jpg","null","","","","","","learn","SL",""
"","html-keyboard-response","45","75648","0.0-45.0","""event"",""trial"",""time""
""fullscreenenter"",""0"",""2419""
","
","
","""event"",""trial"",""time""
""fullscreenenter"",""0"",""2419""
","
","null","<p></p>","null","","","","","","","",""
"","image","46","76385","0.0-46.0","""event"",""trial"",""time""
""fullscreenenter"",""0"",""2419""
","
","
","""event"",""trial"",""time""
""fullscreenenter"",""0"",""2419""
","
","736.5","run_exp/static/images/Set 6_rs/154a.jpg","86","","","","","","learn","SR",""
"","show_choice","47","77650","0.0-47.0","""event"",""trial"",""time""
""fullscreenenter"",""0"",""2419""
","
","
","""event"",""trial"",""time""
""fullscreenenter"",""0"",""2419""
","
","null","run_exp/static/images/Set 6_rs/154a.jpg","null","","","","","","learn","SR",""
"","html-keyboard-response","48","78151","0.0-48.0","""event"",""trial"",""time""
""fullscreenenter"",""0"",""2419""
","
","
","""event"",""trial"",""time""
""fullscreenenter"",""0"",""2419""
","
","null","<p></p>","null","","","","","","","",""
"","image","49","79079","0.0-49.0","""event"",""trial"",""time""
""fullscreenenter"",""0"",""2419""
","
","
","""event"",""trial"",""time""
""fullscreenenter"",""0"",""2419""
","
","927","run_exp/static/images/Set 6_rs/073a.jpg","86","","","","","","learn","SL",""
"","show_choice","50","80154","0.0-50.0","""event"",""trial"",""time""
""fullscreenenter"",""0"",""2419""
","
","
","""event"",""trial"",""time""
""fullscreenenter"",""0"",""2419""
","
","null","run_exp/static/images/Set 6_rs/073a.jpg","null","","","","","","learn","SL",""
"","html-keyboard-response","51","80656","0.0-51.0","""event"",""trial"",""time""
""fullscreenenter"",""0"",""2419""
","
","
","""event"",""trial"",""time""
""fullscreenenter"",""0"",""2419""
","
","null","<p></p>","null","","","","","","","",""
"","image","52","81563","0.0-52.0","""event"",""trial"",""time""
""fullscreenenter"",""0"",""2419""
","
","
","""event"",""trial"",""time""
""fullscreenenter"",""0"",""2419""
","
","905.3999999985099","run_exp/static/images/Set 6_rs/088a.jpg","86","","","","","","learn","SR",""
"","show_choice","53","82658","0.0-53.0","""event"",""trial"",""time""
""fullscreenenter"",""0"",""2419""
","
","
","""event"",""trial"",""time""
""fullscreenenter"",""0"",""2419""
","
","null","run_exp/static/images/Set 6_rs/088a.jpg","null","","","","","","learn","SR",""
"","html-keyboard-response","54","83160","0.0-54.0","""event"",""trial"",""time""
""fullscreenenter"",""0"",""2419""
","
","
","""event"",""trial"",""time""
""fullscreenenter"",""0"",""2419""
","
","null","<p></p>","null","","","","","","","",""
"","image","55","83821","0.0-55.0","""event"",""trial"",""time""
""fullscreenenter"",""0"",""2419""
","
","
","""event"",""trial"",""time""
""fullscreenenter"",""0"",""2419""
","
","659.5999999977648","run_exp/static/images/Set 6_rs/025a.jpg","86","","","","","","learn","SL",""
"","show_choice","56","85162","0.0-56.0","""event"",""trial"",""time""
""fullscreenenter"",""0"",""2419""
","
","
","""event"",""trial"",""time""
""fullscreenenter"",""0"",""2419""
","
","null","run_exp/static/images/Set 6_rs/025a.jpg","null","","","","","","learn","SL",""
"","html-keyboard-response","57","85663","0.0-57.0","""event"",""trial"",""time""
""fullscreenenter"",""0"",""2419""
","
","
","""event"",""trial"",""time""
""fullscreenenter"",""0"",""2419""
","
","null","<p></p>","null","","","","","","","",""
"","image","58","87037","0.0-58.0","""event"",""trial"",""time""
""fullscreenenter"",""0"",""2419""
","
","
","""event"",""trial"",""time""
""fullscreenenter"",""0"",""2419""
","
","1372.8999999985099","run_exp/static/images/Set 6_rs/187a.jpg","78","","","","","","learn","SR",""
"","show_choice","59","87666","0.0-59.0","""event"",""trial"",""time""
""fullscreenenter"",""0"",""2419""
","
","
","""event"",""trial"",""time""
""fullscreenenter"",""0"",""2419""
","
","null","run_exp/static/images/Set 6_rs/187a.jpg","null","","","","","","learn","SR",""
"","html-keyboard-response","60","88167","0.0-60.0","""event"",""trial"",""time""
""fullscreenenter"",""0"",""2419""
","
","
","""event"",""trial"",""time""
""fullscreenenter"",""0"",""2419""
","
","null","<p></p>","null","","","","","","","",""
"","image","61","89051","0.0-61.0","""event"",""trial"",""time""
""fullscreenenter"",""0"",""2419""
","
","
","""event"",""trial"",""time""
""fullscreenenter"",""0"",""2419""
","
","882.5999999977648","run_exp/static/images/Set 6_rs/089a.jpg","86","","","","","","learn","SL",""
"","show_choice","62","90170","0.0-62.0","""event"",""trial"",""time""
""fullscreenenter"",""0"",""2419""
","
","
","""event"",""trial"",""time""
""fullscreenenter"",""0"",""2419""
","
","null","run_exp/static/images/Set 6_rs/089a.jpg","null","","","","","","learn","SL",""
"","html-keyboard-response","63","90671","0.0-63.0","""event"",""trial"",""time""
""fullscreenenter"",""0"",""2419""
","
","
","""event"",""trial"",""time""
""fullscreenenter"",""0"",""2419""
","
","null","<p></p>","null","","","","","","","",""
"","image","64","91586","0.0-64.0","""event"",""trial"",""time""
""fullscreenenter"",""0"",""2419""
","
","
","""event"",""trial"",""time""
""fullscreenenter"",""0"",""2419""
","
","913.7000000029802","run_exp/static/images/Set 6_rs/132a.jpg","86","","","","","","learn","SR",""
"","show_choice","65","92674","0.0-65.0","""event"",""trial"",""time""
""fullscreenenter"",""0"",""2419""
","
","
","""event"",""trial"",""time""
""fullscreenenter"",""0"",""2419""
","
","null","run_exp/static/images/Set 6_rs/132a.jpg","null","","","","","","learn","SR",""
"","html-keyboard-response","66","93176","0.0-66.0","""event"",""trial"",""time""
""fullscreenenter"",""0"",""2419""
","
","
","""event"",""trial"",""time""
""fullscreenenter"",""0"",""2419""
","
","null","<p></p>","null","","","","","","","",""
"","image","67","94018","0.0-67.0","""event"",""trial"",""time""
""fullscreenenter"",""0"",""2419""
","
","
","""event"",""trial"",""time""
""fullscreenenter"",""0"",""2419""
","
","840.8000000007451","run_exp/static/images/Set 6_rs/045a.jpg","86","","","","","","learn","SR",""
"","show_choice","68","95178","0.0-68.0","""event"",""trial"",""time""
""fullscreenenter"",""0"",""2419""
","
","
","""event"",""trial"",""time""
""fullscreenenter"",""0"",""2419""
","
","null","run_exp/static/images/Set 6_rs/045a.jpg","null","","","","","","learn","SR",""
"","html-keyboard-response","69","95680","0.0-69.0","""event"",""trial"",""time""
""fullscreenenter"",""0"",""2419""
","
","
","""event"",""trial"",""time""
""fullscreenenter"",""0"",""2419""
","
","null","<p></p>","null","","","","","","","",""
"","image","70","97066","0.0-70.0","""event"",""trial"",""time""
""fullscreenenter"",""0"",""2419""
","
","
","""event"",""trial"",""time""
""fullscreenenter"",""0"",""2419""
","
","1383.5999999977648","run_exp/static/images/Set 6_rs/016a.jpg","78","","","","","","learn","SL",""
"","show_choice","71","97683","0.0-71.0","""event"",""trial"",""time""
""fullscreenenter"",""0"",""2419""
","
","
","""event"",""trial"",""time""
""fullscreenenter"",""0"",""2419""
","
","null","run_exp/static/images/Set 6_rs/016a.jpg","null","","","","","","learn","SL",""
"","html-keyboard-response","72","98184","0.0-72.0","""event"",""trial"",""time""
""fullscreenenter"",""0"",""2419""
","
","
","""event"",""trial"",""time""
""fullscreenenter"",""0"",""2419""
","
","null","<p></p>","null","","","","","","","",""
"","image","73","98949","0.0-73.0","""event"",""trial"",""time""
""fullscreenenter"",""0"",""2419""
","
","
","""event"",""trial"",""time""
""fullscreenenter"",""0"",""2419""
","
","763.5","run_exp/static/images/Set 6_rs/070a.jpg","86","","","","","","learn","SR",""
"","show_choice","74","100187","0.0-74.0","""event"",""trial"",""time""
""fullscreenenter"",""0"",""2419""
","
","
","""event"",""trial"",""time""
""fullscreenenter"",""0"",""2419""
","
","null","run_exp/static/images/Set 6_rs/070a.jpg","null","","","","","","learn","SR",""
"","html-keyboard-response","75","100688","0.0-75.0","""event"",""trial"",""time""
""fullscreenenter"",""0"",""2419""
","
","
","""event"",""trial"",""time""
""fullscreenenter"",""0"",""2419""
","
","null","<p></p>","null","","","","","","","",""
"","image","76","101430","0.0-76.0","""event"",""trial"",""time""
""fullscreenenter"",""0"",""2419""
","
","
","""event"",""trial"",""time""
""fullscreenenter"",""0"",""2419""
","
","740.1999999992549","run_exp/static/images/Set 6_rs/095a.jpg","86","","","","","","learn","SL",""
"","show_choice","77","102690","0.0-77.0","""event"",""trial"",""time""
""fullscreenenter"",""0"",""2419""
","
","
","""event"",""trial"",""time""
""fullscreenenter"",""0"",""2419""
","
","null","run_exp/static/images/Set 6_rs/095a.jpg","null","","","","","","learn","SL",""
"","html-keyboard-response","78","103191","0.0-78.0","""event"",""trial"",""time""
""fullscreenenter"",""0"",""2419""
","
","
","""event"",""trial"",""time""
""fullscreenenter"",""0"",""2419""
","
","null","<p></p>","null","","","","","","","",""
"","image","79","104518","0.0-79.0","""event"",""trial"",""time""
""fullscreenenter"",""0"",""2419""
","
","
","""event"",""trial"",""time""
""fullscreenenter"",""0"",""2419""
","
","1324.7999999970198","run_exp/static/images/Set 6_rs/144a.jpg","86","","","","","","learn","SL",""
"","show_choice","80","105195","0.0-80.0","""event"",""trial"",""time""
""fullscreenenter"",""0"",""2419""
","
","
","""event"",""trial"",""time""
""fullscreenenter"",""0"",""2419""
","
","null","run_exp/static/images/Set 6_rs/144a.jpg","null","","","","","","learn","SL",""
"","html-keyboard-response","81","105697","0.0-81.0","""event"",""trial"",""time""
""fullscreenenter"",""0"",""2419""
","
","
","""event"",""trial"",""time""
""fullscreenenter"",""0"",""2419""
","
","null","<p></p>","null","","","","","","","",""
"","image","82","106576","0.0-82.0","""event"",""trial"",""time""
""fullscreenenter"",""0"",""2419""
","
","
","""event"",""trial"",""time""
""fullscreenenter"",""0"",""2419""
","
","877.7999999970198","run_exp/static/images/Set 6_rs/123a.jpg","78","","","","","","learn","SL",""
"","show_choice","83","107700","0.0-83.0","""event"",""trial"",""time""
""fullscreenenter"",""0"",""2419""
","
","
","""event"",""trial"",""time""
""fullscreenenter"",""0"",""2419""
","
","null","run_exp/static/images/Set 6_rs/123a.jpg","null","","","","","","learn","SL",""
"","html-keyboard-response","84","108201","0.0-84.0","""event"",""trial"",""time""
""fullscreenenter"",""0"",""2419""
","
","
","""event"",""trial"",""time""
""fullscreenenter"",""0"",""2419""
","
","null","<p></p>","null","","","","","","","",""
"","image","85","109018","0.0-85.0","""event"",""trial"",""time""
""fullscreenenter"",""0"",""2419""
","
","
","""event"",""trial"",""time""
""fullscreenenter"",""0"",""2419""
","
","815","run_exp/static/images/Set 6_rs/150a.jpg","86","","","","","","learn","SR",""
"","show_choice","86","110204","0.0-86.0","""event"",""trial"",""time""
""fullscreenenter"",""0"",""2419""
","
","
","""event"",""trial"",""time""
""fullscreenenter"",""0"",""2419""
","
","null","run_exp/static/images/Set 6_rs/150a.jpg","null","","","","","","learn","SR",""
"","html-keyboard-response","87","110706","0.0-87.0","""event"",""trial"",""time""
""fullscreenenter"",""0"",""2419""
","
","
","""event"",""trial"",""time""
""fullscreenenter"",""0"",""2419""
","
","null","<p></p>","null","","","","","","","",""
"","image","88","111419","0.0-88.0","""event"",""trial"",""time""
""fullscreenenter"",""0"",""2419""
","
","
","""event"",""trial"",""time""
""fullscreenenter"",""0"",""2419""
","
","711.9000000022352","run_exp/static/images/Set 6_rs/116a.jpg","78","","","","","","learn","SL",""
"","show_choice","89","112709","0.0-89.0","""event"",""trial"",""time""
""fullscreenenter"",""0"",""2419""
","
","
","""event"",""trial"",""time""
""fullscreenenter"",""0"",""2419""
","
","null","run_exp/static/images/Set 6_rs/116a.jpg","null","","","","","","learn","SL",""
"","html-keyboard-response","90","113210","0.0-90.0","""event"",""trial"",""time""
""fullscreenenter"",""0"",""2419""
","
","
","""event"",""trial"",""time""
""fullscreenenter"",""0"",""2419""
","
","null","<p></p>","null","","","","","","","",""
"","image","91","114527","0.0-91.0","""event"",""trial"",""time""
""fullscreenenter"",""0"",""2419""
","
","
","""event"",""trial"",""time""
""fullscreenenter"",""0"",""2419""
","
","1316.300000000745","run_exp/static/images/Set 6_rs/061a.jpg","86","","","","","","learn","SR",""
"","show_choice","92","115212","0.0-92.0","""event"",""trial"",""time""
""fullscreenenter"",""0"",""2419""
","
","
","""event"",""trial"",""time""
""fullscreenenter"",""0"",""2419""
","
","null","run_exp/static/images/Set 6_rs/061a.jpg","null","","","","","","learn","SR",""
"","html-keyboard-response","93","115713","0.0-93.0","""event"",""trial"",""time""
""fullscreenenter"",""0"",""2419""
","
","
","""event"",""trial"",""time""
""fullscreenenter"",""0"",""2419""
","
","null","<p></p>","null","","","","","","","",""
"","image","94","117547","0.0-94.0","""event"",""trial"",""time""
""fullscreenenter"",""0"",""2419""
","
","
","""event"",""trial"",""time""
""fullscreenenter"",""0"",""2419""
","
","1832.2000000029802","run_exp/static/images/Set 6_rs/076a.jpg","78","","","","","","learn","SR",""
"","show_choice","95","117716","0.0-95.0","""event"",""trial"",""time""
""fullscreenenter"",""0"",""2419""
","
","
","""event"",""trial"",""time""
""fullscreenenter"",""0"",""2419""
","
","null","run_exp/static/images/Set 6_rs/076a.jpg","null","","","","","","learn","SR",""
"","html-keyboard-response","96","118217","0.0-96.0","""event"",""trial"",""time""
""fullscreenenter"",""0"",""2419""
","
","
","""event"",""trial"",""time""
""fullscreenenter"",""0"",""2419""
","
","null","<p></p>","null","","","","","","","",""
"","image","97","119746","0.0-97.0","""event"",""trial"",""time""
""fullscreenenter"",""0"",""2419""
","
","
","""event"",""trial"",""time""
""fullscreenenter"",""0"",""2419""
","
","1526.8999999985099","run_exp/static/images/Set 6_rs/063a.jpg","78","","","","","","learn","SR",""
"","show_choice","98","120221","0.0-98.0","""event"",""trial"",""time""
""fullscreenenter"",""0"",""2419""
","
","
","""event"",""trial"",""time""
""fullscreenenter"",""0"",""2419""
","
","null","run_exp/static/images/Set 6_rs/063a.jpg","null","","","","","","learn","SR",""
"","html-keyboard-response","99","120722","0.0-99.0","""event"",""trial"",""time""
""fullscreenenter"",""0"",""2419""
","
","
","""event"",""trial"",""time""
""fullscreenenter"",""0"",""2419""
","
","null","<p></p>","null","","","","","","","",""
"","image","100","121868","0.0-100.0","""event"",""trial"",""time""
""fullscreenenter"",""0"",""2419""
","
","
","""event"",""trial"",""time""
""fullscreenenter"",""0"",""2419""
","
","1143.800000000745","run_exp/static/images/Set 6_rs/126a.jpg","78","","","","","","learn","SR",""
"","show_choice","101","122726","0.0-101.0","""event"",""trial"",""time""
""fullscreenenter"",""0"",""2419""
","
","
","""event"",""trial"",""time""
""fullscreenenter"",""0"",""2419""
","
","null","run_exp/static/images/Set 6_rs/126a.jpg","null","","","","","","learn","SR",""
"","html-keyboard-response","102","123228","0.0-102.0","""event"",""trial"",""time""
""fullscreenenter"",""0"",""2419""
","
","
","""event"",""trial"",""time""
""fullscreenenter"",""0"",""2419""
","
","null","<p></p>","null","","","","","","","",""
"","image","103","124522","0.0-103.0","""event"",""trial"",""time""
""fullscreenenter"",""0"",""2419""
","
","
","""event"",""trial"",""time""
""fullscreenenter"",""0"",""2419""
","
","1293.4000000022352","run_exp/static/images/Set 6_rs/168a.jpg","78","","","","","","learn","SL",""
"","show_choice","104","125230","0.0-104.0","""event"",""trial"",""time""
""fullscreenenter"",""0"",""2419""
","
","
","""event"",""trial"",""time""
""fullscreenenter"",""0"",""2419""
","
","null","run_exp/static/images/Set 6_rs/168a.jpg","null","","","","","","learn","SL",""
"","html-keyboard-response","105","125731","0.0-105.0","""event"",""trial"",""time""
""fullscreenenter"",""0"",""2419""
","
","
","""event"",""trial"",""time""
""fullscreenenter"",""0"",""2419""
","
","null","<p></p>","null","","","","","","","",""
"","image","106","126672","0.0-106.0","""event"",""trial"",""time""
""fullscreenenter"",""0"",""2419""
","
","
","""event"",""trial"",""time""
""fullscreenenter"",""0"",""2419""
","
","939.6000000014901","run_exp/static/images/Set 6_rs/121a.jpg","86","","","","","","learn","SR",""
"","show_choice","107","127734","0.0-107.0","""event"",""trial"",""time""
""fullscreenenter"",""0"",""2419""
","
","
","""event"",""trial"",""time""
""fullscreenenter"",""0"",""2419""
","
","null","run_exp/static/images/Set 6_rs/121a.jpg","null","","","","","","learn","SR",""
"","html-keyboard-response","108","128235","0.0-108.0","""event"",""trial"",""time""
""fullscreenenter"",""0"",""2419""
","
","
","""event"",""trial"",""time""
""fullscreenenter"",""0"",""2419""
","
","null","<p></p>","null","","","","","","","",""
"","image","109","129339","0.0-109.0","""event"",""trial"",""time""
""fullscreenenter"",""0"",""2419""
","
","
","""event"",""trial"",""time""
""fullscreenenter"",""0"",""2419""
","
","1102.5","run_exp/static/images/Set 6_rs/010a.jpg","86","","","","","","learn","SR",""
"","show_choice","110","130237","0.0-110.0","""event"",""trial"",""time""
""fullscreenenter"",""0"",""2419""
","
","
","""event"",""trial"",""time""
""fullscreenenter"",""0"",""2419""
","
","null","run_exp/static/images/Set 6_rs/010a.jpg","null","","","","","","learn","SR",""
"","html-keyboard-response","111","130738","0.0-111.0","""event"",""trial"",""time""
""fullscreenenter"",""0"",""2419""
","
","
","""event"",""trial"",""time""
""fullscreenenter"",""0"",""2419""
","
","null","<p></p>","null","","","","","","","",""
"","image","112","131514","0.0-112.0","""event"",""trial"",""time""
""fullscreenenter"",""0"",""2419""
","
","
","""event"",""trial"",""time""
""fullscreenenter"",""0"",""2419""
","
","774.8000000007451","run_exp/static/images/Set 6_rs/091a.jpg","86","","","","","","learn","SL",""
"","show_choice","113","132740","0.0-113.0","""event"",""trial"",""time""
""fullscreenenter"",""0"",""2419""
","
","
","""event"",""trial"",""time""
""fullscreenenter"",""0"",""2419""
","
","null","run_exp/static/images/Set 6_rs/091a.jpg","null","","","","","","learn","SL",""
"","html-keyboard-response","114","133241","0.0-114.0","""event"",""trial"",""time""
""fullscreenenter"",""0"",""2419""
","
","
","""event"",""trial"",""time""
""fullscreenenter"",""0"",""2419""
","
","null","<p></p>","null","","","","","","","",""
"","image","115","134039","0.0-115.0","""event"",""trial"",""time""
""fullscreenenter"",""0"",""2419""
","
","
","""event"",""trial"",""time""
""fullscreenenter"",""0"",""2419""
","
","796.5","run_exp/static/images/Set 6_rs/057a.jpg","86","","","","","","learn","SL",""
"","show_choice","116","135244","0.0-116.0","""event"",""trial"",""time""
""fullscreenenter"",""0"",""2419""
","
","
","""event"",""trial"",""time""
""fullscreenenter"",""0"",""2419""
","
","null","run_exp/static/images/Set 6_rs/057a.jpg","null","","","","","","learn","SL",""
"","html-keyboard-response","117","135745","0.0-117.0","""event"",""trial"",""time""
""fullscreenenter"",""0"",""2419""
","
","
","""event"",""trial"",""time""
""fullscreenenter"",""0"",""2419""
","
","null","<p></p>","null","","","","","","","",""
"","image","118","136759","0.0-118.0","""event"",""trial"",""time""
""fullscreenenter"",""0"",""2419""
","
","
","""event"",""trial"",""time""
""fullscreenenter"",""0"",""2419""
","
","1012.0999999977648","run_exp/static/images/Set 6_rs/129a.jpg","78","","","","","","learn","SL",""
"","show_choice","119","137748","0.0-119.0","""event"",""trial"",""time""
""fullscreenenter"",""0"",""2419""
","
","
","""event"",""trial"",""time""
""fullscreenenter"",""0"",""2419""
","
","null","run_exp/static/images/Set 6_rs/129a.jpg","null","","","","","","learn","SL",""
"","html-keyboard-response","120","138249","0.0-120.0","""event"",""trial"",""time""
""fullscreenenter"",""0"",""2419""
","
","
","""event"",""trial"",""time""
""fullscreenenter"",""0"",""2419""
","
","null","<p></p>","null","","","","","","","",""
"","image","121","138404","0.0-121.0","""event"",""trial"",""time""
""fullscreenenter"",""0"",""2419""
","
","
","""event"",""trial"",""time""
""fullscreenenter"",""0"",""2419""
","
","152.69999999925494","run_exp/static/images/Set 6_rs/141a.jpg","78","","","","","","learn","SR",""
"","show_choice","122","140252","0.0-122.0","""event"",""trial"",""time""
""fullscreenenter"",""0"",""2419""
","
","
","""event"",""trial"",""time""
""fullscreenenter"",""0"",""2419""
","
","null","run_exp/static/images/Set 6_rs/141a.jpg","null","","","","","","learn","SR",""
"","html-keyboard-response","123","140753","0.0-123.0","""event"",""trial"",""time""
""fullscreenenter"",""0"",""2419""
","
","
","""event"",""trial"",""time""
""fullscreenenter"",""0"",""2419""
","
","null","<p></p>","null","","","","","","","",""
"","image","124","142755","0.0-124.0","""event"",""trial"",""time""
""fullscreenenter"",""0"",""2419""
","
","
","""event"",""trial"",""time""
""fullscreenenter"",""0"",""2419""
","
","null","run_exp/static/images/Set 6_rs/006a.jpg","null","","","","","","learn","SL",""
"","show_choice","125","144757","0.0-125.0","""event"",""trial"",""time""
""fullscreenenter"",""0"",""2419""
","
","
","""event"",""trial"",""time""
""fullscreenenter"",""0"",""2419""
","
","null","run_exp/static/images/blank.png","null","","","","","","learn","SL",""
"","html-keyboard-response","126","145258","0.0-126.0","""event"",""trial"",""time""
""fullscreenenter"",""0"",""2419""
","
","
","""event"",""trial"",""time""
""fullscreenenter"",""0"",""2419""
","
","null","<p></p>","null","","","","","","","",""
"","image","127","146596","0.0-127.0","""event"",""trial"",""time""
""fullscreenenter"",""0"",""2419""
","
","
","""event"",""trial"",""time""
""fullscreenenter"",""0"",""2419""
","
","1336.1000000014901","run_exp/static/images/Set 6_rs/036a.jpg","86","","","","","","learn","SL",""
"","show_choice","128","147260","0.0-128.0","""event"",""trial"",""time""
""fullscreenenter"",""0"",""2419""
","
","
","""event"",""trial"",""time""
""fullscreenenter"",""0"",""2419""
","
","null","run_exp/static/images/Set 6_rs/036a.jpg","null","","","","","","learn","SL",""
"","html-keyboard-response","129","147761","0.0-129.0","""event"",""trial"",""time""
""fullscreenenter"",""0"",""2419""
","
","
","""event"",""trial"",""time""
""fullscreenenter"",""0"",""2419""
","
","null","<p></p>","null","","","","","","","",""
"","image","130","149113","0.0-130.0","""event"",""trial"",""time""
""fullscreenenter"",""0"",""2419""
","
","
","""event"",""trial"",""time""
""fullscreenenter"",""0"",""2419""
","
","1349.6000000014901","run_exp/static/images/Set 6_rs/008a.jpg","78","","","","","","learn","SL",""
"","show_choice","131","149764","0.0-131.0","""event"",""trial"",""time""
""fullscreenenter"",""0"",""2419""
","
","
","""event"",""trial"",""time""
""fullscreenenter"",""0"",""2419""
","
","null","run_exp/static/images/Set 6_rs/008a.jpg","null","","","","","","learn","SL",""
"","html-keyboard-response","132","150265","0.0-132.0","""event"",""trial"",""time""
""fullscreenenter"",""0"",""2419""
","
","
","""event"",""trial"",""time""
""fullscreenenter"",""0"",""2419""
","
","null","<p></p>","null","","","","","","","",""
"","image","133","151298","0.0-133.0","""event"",""trial"",""time""
""fullscreenenter"",""0"",""2419""
","
","
","""event"",""trial"",""time""
""fullscreenenter"",""0"",""2419""
","
","1031.300000000745","run_exp/static/images/Set 6_rs/122a.jpg","86","","","","","","learn","SR",""
"","show_choice","134","152268","0.0-134.0","""event"",""trial"",""time""
""fullscreenenter"",""0"",""2419""
","
","
","""event"",""trial"",""time""
""fullscreenenter"",""0"",""2419""
","
","null","run_exp/static/images/Set 6_rs/122a.jpg","null","","","","","","learn","SR",""
"","html-keyboard-response","135","152769","0.0-135.0","""event"",""trial"",""time""
""fullscreenenter"",""0"",""2419""
","
","
","""event"",""trial"",""time""
""fullscreenenter"",""0"",""2419""
","
","null","<p></p>","null","","","","","","","",""
"","image","136","153509","0.0-136.0","""event"",""trial"",""time""
""fullscreenenter"",""0"",""2419""
","
","
","""event"",""trial"",""time""
""fullscreenenter"",""0"",""2419""
","
","739","run_exp/static/images/Set 6_rs/024a.jpg","86","","","","","","learn","SR",""
"","show_choice","137","154772","0.0-137.0","""event"",""trial"",""time""
""fullscreenenter"",""0"",""2419""
","
","
","""event"",""trial"",""time""
""fullscreenenter"",""0"",""2419""
","
","null","run_exp/static/images/Set 6_rs/024a.jpg","null","","","","","","learn","SR",""
"","html-keyboard-response","138","155273","0.0-138.0","""event"",""trial"",""time""
""fullscreenenter"",""0"",""2419""
","
","
","""event"",""trial"",""time""
""fullscreenenter"",""0"",""2419""
","
","null","<p></p>","null","","","","","","","",""
"","image","139","156181","0.0-139.0","""event"",""trial"",""time""
""fullscreenenter"",""0"",""2419""
","
","
","""event"",""trial"",""time""
""fullscreenenter"",""0"",""2419""
","
","906.7000000029802","run_exp/static/images/Set 6_rs/111a.jpg","86","","","","","","learn","SL",""
"","show_choice","140","157276","0.0-140.0","""event"",""trial"",""time""
""fullscreenenter"",""0"",""2419""
","
","
","""event"",""trial"",""time""
""fullscreenenter"",""0"",""2419""
","
","null","run_exp/static/images/Set 6_rs/111a.jpg","null","","","","","","learn","SL",""
"","html-keyboard-response","141","157777","0.0-141.0","""event"",""trial"",""time""
""fullscreenenter"",""0"",""2419""
","
","
","""event"",""trial"",""time""
""fullscreenenter"",""0"",""2419""
","
","null","<p></p>","null","","","","","","","",""
"","image","142","159273","0.0-142.0","""event"",""trial"",""time""
""fullscreenenter"",""0"",""2419""
","
","
","""event"",""trial"",""time""
""fullscreenenter"",""0"",""2419""
","
","1494.3999999985099","run_exp/static/images/Set 6_rs/167a.jpg","78","","","","","","learn","SL",""
"","show_choice","143","159779","0.0-143.0","""event"",""trial"",""time""
""fullscreenenter"",""0"",""2419""
","
","
","""event"",""trial"",""time""
""fullscreenenter"",""0"",""2419""
","
","null","run_exp/static/images/Set 6_rs/167a.jpg","null","","","","","","learn","SL",""
"","html-keyboard-response","144","160280","0.0-144.0","""event"",""trial"",""time""
""fullscreenenter"",""0"",""2419""
","
","
","""event"",""trial"",""time""
""fullscreenenter"",""0"",""2419""
","
","null","<p></p>","null","","","","","","","",""
"","image","145","161187","0.0-145.0","""event"",""trial"",""time""
""fullscreenenter"",""0"",""2419""
","
","
","""event"",""trial"",""time""
""fullscreenenter"",""0"",""2419""
","
","905.5","run_exp/static/images/Set 6_rs/085a.jpg","86","","","","","","learn","SL",""
"","show_choice","146","162283","0.0-146.0","""event"",""trial"",""time""
""fullscreenenter"",""0"",""2419""
","
","
","""event"",""trial"",""time""
""fullscreenenter"",""0"",""2419""
","
","null","run_exp/static/images/Set 6_rs/085a.jpg","null","","","","","","learn","SL",""
"","html-keyboard-response","147","162785","0.0-147.0","""event"",""trial"",""time""
""fullscreenenter"",""0"",""2419""
","
","
","""event"",""trial"",""time""
""fullscreenenter"",""0"",""2419""
","
","null","<p></p>","null","","","","","","","",""
"","image","148","164787","0.0-148.0","""event"",""trial"",""time""
""fullscreenenter"",""0"",""2419""
","
","
","""event"",""trial"",""time""
""fullscreenenter"",""0"",""2419""
","
","null","run_exp/static/images/Set 6_rs/112a.jpg","null","","","","","","learn","SR",""
"","show_choice","149","166788","0.0-149.0","""event"",""trial"",""time""
""fullscreenenter"",""0"",""2419""
","
","
","""event"",""trial"",""time""
""fullscreenenter"",""0"",""2419""
","
","null","run_exp/static/images/blank.png","null","","","","","","learn","SR",""
"","html-keyboard-response","150","167289","0.0-150.0","""event"",""trial"",""time""
""fullscreenenter"",""0"",""2419""
","
","
","""event"",""trial"",""time""
""fullscreenenter"",""0"",""2419""
","
","null","<p></p>","null","","","","","","","",""
"","image","151","168427","0.0-151.0","""event"",""trial"",""time""
""fullscreenenter"",""0"",""2419""
","
","
","""event"",""trial"",""time""
""fullscreenenter"",""0"",""2419""
","
","1136.4000000022352","run_exp/static/images/Set 6_rs/166a.jpg","78","","","","","","learn","SR",""
"","show_choice","152","169291","0.0-152.0","""event"",""trial"",""time""
""fullscreenenter"",""0"",""2419""
","
","
","""event"",""trial"",""time""
""fullscreenenter"",""0"",""2419""
","
","null","run_exp/static/images/Set 6_rs/166a.jpg","null","","","","","","learn","SR",""
"","html-keyboard-response","153","169792","0.0-153.0","""event"",""trial"",""time""
""fullscreenenter"",""0"",""2419""
","
","
","""event"",""trial"",""time""
""fullscreenenter"",""0"",""2419""
","
","null","<p></p>","null","","","","","","","",""
"","image","154","170946","0.0-154.0","""event"",""trial"",""time""
""fullscreenenter"",""0"",""2419""
","
","
","""event"",""trial"",""time""
""fullscreenenter"",""0"",""2419""
","
","1151.8999999985099","run_exp/static/images/Set 6_rs/172a.jpg","86","","","","","","learn","SR",""
"","show_choice","155","171796","0.0-155.0","""event"",""trial"",""time""
""fullscreenenter"",""0"",""2419""
","
","
","""event"",""trial"",""time""
""fullscreenenter"",""0"",""2419""
","
","null","run_exp/static/images/Set 6_rs/172a.jpg","null","","","","","","learn","SR",""
"","html-keyboard-response","156","172297","0.0-156.0","""event"",""trial"",""time""
""fullscreenenter"",""0"",""2419""
","
","
","""event"",""trial"",""time""
""fullscreenenter"",""0"",""2419""
","
","null","<p></p>","null","","","","","","","",""
"","image","157","173140","0.0-157.0","""event"",""trial"",""time""
""fullscreenenter"",""0"",""2419""
","
","
","""event"",""trial"",""time""
""fullscreenenter"",""0"",""2419""
","
","840.8999999985099","run_exp/static/images/Set 6_rs/186a.jpg","86","","","","","","learn","SR",""
"","show_choice","158","174300","0.0-158.0","""event"",""trial"",""time""
""fullscreenenter"",""0"",""2419""
","
","
","""event"",""trial"",""time""
""fullscreenenter"",""0"",""2419""
","
","null","run_exp/static/images/Set 6_rs/186a.jpg","null","","","","","","learn","SR",""
"","html-keyboard-response","159","174801","0.0-159.0","""event"",""trial"",""time""
""fullscreenenter"",""0"",""2419""
","
","
","""event"",""trial"",""time""
""fullscreenenter"",""0"",""2419""
","
","null","<p></p>","null","","","","","","","",""
"","image","160","176292","0.0-160.0","""event"",""trial"",""time""
""fullscreenenter"",""0"",""2419""
","
","
","""event"",""trial"",""time""
""fullscreenenter"",""0"",""2419""
","
","1488.3999999985099","run_exp/static/images/Set 6_rs/007a.jpg","78","","","","","","learn","SR",""
"","show_choice","161","176804","0.0-161.0","""event"",""trial"",""time""
""fullscreenenter"",""0"",""2419""
","
","
","""event"",""trial"",""time""
""fullscreenenter"",""0"",""2419""
","
","null","run_exp/static/images/Set 6_rs/007a.jpg","null","","","","","","learn","SR",""
"","html-keyboard-response","162","177305","0.0-162.0","""event"",""trial"",""time""
""fullscreenenter"",""0"",""2419""
","
","
","""event"",""trial"",""time""
""fullscreenenter"",""0"",""2419""
","
","null","<p></p>","null","","","","","","","",""
"","image","163","178975","0.0-163.0","""event"",""trial"",""time""
""fullscreenenter"",""0"",""2419""
","
","
","""event"",""trial"",""time""
""fullscreenenter"",""0"",""2419""
","
","1667.5999999977648","run_exp/static/images/Set 6_rs/066a.jpg","78","","","","","","learn","SL",""
"","show_choice","164","179310","0.0-164.0","""event"",""trial"",""time""
""fullscreenenter"",""0"",""2419""
","
","
","""event"",""trial"",""time""
""fullscreenenter"",""0"",""2419""
","
","null","run_exp/static/images/Set 6_rs/066a.jpg","null","","","","","","learn","SL",""
"","html-keyboard-response","165","179811","0.0-165.0","""event"",""trial"",""time""
""fullscreenenter"",""0"",""2419""
","
","
","""event"",""trial"",""time""
""fullscreenenter"",""0"",""2419""
","
","null","<p></p>","null","","","","","","","",""
"","image","166","180898","0.0-166.0","""event"",""trial"",""time""
""fullscreenenter"",""0"",""2419""
","
","
","""event"",""trial"",""time""
""fullscreenenter"",""0"",""2419""
","
","1086","run_exp/static/images/Set 6_rs/178a.jpg","78","","","","","","learn","SR",""
"","show_choice","167","181814","0.0-167.0","""event"",""trial"",""time""
""fullscreenenter"",""0"",""2419""
","
","
","""event"",""trial"",""time""
""fullscreenenter"",""0"",""2419""
","
","null","run_exp/static/images/Set 6_rs/178a.jpg","null","","","","","","learn","SR",""
"","html-keyboard-response","168","182315","0.0-168.0","""event"",""trial"",""time""
""fullscreenenter"",""0"",""2419""
","
","
","""event"",""trial"",""time""
""fullscreenenter"",""0"",""2419""
","
","null","<p></p>","null","","","","","","","",""
"","image","169","183325","0.0-169.0","""event"",""trial"",""time""
""fullscreenenter"",""0"",""2419""
","
","
","""event"",""trial"",""time""
""fullscreenenter"",""0"",""2419""
","
","1007.3000000007451","run_exp/static/images/Set 6_rs/023a.jpg","86","","","","","","learn","SR",""
"","show_choice","170","184319","0.0-170.0","""event"",""trial"",""time""
""fullscreenenter"",""0"",""2419""
","
","
","""event"",""trial"",""time""
""fullscreenenter"",""0"",""2419""
","
","null","run_exp/static/images/Set 6_rs/023a.jpg","null","","","","","","learn","SR",""
"","html-keyboard-response","171","184820","0.0-171.0","""event"",""trial"",""time""
""fullscreenenter"",""0"",""2419""
","
","
","""event"",""trial"",""time""
""fullscreenenter"",""0"",""2419""
","
","null","<p></p>","null","","","","","","","",""
"","image","172","185252","0.0-172.0","""event"",""trial"",""time""
""fullscreenenter"",""0"",""2419""
","
","
","""event"",""trial"",""time""
""fullscreenenter"",""0"",""2419""
","
","430.19999999925494","run_exp/static/images/Set 6_rs/075a.jpg","78","","","","","","learn","SR",""
"","show_choice","173","186823","0.0-173.0","""event"",""trial"",""time""
""fullscreenenter"",""0"",""2419""
","
","
","""event"",""trial"",""time""
""fullscreenenter"",""0"",""2419""
","
","null","run_exp/static/images/Set 6_rs/075a.jpg","null","","","","","","learn","SR",""
"","html-keyboard-response","174","187324","0.0-174.0","""event"",""trial"",""time""
""fullscreenenter"",""0"",""2419""
","
","
","""event"",""trial"",""time""
""fullscreenenter"",""0"",""2419""
","
","null","<p></p>","null","","","","","","","",""
"","image","175","188857","0.0-175.0","""event"",""trial"",""time""
""fullscreenenter"",""0"",""2419""
","
","
","""event"",""trial"",""time""
""fullscreenenter"",""0"",""2419""
","
","1532.1000000014901","run_exp/static/images/Set 6_rs/074a.jpg","78","","","","","","learn","SL",""
"","show_choice","176","189325","0.0-176.0","""event"",""trial"",""time""
""fullscreenenter"",""0"",""2419""
","
","
","""event"",""trial"",""time""
""fullscreenenter"",""0"",""2419""
","
","null","run_exp/static/images/Set 6_rs/074a.jpg","null","","","","","","learn","SL",""
"","html-keyboard-response","177","189827","0.0-177.0","""event"",""trial"",""time""
""fullscreenenter"",""0"",""2419""
","
","
","""event"",""trial"",""time""
""fullscreenenter"",""0"",""2419""
","
","null","<p></p>","null","","","","","","","",""
"","image","178","191368","0.0-178.0","""event"",""trial"",""time""
""fullscreenenter"",""0"",""2419""
","
","
","""event"",""trial"",""time""
""fullscreenenter"",""0"",""2419""
","
","1539.199999999255","run_exp/static/images/Set 6_rs/064a.jpg","86","","","","","","learn","SR",""
"","show_choice","179","191829","0.0-179.0","""event"",""trial"",""time""
""fullscreenenter"",""0"",""2419""
","
","
","""event"",""trial"",""time""
""fullscreenenter"",""0"",""2419""
","
","null","run_exp/static/images/Set 6_rs/064a.jpg","null","","","","","","learn","SR",""
"","html-keyboard-response","180","192330","0.0-180.0","""event"",""trial"",""time""
""fullscreenenter"",""0"",""2419""
","
","
","""event"",""trial"",""time""
""fullscreenenter"",""0"",""2419""
","
","null","<p></p>","null","","","","","","","",""
"","image","181","193584","0.0-181.0","""event"",""trial"",""time""
""fullscreenenter"",""0"",""2419""
","
","
","""event"",""trial"",""time""
""fullscreenenter"",""0"",""2419""
","
","1252.6000000014901","run_exp/static/images/Set 6_rs/191a.jpg","78","","","","","","learn","SL",""
"","show_choice","182","194333","0.0-182.0","""event"",""trial"",""time""
""fullscreenenter"",""0"",""2419""
","
","
","""event"",""trial"",""time""
""fullscreenenter"",""0"",""2419""
","
","null","run_exp/static/images/Set 6_rs/191a.jpg","null","","","","","","learn","SL",""
"","html-keyboard-response","183","194834","0.0-183.0","""event"",""trial"",""time""
""fullscreenenter"",""0"",""2419""
","
","
","""event"",""trial"",""time""
""fullscreenenter"",""0"",""2419""
","
","null","<p></p>","null","","","","","","","",""
"","image","184","196013","0.0-184.0","""event"",""trial"",""time""
""fullscreenenter"",""0"",""2419""
","
","
","""event"",""trial"",""time""
""fullscreenenter"",""0"",""2419""
","
","1177.0999999977648","run_exp/static/images/Set 6_rs/169a.jpg","78","","","","","","learn","SR",""
"","show_choice","185","196837","0.0-185.0","""event"",""trial"",""time""
""fullscreenenter"",""0"",""2419""
","
","
","""event"",""trial"",""time""
""fullscreenenter"",""0"",""2419""
","
","null","run_exp/static/images/Set 6_rs/169a.jpg","null","","","","","","learn","SR",""
"","html-keyboard-response","186","197338","0.0-186.0","""event"",""trial"",""time""
""fullscreenenter"",""0"",""2419""
","
","
","""event"",""trial"",""time""
""fullscreenenter"",""0"",""2419""
","
","null","<p></p>","null","","","","","","","",""
"","image","187","198294","0.0-187.0","""event"",""trial"",""time""
""fullscreenenter"",""0"",""2419""
","
","
","""event"",""trial"",""time""
""fullscreenenter"",""0"",""2419""
","
","955.3999999985099","run_exp/static/images/Set 6_rs/012a.jpg","86","","","","","","learn","SR",""
"","show_choice","188","199340","0.0-188.0","""event"",""trial"",""time""
""fullscreenenter"",""0"",""2419""
","
","
","""event"",""trial"",""time""
""fullscreenenter"",""0"",""2419""
","
","null","run_exp/static/images/Set 6_rs/012a.jpg","null","","","","","","learn","SR",""
"","html-keyboard-response","189","199841","0.0-189.0","""event"",""trial"",""time""
""fullscreenenter"",""0"",""2419""
","
","
","""event"",""trial"",""time""
""fullscreenenter"",""0"",""2419""
","
","null","<p></p>","null","","","","","","","",""
"","image","190","201221","0.0-190.0","""event"",""trial"",""time""
""fullscreenenter"",""0"",""2419""
","
","
","""event"",""trial"",""time""
""fullscreenenter"",""0"",""2419""
","
","1379","run_exp/static/images/Set 6_rs/181a.jpg","78","","","","","","learn","SL",""
"","show_choice","191","201843","0.0-191.0","""event"",""trial"",""time""
""fullscreenenter"",""0"",""2419""
","
","
","""event"",""trial"",""time""
""fullscreenenter"",""0"",""2419""
","
","null","run_exp/static/images/Set 6_rs/181a.jpg","null","","","","","","learn","SL",""
"","html-keyboard-response","192","202344","0.0-192.0","""event"",""trial"",""time""
""fullscreenenter"",""0"",""2419""
","
","
","""event"",""trial"",""time""
""fullscreenenter"",""0"",""2419""
","
","null","<p></p>","null","","","","","","","",""
"","image","193","203408","0.0-193.0","""event"",""trial"",""time""
""fullscreenenter"",""0"",""2419""
","
","
","""event"",""trial"",""time""
""fullscreenenter"",""0"",""2419""
","
","1061.199999999255","run_exp/static/images/Set 6_rs/131a.jpg","86","","","","","","learn","SR",""
"","show_choice","194","204348","0.0-194.0","""event"",""trial"",""time""
""fullscreenenter"",""0"",""2419""
","
","
","""event"",""trial"",""time""
""fullscreenenter"",""0"",""2419""
","
","null","run_exp/static/images/Set 6_rs/131a.jpg","null","","","","","","learn","SR",""
"","html-keyboard-response","195","204849","0.0-195.0","""event"",""trial"",""time""
""fullscreenenter"",""0"",""2419""
","
","
","""event"",""trial"",""time""
""fullscreenenter"",""0"",""2419""
","
","null","<p></p>","null","","","","","","","",""
"","test_intro","196","241745","0.0-196.0","""event"",""trial"",""time""
""fullscreenenter"",""0"",""2419""
","
","
","""event"",""trial"",""time""
""fullscreenenter"",""0"",""2419""
","
","null","run_exp/static/audio/clip_2_memory.m4a","null","","","","","<div class='center'><p>Now, lets see how much you remember about the items you just saw.  For each item, you need to indicate if it was <b>old</b> by pressing the <b>v</b> key, <b>similar</b> by pressing the <b>b</b> key, or <b>new</b> by pressing the <b>n</b> key.</p><p>Old refers to an item that you saw before in the indoor/outdoor game that you just played, new refers to an item you have <b>not</b> seen before within the indoor/outdoor game, and similar refers to an item that is similar to an item youve seen before but is not exactly the same. </p><p>Before we begin, lets go over some brief demonstrations to make sure you understand.</p></div>","","",""
"","html-keyboard-response","197","242132","0.0-197.0","""event"",""trial"",""time""
""fullscreenenter"",""0"",""2419""
","
","
","""event"",""trial"",""time""
""fullscreenenter"",""0"",""2419""
","
","385.30000000074506","<div class='center'><p>Now, lets see how much you remember about the items you just saw.  For each item, you need to indicate if it was <b>old</b> by pressing the <b>v</b> key, <b>similar</b> by pressing the <b>b</b> key, or <b>new</b> by pressing the <b>n</b> key.</p><p>Old refers to an item that you saw before in the indoor/outdoor game that you just played, new refers to an item you have <b>not</b> seen before within the indoor/outdoor game, and similar refers to an item that is similar to an item youve seen before but is not exactly the same. </p><p>Before we begin, lets go over some brief demonstrations to make sure you understand.</p><div><p><b>[Press the space bar to continue]</b></p></div>","32","","","","","","","",""
"","items","198","249634","0.0-198.0","""event"",""trial"",""time""
""fullscreenenter"",""0"",""2419""
","
","
","""event"",""trial"",""time""
""fullscreenenter"",""0"",""2419""
","
","null","run_exp/static/audio/clip_3_items.m4a","null","","","","","","","",""
"","mop","199","254138","0.0-199.0","""event"",""trial"",""time""
""fullscreenenter"",""0"",""2419""
","
","
","""event"",""trial"",""time""
""fullscreenenter"",""0"",""2419""
","
","null","run_exp/static/audio/clip_4_mop.m4a","null","","","","","","","",""
"","baseball","200","257640","0.0-200.0","""event"",""trial"",""time""
""fullscreenenter"",""0"",""2419""
","
","
","""event"",""trial"",""time""
""fullscreenenter"",""0"",""2419""
","
","null","run_exp/static/audio/clip_5_baseball.m4a","null","","","","","","","",""
"","trumpet","201","261142","0.0-201.0","""event"",""trial"",""time""
""fullscreenenter"",""0"",""2419""
","
","
","""event"",""trial"",""time""
""fullscreenenter"",""0"",""2419""
","
","null","run_exp/static/audio/clip_6_trumpet.m4a","null","","","","","","","",""
"","gummies","202","264644","0.0-202.0","""event"",""trial"",""time""
""fullscreenenter"",""0"",""2419""
","
","
","""event"",""trial"",""time""
""fullscreenenter"",""0"",""2419""
","
","null","run_exp/static/audio/clip_7_gummies.m4a","null","","","","","","","",""
"","osn","203","269147","0.0-203.0","""event"",""trial"",""time""
""fullscreenenter"",""0"",""2419""
","
","
","""event"",""trial"",""time""
""fullscreenenter"",""0"",""2419""
","
","null","run_exp/static/audio/clip_8_osn.m4a","null","","","","","","","",""
"","old_1","204","275651","0.0-204.0","""event"",""trial"",""time""
""fullscreenenter"",""0"",""2419""
","
","
","""event"",""trial"",""time""
""fullscreenenter"",""0"",""2419""
","
","null","run_exp/static/audio/clip_9_old_trumpet.m4a","null","","","","","","","",""
"","new_1","205","283155","0.0-205.0","""event"",""trial"",""time""
""fullscreenenter"",""0"",""2419""
","
","
","""event"",""trial"",""time""
""fullscreenenter"",""0"",""2419""
","
","null","run_exp/static/audio/clip_10_new_balloon.m4a","null","","","","","","","",""
"","similar_1a","206","287658","0.0-206.0","""event"",""trial"",""time""
""fullscreenenter"",""0"",""2419""
","
","
","""event"",""trial"",""time""
""fullscreenenter"",""0"",""2419""
","
","null","run_exp/static/audio/clip_11a_similar_mop.m4a","null","","","","","","","",""
"","similar_1b","207","294161","0.0-207.0","""event"",""trial"",""time""
""fullscreenenter"",""0"",""2419""
","
","
","""event"",""trial"",""time""
""fullscreenenter"",""0"",""2419""
","
","null","run_exp/static/audio/clip_11b_similar_mop.m4a","null","","","","","","","",""
"","new_2","208","297665","0.0-208.0","""event"",""trial"",""time""
""fullscreenenter"",""0"",""2419""
","
","
","""event"",""trial"",""time""
""fullscreenenter"",""0"",""2419""
","
","null","run_exp/static/audio/clip_12_new_stoplight.m4a","null","","","","","","","",""
"","old_2","209","301171","0.0-209.0","""event"",""trial"",""time""
""fullscreenenter"",""0"",""2419""
","
","
","""event"",""trial"",""time""
""fullscreenenter"",""0"",""2419""
","
","null","run_exp/static/audio/clip_13_old_baseball.m4a","null","","","","","","","",""
"","similar_2a","210","304674","0.0-210.0","""event"",""trial"",""time""
""fullscreenenter"",""0"",""2419""
","
","
","""event"",""trial"",""time""
""fullscreenenter"",""0"",""2419""
","
","null","run_exp/static/audio/clip_14a_similar_gummies.m4a","null","","","","","","","",""
"","similar_2b","211","312176","0.0-211.0","""event"",""trial"",""time""
""fullscreenenter"",""0"",""2419""
","
","
","""event"",""trial"",""time""
""fullscreenenter"",""0"",""2419""
","
","null","run_exp/static/audio/clip_14b_similar_gummies.m4a","null","","","","","","","",""
"","practice","212","354469","0.0-212.0","""event"",""trial"",""time""
""fullscreenenter"",""0"",""2419""
","
","
","""event"",""trial"",""time""
""fullscreenenter"",""0"",""2419""
","
","null","run_exp/static/audio/clip_15_practice.m4a","null","","","","","<div class='center'><p>Lets practice a little to make sure you understand the difference between new, similar, and old. Lets say you saw these three items in the indoor/outdoor game.</p><p> Try your best to remember these images because youll soon be tested on them in a practice game. In the practice game, youll be shown images and youll have to say if they are old (one of the three images belows), similar (similar to one of the images below but not exactly the same), or new (are not one of the images below nor similar to them).</p><p>Once you press the space bar youll be shown these images again but one at time. Then youll begin the practice game.</p><p><img src='run_exp/static/images/tutorial/test/three_indoor_outdoor.png' height='300'></p></div>","","",""
"","html-keyboard-response","213","354931","0.0-213.0","""event"",""trial"",""time""
""fullscreenenter"",""0"",""2419""
","
","
","""event"",""trial"",""time""
""fullscreenenter"",""0"",""2419""
","
","459.4000000022352","<div class='center'><p>Lets practice a little to make sure you understand the difference between new, similar, and old. Lets say you saw these three items in the indoor/outdoor game.</p><p> Try your best to remember these images because youll soon be tested on them in a practice game. In the practice game, youll be shown images and youll have to say if they are old (one of the three images belows), similar (similar to one of the images below but not exactly the same), or new (are not one of the images below nor similar to them).</p><p>Once you press the space bar youll be shown these images again but one at time. Then youll begin the practice game.</p><p><img src='run_exp/static/images/tutorial/test/three_indoor_outdoor.png' height='300'></p><div><p><b>[Press the space bar to continue]</b></p></div>","32","","","","","","","",""
"","planet","214","356932","0.0-214.0","""event"",""trial"",""time""
""fullscreenenter"",""0"",""2419""
","
","
","""event"",""trial"",""time""
""fullscreenenter"",""0"",""2419""
","
","null","run_exp/static/images/tutorial/test/008a.jpg","null","","","","","","","",""
"","boot","215","358934","0.0-215.0","""event"",""trial"",""time""
""fullscreenenter"",""0"",""2419""
","
","
","""event"",""trial"",""time""
""fullscreenenter"",""0"",""2419""
","
","null","run_exp/static/images/tutorial/test/011a.jpg","null","","","","","","","",""
"","lemon","216","360936","0.0-216.0","""event"",""trial"",""time""
""fullscreenenter"",""0"",""2419""
","
","
","""event"",""trial"",""time""
""fullscreenenter"",""0"",""2419""
","
","null","run_exp/static/images/tutorial/test/018a.jpg","null","","","","","","","",""
"","practice_q1","217","366195","0.0-217.0","""event"",""trial"",""time""
""fullscreenenter"",""0"",""2419""
","
","
","""event"",""trial"",""time""
""fullscreenenter"",""0"",""2419""
","
","5256.39999999851","run_exp/static/audio/clip_16_practice_question.m4a","78","","","","","","","",""
"","correct","218","368294","0.0-218.0-0.0","""event"",""trial"",""time""
""fullscreenenter"",""0"",""2419""
","
","
","""event"",""trial"",""time""
""fullscreenenter"",""0"",""2419""
","
","null","run_exp/static/audio/clip_17_correct.m4a","null","","","","","<div class='center'><p>That's correct!</p></div>","","",""
"","html-keyboard-response","219","369858","0.0-218.0-1.0","""event"",""trial"",""time""
""fullscreenenter"",""0"",""2419""
","
","
","""event"",""trial"",""time""
""fullscreenenter"",""0"",""2419""
","
","1562.0999999977648","<div class='center'><p>That's correct!</p><div><p><b>[Press the space bar to continue]</b></p></div>","32","","","","","","","",""
"","practice_q2","220","373922","0.0-218.0-2.0","""event"",""trial"",""time""
""fullscreenenter"",""0"",""2419""
","
","
","""event"",""trial"",""time""
""fullscreenenter"",""0"",""2419""
","
","4062.60000000149","run_exp/static/audio/clip_16_practice_question.m4a","86","","","","","","","",""
"","correct","221","376057","0.0-219.0-0.0","""event"",""trial"",""time""
""fullscreenenter"",""0"",""2419""
","
","
","""event"",""trial"",""time""
""fullscreenenter"",""0"",""2419""
","
","null","run_exp/static/audio/clip_17_correct.m4a","null","","","","","<div class='center'><p>That's correct!</p></div>","","",""
"","html-keyboard-response","222","377163","0.0-219.0-1.0","""event"",""trial"",""time""
""fullscreenenter"",""0"",""2419""
","
","
","""event"",""trial"",""time""
""fullscreenenter"",""0"",""2419""
","
","1104.4000000022352","<div class='center'><p>That's correct!</p><div><p><b>[Press the space bar to continue]</b></p></div>","32","","","","","","","",""
"","practice_q3","223","378565","0.0-219.0-2.0","""event"",""trial"",""time""
""fullscreenenter"",""0"",""2419""
","
","
","""event"",""trial"",""time""
""fullscreenenter"",""0"",""2419""
","
","1396.6000000014901","run_exp/static/audio/clip_16_practice_question.m4a","66","","","","","","","",""
"","correct","224","380922","0.0-220.0-0.0","""event"",""trial"",""time""
""fullscreenenter"",""0"",""2419""
","
","
","""event"",""trial"",""time""
""fullscreenenter"",""0"",""2419""
","
","null","run_exp/static/audio/clip_17_correct.m4a","null","","","","","<div class='center'><p>That's correct!</p></div>","","",""
"","html-keyboard-response","225","388472","0.0-220.0-1.0","""event"",""trial"",""time""
""fullscreenenter"",""0"",""2419""
","
","
","""event"",""trial"",""time""
""fullscreenenter"",""0"",""2419""
","
","7548.10000000149","<div class='center'><p>That's correct!</p><div><p><b>[Press the space bar to continue]</b></p></div>","32","","","","","","","",""
"","begin_text","226","407120","0.0-221.0-0.0","""event"",""trial"",""time""
""fullscreenenter"",""0"",""2419""
","
","
","""event"",""trial"",""time""
""fullscreenenter"",""0"",""2419""
","
","null","run_exp/static/audio/clip_22_begin_test.m4a","null","","","","","<div class='center'><p>On to the real game where well test your memory of items from the indoor/outdoor game. For each item, you need to indicate if the item is <b>old</b> by pressing the <b>v</b> key, <b>similar</b> by pressing the <b>b</b> key, or <b>new</b> by pressing the <b>n</b> key. </p></div>","","",""
"","html-keyboard-response","227","414314","0.0-221.0-1.0","""event"",""trial"",""time""
""fullscreenenter"",""0"",""2419""
","
","
","""event"",""trial"",""time""
""fullscreenenter"",""0"",""2419""
","
","7191.70000000298","<div class='center'><p>On to the real game where well test your memory of items from the indoor/outdoor game. For each item, you need to indicate if the item is <b>old</b> by pressing the <b>v</b> key, <b>similar</b> by pressing the <b>b</b> key, or <b>new</b> by pressing the <b>n</b> key. </p><div><p><b>[Press the space bar to continue]</b></p></div>","32","","","","","","","",""
"","image","228","416069","0.0-222.0-0.0","""event"",""trial"",""time""
""fullscreenenter"",""0"",""2419""
","
","
","""event"",""trial"",""time""
""fullscreenenter"",""0"",""2419""
","
","1753.5999999977648","run_exp/static/images/Set 6_rs/079b.jpg","78","","","","","","test","TL","5"
"","show_choice","229","416571","0.0-222.0-1.0","""event"",""trial"",""time""
""fullscreenenter"",""0"",""2419""
","
","
","""event"",""trial"",""time""
""fullscreenenter"",""0"",""2419""
","
","null","run_exp/static/images/Set 6_rs/079b.jpg","null","","","","","","test","TL",""
"","html-keyboard-response","230","417073","0.0-222.0-2.0","""event"",""trial"",""time""
""fullscreenenter"",""0"",""2419""
","
","
","""event"",""trial"",""time""
""fullscreenenter"",""0"",""2419""
","
","null","<p></p>","null","","","","","","","",""
"","image","231","419283","0.0-223.0-0.0","""event"",""trial"",""time""
""fullscreenenter"",""0"",""2419""
","
","
","""event"",""trial"",""time""
""fullscreenenter"",""0"",""2419""
","
","2207.5","run_exp/static/images/Set 6_rs/172a.jpg","66","","","","","","test","TR","1"
"","show_choice","232","419785","0.0-223.0-1.0","""event"",""trial"",""time""
""fullscreenenter"",""0"",""2419""
","
","
","""event"",""trial"",""time""
""fullscreenenter"",""0"",""2419""
","
","null","run_exp/static/images/Set 6_rs/172a.jpg","null","","","","","","test","TR",""
"","html-keyboard-response","233","420287","0.0-223.0-2.0","""event"",""trial"",""time""
""fullscreenenter"",""0"",""2419""
","
","
","""event"",""trial"",""time""
""fullscreenenter"",""0"",""2419""
","
","null","<p></p>","null","","","","","","","",""
"","image","234","421947","0.0-224.0-0.0","""event"",""trial"",""time""
""fullscreenenter"",""0"",""2419""
","
","
","""event"",""trial"",""time""
""fullscreenenter"",""0"",""2419""
","
","1658.300000000745","run_exp/static/images/Set 6_rs/047a.jpg","78","","","","","","test","TF","3"
"","show_choice","235","422449","0.0-224.0-1.0","""event"",""trial"",""time""
""fullscreenenter"",""0"",""2419""
","
","
","""event"",""trial"",""time""
""fullscreenenter"",""0"",""2419""
","
","null","run_exp/static/images/Set 6_rs/047a.jpg","null","","","","","","test","TF",""
"","html-keyboard-response","236","422950","0.0-224.0-2.0","""event"",""trial"",""time""
""fullscreenenter"",""0"",""2419""
","
","
","""event"",""trial"",""time""
""fullscreenenter"",""0"",""2419""
","
","null","<p></p>","null","","","","","","","",""
"","image","237","424799","0.0-225.0-0.0","""event"",""trial"",""time""
""fullscreenenter"",""0"",""2419""
","
","
","""event"",""trial"",""time""
""fullscreenenter"",""0"",""2419""
","
","1847.199999999255","run_exp/static/images/Set 6_rs/122a.jpg","66","","","","","","test","TR","5"
"","show_choice","238","425302","0.0-225.0-1.0","""event"",""trial"",""time""
""fullscreenenter"",""0"",""2419""
","
","
","""event"",""trial"",""time""
""fullscreenenter"",""0"",""2419""
","
","null","run_exp/static/images/Set 6_rs/122a.jpg","null","","","","","","test","TR",""
"","html-keyboard-response","239","425804","0.0-225.0-2.0","""event"",""trial"",""time""
""fullscreenenter"",""0"",""2419""
","
","
","""event"",""trial"",""time""
""fullscreenenter"",""0"",""2419""
","
","null","<p></p>","null","","","","","","","",""
"","image","240","426868","0.0-226.0-0.0","""event"",""trial"",""time""
""fullscreenenter"",""0"",""2419""
","
","
","""event"",""trial"",""time""
""fullscreenenter"",""0"",""2419""
","
","1062","run_exp/static/images/Set 6_rs/045a.jpg","86","","","","","","test","TR","2"
"","show_choice","241","427370","0.0-226.0-1.0","""event"",""trial"",""time""
""fullscreenenter"",""0"",""2419""
","
","
","""event"",""trial"",""time""
""fullscreenenter"",""0"",""2419""
","
","null","run_exp/static/images/Set 6_rs/045a.jpg","null","","","","","","test","TR",""
"","html-keyboard-response","242","427871","0.0-226.0-2.0","""event"",""trial"",""time""
""fullscreenenter"",""0"",""2419""
","
","
","""event"",""trial"",""time""
""fullscreenenter"",""0"",""2419""
","
","null","<p></p>","null","","","","","","","",""
"","image","243","429512","0.0-227.0-0.0","""event"",""trial"",""time""
""fullscreenenter"",""0"",""2419""
","
","
","""event"",""trial"",""time""
""fullscreenenter"",""0"",""2419""
","
","1637.800000000745","run_exp/static/images/Set 6_rs/055b.jpg","86","","","","","","test","TL","4"
"","show_choice","244","430014","0.0-227.0-1.0","""event"",""trial"",""time""
""fullscreenenter"",""0"",""2419""
","
","
","""event"",""trial"",""time""
""fullscreenenter"",""0"",""2419""
","
","null","run_exp/static/images/Set 6_rs/055b.jpg","null","","","","","","test","TL",""
"","html-keyboard-response","245","430515","0.0-227.0-2.0","""event"",""trial"",""time""
""fullscreenenter"",""0"",""2419""
","
","
","""event"",""trial"",""time""
""fullscreenenter"",""0"",""2419""
","
","null","<p></p>","null","","","","","","","",""
"","image","246","431821","0.0-228.0-0.0","""event"",""trial"",""time""
""fullscreenenter"",""0"",""2419""
","
","
","""event"",""trial"",""time""
""fullscreenenter"",""0"",""2419""
","
","1303.800000000745","run_exp/static/images/Set 6_rs/117b.jpg","66","","","","","","test","TL","5"
"","show_choice","247","432323","0.0-228.0-1.0","""event"",""trial"",""time""
""fullscreenenter"",""0"",""2419""
","
","
","""event"",""trial"",""time""
""fullscreenenter"",""0"",""2419""
","
","null","run_exp/static/images/Set 6_rs/117b.jpg","null","","","","","","test","TL",""
"","html-keyboard-response","248","432825","0.0-228.0-2.0","""event"",""trial"",""time""
""fullscreenenter"",""0"",""2419""
","
","
","""event"",""trial"",""time""
""fullscreenenter"",""0"",""2419""
","
","null","<p></p>","null","","","","","","","",""
"","image","249","434817","0.0-229.0-0.0","""event"",""trial"",""time""
""fullscreenenter"",""0"",""2419""
","
","
","""event"",""trial"",""time""
""fullscreenenter"",""0"",""2419""
","
","1990.8999999985099","run_exp/static/images/Set 6_rs/074b.jpg","66","","","","","","test","TL","4"
"","show_choice","250","435319","0.0-229.0-1.0","""event"",""trial"",""time""
""fullscreenenter"",""0"",""2419""
","
","
","""event"",""trial"",""time""
""fullscreenenter"",""0"",""2419""
","
","null","run_exp/static/images/Set 6_rs/074b.jpg","null","","","","","","test","TL",""
"","html-keyboard-response","251","435820","0.0-229.0-2.0","""event"",""trial"",""time""
""fullscreenenter"",""0"",""2419""
","
","
","""event"",""trial"",""time""
""fullscreenenter"",""0"",""2419""
","
","null","<p></p>","null","","","","","","","",""
"","image","252","437051","0.0-230.0-0.0","""event"",""trial"",""time""
""fullscreenenter"",""0"",""2419""
","
","
","""event"",""trial"",""time""
""fullscreenenter"",""0"",""2419""
","
","1229.5","run_exp/static/images/Set 6_rs/126a.jpg","86","","","","","","test","TR","2"
"","show_choice","253","437553","0.0-230.0-1.0","""event"",""trial"",""time""
""fullscreenenter"",""0"",""2419""
","
","
","""event"",""trial"",""time""
""fullscreenenter"",""0"",""2419""
","
","null","run_exp/static/images/Set 6_rs/126a.jpg","null","","","","","","test","TR",""
"","html-keyboard-response","254","438055","0.0-230.0-2.0","""event"",""trial"",""time""
""fullscreenenter"",""0"",""2419""
","
","
","""event"",""trial"",""time""
""fullscreenenter"",""0"",""2419""
","
","null","<p></p>","null","","","","","","","",""
"","image","255","439209","0.0-231.0-0.0","""event"",""trial"",""time""
""fullscreenenter"",""0"",""2419""
","
","
","""event"",""trial"",""time""
""fullscreenenter"",""0"",""2419""
","
","1151.699999999255","run_exp/static/images/Set 6_rs/007a.jpg","86","","","","","","test","TR","3"
"","show_choice","256","439711","0.0-231.0-1.0","""event"",""trial"",""time""
""fullscreenenter"",""0"",""2419""
","
","
","""event"",""trial"",""time""
""fullscreenenter"",""0"",""2419""
","
","null","run_exp/static/images/Set 6_rs/007a.jpg","null","","","","","","test","TR",""
"","html-keyboard-response","257","440213","0.0-231.0-2.0","""event"",""trial"",""time""
""fullscreenenter"",""0"",""2419""
","
","
","""event"",""trial"",""time""
""fullscreenenter"",""0"",""2419""
","
","null","<p></p>","null","","","","","","","",""
"","image","258","441046","0.0-232.0-0.0","""event"",""trial"",""time""
""fullscreenenter"",""0"",""2419""
","
","
","""event"",""trial"",""time""
""fullscreenenter"",""0"",""2419""
","
","830.1999999992549","run_exp/static/images/Set 6_rs/088a.jpg","86","","","","","","test","TR","2"
"","show_choice","259","441548","0.0-232.0-1.0","""event"",""trial"",""time""
""fullscreenenter"",""0"",""2419""
","
","
","""event"",""trial"",""time""
""fullscreenenter"",""0"",""2419""
","
","null","run_exp/static/images/Set 6_rs/088a.jpg","null","","","","","","test","TR",""
"","html-keyboard-response","260","442050","0.0-232.0-2.0","""event"",""trial"",""time""
""fullscreenenter"",""0"",""2419""
","
","
","""event"",""trial"",""time""
""fullscreenenter"",""0"",""2419""
","
","null","<p></p>","null","","","","","","","",""
"","image","261","443306","0.0-233.0-0.0","""event"",""trial"",""time""
""fullscreenenter"",""0"",""2419""
","
","
","""event"",""trial"",""time""
""fullscreenenter"",""0"",""2419""
","
","1253.300000000745","run_exp/static/images/Set 6_rs/176a.jpg","78","","","","","","test","TF","4"
"","show_choice","262","443808","0.0-233.0-1.0","""event"",""trial"",""time""
""fullscreenenter"",""0"",""2419""
","
","
","""event"",""trial"",""time""
""fullscreenenter"",""0"",""2419""
","
","null","run_exp/static/images/Set 6_rs/176a.jpg","null","","","","","","test","TF",""
"","html-keyboard-response","263","444309","0.0-233.0-2.0","""event"",""trial"",""time""
""fullscreenenter"",""0"",""2419""
","
","
","""event"",""trial"",""time""
""fullscreenenter"",""0"",""2419""
","
","null","<p></p>","null","","","","","","","",""
"","image","264","446188","0.0-234.0-0.0","""event"",""trial"",""time""
""fullscreenenter"",""0"",""2419""
","
","
","""event"",""trial"",""time""
""fullscreenenter"",""0"",""2419""
","
","1877.0999999977648","run_exp/static/images/Set 6_rs/024a.jpg","86","","","","","","test","TR","5"
"","show_choice","265","446690","0.0-234.0-1.0","""event"",""trial"",""time""
""fullscreenenter"",""0"",""2419""
","
","
","""event"",""trial"",""time""
""fullscreenenter"",""0"",""2419""
","
","null","run_exp/static/images/Set 6_rs/024a.jpg","null","","","","","","test","TR",""
"","html-keyboard-response","266","447191","0.0-234.0-2.0","""event"",""trial"",""time""
""fullscreenenter"",""0"",""2419""
","
","
","""event"",""trial"",""time""
""fullscreenenter"",""0"",""2419""
","
","null","<p></p>","null","","","","","","","",""
"","image","267","448423","0.0-235.0-0.0","""event"",""trial"",""time""
""fullscreenenter"",""0"",""2419""
","
","
","""event"",""trial"",""time""
""fullscreenenter"",""0"",""2419""
","
","1230","run_exp/static/images/Set 6_rs/123b.jpg","86","","","","","","test","TL","2"
"","show_choice","268","448925","0.0-235.0-1.0","""event"",""trial"",""time""
""fullscreenenter"",""0"",""2419""
","
","
","""event"",""trial"",""time""
""fullscreenenter"",""0"",""2419""
","
","null","run_exp/static/images/Set 6_rs/123b.jpg","null","","","","","","test","TL",""
"","html-keyboard-response","269","449427","0.0-235.0-2.0","""event"",""trial"",""time""
""fullscreenenter"",""0"",""2419""
","
","
","""event"",""trial"",""time""
""fullscreenenter"",""0"",""2419""
","
","null","<p></p>","null","","","","","","","",""
"","image","270","450656","0.0-236.0-0.0","""event"",""trial"",""time""
""fullscreenenter"",""0"",""2419""
","
","
","""event"",""trial"",""time""
""fullscreenenter"",""0"",""2419""
","
","1226.199999999255","run_exp/static/images/Set 6_rs/056a.jpg","78","","","","","","test","TF","3"
"","show_choice","271","451159","0.0-236.0-1.0","""event"",""trial"",""time""
""fullscreenenter"",""0"",""2419""
","
","
","""event"",""trial"",""time""
""fullscreenenter"",""0"",""2419""
","
","null","run_exp/static/images/Set 6_rs/056a.jpg","null","","","","","","test","TF",""
"","html-keyboard-response","272","451660","0.0-236.0-2.0","""event"",""trial"",""time""
""fullscreenenter"",""0"",""2419""
","
","
","""event"",""trial"",""time""
""fullscreenenter"",""0"",""2419""
","
","null","<p></p>","null","","","","","","","",""
"","image","273","453002","0.0-237.0-0.0","""event"",""trial"",""time""
""fullscreenenter"",""0"",""2419""
","
","
","""event"",""trial"",""time""
""fullscreenenter"",""0"",""2419""
","
","1340.1000000014901","run_exp/static/images/Set 6_rs/019b.jpg","66","","","","","","test","TL","2"
"","show_choice","274","453504","0.0-237.0-1.0","""event"",""trial"",""time""
""fullscreenenter"",""0"",""2419""
","
","
","""event"",""trial"",""time""
""fullscreenenter"",""0"",""2419""
","
","null","run_exp/static/images/Set 6_rs/019b.jpg","null","","","","","","test","TL",""
"","html-keyboard-response","275","454006","0.0-237.0-2.0","""event"",""trial"",""time""
""fullscreenenter"",""0"",""2419""
","
","
","""event"",""trial"",""time""
""fullscreenenter"",""0"",""2419""
","
","null","<p></p>","null","","","","","","","",""
"","image","276","455668","0.0-238.0-0.0","""event"",""trial"",""time""
""fullscreenenter"",""0"",""2419""
","
","
","""event"",""trial"",""time""
""fullscreenenter"",""0"",""2419""
","
","1660.300000000745","run_exp/static/images/Set 6_rs/008b.jpg","66","","","","","","test","TL","2"
"","show_choice","277","456170","0.0-238.0-1.0","""event"",""trial"",""time""
""fullscreenenter"",""0"",""2419""
","
","
","""event"",""trial"",""time""
""fullscreenenter"",""0"",""2419""
","
","null","run_exp/static/images/Set 6_rs/008b.jpg","null","","","","","","test","TL",""
"","html-keyboard-response","278","456672","0.0-238.0-2.0","""event"",""trial"",""time""
""fullscreenenter"",""0"",""2419""
","
","
","""event"",""trial"",""time""
""fullscreenenter"",""0"",""2419""
","
","null","<p></p>","null","","","","","","","",""
"","image","279","458047","0.0-239.0-0.0","""event"",""trial"",""time""
""fullscreenenter"",""0"",""2419""
","
","
","""event"",""trial"",""time""
""fullscreenenter"",""0"",""2419""
","
","1372.4000000022352","run_exp/static/images/Set 6_rs/078a.jpg","78","","","","","","test","TF","1"
"","show_choice","280","458549","0.0-239.0-1.0","""event"",""trial"",""time""
""fullscreenenter"",""0"",""2419""
","
","
","""event"",""trial"",""time""
""fullscreenenter"",""0"",""2419""
","
","null","run_exp/static/images/Set 6_rs/078a.jpg","null","","","","","","test","TF",""
"","html-keyboard-response","281","459050","0.0-239.0-2.0","""event"",""trial"",""time""
""fullscreenenter"",""0"",""2419""
","
","
","""event"",""trial"",""time""
""fullscreenenter"",""0"",""2419""
","
","null","<p></p>","null","","","","","","","",""
"","image","282","460103","0.0-240.0-0.0","""event"",""trial"",""time""
""fullscreenenter"",""0"",""2419""
","
","
","""event"",""trial"",""time""
""fullscreenenter"",""0"",""2419""
","
","1051.0999999977648","run_exp/static/images/Set 6_rs/012a.jpg","86","","","","","","test","TR","1"
"","show_choice","283","460605","0.0-240.0-1.0","""event"",""trial"",""time""
""fullscreenenter"",""0"",""2419""
","
","
","""event"",""trial"",""time""
""fullscreenenter"",""0"",""2419""
","
","null","run_exp/static/images/Set 6_rs/012a.jpg","null","","","","","","test","TR",""
"","html-keyboard-response","284","461107","0.0-240.0-2.0","""event"",""trial"",""time""
""fullscreenenter"",""0"",""2419""
","
","
","""event"",""trial"",""time""
""fullscreenenter"",""0"",""2419""
","
","null","<p></p>","null","","","","","","","",""
"","image","285","462181","0.0-241.0-0.0","""event"",""trial"",""time""
""fullscreenenter"",""0"",""2419""
","
","
","""event"",""trial"",""time""
""fullscreenenter"",""0"",""2419""
","
","1071.5","run_exp/static/images/Set 6_rs/070a.jpg","86","","","","","","test","TR","2"
"","show_choice","286","462683","0.0-241.0-1.0","""event"",""trial"",""time""
""fullscreenenter"",""0"",""2419""
","
","
","""event"",""trial"",""time""
""fullscreenenter"",""0"",""2419""
","
","null","run_exp/static/images/Set 6_rs/070a.jpg","null","","","","","","test","TR",""
"","html-keyboard-response","287","463185","0.0-241.0-2.0","""event"",""trial"",""time""
""fullscreenenter"",""0"",""2419""
","
","
","""event"",""trial"",""time""
""fullscreenenter"",""0"",""2419""
","
","null","<p></p>","null","","","","","","","",""
"","image","288","464023","0.0-242.0-0.0","""event"",""trial"",""time""
""fullscreenenter"",""0"",""2419""
","
","
","""event"",""trial"",""time""
""fullscreenenter"",""0"",""2419""
","
","836.3000000007451","run_exp/static/images/Set 6_rs/061a.jpg","86","","","","","","test","TR","5"
"","show_choice","289","464524","0.0-242.0-1.0","""event"",""trial"",""time""
""fullscreenenter"",""0"",""2419""
","
","
","""event"",""trial"",""time""
""fullscreenenter"",""0"",""2419""
","
","null","run_exp/static/images/Set 6_rs/061a.jpg","null","","","","","","test","TR",""
"","html-keyboard-response","290","465026","0.0-242.0-2.0","""event"",""trial"",""time""
""fullscreenenter"",""0"",""2419""
","
","
","""event"",""trial"",""time""
""fullscreenenter"",""0"",""2419""
","
","null","<p></p>","null","","","","","","","",""
"","image","291","466437","0.0-243.0-0.0","""event"",""trial"",""time""
""fullscreenenter"",""0"",""2419""
","
","
","""event"",""trial"",""time""
""fullscreenenter"",""0"",""2419""
","
","1408.7000000029802","run_exp/static/images/Set 6_rs/085b.jpg","66","","","","","","test","TL","1"
"","show_choice","292","466939","0.0-243.0-1.0","""event"",""trial"",""time""
""fullscreenenter"",""0"",""2419""
","
","
","""event"",""trial"",""time""
""fullscreenenter"",""0"",""2419""
","
","null","run_exp/static/images/Set 6_rs/085b.jpg","null","","","","","","test","TL",""
"","html-keyboard-response","293","467440","0.0-243.0-2.0","""event"",""trial"",""time""
""fullscreenenter"",""0"",""2419""
","
","
","""event"",""trial"",""time""
""fullscreenenter"",""0"",""2419""
","
","null","<p></p>","null","","","","","","","",""
"","image","294","468179","0.0-244.0-0.0","""event"",""trial"",""time""
""fullscreenenter"",""0"",""2419""
","
","
","""event"",""trial"",""time""
""fullscreenenter"",""0"",""2419""
","
","736.5999999977648","run_exp/static/images/Set 6_rs/187a.jpg","66","","","","","","test","TR","3"
"","show_choice","295","468680","0.0-244.0-1.0","""event"",""trial"",""time""
""fullscreenenter"",""0"",""2419""
","
","
","""event"",""trial"",""time""
""fullscreenenter"",""0"",""2419""
","
","null","run_exp/static/images/Set 6_rs/187a.jpg","null","","","","","","test","TR",""
"","html-keyboard-response","296","469182","0.0-244.0-2.0","""event"",""trial"",""time""
""fullscreenenter"",""0"",""2419""
","
","
","""event"",""trial"",""time""
""fullscreenenter"",""0"",""2419""
","
","null","<p></p>","null","","","","","","","",""
"","image","297","470619","0.0-245.0-0.0","""event"",""trial"",""time""
""fullscreenenter"",""0"",""2419""
","
","
","""event"",""trial"",""time""
""fullscreenenter"",""0"",""2419""
","
","1435.0999999977648","run_exp/static/images/Set 6_rs/097a.jpg","78","","","","","","test","TF","5"
"","show_choice","298","471121","0.0-245.0-1.0","""event"",""trial"",""time""
""fullscreenenter"",""0"",""2419""
","
","
","""event"",""trial"",""time""
""fullscreenenter"",""0"",""2419""
","
","null","run_exp/static/images/Set 6_rs/097a.jpg","null","","","","","","test","TF",""
"","html-keyboard-response","299","471622","0.0-245.0-2.0","""event"",""trial"",""time""
""fullscreenenter"",""0"",""2419""
","
","
","""event"",""trial"",""time""
""fullscreenenter"",""0"",""2419""
","
","null","<p></p>","null","","","","","","","",""
"","image","300","472725","0.0-246.0-0.0","""event"",""trial"",""time""
""fullscreenenter"",""0"",""2419""
","
","
","""event"",""trial"",""time""
""fullscreenenter"",""0"",""2419""
","
","1100.699999999255","run_exp/static/images/Set 6_rs/023a.jpg","86","","","","","","test","TR","3"
"","show_choice","301","473228","0.0-246.0-1.0","""event"",""trial"",""time""
""fullscreenenter"",""0"",""2419""
","
","
","""event"",""trial"",""time""
""fullscreenenter"",""0"",""2419""
","
","null","run_exp/static/images/Set 6_rs/023a.jpg","null","","","","","","test","TR",""
"","html-keyboard-response","302","473729","0.0-246.0-2.0","""event"",""trial"",""time""
""fullscreenenter"",""0"",""2419""
","
","
","""event"",""trial"",""time""
""fullscreenenter"",""0"",""2419""
","
","null","<p></p>","null","","","","","","","",""
"","image","303","475457","0.0-247.0-0.0","""event"",""trial"",""time""
""fullscreenenter"",""0"",""2419""
","
","
","""event"",""trial"",""time""
""fullscreenenter"",""0"",""2419""
","
","1726","run_exp/static/images/Set 6_rs/036b.jpg","66","","","","","","test","TL","4"
"","show_choice","304","475960","0.0-247.0-1.0","""event"",""trial"",""time""
""fullscreenenter"",""0"",""2419""
","
","
","""event"",""trial"",""time""
""fullscreenenter"",""0"",""2419""
","
","null","run_exp/static/images/Set 6_rs/036b.jpg","null","","","","","","test","TL",""
"","html-keyboard-response","305","476461","0.0-247.0-2.0","""event"",""trial"",""time""
""fullscreenenter"",""0"",""2419""
","
","
","""event"",""trial"",""time""
""fullscreenenter"",""0"",""2419""
","
","null","<p></p>","null","","","","","","","",""
"","image","306","479338","0.0-248.0-0.0","""event"",""trial"",""time""
""fullscreenenter"",""0"",""2419""
","
","
","""event"",""trial"",""time""
""fullscreenenter"",""0"",""2419""
","
","2874.800000000745","run_exp/static/images/Set 6_rs/086a.jpg","86","","","","","","test","TF","1"
"","show_choice","307","479840","0.0-248.0-1.0","""event"",""trial"",""time""
""fullscreenenter"",""0"",""2419""
","
","
","""event"",""trial"",""time""
""fullscreenenter"",""0"",""2419""
","
","null","run_exp/static/images/Set 6_rs/086a.jpg","null","","","","","","test","TF",""
"","html-keyboard-response","308","480342","0.0-248.0-2.0","""event"",""trial"",""time""
""fullscreenenter"",""0"",""2419""
","
","
","""event"",""trial"",""time""
""fullscreenenter"",""0"",""2419""
","
","null","<p></p>","null","","","","","","","",""
"","image","309","482375","0.0-249.0-0.0","""event"",""trial"",""time""
""fullscreenenter"",""0"",""2419""
","
","
","""event"",""trial"",""time""
""fullscreenenter"",""0"",""2419""
","
","2030.6000000014901","run_exp/static/images/Set 6_rs/118a.jpg","78","","","","","","test","TF","5"
"","show_choice","310","482877","0.0-249.0-1.0","""event"",""trial"",""time""
""fullscreenenter"",""0"",""2419""
","
","
","""event"",""trial"",""time""
""fullscreenenter"",""0"",""2419""
","
","null","run_exp/static/images/Set 6_rs/118a.jpg","null","","","","","","test","TF",""
"","html-keyboard-response","311","483379","0.0-249.0-2.0","""event"",""trial"",""time""
""fullscreenenter"",""0"",""2419""
","
","
","""event"",""trial"",""time""
""fullscreenenter"",""0"",""2419""
","
","null","<p></p>","null","","","","","","","",""
"","image","312","484675","0.0-250.0-0.0","""event"",""trial"",""time""
""fullscreenenter"",""0"",""2419""
","
","
","""event"",""trial"",""time""
""fullscreenenter"",""0"",""2419""
","
","1293.800000000745","run_exp/static/images/Set 6_rs/065a.jpg","78","","","","","","test","TF","3"
"","show_choice","313","485177","0.0-250.0-1.0","""event"",""trial"",""time""
""fullscreenenter"",""0"",""2419""
","
","
","""event"",""trial"",""time""
""fullscreenenter"",""0"",""2419""
","
","null","run_exp/static/images/Set 6_rs/065a.jpg","null","","","","","","test","TF",""
"","html-keyboard-response","314","485679","0.0-250.0-2.0","""event"",""trial"",""time""
""fullscreenenter"",""0"",""2419""
","
","
","""event"",""trial"",""time""
""fullscreenenter"",""0"",""2419""
","
","null","<p></p>","null","","","","","","","",""
"","image","315","486999","0.0-251.0-0.0","""event"",""trial"",""time""
""fullscreenenter"",""0"",""2419""
","
","
","""event"",""trial"",""time""
""fullscreenenter"",""0"",""2419""
","
","1318.6000000014901","run_exp/static/images/Set 6_rs/116b.jpg","66","","","","","","test","TL","2"
"","show_choice","316","487501","0.0-251.0-1.0","""event"",""trial"",""time""
""fullscreenenter"",""0"",""2419""
","
","
","""event"",""trial"",""time""
""fullscreenenter"",""0"",""2419""
","
","null","run_exp/static/images/Set 6_rs/116b.jpg","null","","","","","","test","TL",""
"","html-keyboard-response","317","488002","0.0-251.0-2.0","""event"",""trial"",""time""
""fullscreenenter"",""0"",""2419""
","
","
","""event"",""trial"",""time""
""fullscreenenter"",""0"",""2419""
","
","null","<p></p>","null","","","","","","","",""
"","image","318","490137","0.0-252.0-0.0","""event"",""trial"",""time""
""fullscreenenter"",""0"",""2419""
","
","
","""event"",""trial"",""time""
""fullscreenenter"",""0"",""2419""
","
","2132.400000002235","run_exp/static/images/Set 6_rs/071b.jpg","66","","","","","","test","TL","4"
"","show_choice","319","490638","0.0-252.0-1.0","""event"",""trial"",""time""
""fullscreenenter"",""0"",""2419""
","
","
","""event"",""trial"",""time""
""fullscreenenter"",""0"",""2419""
","
","null","run_exp/static/images/Set 6_rs/071b.jpg","null","","","","","","test","TL",""
"","html-keyboard-response","320","491140","0.0-252.0-2.0","""event"",""trial"",""time""
""fullscreenenter"",""0"",""2419""
","
","
","""event"",""trial"",""time""
""fullscreenenter"",""0"",""2419""
","
","null","<p></p>","null","","","","","","","",""
"","image","321","492329","0.0-253.0-0.0","""event"",""trial"",""time""
""fullscreenenter"",""0"",""2419""
","
","
","""event"",""trial"",""time""
""fullscreenenter"",""0"",""2419""
","
","1186.8999999985099","run_exp/static/images/Set 6_rs/017b.jpg","66","","","","","","test","TL","3"
"","show_choice","322","492830","0.0-253.0-1.0","""event"",""trial"",""time""
""fullscreenenter"",""0"",""2419""
","
","
","""event"",""trial"",""time""
""fullscreenenter"",""0"",""2419""
","
","null","run_exp/static/images/Set 6_rs/017b.jpg","null","","","","","","test","TL",""
"","html-keyboard-response","323","493332","0.0-253.0-2.0","""event"",""trial"",""time""
""fullscreenenter"",""0"",""2419""
","
","
","""event"",""trial"",""time""
""fullscreenenter"",""0"",""2419""
","
","null","<p></p>","null","","","","","","","",""
"","image","324","494531","0.0-254.0-0.0","""event"",""trial"",""time""
""fullscreenenter"",""0"",""2419""
","
","
","""event"",""trial"",""time""
""fullscreenenter"",""0"",""2419""
","
","1197.5","run_exp/static/images/Set 6_rs/100a.jpg","78","","","","","","test","TF","2"
"","show_choice","325","495034","0.0-254.0-1.0","""event"",""trial"",""time""
""fullscreenenter"",""0"",""2419""
","
","
","""event"",""trial"",""time""
""fullscreenenter"",""0"",""2419""
","
","null","run_exp/static/images/Set 6_rs/100a.jpg","null","","","","","","test","TF",""
"","html-keyboard-response","326","495536","0.0-254.0-2.0","""event"",""trial"",""time""
""fullscreenenter"",""0"",""2419""
","
","
","""event"",""trial"",""time""
""fullscreenenter"",""0"",""2419""
","
","null","<p></p>","null","","","","","","","",""
"","image","327","497670","0.0-255.0-0.0","""event"",""trial"",""time""
""fullscreenenter"",""0"",""2419""
","
","
","""event"",""trial"",""time""
""fullscreenenter"",""0"",""2419""
","
","2131.400000002235","run_exp/static/images/Set 6_rs/138b.jpg","66","","","","","","test","TL","1"
"","show_choice","328","498171","0.0-255.0-1.0","""event"",""trial"",""time""
""fullscreenenter"",""0"",""2419""
","
","
","""event"",""trial"",""time""
""fullscreenenter"",""0"",""2419""
","
","null","run_exp/static/images/Set 6_rs/138b.jpg","null","","","","","","test","TL",""
"","html-keyboard-response","329","498673","0.0-255.0-2.0","""event"",""trial"",""time""
""fullscreenenter"",""0"",""2419""
","
","
","""event"",""trial"",""time""
""fullscreenenter"",""0"",""2419""
","
","null","<p></p>","null","","","","","","","",""
"","image","330","500167","0.0-256.0-0.0","""event"",""trial"",""time""
""fullscreenenter"",""0"",""2419""
","
","
","""event"",""trial"",""time""
""fullscreenenter"",""0"",""2419""
","
","1491.9000000022352","run_exp/static/images/Set 6_rs/035a.jpg","78","","","","","","test","TF","4"
"","show_choice","331","500669","0.0-256.0-1.0","""event"",""trial"",""time""
""fullscreenenter"",""0"",""2419""
","
","
","""event"",""trial"",""time""
""fullscreenenter"",""0"",""2419""
","
","null","run_exp/static/images/Set 6_rs/035a.jpg","null","","","","","","test","TF",""
"","html-keyboard-response","332","501171","0.0-256.0-2.0","""event"",""trial"",""time""
""fullscreenenter"",""0"",""2419""
","
","
","""event"",""trial"",""time""
""fullscreenenter"",""0"",""2419""
","
","null","<p></p>","null","","","","","","","",""
"","image","333","504173","0.0-257.0-0.0","""event"",""trial"",""time""
""fullscreenenter"",""0"",""2419""
","
","
","""event"",""trial"",""time""
""fullscreenenter"",""0"",""2419""
","
","null","run_exp/static/images/Set 6_rs/066b.jpg","null","","","","","","test","TL","5"
"","show_choice","334","504675","0.0-257.0-1.0","""event"",""trial"",""time""
""fullscreenenter"",""0"",""2419""
","
","
","""event"",""trial"",""time""
""fullscreenenter"",""0"",""2419""
","
","null","run_exp/static/images/Set 6_rs/066b.jpg","null","","","","","","test","TL",""
"","html-keyboard-response","335","505177","0.0-257.0-2.0","""event"",""trial"",""time""
""fullscreenenter"",""0"",""2419""
","
","
","""event"",""trial"",""time""
""fullscreenenter"",""0"",""2419""
","
","null","<p></p>","null","","","","","","","",""
"","image","336","506532","0.0-258.0-0.0","""event"",""trial"",""time""
""fullscreenenter"",""0"",""2419""
","
","
","""event"",""trial"",""time""
""fullscreenenter"",""0"",""2419""
","
","1353.199999999255","run_exp/static/images/Set 6_rs/077a.jpg","78","","","","","","test","TF","3"
"","show_choice","337","507034","0.0-258.0-1.0","""event"",""trial"",""time""
""fullscreenenter"",""0"",""2419""
","
","
","""event"",""trial"",""time""
""fullscreenenter"",""0"",""2419""
","
","null","run_exp/static/images/Set 6_rs/077a.jpg","null","","","","","","test","TF",""
"","html-keyboard-response","338","507535","0.0-258.0-2.0","""event"",""trial"",""time""
""fullscreenenter"",""0"",""2419""
","
","
","""event"",""trial"",""time""
""fullscreenenter"",""0"",""2419""
","
","null","<p></p>","null","","","","","","","",""
"","image","339","508547","0.0-259.0-0.0","""event"",""trial"",""time""
""fullscreenenter"",""0"",""2419""
","
","
","""event"",""trial"",""time""
""fullscreenenter"",""0"",""2419""
","
","1009.4000000022352","run_exp/static/images/Set 6_rs/121a.jpg","86","","","","","","test","TR","4"
"","show_choice","340","509049","0.0-259.0-1.0","""event"",""trial"",""time""
""fullscreenenter"",""0"",""2419""
","
","
","""event"",""trial"",""time""
""fullscreenenter"",""0"",""2419""
","
","null","run_exp/static/images/Set 6_rs/121a.jpg","null","","","","","","test","TR",""
"","html-keyboard-response","341","509550","0.0-259.0-2.0","""event"",""trial"",""time""
