"success","trial_type","trial_index","time_elapsed","internal_node_id","interactions","blur_events","focus_events","fullscreenenter_events","fullscreenexit_events","rt","stimulus","key_press","subject_id","participant_id","age","gender","prompt","phase","condition","lure_bin"
"true","fullscreen","0","3723","0.0-0.0","""event"",""trial"",""time""
""fullscreenenter"",""0"",""2745""
","
","
","""event"",""trial"",""time""
""fullscreenenter"",""0"",""2745""
","
","","","","","","","","","","",""
"","pavlovia","1","3731","0.0-1.0","""event"",""trial"",""time""
""fullscreenenter"",""0"",""2745""
","
","
","""event"",""trial"",""time""
""fullscreenenter"",""0"",""2745""
","
","","","","","","","","","","",""
"","welcome","2","38573","0.0-2.0","""event"",""trial"",""time""
""fullscreenenter"",""0"",""2745""
","
","
","""event"",""trial"",""time""
""fullscreenenter"",""0"",""2745""
","
","null","run_exp/static/audio/clip_1_welcome.m4a","null","557","189","14","Male","<div class='center'><p>Welcome to the third part of the study! First, you'll be shown pictures of items one at a time. For each picture, you have to decide if the item is typically found indoors or outdoors.</p><p>If you think it's usually found indoors, then press <b>v</b> key on your keyboard. If you think it's usually found outdoors, then press the <b>n</b> key.There will be reminders on the screen to help you remember which keys to press. </p><p>If you're not sure whether the item is an indoor item or an outdoor item, go ahead and take a guess but try your best not to skip that choice. </p></div>","","",""
"","html-keyboard-response","3","39963","0.0-3.0","""event"",""trial"",""time""
""fullscreenenter"",""0"",""2745""
","
","
","""event"",""trial"",""time""
""fullscreenenter"",""0"",""2745""
","
","1381.2999999998137","<div class='center'><p>Welcome to the third part of the study! First, you'll be shown pictures of items one at a time. For each picture, you have to decide if the item is typically found indoors or outdoors.</p><p>If you think it's usually found indoors, then press <b>v</b> key on your keyboard. If you think it's usually found outdoors, then press the <b>n</b> key.There will be reminders on the screen to help you remember which keys to press. </p><p>If you're not sure whether the item is an indoor item or an outdoor item, go ahead and take a guess but try your best not to skip that choice. </p><div><p><b>[Press the space bar to continue]</b></p></div>","32","","","","","","","",""
"","image","4","41967","0.0-4.0","""event"",""trial"",""time""
""fullscreenenter"",""0"",""2745""
","
","
","""event"",""trial"",""time""
""fullscreenenter"",""0"",""2745""
","
","2000.3000000000466","run_exp/static/images/Set 6_rs/019a.jpg","86","","","","","","learn","SL",""
"","show_choice","5","41976","0.0-5.0","""event"",""trial"",""time""
""fullscreenenter"",""0"",""2745""
","
","
","""event"",""trial"",""time""
""fullscreenenter"",""0"",""2745""
","
","null","run_exp/static/images/Set 6_rs/019a.jpg","null","","","","","","learn","SL",""
"","html-keyboard-response","6","42479","0.0-6.0","""event"",""trial"",""time""
""fullscreenenter"",""0"",""2745""
","
","
","""event"",""trial"",""time""
""fullscreenenter"",""0"",""2745""
","
","null","<p></p>","null","","","","","","","",""
"","image","7","43813","0.0-7.0","""event"",""trial"",""time""
""fullscreenenter"",""0"",""2745""
","
","
","""event"",""trial"",""time""
""fullscreenenter"",""0"",""2745""
","
","1329.5","run_exp/static/images/Set 6_rs/131a.jpg","86","","","","","","learn","SR",""
"","show_choice","8","44488","0.0-8.0","""event"",""trial"",""time""
""fullscreenenter"",""0"",""2745""
","
","
","""event"",""trial"",""time""
""fullscreenenter"",""0"",""2745""
","
","null","run_exp/static/images/Set 6_rs/131a.jpg","null","","","","","","learn","SR",""
"","html-keyboard-response","9","44991","0.0-9.0","""event"",""trial"",""time""
""fullscreenenter"",""0"",""2745""
","
","
","""event"",""trial"",""time""
""fullscreenenter"",""0"",""2745""
","
","null","<p></p>","null","","","","","","","",""
"","image","10","45862","0.0-10.0","""event"",""trial"",""time""
""fullscreenenter"",""0"",""2745""
","
","
","""event"",""trial"",""time""
""fullscreenenter"",""0"",""2745""
","
","866.6999999999534","run_exp/static/images/Set 6_rs/111a.jpg","78","","","","","","learn","SL",""
"","show_choice","11","46999","0.0-11.0","""event"",""trial"",""time""
""fullscreenenter"",""0"",""2745""
","
","
","""event"",""trial"",""time""
""fullscreenenter"",""0"",""2745""
","
","null","run_exp/static/images/Set 6_rs/111a.jpg","null","","","","","","learn","SL",""
"","html-keyboard-response","12","47502","0.0-12.0","""event"",""trial"",""time""
""fullscreenenter"",""0"",""2745""
","
","
","""event"",""trial"",""time""
""fullscreenenter"",""0"",""2745""
","
","null","<p></p>","null","","","","","","","",""
"","image","13","49408","0.0-13.0","""event"",""trial"",""time""
""fullscreenenter"",""0"",""2745""
","
","
","""event"",""trial"",""time""
""fullscreenenter"",""0"",""2745""
","
","1899.3999999999069","run_exp/static/images/Set 6_rs/167a.jpg","78","","","","","","learn","SL",""
"","show_choice","14","49512","0.0-14.0","""event"",""trial"",""time""
""fullscreenenter"",""0"",""2745""
","
","
","""event"",""trial"",""time""
""fullscreenenter"",""0"",""2745""
","
","null","run_exp/static/images/Set 6_rs/167a.jpg","null","","","","","","learn","SL",""
"","html-keyboard-response","15","50014","0.0-15.0","""event"",""trial"",""time""
""fullscreenenter"",""0"",""2745""
","
","
","""event"",""trial"",""time""
""fullscreenenter"",""0"",""2745""
","
","null","<p></p>","null","","","","","","","",""
"","image","16","51183","0.0-16.0","""event"",""trial"",""time""
""fullscreenenter"",""0"",""2745""
","
","
","""event"",""trial"",""time""
""fullscreenenter"",""0"",""2745""
","
","1165.8000000000466","run_exp/static/images/Set 6_rs/073a.jpg","86","","","","","","learn","SL",""
"","show_choice","17","52022","0.0-17.0","""event"",""trial"",""time""
""fullscreenenter"",""0"",""2745""
","
","
","""event"",""trial"",""time""
""fullscreenenter"",""0"",""2745""
","
","null","run_exp/static/images/Set 6_rs/073a.jpg","null","","","","","","learn","SL",""
"","html-keyboard-response","18","52526","0.0-18.0","""event"",""trial"",""time""
""fullscreenenter"",""0"",""2745""
","
","
","""event"",""trial"",""time""
""fullscreenenter"",""0"",""2745""
","
","null","<p></p>","null","","","","","","","",""
"","image","19","53506","0.0-19.0","""event"",""trial"",""time""
""fullscreenenter"",""0"",""2745""
","
","
","""event"",""trial"",""time""
""fullscreenenter"",""0"",""2745""
","
","974.3000000000466","run_exp/static/images/Set 6_rs/066a.jpg","78","","","","","","learn","SL",""
"","show_choice","20","54534","0.0-20.0","""event"",""trial"",""time""
""fullscreenenter"",""0"",""2745""
","
","
","""event"",""trial"",""time""
""fullscreenenter"",""0"",""2745""
","
","null","run_exp/static/images/Set 6_rs/066a.jpg","null","","","","","","learn","SL",""
"","html-keyboard-response","21","55036","0.0-21.0","""event"",""trial"",""time""
""fullscreenenter"",""0"",""2745""
","
","
","""event"",""trial"",""time""
""fullscreenenter"",""0"",""2745""
","
","null","<p></p>","null","","","","","","","",""
"","image","22","56735","0.0-22.0","""event"",""trial"",""time""
""fullscreenenter"",""0"",""2745""
","
","
","""event"",""trial"",""time""
""fullscreenenter"",""0"",""2745""
","
","1693.2000000001863","run_exp/static/images/Set 6_rs/187a.jpg","78","","","","","","learn","SR",""
"","show_choice","23","57045","0.0-23.0","""event"",""trial"",""time""
""fullscreenenter"",""0"",""2745""
","
","
","""event"",""trial"",""time""
""fullscreenenter"",""0"",""2745""
","
","null","run_exp/static/images/Set 6_rs/187a.jpg","null","","","","","","learn","SR",""
"","html-keyboard-response","24","57549","0.0-24.0","""event"",""trial"",""time""
""fullscreenenter"",""0"",""2745""
","
","
","""event"",""trial"",""time""
""fullscreenenter"",""0"",""2745""
","
","null","<p></p>","null","","","","","","","",""
"","image","25","58610","0.0-25.0","""event"",""trial"",""time""
""fullscreenenter"",""0"",""2745""
","
","
","""event"",""trial"",""time""
""fullscreenenter"",""0"",""2745""
","
","1054.1000000000931","run_exp/static/images/Set 6_rs/154a.jpg","86","","","","","","learn","SR",""
"","show_choice","26","59558","0.0-26.0","""event"",""trial"",""time""
""fullscreenenter"",""0"",""2745""
","
","
","""event"",""trial"",""time""
""fullscreenenter"",""0"",""2745""
","
","null","run_exp/static/images/Set 6_rs/154a.jpg","null","","","","","","learn","SR",""
"","html-keyboard-response","27","60062","0.0-27.0","""event"",""trial"",""time""
""fullscreenenter"",""0"",""2745""
","
","
","""event"",""trial"",""time""
""fullscreenenter"",""0"",""2745""
","
","null","<p></p>","null","","","","","","","",""
"","image","28","62068","0.0-28.0","""event"",""trial"",""time""
""fullscreenenter"",""0"",""2745""
","
","
","""event"",""trial"",""time""
""fullscreenenter"",""0"",""2745""
","
","null","run_exp/static/images/Set 6_rs/076a.jpg","null","","","","","","learn","SR",""
"","show_choice","29","64072","0.0-29.0","""event"",""trial"",""time""
""fullscreenenter"",""0"",""2745""
","
","
","""event"",""trial"",""time""
""fullscreenenter"",""0"",""2745""
","
","null","run_exp/static/images/blank.png","null","","","","","","learn","SR",""
"","html-keyboard-response","30","64575","0.0-30.0","""event"",""trial"",""time""
""fullscreenenter"",""0"",""2745""
","
","
","""event"",""trial"",""time""
""fullscreenenter"",""0"",""2745""
","
","null","<p></p>","null","","","","","","","",""
"","image","31","65540","0.0-31.0","""event"",""trial"",""time""
""fullscreenenter"",""0"",""2745""
","
","
","""event"",""trial"",""time""
""fullscreenenter"",""0"",""2745""
","
","961.6000000000931","run_exp/static/images/Set 6_rs/166a.jpg","78","","","","","","learn","SR",""
"","show_choice","32","66583","0.0-32.0","""event"",""trial"",""time""
""fullscreenenter"",""0"",""2745""
","
","
","""event"",""trial"",""time""
""fullscreenenter"",""0"",""2745""
","
","null","run_exp/static/images/Set 6_rs/166a.jpg","null","","","","","","learn","SR",""
"","html-keyboard-response","33","67086","0.0-33.0","""event"",""trial"",""time""
""fullscreenenter"",""0"",""2745""
","
","
","""event"",""trial"",""time""
""fullscreenenter"",""0"",""2745""
","
","null","<p></p>","null","","","","","","","",""
"","image","34","67940","0.0-34.0","""event"",""trial"",""time""
""fullscreenenter"",""0"",""2745""
","
","
","""event"",""trial"",""time""
""fullscreenenter"",""0"",""2745""
","
","850.8999999999069","run_exp/static/images/Set 6_rs/014a.jpg","86","","","","","","learn","SL",""
"","show_choice","35","69110","0.0-35.0","""event"",""trial"",""time""
""fullscreenenter"",""0"",""2745""
","
","
","""event"",""trial"",""time""
""fullscreenenter"",""0"",""2745""
","
","null","run_exp/static/images/Set 6_rs/014a.jpg","null","","","","","","learn","SL",""
"","html-keyboard-response","36","69613","0.0-36.0","""event"",""trial"",""time""
""fullscreenenter"",""0"",""2745""
","
","
","""event"",""trial"",""time""
""fullscreenenter"",""0"",""2745""
","
","null","<p></p>","null","","","","","","","",""
"","image","37","70942","0.0-37.0","""event"",""trial"",""time""
""fullscreenenter"",""0"",""2745""
","
","
","""event"",""trial"",""time""
""fullscreenenter"",""0"",""2745""
","
","1317.5","run_exp/static/images/Set 6_rs/132a.jpg","78","","","","","","learn","SR",""
"","show_choice","38","71629","0.0-38.0","""event"",""trial"",""time""
""fullscreenenter"",""0"",""2745""
","
","
","""event"",""trial"",""time""
""fullscreenenter"",""0"",""2745""
","
","null","run_exp/static/images/Set 6_rs/132a.jpg","null","","","","","","learn","SR",""
"","html-keyboard-response","39","72133","0.0-39.0","""event"",""trial"",""time""
""fullscreenenter"",""0"",""2745""
","
","
","""event"",""trial"",""time""
""fullscreenenter"",""0"",""2745""
","
","null","<p></p>","null","","","","","","","",""
"","image","40","73459","0.0-40.0","""event"",""trial"",""time""
""fullscreenenter"",""0"",""2745""
","
","
","""event"",""trial"",""time""
""fullscreenenter"",""0"",""2745""
","
","1321.8000000000466","run_exp/static/images/Set 6_rs/007a.jpg","86","","","","","","learn","SR",""
"","show_choice","41","74142","0.0-41.0","""event"",""trial"",""time""
""fullscreenenter"",""0"",""2745""
","
","
","""event"",""trial"",""time""
""fullscreenenter"",""0"",""2745""
","
","null","run_exp/static/images/Set 6_rs/007a.jpg","null","","","","","","learn","SR",""
"","html-keyboard-response","42","74646","0.0-42.0","""event"",""trial"",""time""
""fullscreenenter"",""0"",""2745""
","
","
","""event"",""trial"",""time""
""fullscreenenter"",""0"",""2745""
","
","null","<p></p>","null","","","","","","","",""
"","image","43","75739","0.0-43.0","""event"",""trial"",""time""
""fullscreenenter"",""0"",""2745""
","
","
","""event"",""trial"",""time""
""fullscreenenter"",""0"",""2745""
","
","1086.3000000002794","run_exp/static/images/Set 6_rs/172a.jpg","78","","","","","","learn","SR",""
"","show_choice","44","76656","0.0-44.0","""event"",""trial"",""time""
""fullscreenenter"",""0"",""2745""
","
","
","""event"",""trial"",""time""
""fullscreenenter"",""0"",""2745""
","
","null","run_exp/static/images/Set 6_rs/172a.jpg","null","","","","","","learn","SR",""
"","html-keyboard-response","45","77159","0.0-45.0","""event"",""trial"",""time""
""fullscreenenter"",""0"",""2745""
","
","
","""event"",""trial"",""time""
""fullscreenenter"",""0"",""2745""
","
","null","<p></p>","null","","","","","","","",""
"","image","46","78142","0.0-46.0","""event"",""trial"",""time""
""fullscreenenter"",""0"",""2745""
","
","
","""event"",""trial"",""time""
""fullscreenenter"",""0"",""2745""
","
","980.5","run_exp/static/images/Set 6_rs/055a.jpg","86","","","","","","learn","SL",""
"","show_choice","47","79165","0.0-47.0","""event"",""trial"",""time""
""fullscreenenter"",""0"",""2745""
","
","
","""event"",""trial"",""time""
""fullscreenenter"",""0"",""2745""
","
","null","run_exp/static/images/Set 6_rs/055a.jpg","null","","","","","","learn","SL",""
"","html-keyboard-response","48","79670","0.0-48.0","""event"",""trial"",""time""
""fullscreenenter"",""0"",""2745""
","
","
","""event"",""trial"",""time""
""fullscreenenter"",""0"",""2745""
","
","null","<p></p>","null","","","","","","","",""
"","image","49","80555","0.0-49.0","""event"",""trial"",""time""
""fullscreenenter"",""0"",""2745""
","
","
","""event"",""trial"",""time""
""fullscreenenter"",""0"",""2745""
","
","877.3999999999069","run_exp/static/images/Set 6_rs/112a.jpg","86","","","","","","learn","SR",""
"","show_choice","50","81680","0.0-50.0","""event"",""trial"",""time""
""fullscreenenter"",""0"",""2745""
","
","
","""event"",""trial"",""time""
""fullscreenenter"",""0"",""2745""
","
","null","run_exp/static/images/Set 6_rs/112a.jpg","null","","","","","","learn","SR",""
"","html-keyboard-response","51","82183","0.0-51.0","""event"",""trial"",""time""
""fullscreenenter"",""0"",""2745""
","
","
","""event"",""trial"",""time""
""fullscreenenter"",""0"",""2745""
","
","null","<p></p>","null","","","","","","","",""
"","image","52","83348","0.0-52.0","""event"",""trial"",""time""
""fullscreenenter"",""0"",""2745""
","
","
","""event"",""trial"",""time""
""fullscreenenter"",""0"",""2745""
","
","1161.1000000000931","run_exp/static/images/Set 6_rs/036a.jpg","78","","","","","","learn","SL",""
"","show_choice","53","84195","0.0-53.0","""event"",""trial"",""time""
""fullscreenenter"",""0"",""2745""
","
","
","""event"",""trial"",""time""
""fullscreenenter"",""0"",""2745""
","
","null","run_exp/static/images/Set 6_rs/036a.jpg","null","","","","","","learn","SL",""
"","html-keyboard-response","54","84699","0.0-54.0","""event"",""trial"",""time""
""fullscreenenter"",""0"",""2745""
","
","
","""event"",""trial"",""time""
""fullscreenenter"",""0"",""2745""
","
","null","<p></p>","null","","","","","","","",""
"","image","55","85818","0.0-55.0","""event"",""trial"",""time""
""fullscreenenter"",""0"",""2745""
","
","
","""event"",""trial"",""time""
""fullscreenenter"",""0"",""2745""
","
","1110.6000000000931","run_exp/static/images/Set 6_rs/045a.jpg","86","","","","","","learn","SR",""
"","show_choice","56","86713","0.0-56.0","""event"",""trial"",""time""
""fullscreenenter"",""0"",""2745""
","
","
","""event"",""trial"",""time""
""fullscreenenter"",""0"",""2745""
","
","null","run_exp/static/images/Set 6_rs/045a.jpg","null","","","","","","learn","SR",""
"","html-keyboard-response","57","87216","0.0-57.0","""event"",""trial"",""time""
""fullscreenenter"",""0"",""2745""
","
","
","""event"",""trial"",""time""
""fullscreenenter"",""0"",""2745""
","
","null","<p></p>","null","","","","","","","",""
"","image","58","88549","0.0-58.0","""event"",""trial"",""time""
""fullscreenenter"",""0"",""2745""
","
","
","""event"",""trial"",""time""
""fullscreenenter"",""0"",""2745""
","
","1327.7999999998137","run_exp/static/images/Set 6_rs/057a.jpg","86","","","","","","learn","SL",""
"","show_choice","59","89225","0.0-59.0","""event"",""trial"",""time""
""fullscreenenter"",""0"",""2745""
","
","
","""event"",""trial"",""time""
""fullscreenenter"",""0"",""2745""
","
","null","run_exp/static/images/Set 6_rs/057a.jpg","null","","","","","","learn","SL",""
"","html-keyboard-response","60","89728","0.0-60.0","""event"",""trial"",""time""
""fullscreenenter"",""0"",""2745""
","
","
","""event"",""trial"",""time""
""fullscreenenter"",""0"",""2745""
","
","null","<p></p>","null","","","","","","","",""
"","image","61","90581","0.0-61.0","""event"",""trial"",""time""
""fullscreenenter"",""0"",""2745""
","
","
","""event"",""trial"",""time""
""fullscreenenter"",""0"",""2745""
","
","850.5","run_exp/static/images/Set 6_rs/144a.jpg","86","","","","","","learn","SL",""
"","show_choice","62","91734","0.0-62.0","""event"",""trial"",""time""
""fullscreenenter"",""0"",""2745""
","
","
","""event"",""trial"",""time""
""fullscreenenter"",""0"",""2745""
","
","null","run_exp/static/images/Set 6_rs/144a.jpg","null","","","","","","learn","SL",""
"","html-keyboard-response","63","92247","0.0-63.0","""event"",""trial"",""time""
""fullscreenenter"",""0"",""2745""
","
","
","""event"",""trial"",""time""
""fullscreenenter"",""0"",""2745""
","
","null","<p></p>","null","","","","","","","",""
"","image","64","93326","0.0-64.0","""event"",""trial"",""time""
""fullscreenenter"",""0"",""2745""
","
","
","""event"",""trial"",""time""
""fullscreenenter"",""0"",""2745""
","
","1074.3999999999069","run_exp/static/images/Set 6_rs/088a.jpg","86","","","","","","learn","SR",""
"","show_choice","65","94257","0.0-65.0","""event"",""trial"",""time""
""fullscreenenter"",""0"",""2745""
","
","
","""event"",""trial"",""time""
""fullscreenenter"",""0"",""2745""
","
","null","run_exp/static/images/Set 6_rs/088a.jpg","null","","","","","","learn","SR",""
"","html-keyboard-response","66","94760","0.0-66.0","""event"",""trial"",""time""
""fullscreenenter"",""0"",""2745""
","
","
","""event"",""trial"",""time""
""fullscreenenter"",""0"",""2745""
","
","null","<p></p>","null","","","","","","","",""
"","image","67","95936","0.0-67.0","""event"",""trial"",""time""
""fullscreenenter"",""0"",""2745""
","
","
","""event"",""trial"",""time""
""fullscreenenter"",""0"",""2745""
","
","1171.7000000001863","run_exp/static/images/Set 6_rs/008a.jpg","78","","","","","","learn","SL",""
"","show_choice","68","96770","0.0-68.0","""event"",""trial"",""time""
""fullscreenenter"",""0"",""2745""
","
","
","""event"",""trial"",""time""
""fullscreenenter"",""0"",""2745""
","
","null","run_exp/static/images/Set 6_rs/008a.jpg","null","","","","","","learn","SL",""
"","html-keyboard-response","69","97273","0.0-69.0","""event"",""trial"",""time""
""fullscreenenter"",""0"",""2745""
","
","
","""event"",""trial"",""time""
""fullscreenenter"",""0"",""2745""
","
","null","<p></p>","null","","","","","","","",""
"","image","70","98126","0.0-70.0","""event"",""trial"",""time""
""fullscreenenter"",""0"",""2745""
","
","
","""event"",""trial"",""time""
""fullscreenenter"",""0"",""2745""
","
","849.4000000003725","run_exp/static/images/Set 6_rs/075a.jpg","86","","","","","","learn","SR",""
"","show_choice","71","99281","0.0-71.0","""event"",""trial"",""time""
""fullscreenenter"",""0"",""2745""
","
","
","""event"",""trial"",""time""
""fullscreenenter"",""0"",""2745""
","
","null","run_exp/static/images/Set 6_rs/075a.jpg","null","","","","","","learn","SR",""
"","html-keyboard-response","72","99784","0.0-72.0","""event"",""trial"",""time""
""fullscreenenter"",""0"",""2745""
","
","
","""event"",""trial"",""time""
""fullscreenenter"",""0"",""2745""
","
","null","<p></p>","null","","","","","","","",""
"","image","73","100355","0.0-73.0","""event"",""trial"",""time""
""fullscreenenter"",""0"",""2745""
","
","
","""event"",""trial"",""time""
""fullscreenenter"",""0"",""2745""
","
","568.7000000001863","run_exp/static/images/Set 6_rs/085a.jpg","86","","","","","","learn","SL",""
"","show_choice","74","101790","0.0-74.0","""event"",""trial"",""time""
""fullscreenenter"",""0"",""2745""
","
","
","""event"",""trial"",""time""
""fullscreenenter"",""0"",""2745""
","
","null","run_exp/static/images/Set 6_rs/085a.jpg","null","","","","","","learn","SL",""
"","html-keyboard-response","75","102294","0.0-75.0","""event"",""trial"",""time""
""fullscreenenter"",""0"",""2745""
","
","
","""event"",""trial"",""time""
""fullscreenenter"",""0"",""2745""
","
","null","<p></p>","null","","","","","","","",""
"","image","76","104302","0.0-76.0","""event"",""trial"",""time""
""fullscreenenter"",""0"",""2745""
","
","
","""event"",""trial"",""time""
""fullscreenenter"",""0"",""2745""
","
","null","run_exp/static/images/Set 6_rs/116a.jpg","null","","","","","","learn","SL",""
"","show_choice","77","106305","0.0-77.0","""event"",""trial"",""time""
""fullscreenenter"",""0"",""2745""
","
","
","""event"",""trial"",""time""
""fullscreenenter"",""0"",""2745""
","
","null","run_exp/static/images/blank.png","null","","","","","","learn","SL",""
"","html-keyboard-response","78","106810","0.0-78.0","""event"",""trial"",""time""
""fullscreenenter"",""0"",""2745""
","
","
","""event"",""trial"",""time""
""fullscreenenter"",""0"",""2745""
","
","null","<p></p>","null","","","","","","","",""
"","image","79","107764","0.0-79.0","""event"",""trial"",""time""
""fullscreenenter"",""0"",""2745""
","
","
","""event"",""trial"",""time""
""fullscreenenter"",""0"",""2745""
","
","946.8999999999069","run_exp/static/images/Set 6_rs/191a.jpg","78","","","","","","learn","SL",""
"","show_choice","80","108820","0.0-80.0","""event"",""trial"",""time""
""fullscreenenter"",""0"",""2745""
","
","
","""event"",""trial"",""time""
""fullscreenenter"",""0"",""2745""
","
","null","run_exp/static/images/Set 6_rs/191a.jpg","null","","","","","","learn","SL",""
"","html-keyboard-response","81","109322","0.0-81.0","""event"",""trial"",""time""
""fullscreenenter"",""0"",""2745""
","
","
","""event"",""trial"",""time""
""fullscreenenter"",""0"",""2745""
","
","null","<p></p>","null","","","","","","","",""
"","image","82","109935","0.0-82.0","""event"",""trial"",""time""
""fullscreenenter"",""0"",""2745""
","
","
","""event"",""trial"",""time""
""fullscreenenter"",""0"",""2745""
","
","608.2999999998137","run_exp/static/images/Set 6_rs/178a.jpg","86","","","","","","learn","SR",""
"","show_choice","83","111332","0.0-83.0","""event"",""trial"",""time""
""fullscreenenter"",""0"",""2745""
","
","
","""event"",""trial"",""time""
""fullscreenenter"",""0"",""2745""
","
","null","run_exp/static/images/Set 6_rs/178a.jpg","null","","","","","","learn","SR",""
"","html-keyboard-response","84","111834","0.0-84.0","""event"",""trial"",""time""
""fullscreenenter"",""0"",""2745""
","
","
","""event"",""trial"",""time""
""fullscreenenter"",""0"",""2745""
","
","null","<p></p>","null","","","","","","","",""
"","image","85","113083","0.0-85.0","""event"",""trial"",""time""
""fullscreenenter"",""0"",""2745""
","
","
","""event"",""trial"",""time""
""fullscreenenter"",""0"",""2745""
","
","1242.6000000000931","run_exp/static/images/Set 6_rs/168a.jpg","86","","","","","","learn","SL",""
"","show_choice","86","113845","0.0-86.0","""event"",""trial"",""time""
""fullscreenenter"",""0"",""2745""
","
","
","""event"",""trial"",""time""
""fullscreenenter"",""0"",""2745""
","
","null","run_exp/static/images/Set 6_rs/168a.jpg","null","","","","","","learn","SL",""
"","html-keyboard-response","87","114348","0.0-87.0","""event"",""trial"",""time""
""fullscreenenter"",""0"",""2745""
","
","
","""event"",""trial"",""time""
""fullscreenenter"",""0"",""2745""
","
","null","<p></p>","null","","","","","","","",""
"","image","88","115972","0.0-88.0","""event"",""trial"",""time""
""fullscreenenter"",""0"",""2745""
","
","
","""event"",""trial"",""time""
""fullscreenenter"",""0"",""2745""
","
","1619.3000000002794","run_exp/static/images/Set 6_rs/074a.jpg","78","","","","","","learn","SL",""
"","show_choice","89","116357","0.0-89.0","""event"",""trial"",""time""
""fullscreenenter"",""0"",""2745""
","
","
","""event"",""trial"",""time""
""fullscreenenter"",""0"",""2745""
","
","null","run_exp/static/images/Set 6_rs/074a.jpg","null","","","","","","learn","SL",""
"","html-keyboard-response","90","116863","0.0-90.0","""event"",""trial"",""time""
""fullscreenenter"",""0"",""2745""
","
","
","""event"",""trial"",""time""
""fullscreenenter"",""0"",""2745""
","
","null","<p></p>","null","","","","","","","",""
"","image","91","117634","0.0-91.0","""event"",""trial"",""time""
""fullscreenenter"",""0"",""2745""
","
","
","""event"",""trial"",""time""
""fullscreenenter"",""0"",""2745""
","
","765.3999999999069","run_exp/static/images/Set 6_rs/123a.jpg","86","","","","","","learn","SL",""
"","show_choice","92","118871","0.0-92.0","""event"",""trial"",""time""
""fullscreenenter"",""0"",""2745""
","
","
","""event"",""trial"",""time""
""fullscreenenter"",""0"",""2745""
","
","null","run_exp/static/images/Set 6_rs/123a.jpg","null","","","","","","learn","SL",""
"","html-keyboard-response","93","119375","0.0-93.0","""event"",""trial"",""time""
""fullscreenenter"",""0"",""2745""
","
","
","""event"",""trial"",""time""
""fullscreenenter"",""0"",""2745""
","
","null","<p></p>","null","","","","","","","",""
"","image","94","119930","0.0-94.0","""event"",""trial"",""time""
""fullscreenenter"",""0"",""2745""
","
","
","""event"",""trial"",""time""
""fullscreenenter"",""0"",""2745""
","
","547.0999999996275","run_exp/static/images/Set 6_rs/016a.jpg","86","","","","","","learn","SL",""
"","show_choice","95","121386","0.0-95.0","""event"",""trial"",""time""
""fullscreenenter"",""0"",""2745""
","
","
","""event"",""trial"",""time""
""fullscreenenter"",""0"",""2745""
","
","null","run_exp/static/images/Set 6_rs/016a.jpg","null","","","","","","learn","SL",""
"","html-keyboard-response","96","121889","0.0-96.0","""event"",""trial"",""time""
""fullscreenenter"",""0"",""2745""
","
","
","""event"",""trial"",""time""
""fullscreenenter"",""0"",""2745""
","
","null","<p></p>","null","","","","","","","",""
"","image","97","122756","0.0-97.0","""event"",""trial"",""time""
""fullscreenenter"",""0"",""2745""
","
","
","""event"",""trial"",""time""
""fullscreenenter"",""0"",""2745""
","
","861.8999999999069","run_exp/static/images/Set 6_rs/177a.jpg","86","","","","","","learn","SR",""
"","show_choice","98","123898","0.0-98.0","""event"",""trial"",""time""
""fullscreenenter"",""0"",""2745""
","
","
","""event"",""trial"",""time""
""fullscreenenter"",""0"",""2745""
","
","null","run_exp/static/images/Set 6_rs/177a.jpg","null","","","","","","learn","SR",""
"","html-keyboard-response","99","124400","0.0-99.0","""event"",""trial"",""time""
""fullscreenenter"",""0"",""2745""
","
","
","""event"",""trial"",""time""
""fullscreenenter"",""0"",""2745""
","
","null","<p></p>","null","","","","","","","",""
"","image","100","125399","0.0-100.0","""event"",""trial"",""time""
""fullscreenenter"",""0"",""2745""
","
","
","""event"",""trial"",""time""
""fullscreenenter"",""0"",""2745""
","
","995.8000000002794","run_exp/static/images/Set 6_rs/064a.jpg","86","","","","","","learn","SR",""
"","show_choice","101","126407","0.0-101.0","""event"",""trial"",""time""
""fullscreenenter"",""0"",""2745""
","
","
","""event"",""trial"",""time""
""fullscreenenter"",""0"",""2745""
","
","null","run_exp/static/images/Set 6_rs/064a.jpg","null","","","","","","learn","SR",""
"","html-keyboard-response","102","126909","0.0-102.0","""event"",""trial"",""time""
""fullscreenenter"",""0"",""2745""
","
","
","""event"",""trial"",""time""
""fullscreenenter"",""0"",""2745""
","
","null","<p></p>","null","","","","","","","",""
"","image","103","128725","0.0-103.0","""event"",""trial"",""time""
""fullscreenenter"",""0"",""2745""
","
","
","""event"",""trial"",""time""
""fullscreenenter"",""0"",""2745""
","
","1811.7000000001863","run_exp/static/images/Set 6_rs/169a.jpg","78","","","","","","learn","SR",""
"","show_choice","104","128918","0.0-104.0","""event"",""trial"",""time""
""fullscreenenter"",""0"",""2745""
","
","
","""event"",""trial"",""time""
""fullscreenenter"",""0"",""2745""
","
","null","run_exp/static/images/Set 6_rs/169a.jpg","null","","","","","","learn","SR",""
"","html-keyboard-response","105","129420","0.0-105.0","""event"",""trial"",""time""
""fullscreenenter"",""0"",""2745""
","
","
","""event"",""trial"",""time""
""fullscreenenter"",""0"",""2745""
","
","null","<p></p>","null","","","","","","","",""
"","image","106","130442","0.0-106.0","""event"",""trial"",""time""
""fullscreenenter"",""0"",""2745""
","
","
","""event"",""trial"",""time""
""fullscreenenter"",""0"",""2745""
","
","1017.6000000000931","run_exp/static/images/Set 6_rs/070a.jpg","86","","","","","","learn","SR",""
"","show_choice","107","131430","0.0-107.0","""event"",""trial"",""time""
""fullscreenenter"",""0"",""2745""
","
","
","""event"",""trial"",""time""
""fullscreenenter"",""0"",""2745""
","
","null","run_exp/static/images/Set 6_rs/070a.jpg","null","","","","","","learn","SR",""
"","html-keyboard-response","108","131933","0.0-108.0","""event"",""trial"",""time""
""fullscreenenter"",""0"",""2745""
","
","
","""event"",""trial"",""time""
""fullscreenenter"",""0"",""2745""
","
","null","<p></p>","null","","","","","","","",""
"","image","109","133184","0.0-109.0","""event"",""trial"",""time""
""fullscreenenter"",""0"",""2745""
","
","
","""event"",""trial"",""time""
""fullscreenenter"",""0"",""2745""
","
","1248.2000000001863","run_exp/static/images/Set 6_rs/091a.jpg","78","","","","","","learn","SL",""
"","show_choice","110","133939","0.0-110.0","""event"",""trial"",""time""
""fullscreenenter"",""0"",""2745""
","
","
","""event"",""trial"",""time""
""fullscreenenter"",""0"",""2745""
","
","null","run_exp/static/images/Set 6_rs/091a.jpg","null","","","","","","learn","SL",""
"","html-keyboard-response","111","134442","0.0-111.0","""event"",""trial"",""time""
""fullscreenenter"",""0"",""2745""
","
","
","""event"",""trial"",""time""
""fullscreenenter"",""0"",""2745""
","
","null","<p></p>","null","","","","","","","",""
"","image","112","135559","0.0-112.0","""event"",""trial"",""time""
""fullscreenenter"",""0"",""2745""
","
","
","""event"",""trial"",""time""
""fullscreenenter"",""0"",""2745""
","
","1113.2999999998137","run_exp/static/images/Set 6_rs/061a.jpg","78","","","","","","learn","SR",""
"","show_choice","113","136450","0.0-113.0","""event"",""trial"",""time""
""fullscreenenter"",""0"",""2745""
","
","
","""event"",""trial"",""time""
""fullscreenenter"",""0"",""2745""
","
","null","run_exp/static/images/Set 6_rs/061a.jpg","null","","","","","","learn","SR",""
"","html-keyboard-response","114","136953","0.0-114.0","""event"",""trial"",""time""
""fullscreenenter"",""0"",""2745""
","
","
","""event"",""trial"",""time""
""fullscreenenter"",""0"",""2745""
","
","null","<p></p>","null","","","","","","","",""
"","image","115","138274","0.0-115.0","""event"",""trial"",""time""
""fullscreenenter"",""0"",""2745""
","
","
","""event"",""trial"",""time""
""fullscreenenter"",""0"",""2745""
","
","1315.8999999999069","run_exp/static/images/Set 6_rs/062a.jpg","86","","","","","","learn","SL",""
"","show_choice","116","138963","0.0-116.0","""event"",""trial"",""time""
""fullscreenenter"",""0"",""2745""
","
","
","""event"",""trial"",""time""
""fullscreenenter"",""0"",""2745""
","
","null","run_exp/static/images/Set 6_rs/062a.jpg","null","","","","","","learn","SL",""
"","html-keyboard-response","117","139465","0.0-117.0","""event"",""trial"",""time""
""fullscreenenter"",""0"",""2745""
","
","
","""event"",""trial"",""time""
""fullscreenenter"",""0"",""2745""
","
","null","<p></p>","null","","","","","","","",""
"","image","118","140469","0.0-118.0","""event"",""trial"",""time""
""fullscreenenter"",""0"",""2745""
","
","
","""event"",""trial"",""time""
""fullscreenenter"",""0"",""2745""
","
","997","run_exp/static/images/Set 6_rs/023a.jpg","86","","","","","","learn","SR",""
"","show_choice","119","141476","0.0-119.0","""event"",""trial"",""time""
""fullscreenenter"",""0"",""2745""
","
","
","""event"",""trial"",""time""
""fullscreenenter"",""0"",""2745""
","
","null","run_exp/static/images/Set 6_rs/023a.jpg","null","","","","","","learn","SR",""
"","html-keyboard-response","120","141980","0.0-120.0","""event"",""trial"",""time""
""fullscreenenter"",""0"",""2745""
","
","
","""event"",""trial"",""time""
""fullscreenenter"",""0"",""2745""
","
","null","<p></p>","null","","","","","","","",""
"","image","121","143000","0.0-121.0","""event"",""trial"",""time""
""fullscreenenter"",""0"",""2745""
","
","
","""event"",""trial"",""time""
""fullscreenenter"",""0"",""2745""
","
","1016.6999999997206","run_exp/static/images/Set 6_rs/134a.jpg","86","","","","","","learn","SR",""
"","show_choice","122","143987","0.0-122.0","""event"",""trial"",""time""
""fullscreenenter"",""0"",""2745""
","
","
","""event"",""trial"",""time""
""fullscreenenter"",""0"",""2745""
","
","null","run_exp/static/images/Set 6_rs/134a.jpg","null","","","","","","learn","SR",""
"","html-keyboard-response","123","144490","0.0-123.0","""event"",""trial"",""time""
""fullscreenenter"",""0"",""2745""
","
","
","""event"",""trial"",""time""
""fullscreenenter"",""0"",""2745""
","
","null","<p></p>","null","","","","","","","",""
"","image","124","145184","0.0-124.0","""event"",""trial"",""time""
""fullscreenenter"",""0"",""2745""
","
","
","""event"",""trial"",""time""
""fullscreenenter"",""0"",""2745""
","
","690","run_exp/static/images/Set 6_rs/025a.jpg","86","","","","","","learn","SL",""
"","show_choice","125","146499","0.0-125.0","""event"",""trial"",""time""
""fullscreenenter"",""0"",""2745""
","
","
","""event"",""trial"",""time""
""fullscreenenter"",""0"",""2745""
","
","null","run_exp/static/images/Set 6_rs/025a.jpg","null","","","","","","learn","SL",""
"","html-keyboard-response","126","147002","0.0-126.0","""event"",""trial"",""time""
""fullscreenenter"",""0"",""2745""
","
","
","""event"",""trial"",""time""
""fullscreenenter"",""0"",""2745""
","
","null","<p></p>","null","","","","","","","",""
"","image","127","148433","0.0-127.0","""event"",""trial"",""time""
""fullscreenenter"",""0"",""2745""
","
","
","""event"",""trial"",""time""
""fullscreenenter"",""0"",""2745""
","
","1427.7000000001863","run_exp/static/images/Set 6_rs/121a.jpg","86","","","","","","learn","SR",""
"","show_choice","128","149009","0.0-128.0","""event"",""trial"",""time""
""fullscreenenter"",""0"",""2745""
","
","
","""event"",""trial"",""time""
""fullscreenenter"",""0"",""2745""
","
","null","run_exp/static/images/Set 6_rs/121a.jpg","null","","","","","","learn","SR",""
"","html-keyboard-response","129","149514","0.0-129.0","""event"",""trial"",""time""
""fullscreenenter"",""0"",""2745""
","
","
","""event"",""trial"",""time""
""fullscreenenter"",""0"",""2745""
","
","null","<p></p>","null","","","","","","","",""
"","image","130","150623","0.0-130.0","""event"",""trial"",""time""
""fullscreenenter"",""0"",""2745""
","
","
","""event"",""trial"",""time""
""fullscreenenter"",""0"",""2745""
","
","1102.3000000002794","run_exp/static/images/Set 6_rs/108a.jpg","78","","","","","","learn","SR",""
"","show_choice","131","151524","0.0-131.0","""event"",""trial"",""time""
""fullscreenenter"",""0"",""2745""
","
","
","""event"",""trial"",""time""
""fullscreenenter"",""0"",""2745""
","
","null","run_exp/static/images/Set 6_rs/108a.jpg","null","","","","","","learn","SR",""
"","html-keyboard-response","132","152027","0.0-132.0","""event"",""trial"",""time""
""fullscreenenter"",""0"",""2745""
","
","
","""event"",""trial"",""time""
""fullscreenenter"",""0"",""2745""
","
","null","<p></p>","null","","","","","","","",""
"","image","133","153638","0.0-133.0","""event"",""trial"",""time""
""fullscreenenter"",""0"",""2745""
","
","
","""event"",""trial"",""time""
""fullscreenenter"",""0"",""2745""
","
","1606.8999999999069","run_exp/static/images/Set 6_rs/150a.jpg","86","","","","","","learn","SR",""
"","show_choice","134","154037","0.0-134.0","""event"",""trial"",""time""
""fullscreenenter"",""0"",""2745""
","
","
","""event"",""trial"",""time""
""fullscreenenter"",""0"",""2745""
","
","null","run_exp/static/images/Set 6_rs/150a.jpg","null","","","","","","learn","SR",""
"","html-keyboard-response","135","154541","0.0-135.0","""event"",""trial"",""time""
""fullscreenenter"",""0"",""2745""
","
","
","""event"",""trial"",""time""
""fullscreenenter"",""0"",""2745""
","
","null","<p></p>","null","","","","","","","",""
"","image","136","155265","0.0-136.0","""event"",""trial"",""time""
""fullscreenenter"",""0"",""2745""
","
","
","""event"",""trial"",""time""
""fullscreenenter"",""0"",""2745""
","
","714.9000000003725","run_exp/static/images/Set 6_rs/186a.jpg","86","","","","","","learn","SR",""
"","show_choice","137","156555","0.0-137.0","""event"",""trial"",""time""
""fullscreenenter"",""0"",""2745""
","
","
","""event"",""trial"",""time""
""fullscreenenter"",""0"",""2745""
","
","null","run_exp/static/images/Set 6_rs/186a.jpg","null","","","","","","learn","SR",""
"","html-keyboard-response","138","157058","0.0-138.0","""event"",""trial"",""time""
""fullscreenenter"",""0"",""2745""
","
","
","""event"",""trial"",""time""
""fullscreenenter"",""0"",""2745""
","
","null","<p></p>","null","","","","","","","",""
"","image","139","158344","0.0-139.0","""event"",""trial"",""time""
""fullscreenenter"",""0"",""2745""
","
","
","""event"",""trial"",""time""
""fullscreenenter"",""0"",""2745""
","
","1282.2999999998137","run_exp/static/images/Set 6_rs/141a.jpg","78","","","","","","learn","SR",""
"","show_choice","140","159067","0.0-140.0","""event"",""trial"",""time""
""fullscreenenter"",""0"",""2745""
","
","
","""event"",""trial"",""time""
""fullscreenenter"",""0"",""2745""
","
","null","run_exp/static/images/Set 6_rs/141a.jpg","null","","","","","","learn","SR",""
"","html-keyboard-response","141","159570","0.0-141.0","""event"",""trial"",""time""
""fullscreenenter"",""0"",""2745""
","
","
","""event"",""trial"",""time""
""fullscreenenter"",""0"",""2745""
","
","null","<p></p>","null","","","","","","","",""
"","image","142","160513","0.0-142.0","""event"",""trial"",""time""
""fullscreenenter"",""0"",""2745""
","
","
","""event"",""trial"",""time""
""fullscreenenter"",""0"",""2745""
","
","935.6000000000931","run_exp/static/images/Set 6_rs/181a.jpg","78","","","","","","learn","SL",""
"","show_choice","143","161581","0.0-143.0","""event"",""trial"",""time""
""fullscreenenter"",""0"",""2745""
","
","
","""event"",""trial"",""time""
""fullscreenenter"",""0"",""2745""
","
","null","run_exp/static/images/Set 6_rs/181a.jpg","null","","","","","","learn","SL",""
"","html-keyboard-response","144","162083","0.0-144.0","""event"",""trial"",""time""
""fullscreenenter"",""0"",""2745""
","
","
","""event"",""trial"",""time""
""fullscreenenter"",""0"",""2745""
","
","null","<p></p>","null","","","","","","","",""
"","image","145","163548","0.0-145.0","""event"",""trial"",""time""
""fullscreenenter"",""0"",""2745""
","
","
","""event"",""trial"",""time""
""fullscreenenter"",""0"",""2745""
","
","1461.2000000001863","run_exp/static/images/Set 6_rs/079a.jpg","86","","","","","","learn","SL",""
"","show_choice","146","164091","0.0-146.0","""event"",""trial"",""time""
""fullscreenenter"",""0"",""2745""
","
","
","""event"",""trial"",""time""
""fullscreenenter"",""0"",""2745""
","
","null","run_exp/static/images/Set 6_rs/079a.jpg","null","","","","","","learn","SL",""
"","html-keyboard-response","147","164596","0.0-147.0","""event"",""trial"",""time""
""fullscreenenter"",""0"",""2745""
","
","
","""event"",""trial"",""time""
""fullscreenenter"",""0"",""2745""
","
","null","<p></p>","null","","","","","","","",""
"","image","148","165613","0.0-148.0","""event"",""trial"",""time""
""fullscreenenter"",""0"",""2745""
","
","
","""event"",""trial"",""time""
""fullscreenenter"",""0"",""2745""
","
","1011.0999999996275","run_exp/static/images/Set 6_rs/024a.jpg","86","","","","","","learn","SR",""
"","show_choice","149","166605","0.0-149.0","""event"",""trial"",""time""
""fullscreenenter"",""0"",""2745""
","
","
","""event"",""trial"",""time""
""fullscreenenter"",""0"",""2745""
","
","null","run_exp/static/images/Set 6_rs/024a.jpg","null","","","","","","learn","SR",""
"","html-keyboard-response","150","167108","0.0-150.0","""event"",""trial"",""time""
""fullscreenenter"",""0"",""2745""
","
","
","""event"",""trial"",""time""
""fullscreenenter"",""0"",""2745""
","
","null","<p></p>","null","","","","","","","",""
"","image","151","168447","0.0-151.0","""event"",""trial"",""time""
""fullscreenenter"",""0"",""2745""
","
","
","""event"",""trial"",""time""
""fullscreenenter"",""0"",""2745""
","
","1334.5999999996275","run_exp/static/images/Set 6_rs/089a.jpg","86","","","","","","learn","SL",""
"","show_choice","152","169118","0.0-152.0","""event"",""trial"",""time""
""fullscreenenter"",""0"",""2745""
","
","
","""event"",""trial"",""time""
""fullscreenenter"",""0"",""2745""
","
","null","run_exp/static/images/Set 6_rs/089a.jpg","null","","","","","","learn","SL",""
"","html-keyboard-response","153","169623","0.0-153.0","""event"",""trial"",""time""
""fullscreenenter"",""0"",""2745""
","
","
","""event"",""trial"",""time""
""fullscreenenter"",""0"",""2745""
","
","null","<p></p>","null","","","","","","","",""
"","image","154","170750","0.0-154.0","""event"",""trial"",""time""
""fullscreenenter"",""0"",""2745""
","
","
","""event"",""trial"",""time""
""fullscreenenter"",""0"",""2745""
","
","1120.1000000000931","run_exp/static/images/Set 6_rs/126a.jpg","78","","","","","","learn","SR",""
"","show_choice","155","171633","0.0-155.0","""event"",""trial"",""time""
""fullscreenenter"",""0"",""2745""
","
","
","""event"",""trial"",""time""
""fullscreenenter"",""0"",""2745""
","
","null","run_exp/static/images/Set 6_rs/126a.jpg","null","","","","","","learn","SR",""
"","html-keyboard-response","156","172136","0.0-156.0","""event"",""trial"",""time""
""fullscreenenter"",""0"",""2745""
","
","
","""event"",""trial"",""time""
""fullscreenenter"",""0"",""2745""
","
","null","<p></p>","null","","","","","","","",""
"","image","157","172950","0.0-157.0","""event"",""trial"",""time""
""fullscreenenter"",""0"",""2745""
","
","
","""event"",""trial"",""time""
""fullscreenenter"",""0"",""2745""
","
","808.7000000001863","run_exp/static/images/Set 6_rs/095a.jpg","86","","","","","","learn","SL",""
"","show_choice","158","174150","0.0-158.0","""event"",""trial"",""time""
""fullscreenenter"",""0"",""2745""
","
","
","""event"",""trial"",""time""
""fullscreenenter"",""0"",""2745""
","
","null","run_exp/static/images/Set 6_rs/095a.jpg","null","","","","","","learn","SL",""
"","html-keyboard-response","159","174653","0.0-159.0","""event"",""trial"",""time""
""fullscreenenter"",""0"",""2745""
","
","
","""event"",""trial"",""time""
""fullscreenenter"",""0"",""2745""
","
","null","<p></p>","null","","","","","","","",""
"","image","160","176236","0.0-160.0","""event"",""trial"",""time""
""fullscreenenter"",""0"",""2745""
","
","
","""event"",""trial"",""time""
""fullscreenenter"",""0"",""2745""
","
","1575.7999999998137","run_exp/static/images/Set 6_rs/138a.jpg","86","","","","","","learn","SL",""
"","show_choice","161","176664","0.0-161.0","""event"",""trial"",""time""
""fullscreenenter"",""0"",""2745""
","
","
","""event"",""trial"",""time""
""fullscreenenter"",""0"",""2745""
","
","null","run_exp/static/images/Set 6_rs/138a.jpg","null","","","","","","learn","SL",""
"","html-keyboard-response","162","177167","0.0-162.0","""event"",""trial"",""time""
""fullscreenenter"",""0"",""2745""
","
","
","""event"",""trial"",""time""
""fullscreenenter"",""0"",""2745""
","
","null","<p></p>","null","","","","","","","",""
"","image","163","177845","0.0-163.0","""event"",""trial"",""time""
""fullscreenenter"",""0"",""2745""
","
","
","""event"",""trial"",""time""
""fullscreenenter"",""0"",""2745""
","
","672.2999999998137","run_exp/static/images/Set 6_rs/071a.jpg","86","","","","","","learn","SL",""
"","show_choice","164","179177","0.0-164.0","""event"",""trial"",""time""
""fullscreenenter"",""0"",""2745""
","
","
","""event"",""trial"",""time""
""fullscreenenter"",""0"",""2745""
","
","null","run_exp/static/images/Set 6_rs/071a.jpg","null","","","","","","learn","SL",""
"","html-keyboard-response","165","179681","0.0-165.0","""event"",""trial"",""time""
""fullscreenenter"",""0"",""2745""
","
","
","""event"",""trial"",""time""
""fullscreenenter"",""0"",""2745""
","
","null","<p></p>","null","","","","","","","",""
"","image","166","180876","0.0-166.0","""event"",""trial"",""time""
""fullscreenenter"",""0"",""2745""
","
","
","""event"",""trial"",""time""
""fullscreenenter"",""0"",""2745""
","
","1189.3999999999069","run_exp/static/images/Set 6_rs/010a.jpg","86","","","","","","learn","SR",""
"","show_choice","167","181692","0.0-167.0","""event"",""trial"",""time""
""fullscreenenter"",""0"",""2745""
","
","
","""event"",""trial"",""time""
""fullscreenenter"",""0"",""2745""
","
","null","run_exp/static/images/Set 6_rs/010a.jpg","null","","","","","","learn","SR",""
"","html-keyboard-response","168","182196","0.0-168.0","""event"",""trial"",""time""
""fullscreenenter"",""0"",""2745""
","
","
","""event"",""trial"",""time""
""fullscreenenter"",""0"",""2745""
","
","null","<p></p>","null","","","","","","","",""
"","image","169","183789","0.0-169.0","""event"",""trial"",""time""
""fullscreenenter"",""0"",""2745""
","
","
","""event"",""trial"",""time""
""fullscreenenter"",""0"",""2745""
","
","1586","run_exp/static/images/Set 6_rs/017a.jpg","86","","","","","","learn","SL",""
"","show_choice","170","184206","0.0-170.0","""event"",""trial"",""time""
""fullscreenenter"",""0"",""2745""
","
","
","""event"",""trial"",""time""
""fullscreenenter"",""0"",""2745""
","
","null","run_exp/static/images/Set 6_rs/017a.jpg","null","","","","","","learn","SL",""
"","html-keyboard-response","171","184708","0.0-171.0","""event"",""trial"",""time""
""fullscreenenter"",""0"",""2745""
","
","
","""event"",""trial"",""time""
""fullscreenenter"",""0"",""2745""
","
","null","<p></p>","null","","","","","","","",""
"","image","172","185473","0.0-172.0","""event"",""trial"",""time""
""fullscreenenter"",""0"",""2745""
","
","
","""event"",""trial"",""time""
""fullscreenenter"",""0"",""2745""
","
","758.7999999998137","run_exp/static/images/Set 6_rs/122a.jpg","86","","","","","","learn","SR",""
"","show_choice","173","186718","0.0-173.0","""event"",""trial"",""time""
""fullscreenenter"",""0"",""2745""
","
","
","""event"",""trial"",""time""
""fullscreenenter"",""0"",""2745""
","
","null","run_exp/static/images/Set 6_rs/122a.jpg","null","","","","","","learn","SR",""
"","html-keyboard-response","174","187221","0.0-174.0","""event"",""trial"",""time""
""fullscreenenter"",""0"",""2745""
","
","
","""event"",""trial"",""time""
""fullscreenenter"",""0"",""2745""
","
","null","<p></p>","null","","","","","","","",""
"","image","175","188532","0.0-175.0","""event"",""trial"",""time""
""fullscreenenter"",""0"",""2745""
","
","
","""event"",""trial"",""time""
""fullscreenenter"",""0"",""2745""
","
","1304.2999999998137","run_exp/static/images/Set 6_rs/006a.jpg","86","","","","","","learn","SL",""
"","show_choice","176","189231","0.0-176.0","""event"",""trial"",""time""
""fullscreenenter"",""0"",""2745""
","
","
","""event"",""trial"",""time""
""fullscreenenter"",""0"",""2745""
","
","null","run_exp/static/images/Set 6_rs/006a.jpg","null","","","","","","learn","SL",""
"","html-keyboard-response","177","189734","0.0-177.0","""event"",""trial"",""time""
""fullscreenenter"",""0"",""2745""
","
","
","""event"",""trial"",""time""
""fullscreenenter"",""0"",""2745""
","
","null","<p></p>","null","","","","","","","",""
"","image","178","190554","0.0-178.0","""event"",""trial"",""time""
""fullscreenenter"",""0"",""2745""
","
","
","""event"",""trial"",""time""
""fullscreenenter"",""0"",""2745""
","
","816.8999999999069","run_exp/static/images/Set 6_rs/050a.jpg","86","","","","","","learn","SL",""
"","show_choice","179","191743","0.0-179.0","""event"",""trial"",""time""
""fullscreenenter"",""0"",""2745""
","
","
","""event"",""trial"",""time""
""fullscreenenter"",""0"",""2745""
","
","null","run_exp/static/images/Set 6_rs/050a.jpg","null","","","","","","learn","SL",""
"","html-keyboard-response","180","192246","0.0-180.0","""event"",""trial"",""time""
""fullscreenenter"",""0"",""2745""
","
","
","""event"",""trial"",""time""
""fullscreenenter"",""0"",""2745""
","
","null","<p></p>","null","","","","","","","",""
"","image","181","193193","0.0-181.0","""event"",""trial"",""time""
""fullscreenenter"",""0"",""2745""
","
","
","""event"",""trial"",""time""
""fullscreenenter"",""0"",""2745""
","
","941.0999999996275","run_exp/static/images/Set 6_rs/117a.jpg","78","","","","","","learn","SL",""
"","show_choice","182","194257","0.0-182.0","""event"",""trial"",""time""
""fullscreenenter"",""0"",""2745""
","
","
","""event"",""trial"",""time""
""fullscreenenter"",""0"",""2745""
","
","null","run_exp/static/images/Set 6_rs/117a.jpg","null","","","","","","learn","SL",""
"","html-keyboard-response","183","194759","0.0-183.0","""event"",""trial"",""time""
""fullscreenenter"",""0"",""2745""
","
","
","""event"",""trial"",""time""
""fullscreenenter"",""0"",""2745""
","
","null","<p></p>","null","","","","","","","",""
"","image","184","196023","0.0-184.0","""event"",""trial"",""time""
""fullscreenenter"",""0"",""2745""
","
","
","""event"",""trial"",""time""
""fullscreenenter"",""0"",""2745""
","
","1259.8999999999069","run_exp/static/images/Set 6_rs/012a.jpg","86","","","","","","learn","SR",""
"","show_choice","185","196766","0.0-185.0","""event"",""trial"",""time""
""fullscreenenter"",""0"",""2745""
","
","
","""event"",""trial"",""time""
""fullscreenenter"",""0"",""2745""
","
","null","run_exp/static/images/Set 6_rs/012a.jpg","null","","","","","","learn","SR",""
"","html-keyboard-response","186","197270","0.0-186.0","""event"",""trial"",""time""
""fullscreenenter"",""0"",""2745""
","
","
","""event"",""trial"",""time""
""fullscreenenter"",""0"",""2745""
","
","null","<p></p>","null","","","","","","","",""
"","image","187","197968","0.0-187.0","""event"",""trial"",""time""
""fullscreenenter"",""0"",""2745""
","
","
","""event"",""trial"",""time""
""fullscreenenter"",""0"",""2745""
","
","693.5999999996275","run_exp/static/images/Set 6_rs/063a.jpg","86","","","","","","learn","SR",""
"","show_choice","188","199278","0.0-188.0","""event"",""trial"",""time""
""fullscreenenter"",""0"",""2745""
","
","
","""event"",""trial"",""time""
""fullscreenenter"",""0"",""2745""
","
","null","run_exp/static/images/Set 6_rs/063a.jpg","null","","","","","","learn","SR",""
"","html-keyboard-response","189","199783","0.0-189.0","""event"",""trial"",""time""
""fullscreenenter"",""0"",""2745""
","
","
","""event"",""trial"",""time""
""fullscreenenter"",""0"",""2745""
","
","null","<p></p>","null","","","","","","","",""
"","image","190","201286","0.0-190.0","""event"",""trial"",""time""
""fullscreenenter"",""0"",""2745""
","
","
","""event"",""trial"",""time""
""fullscreenenter"",""0"",""2745""
","
","1496.1000000000931","run_exp/static/images/Set 6_rs/152a.jpg","78","","","","","","learn","SR",""
"","show_choice","191","201795","0.0-191.0","""event"",""trial"",""time""
""fullscreenenter"",""0"",""2745""
","
","
","""event"",""trial"",""time""
""fullscreenenter"",""0"",""2745""
","
","null","run_exp/static/images/Set 6_rs/152a.jpg","null","","","","","","learn","SR",""
"","html-keyboard-response","192","202298","0.0-192.0","""event"",""trial"",""time""
""fullscreenenter"",""0"",""2745""
","
","
","""event"",""trial"",""time""
""fullscreenenter"",""0"",""2745""
","
","null","<p></p>","null","","","","","","","",""
"","image","193","204198","0.0-193.0","""event"",""trial"",""time""
""fullscreenenter"",""0"",""2745""
","
","
","""event"",""trial"",""time""
""fullscreenenter"",""0"",""2745""
","
","1897.5","run_exp/static/images/Set 6_rs/129a.jpg","86","","","","","","learn","SL",""
"","show_choice","194","204303","0.0-194.0","""event"",""trial"",""time""
""fullscreenenter"",""0"",""2745""
","
","
","""event"",""trial"",""time""
""fullscreenenter"",""0"",""2745""
","
","null","run_exp/static/images/Set 6_rs/129a.jpg","null","","","","","","learn","SL",""
"","html-keyboard-response","195","204805","0.0-195.0","""event"",""trial"",""time""
""fullscreenenter"",""0"",""2745""
","
","
","""event"",""trial"",""time""
""fullscreenenter"",""0"",""2745""
","
","null","<p></p>","null","","","","","","","",""
"","test_intro","196","241735","0.0-196.0","""event"",""trial"",""time""
""fullscreenenter"",""0"",""2745""
","
","
","""event"",""trial"",""time""
""fullscreenenter"",""0"",""2745""
","
","null","run_exp/static/audio/clip_2_memory.m4a","null","","","","","<div class='center'><p>Now, lets see how much you remember about the items you just saw.  For each item, you need to indicate if it was <b>old</b> by pressing the <b>v</b> key, <b>similar</b> by pressing the <b>b</b> key, or <b>new</b> by pressing the <b>n</b> key.</p><p>Old refers to an item that you saw before in the indoor/outdoor game that you just played, new refers to an item you have <b>not</b> seen before within the indoor/outdoor game, and similar refers to an item that is similar to an item youve seen before but is not exactly the same. </p><p>Before we begin, lets go over some brief demonstrations to make sure you understand.</p></div>","","",""
"","html-keyboard-response","197","242308","0.0-197.0","""event"",""trial"",""time""
""fullscreenenter"",""0"",""2745""
","
","
","""event"",""trial"",""time""
""fullscreenenter"",""0"",""2745""
","
","569.7000000001863","<div class='center'><p>Now, lets see how much you remember about the items you just saw.  For each item, you need to indicate if it was <b>old</b> by pressing the <b>v</b> key, <b>similar</b> by pressing the <b>b</b> key, or <b>new</b> by pressing the <b>n</b> key.</p><p>Old refers to an item that you saw before in the indoor/outdoor game that you just played, new refers to an item you have <b>not</b> seen before within the indoor/outdoor game, and similar refers to an item that is similar to an item youve seen before but is not exactly the same. </p><p>Before we begin, lets go over some brief demonstrations to make sure you understand.</p><div><p><b>[Press the space bar to continue]</b></p></div>","32","","","","","","","",""
"","items","198","249812","0.0-198.0","""event"",""trial"",""time""
""fullscreenenter"",""0"",""2745""
","
","
","""event"",""trial"",""time""
""fullscreenenter"",""0"",""2745""
","
","null","run_exp/static/audio/clip_3_items.m4a","null","","","","","","","",""
"","mop","199","254316","0.0-199.0","""event"",""trial"",""time""
""fullscreenenter"",""0"",""2745""
","
","
","""event"",""trial"",""time""
""fullscreenenter"",""0"",""2745""
","
","null","run_exp/static/audio/clip_4_mop.m4a","null","","","","","","","",""
"","baseball","200","257825","0.0-200.0","""event"",""trial"",""time""
""fullscreenenter"",""0"",""2745""
","
","
","""event"",""trial"",""time""
""fullscreenenter"",""0"",""2745""
","
","null","run_exp/static/audio/clip_5_baseball.m4a","null","","","","","","","",""
"","trumpet","201","261334","0.0-201.0","""event"",""trial"",""time""
""fullscreenenter"",""0"",""2745""
","
","
","""event"",""trial"",""time""
""fullscreenenter"",""0"",""2745""
","
","null","run_exp/static/audio/clip_6_trumpet.m4a","null","","","","","","","",""
"","gummies","202","264841","0.0-202.0","""event"",""trial"",""time""
""fullscreenenter"",""0"",""2745""
","
","
","""event"",""trial"",""time""
""fullscreenenter"",""0"",""2745""
","
","null","run_exp/static/audio/clip_7_gummies.m4a","null","","","","","","","",""
"","osn","203","269344","0.0-203.0","""event"",""trial"",""time""
""fullscreenenter"",""0"",""2745""
","
","
","""event"",""trial"",""time""
""fullscreenenter"",""0"",""2745""
","
","null","run_exp/static/audio/clip_8_osn.m4a","null","","","","","","","",""
"","old_1","204","275848","0.0-204.0","""event"",""trial"",""time""
""fullscreenenter"",""0"",""2745""
","
","
","""event"",""trial"",""time""
""fullscreenenter"",""0"",""2745""
","
","null","run_exp/static/audio/clip_9_old_trumpet.m4a","null","","","","","","","",""
"","new_1","205","283357","0.0-205.0","""event"",""trial"",""time""
""fullscreenenter"",""0"",""2745""
","
","
","""event"",""trial"",""time""
""fullscreenenter"",""0"",""2745""
","
","null","run_exp/static/audio/clip_10_new_balloon.m4a","null","","","","","","","",""
"","similar_1a","206","287865","0.0-206.0","""event"",""trial"",""time""
""fullscreenenter"",""0"",""2745""
","
","
","""event"",""trial"",""time""
""fullscreenenter"",""0"",""2745""
","
","null","run_exp/static/audio/clip_11a_similar_mop.m4a","null","","","","","","","",""
"","similar_1b","207","294370","0.0-207.0","""event"",""trial"",""time""
""fullscreenenter"",""0"",""2745""
","
","
","""event"",""trial"",""time""
""fullscreenenter"",""0"",""2745""
","
","null","run_exp/static/audio/clip_11b_similar_mop.m4a","null","","","","","","","",""
"","new_2","208","297874","0.0-208.0","""event"",""trial"",""time""
""fullscreenenter"",""0"",""2745""
","
","
","""event"",""trial"",""time""
""fullscreenenter"",""0"",""2745""
","
","null","run_exp/static/audio/clip_12_new_stoplight.m4a","null","","","","","","","",""
"","old_2","209","301383","0.0-209.0","""event"",""trial"",""time""
""fullscreenenter"",""0"",""2745""
","
","
","""event"",""trial"",""time""
""fullscreenenter"",""0"",""2745""
","
","null","run_exp/static/audio/clip_13_old_baseball.m4a","null","","","","","","","",""
"","similar_2a","210","304898","0.0-210.0","""event"",""trial"",""time""
""fullscreenenter"",""0"",""2745""
","
","
","""event"",""trial"",""time""
""fullscreenenter"",""0"",""2745""
","
","null","run_exp/static/audio/clip_14a_similar_gummies.m4a","null","","","","","","","",""
"","similar_2b","211","312405","0.0-211.0","""event"",""trial"",""time""
""fullscreenenter"",""0"",""2745""
","
","
","""event"",""trial"",""time""
""fullscreenenter"",""0"",""2745""
","
","null","run_exp/static/audio/clip_14b_similar_gummies.m4a","null","","","","","","","",""
"","practice","212","354664","0.0-212.0","""event"",""trial"",""time""
""fullscreenenter"",""0"",""2745""
","
","
","""event"",""trial"",""time""
""fullscreenenter"",""0"",""2745""
","
","null","run_exp/static/audio/clip_15_practice.m4a","null","","","","","<div class='center'><p>Lets practice a little to make sure you understand the difference between new, similar, and old. Lets say you saw these three items in the indoor/outdoor game.</p><p> Try your best to remember these images because youll soon be tested on them in a practice game. In the practice game, youll be shown images and youll have to say if they are old (one of the three images belows), similar (similar to one of the images below but not exactly the same), or new (are not one of the images below nor similar to them).</p><p>Once you press the space bar youll be shown these images again but one at time. Then youll begin the practice game.</p><p><img src='run_exp/static/images/tutorial/test/three_indoor_outdoor.png' height='300'></p></div>","","",""
"","html-keyboard-response","213","355789","0.0-213.0","""event"",""trial"",""time""
""fullscreenenter"",""0"",""2745""
","
","
","""event"",""trial"",""time""
""fullscreenenter"",""0"",""2745""
","
","1115.8000000002794","<div class='center'><p>Lets practice a little to make sure you understand the difference between new, similar, and old. Lets say you saw these three items in the indoor/outdoor game.</p><p> Try your best to remember these images because youll soon be tested on them in a practice game. In the practice game, youll be shown images and youll have to say if they are old (one of the three images belows), similar (similar to one of the images below but not exactly the same), or new (are not one of the images below nor similar to them).</p><p>Once you press the space bar youll be shown these images again but one at time. Then youll begin the practice game.</p><p><img src='run_exp/static/images/tutorial/test/three_indoor_outdoor.png' height='300'></p><div><p><b>[Press the space bar to continue]</b></p></div>","32","","","","","","","",""
"","planet","214","357792","0.0-214.0","""event"",""trial"",""time""
""fullscreenenter"",""0"",""2745""
","
","
","""event"",""trial"",""time""
""fullscreenenter"",""0"",""2745""
","
","null","run_exp/static/images/tutorial/test/008a.jpg","null","","","","","","","",""
"","boot","215","359794","0.0-215.0","""event"",""trial"",""time""
""fullscreenenter"",""0"",""2745""
","
","
","""event"",""trial"",""time""
""fullscreenenter"",""0"",""2745""
","
","null","run_exp/static/images/tutorial/test/011a.jpg","null","","","","","","","",""
"","lemon","216","361797","0.0-216.0","""event"",""trial"",""time""
""fullscreenenter"",""0"",""2745""
","
","
","""event"",""trial"",""time""
""fullscreenenter"",""0"",""2745""
","
","null","run_exp/static/images/tutorial/test/018a.jpg","null","","","","","","","",""
"","practice_q1","217","366920","0.0-217.0","""event"",""trial"",""time""
""fullscreenenter"",""0"",""2745""
","
","
","""event"",""trial"",""time""
""fullscreenenter"",""0"",""2745""
","
","5111.5999999996275","run_exp/static/audio/clip_16_practice_question.m4a","78","","","","","","","",""
"","correct","218","369076","0.0-218.0-0.0","""event"",""trial"",""time""
""fullscreenenter"",""0"",""2745""
","
","
","""event"",""trial"",""time""
""fullscreenenter"",""0"",""2745""
","
","null","run_exp/static/audio/clip_17_correct.m4a","null","","","","","<div class='center'><p>That's correct!</p></div>","","",""
"","html-keyboard-response","219","370223","0.0-218.0-1.0","""event"",""trial"",""time""
""fullscreenenter"",""0"",""2745""
","
","
","""event"",""trial"",""time""
""fullscreenenter"",""0"",""2745""
","
","1143.2999999998137","<div class='center'><p>That's correct!</p><div><p><b>[Press the space bar to continue]</b></p></div>","32","","","","","","","",""
"","practice_q2","220","372556","0.0-218.0-2.0","""event"",""trial"",""time""
""fullscreenenter"",""0"",""2745""
","
","
","""event"",""trial"",""time""
""fullscreenenter"",""0"",""2745""
","
","2321.7999999998137","run_exp/static/audio/clip_16_practice_question.m4a","86","","","","","","","",""
"","correct","221","374707","0.0-219.0-0.0","""event"",""trial"",""time""
""fullscreenenter"",""0"",""2745""
","
","
","""event"",""trial"",""time""
""fullscreenenter"",""0"",""2745""
","
","null","run_exp/static/audio/clip_17_correct.m4a","null","","","","","<div class='center'><p>That's correct!</p></div>","","",""
"","html-keyboard-response","222","375798","0.0-219.0-1.0","""event"",""trial"",""time""
""fullscreenenter"",""0"",""2745""
","
","
","""event"",""trial"",""time""
""fullscreenenter"",""0"",""2745""
","
","1084.3999999999069","<div class='center'><p>That's correct!</p><div><p><b>[Press the space bar to continue]</b></p></div>","32","","","","","","","",""
"","practice_q3","223","377231","0.0-219.0-2.0","""event"",""trial"",""time""
""fullscreenenter"",""0"",""2745""
","
","
","""event"",""trial"",""time""
""fullscreenenter"",""0"",""2745""
","
","1428.3999999999069","run_exp/static/audio/clip_16_practice_question.m4a","66","","","","","","","",""
"","correct","224","379824","0.0-220.0-0.0","""event"",""trial"",""time""
""fullscreenenter"",""0"",""2745""
","
","
","""event"",""trial"",""time""
""fullscreenenter"",""0"",""2745""
","
","null","run_exp/static/audio/clip_17_correct.m4a","null","","","","","<div class='center'><p>That's correct!</p></div>","","",""
"","html-keyboard-response","225","380868","0.0-220.0-1.0","""event"",""trial"",""time""
""fullscreenenter"",""0"",""2745""
","
","
","""event"",""trial"",""time""
""fullscreenenter"",""0"",""2745""
","
","1040.2000000001863","<div class='center'><p>That's correct!</p><div><p><b>[Press the space bar to continue]</b></p></div>","32","","","","","","","",""
"","begin_text","226","399527","0.0-221.0-0.0","""event"",""trial"",""time""
""fullscreenenter"",""0"",""2745""
","
","
","""event"",""trial"",""time""
""fullscreenenter"",""0"",""2745""
","
","null","run_exp/static/audio/clip_22_begin_test.m4a","null","","","","","<div class='center'><p>On to the real game where well test your memory of items from the indoor/outdoor game. For each item, you need to indicate if the item is <b>old</b> by pressing the <b>v</b> key, <b>similar</b> by pressing the <b>b</b> key, or <b>new</b> by pressing the <b>n</b> key. </p></div>","","",""
"","html-keyboard-response","227","400135","0.0-221.0-1.0","""event"",""trial"",""time""
""fullscreenenter"",""0"",""2745""
","
","
","""event"",""trial"",""time""
""fullscreenenter"",""0"",""2745""
","
","600.3000000002794","<div class='center'><p>On to the real game where well test your memory of items from the indoor/outdoor game. For each item, you need to indicate if the item is <b>old</b> by pressing the <b>v</b> key, <b>similar</b> by pressing the <b>b</b> key, or <b>new</b> by pressing the <b>n</b> key. </p><div><p><b>[Press the space bar to continue]</b></p></div>","32","","","","","","","",""
"","image","228","402416","0.0-222.0-0.0","""event"",""trial"",""time""
""fullscreenenter"",""0"",""2745""
","
","
","""event"",""trial"",""time""
""fullscreenenter"",""0"",""2745""
","
","2277.7999999998137","run_exp/static/images/Set 6_rs/138b.jpg","66","","","","","","test","TL","1"
"","show_choice","229","402919","0.0-222.0-1.0","""event"",""trial"",""time""
""fullscreenenter"",""0"",""2745""
","
","
","""event"",""trial"",""time""
""fullscreenenter"",""0"",""2745""
","
","null","run_exp/static/images/Set 6_rs/138b.jpg","null","","","","","","test","TL",""
"","html-keyboard-response","230","403421","0.0-222.0-2.0","""event"",""trial"",""time""
""fullscreenenter"",""0"",""2745""
","
","
","""event"",""trial"",""time""
""fullscreenenter"",""0"",""2745""
","
","null","<p></p>","null","","","","","","","",""
"","image","231","405465","0.0-223.0-0.0","""event"",""trial"",""time""
""fullscreenenter"",""0"",""2745""
","
","
","""event"",""trial"",""time""
""fullscreenenter"",""0"",""2745""
","
","2041.0999999996275","run_exp/static/images/Set 6_rs/052a.jpg","78","","","","","","test","TF","1"
"","show_choice","232","405970","0.0-223.0-1.0","""event"",""trial"",""time""
""fullscreenenter"",""0"",""2745""
","
","
","""event"",""trial"",""time""
""fullscreenenter"",""0"",""2745""
","
","null","run_exp/static/images/Set 6_rs/052a.jpg","null","","","","","","test","TF",""
"","html-keyboard-response","233","406474","0.0-223.0-2.0","""event"",""trial"",""time""
""fullscreenenter"",""0"",""2745""
","
","
","""event"",""trial"",""time""
""fullscreenenter"",""0"",""2745""
","
","null","<p></p>","null","","","","","","","",""
"","image","234","408045","0.0-224.0-0.0","""event"",""trial"",""time""
""fullscreenenter"",""0"",""2745""
","
","
","""event"",""trial"",""time""
""fullscreenenter"",""0"",""2745""
","
","1564.8000000002794","run_exp/static/images/Set 6_rs/140a.jpg","66","","","","","","test","TF","1"
"","show_choice","235","408550","0.0-224.0-1.0","""event"",""trial"",""time""
""fullscreenenter"",""0"",""2745""
","
","
","""event"",""trial"",""time""
""fullscreenenter"",""0"",""2745""
","
","null","run_exp/static/images/Set 6_rs/140a.jpg","null","","","","","","test","TF",""
"","html-keyboard-response","236","409053","0.0-224.0-2.0","""event"",""trial"",""time""
""fullscreenenter"",""0"",""2745""
","
","
","""event"",""trial"",""time""
""fullscreenenter"",""0"",""2745""
","
","null","<p></p>","null","","","","","","","",""
"","image","237","410557","0.0-225.0-0.0","""event"",""trial"",""time""
""fullscreenenter"",""0"",""2745""
","
","
","""event"",""trial"",""time""
""fullscreenenter"",""0"",""2745""
","
","1501","run_exp/static/images/Set 6_rs/155a.jpg","78","","","","","","test","TF","4"
"","show_choice","238","411073","0.0-225.0-1.0","""event"",""trial"",""time""
""fullscreenenter"",""0"",""2745""
","
","
","""event"",""trial"",""time""
""fullscreenenter"",""0"",""2745""
","
","null","run_exp/static/images/Set 6_rs/155a.jpg","null","","","","","","test","TF",""
"","html-keyboard-response","239","411576","0.0-225.0-2.0","""event"",""trial"",""time""
""fullscreenenter"",""0"",""2745""
","
","
","""event"",""trial"",""time""
""fullscreenenter"",""0"",""2745""
","
","null","<p></p>","null","","","","","","","",""
"","image","240","412834","0.0-226.0-0.0","""event"",""trial"",""time""
""fullscreenenter"",""0"",""2745""
","
","
","""event"",""trial"",""time""
""fullscreenenter"",""0"",""2745""
","
","1255.2000000001863","run_exp/static/images/Set 6_rs/047a.jpg","78","","","","","","test","TF","3"
"","show_choice","241","413338","0.0-226.0-1.0","""event"",""trial"",""time""
""fullscreenenter"",""0"",""2745""
","
","
","""event"",""trial"",""time""
""fullscreenenter"",""0"",""2745""
","
","null","run_exp/static/images/Set 6_rs/047a.jpg","null","","","","","","test","TF",""
"","html-keyboard-response","242","413840","0.0-226.0-2.0","""event"",""trial"",""time""
""fullscreenenter"",""0"",""2745""
","
","
","""event"",""trial"",""time""
""fullscreenenter"",""0"",""2745""
","
","null","<p></p>","null","","","","","","","",""
"","image","243","415507","0.0-227.0-0.0","""event"",""trial"",""time""
""fullscreenenter"",""0"",""2745""
","
","
","""event"",""trial"",""time""
""fullscreenenter"",""0"",""2745""
","
","1664.2999999998137","run_exp/static/images/Set 6_rs/079b.jpg","86","","","","","","test","TL","5"
"","show_choice","244","416012","0.0-227.0-1.0","""event"",""trial"",""time""
""fullscreenenter"",""0"",""2745""
","
","
","""event"",""trial"",""time""
""fullscreenenter"",""0"",""2745""
","
","null","run_exp/static/images/Set 6_rs/079b.jpg","null","","","","","","test","TL",""
"","html-keyboard-response","245","416514","0.0-227.0-2.0","""event"",""trial"",""time""
""fullscreenenter"",""0"",""2745""
","
","
","""event"",""trial"",""time""
""fullscreenenter"",""0"",""2745""
","
","null","<p></p>","null","","","","","","","",""
"","image","246","417635","0.0-228.0-0.0","""event"",""trial"",""time""
""fullscreenenter"",""0"",""2745""
","
","
","""event"",""trial"",""time""
""fullscreenenter"",""0"",""2745""
","
","1117.3999999999069","run_exp/static/images/Set 6_rs/045a.jpg","86","","","","","","test","TR","2"
"","show_choice","247","418141","0.0-228.0-1.0","""event"",""trial"",""time""
""fullscreenenter"",""0"",""2745""
","
","
","""event"",""trial"",""time""
""fullscreenenter"",""0"",""2745""
","
","null","run_exp/static/images/Set 6_rs/045a.jpg","null","","","","","","test","TR",""
"","html-keyboard-response","248","418645","0.0-228.0-2.0","""event"",""trial"",""time""
""fullscreenenter"",""0"",""2745""
","
","
","""event"",""trial"",""time""
""fullscreenenter"",""0"",""2745""
","
","null","<p></p>","null","","","","","","","",""
"","image","249","419661","0.0-229.0-0.0","""event"",""trial"",""time""
""fullscreenenter"",""0"",""2745""
","
","
","""event"",""trial"",""time""
""fullscreenenter"",""0"",""2745""
","
","1011.2000000001863","run_exp/static/images/Set 6_rs/166a.jpg","86","","","","","","test","TR","1"
"","show_choice","250","420165","0.0-229.0-1.0","""event"",""trial"",""time""
""fullscreenenter"",""0"",""2745""
","
","
","""event"",""trial"",""time""
""fullscreenenter"",""0"",""2745""
","
","null","run_exp/static/images/Set 6_rs/166a.jpg","null","","","","","","test","TR",""
"","html-keyboard-response","251","420669","0.0-229.0-2.0","""event"",""trial"",""time""
""fullscreenenter"",""0"",""2745""
","
","
","""event"",""trial"",""time""
""fullscreenenter"",""0"",""2745""
","
","null","<p></p>","null","","","","","","","",""
"","image","252","421488","0.0-230.0-0.0","""event"",""trial"",""time""
""fullscreenenter"",""0"",""2745""
","
","
","""event"",""trial"",""time""
""fullscreenenter"",""0"",""2745""
","
","815.6999999997206","run_exp/static/images/Set 6_rs/088a.jpg","86","","","","","","test","TR","2"
"","show_choice","253","421992","0.0-230.0-1.0","""event"",""trial"",""time""
""fullscreenenter"",""0"",""2745""
","
","
","""event"",""trial"",""time""
""fullscreenenter"",""0"",""2745""
","
","null","run_exp/static/images/Set 6_rs/088a.jpg","null","","","","","","test","TR",""
"","html-keyboard-response","254","422497","0.0-230.0-2.0","""event"",""trial"",""time""
""fullscreenenter"",""0"",""2745""
","
","
","""event"",""trial"",""time""
""fullscreenenter"",""0"",""2745""
","
","null","<p></p>","null","","","","","","","",""
"","image","255","423303","0.0-231.0-0.0","""event"",""trial"",""time""
""fullscreenenter"",""0"",""2745""
","
","
","""event"",""trial"",""time""
""fullscreenenter"",""0"",""2745""
","
","799.3000000002794","run_exp/static/images/Set 6_rs/154a.jpg","86","","","","","","test","TR","3"
"","show_choice","256","423807","0.0-231.0-1.0","""event"",""trial"",""time""
""fullscreenenter"",""0"",""2745""
","
","
","""event"",""trial"",""time""
""fullscreenenter"",""0"",""2745""
","
","null","run_exp/static/images/Set 6_rs/154a.jpg","null","","","","","","test","TR",""
"","html-keyboard-response","257","424310","0.0-231.0-2.0","""event"",""trial"",""time""
""fullscreenenter"",""0"",""2745""
","
","
","""event"",""trial"",""time""
""fullscreenenter"",""0"",""2745""
","
","null","<p></p>","null","","","","","","","",""
"","image","258","425052","0.0-232.0-0.0","""event"",""trial"",""time""
""fullscreenenter"",""0"",""2745""
","
","
","""event"",""trial"",""time""
""fullscreenenter"",""0"",""2745""
","
","736.8000000002794","run_exp/static/images/Set 6_rs/007a.jpg","86","","","","","","test","TR","3"
"","show_choice","259","425558","0.0-232.0-1.0","""event"",""trial"",""time""
""fullscreenenter"",""0"",""2745""
","
","
","""event"",""trial"",""time""
""fullscreenenter"",""0"",""2745""
","
","null","run_exp/static/images/Set 6_rs/007a.jpg","null","","","","","","test","TR",""
"","html-keyboard-response","260","426061","0.0-232.0-2.0","""event"",""trial"",""time""
""fullscreenenter"",""0"",""2745""
","
","
","""event"",""trial"",""time""
""fullscreenenter"",""0"",""2745""
","
","null","<p></p>","null","","","","","","","",""
"","image","261","427435","0.0-233.0-0.0","""event"",""trial"",""time""
""fullscreenenter"",""0"",""2745""
","
","
","""event"",""trial"",""time""
""fullscreenenter"",""0"",""2745""
","
","1368.1000000000931","run_exp/static/images/Set 6_rs/048a.jpg","78","","","","","","test","TF","4"
"","show_choice","262","427939","0.0-233.0-1.0","""event"",""trial"",""time""
""fullscreenenter"",""0"",""2745""
","
","
","""event"",""trial"",""time""
""fullscreenenter"",""0"",""2745""
","
","null","run_exp/static/images/Set 6_rs/048a.jpg","null","","","","","","test","TF",""
"","html-keyboard-response","263","428442","0.0-233.0-2.0","""event"",""trial"",""time""
""fullscreenenter"",""0"",""2745""
","
","
","""event"",""trial"",""time""
""fullscreenenter"",""0"",""2745""
","
","null","<p></p>","null","","","","","","","",""
"","image","264","429703","0.0-234.0-0.0","""event"",""trial"",""time""
""fullscreenenter"",""0"",""2745""
","
","
","""event"",""trial"",""time""
""fullscreenenter"",""0"",""2745""
","
","1256.7999999998137","run_exp/static/images/Set 6_rs/186a.jpg","86","","","","","","test","TR","5"
"","show_choice","265","430207","0.0-234.0-1.0","""event"",""trial"",""time""
""fullscreenenter"",""0"",""2745""
","
","
","""event"",""trial"",""time""
""fullscreenenter"",""0"",""2745""
","
","null","run_exp/static/images/Set 6_rs/186a.jpg","null","","","","","","test","TR",""
"","html-keyboard-response","266","430711","0.0-234.0-2.0","""event"",""trial"",""time""
""fullscreenenter"",""0"",""2745""
","
","
","""event"",""trial"",""time""
""fullscreenenter"",""0"",""2745""
","
","null","<p></p>","null","","","","","","","",""
"","image","267","431565","0.0-235.0-0.0","""event"",""trial"",""time""
""fullscreenenter"",""0"",""2745""
","
","
","""event"",""trial"",""time""
""fullscreenenter"",""0"",""2745""
","
","850","run_exp/static/images/Set 6_rs/012a.jpg","86","","","","","","test","TR","1"
"","show_choice","268","432069","0.0-235.0-1.0","""event"",""trial"",""time""
""fullscreenenter"",""0"",""2745""
","
","
","""event"",""trial"",""time""
""fullscreenenter"",""0"",""2745""
","
","null","run_exp/static/images/Set 6_rs/012a.jpg","null","","","","","","test","TR",""
"","html-keyboard-response","269","432573","0.0-235.0-2.0","""event"",""trial"",""time""
""fullscreenenter"",""0"",""2745""
","
","
","""event"",""trial"",""time""
""fullscreenenter"",""0"",""2745""
","
","null","<p></p>","null","","","","","","","",""
"","image","270","433777","0.0-236.0-0.0","""event"",""trial"",""time""
""fullscreenenter"",""0"",""2745""
","
","
","""event"",""trial"",""time""
""fullscreenenter"",""0"",""2745""
","
","1201","run_exp/static/images/Set 6_rs/121a.jpg","86","","","","","","test","TR","4"
"","show_choice","271","434283","0.0-236.0-1.0","""event"",""trial"",""time""
""fullscreenenter"",""0"",""2745""
","
","
","""event"",""trial"",""time""
""fullscreenenter"",""0"",""2745""
","
","null","run_exp/static/images/Set 6_rs/121a.jpg","null","","","","","","test","TR",""
"","html-keyboard-response","272","434785","0.0-236.0-2.0","""event"",""trial"",""time""
""fullscreenenter"",""0"",""2745""
","
","
","""event"",""trial"",""time""
""fullscreenenter"",""0"",""2745""
","
","null","<p></p>","null","","","","","","","",""
"","image","273","435765","0.0-237.0-0.0","""event"",""trial"",""time""
""fullscreenenter"",""0"",""2745""
","
","
","""event"",""trial"",""time""
""fullscreenenter"",""0"",""2745""
","
","976.8999999999069","run_exp/static/images/Set 6_rs/064a.jpg","86","","","","","","test","TR","5"
"","show_choice","274","436270","0.0-237.0-1.0","""event"",""trial"",""time""
""fullscreenenter"",""0"",""2745""
","
","
","""event"",""trial"",""time""
""fullscreenenter"",""0"",""2745""
","
","null","run_exp/static/images/Set 6_rs/064a.jpg","null","","","","","","test","TR",""
"","html-keyboard-response","275","436772","0.0-237.0-2.0","""event"",""trial"",""time""
""fullscreenenter"",""0"",""2745""
","
","
","""event"",""trial"",""time""
""fullscreenenter"",""0"",""2745""
","
","null","<p></p>","null","","","","","","","",""
"","image","276","438065","0.0-238.0-0.0","""event"",""trial"",""time""
""fullscreenenter"",""0"",""2745""
","
","
","""event"",""trial"",""time""
""fullscreenenter"",""0"",""2745""
","
","1290","run_exp/static/images/Set 6_rs/074b.jpg","66","","","","","","test","TL","4"
"","show_choice","277","438569","0.0-238.0-1.0","""event"",""trial"",""time""
""fullscreenenter"",""0"",""2745""
","
","
","""event"",""trial"",""time""
""fullscreenenter"",""0"",""2745""
","
","null","run_exp/static/images/Set 6_rs/074b.jpg","null","","","","","","test","TL",""
"","html-keyboard-response","278","439072","0.0-238.0-2.0","""event"",""trial"",""time""
""fullscreenenter"",""0"",""2745""
","
","
","""event"",""trial"",""time""
""fullscreenenter"",""0"",""2745""
","
","null","<p></p>","null","","","","","","","",""
"","image","279","440334","0.0-239.0-0.0","""event"",""trial"",""time""
""fullscreenenter"",""0"",""2745""
","
","
","""event"",""trial"",""time""
""fullscreenenter"",""0"",""2745""
","
","1256.8000000002794","run_exp/static/images/Set 6_rs/122a.jpg","86","","","","","","test","TR","5"
"","show_choice","280","440838","0.0-239.0-1.0","""event"",""trial"",""time""
""fullscreenenter"",""0"",""2745""
","
","
","""event"",""trial"",""time""
""fullscreenenter"",""0"",""2745""
","
","null","run_exp/static/images/Set 6_rs/122a.jpg","null","","","","","","test","TR",""
"","html-keyboard-response","281","441341","0.0-239.0-2.0","""event"",""trial"",""time""
""fullscreenenter"",""0"",""2745""
","
","
","""event"",""trial"",""time""
""fullscreenenter"",""0"",""2745""
","
","null","<p></p>","null","","","","","","","",""
"","image","282","442288","0.0-240.0-0.0","""event"",""trial"",""time""
""fullscreenenter"",""0"",""2745""
","
","
","""event"",""trial"",""time""
""fullscreenenter"",""0"",""2745""
","
","944.3000000002794","run_exp/static/images/Set 6_rs/178a.jpg","86","","","","","","test","TR","3"
"","show_choice","283","442791","0.0-240.0-1.0","""event"",""trial"",""time""
""fullscreenenter"",""0"",""2745""
","
","
","""event"",""trial"",""time""
""fullscreenenter"",""0"",""2745""
","
","null","run_exp/static/images/Set 6_rs/178a.jpg","null","","","","","","test","TR",""
"","html-keyboard-response","284","443294","0.0-240.0-2.0","""event"",""trial"",""time""
""fullscreenenter"",""0"",""2745""
","
","
","""event"",""trial"",""time""
""fullscreenenter"",""0"",""2745""
","
","null","<p></p>","null","","","","","","","",""
"","image","285","444625","0.0-241.0-0.0","""event"",""trial"",""time""
""fullscreenenter"",""0"",""2745""
","
","
","""event"",""trial"",""time""
""fullscreenenter"",""0"",""2745""
","
","1326.7999999998137","run_exp/static/images/Set 6_rs/014b.jpg","66","","","","","","test","TL","5"
"","show_choice","286","445130","0.0-241.0-1.0","""event"",""trial"",""time""
""fullscreenenter"",""0"",""2745""
","
","
","""event"",""trial"",""time""
""fullscreenenter"",""0"",""2745""
","
","null","run_exp/static/images/Set 6_rs/014b.jpg","null","","","","","","test","TL",""
"","html-keyboard-response","287","445633","0.0-241.0-2.0","""event"",""trial"",""time""
""fullscreenenter"",""0"",""2745""
","
","
","""event"",""trial"",""time""
""fullscreenenter"",""0"",""2745""
","
","null","<p></p>","null","","","","","","","",""
"","image","288","446656","0.0-242.0-0.0","""event"",""trial"",""time""
""fullscreenenter"",""0"",""2745""
","
","
","""event"",""trial"",""time""
""fullscreenenter"",""0"",""2745""
","
","1019.2999999998137","run_exp/static/images/Set 6_rs/133a.jpg","86","","","","","","test","TF","4"
"","show_choice","289","447159","0.0-242.0-1.0","""event"",""trial"",""time""
""fullscreenenter"",""0"",""2745""
","
","
","""event"",""trial"",""time""
""fullscreenenter"",""0"",""2745""
","
","null","run_exp/static/images/Set 6_rs/133a.jpg","null","","","","","","test","TF",""
"","html-keyboard-response","290","447661","0.0-242.0-2.0","""event"",""trial"",""time""
""fullscreenenter"",""0"",""2745""
","
","
","""event"",""trial"",""time""
""fullscreenenter"",""0"",""2745""
","
","null","<p></p>","null","","","","","","","",""
"","image","291","448934","0.0-243.0-0.0","""event"",""trial"",""time""
""fullscreenenter"",""0"",""2745""
","
","
","""event"",""trial"",""time""
""fullscreenenter"",""0"",""2745""
","
","1270.5","run_exp/static/images/Set 6_rs/132a.jpg","86","","","","","","test","TR","5"
"","show_choice","292","449438","0.0-243.0-1.0","""event"",""trial"",""time""
""fullscreenenter"",""0"",""2745""
","
","
","""event"",""trial"",""time""
""fullscreenenter"",""0"",""2745""
","
","null","run_exp/static/images/Set 6_rs/132a.jpg","null","","","","","","test","TR",""
"","html-keyboard-response","293","449940","0.0-243.0-2.0","""event"",""trial"",""time""
""fullscreenenter"",""0"",""2745""
","
","
","""event"",""trial"",""time""
""fullscreenenter"",""0"",""2745""
","
","null","<p></p>","null","","","","","","","",""
"","image","294","451365","0.0-244.0-0.0","""event"",""trial"",""time""
""fullscreenenter"",""0"",""2745""
","
","
","""event"",""trial"",""time""
""fullscreenenter"",""0"",""2745""
","
","1420.5999999996275","run_exp/static/images/Set 6_rs/187a.jpg","86","","","","","","test","TR","3"
"","show_choice","295","451869","0.0-244.0-1.0","""event"",""trial"",""time""
""fullscreenenter"",""0"",""2745""
","
","
","""event"",""trial"",""time""
""fullscreenenter"",""0"",""2745""
","
","null","run_exp/static/images/Set 6_rs/187a.jpg","null","","","","","","test","TR",""
"","html-keyboard-response","296","452372","0.0-244.0-2.0","""event"",""trial"",""time""
""fullscreenenter"",""0"",""2745""
","
","
","""event"",""trial"",""time""
""fullscreenenter"",""0"",""2745""
","
","null","<p></p>","null","","","","","","","",""
"","image","297","453431","0.0-245.0-0.0","""event"",""trial"",""time""
""fullscreenenter"",""0"",""2745""
","
","
","""event"",""trial"",""time""
""fullscreenenter"",""0"",""2745""
","
","1054.1000000000931","run_exp/static/images/Set 6_rs/141a.jpg","86","","","","","","test","TR","2"
"","show_choice","298","453934","0.0-245.0-1.0","""event"",""trial"",""time""
""fullscreenenter"",""0"",""2745""
","
","
","""event"",""trial"",""time""
""fullscreenenter"",""0"",""2745""
","
","null","run_exp/static/images/Set 6_rs/141a.jpg","null","","","","","","test","TR",""
"","html-keyboard-response","299","454437","0.0-245.0-2.0","""event"",""trial"",""time""
""fullscreenenter"",""0"",""2745""
","
","
","""event"",""trial"",""time""
""fullscreenenter"",""0"",""2745""
","
","null","<p></p>","null","","","","","","","",""
"","image","300","455439","0.0-246.0-0.0","""event"",""trial"",""time""
""fullscreenenter"",""0"",""2745""
","
","
","""event"",""trial"",""time""
""fullscreenenter"",""0"",""2745""
","
","996.8999999999069","run_exp/static/images/Set 6_rs/171a.jpg","78","","","","","","test","TF","1"
"","show_choice","301","455943","0.0-246.0-1.0","""event"",""trial"",""time""
""fullscreenenter"",""0"",""2745""
","
","
","""event"",""trial"",""time""
""fullscreenenter"",""0"",""2745""
","
","null","run_exp/static/images/Set 6_rs/171a.jpg","null","","","","","","test","TF",""
"","html-keyboard-response","302","456447","0.0-246.0-2.0","""event"",""trial"",""time""
""fullscreenenter"",""0"",""2745""
","
","
","""event"",""trial"",""time""
""fullscreenenter"",""0"",""2745""
","
","null","<p></p>","null","","","","","","","",""
"","image","303","457771","0.0-247.0-0.0","""event"",""trial"",""time""
""fullscreenenter"",""0"",""2745""
","
","
","""event"",""trial"",""time""
""fullscreenenter"",""0"",""2745""
","
","1319.6000000000931","run_exp/static/images/Set 6_rs/066b.jpg","78","","","","","","test","TL","5"
"","show_choice","304","458274","0.0-247.0-1.0","""event"",""trial"",""time""
""fullscreenenter"",""0"",""2745""
","
","
","""event"",""trial"",""time""
""fullscreenenter"",""0"",""2745""
","
","null","run_exp/static/images/Set 6_rs/066b.jpg","null","","","","","","test","TL",""
"","html-keyboard-response","305","458776","0.0-247.0-2.0","""event"",""trial"",""time""
""fullscreenenter"",""0"",""2745""
","
","
","""event"",""trial"",""time""
""fullscreenenter"",""0"",""2745""
","
","null","<p></p>","null","","","","","","","",""
"","image","306","460042","0.0-248.0-0.0","""event"",""trial"",""time""
""fullscreenenter"",""0"",""2745""
","
","
","""event"",""trial"",""time""
""fullscreenenter"",""0"",""2745""
","
","1262.8999999999069","run_exp/static/images/Set 6_rs/024a.jpg","86","","","","","","test","TR","5"
"","show_choice","307","460545","0.0-248.0-1.0","""event"",""trial"",""time""
""fullscreenenter"",""0"",""2745""
","
","
","""event"",""trial"",""time""
""fullscreenenter"",""0"",""2745""
","
","null","run_exp/static/images/Set 6_rs/024a.jpg","null","","","","","","test","TR",""
"","html-keyboard-response","308","461046","0.0-248.0-2.0","""event"",""trial"",""time""
""fullscreenenter"",""0"",""2745""
","
","
","""event"",""trial"",""time""
""fullscreenenter"",""0"",""2745""
","
","null","<p></p>","null","","","","","","","",""
"","image","309","462625","0.0-249.0-0.0","""event"",""trial"",""time""
""fullscreenenter"",""0"",""2745""
","
","
","""event"",""trial"",""time""
""fullscreenenter"",""0"",""2745""
","
","1566","run_exp/static/images/Set 6_rs/181b.jpg","86","","","","","","test","TL","1"
"","show_choice","310","463128","0.0-249.0-1.0","""event"",""trial"",""time""
""fullscreenenter"",""0"",""2745""
","
","
","""event"",""trial"",""time""
""fullscreenenter"",""0"",""2745""
","
","null","run_exp/static/images/Set 6_rs/181b.jpg","null","","","","","","test","TL",""
"","html-keyboard-response","311","463632","0.0-249.0-2.0","""event"",""trial"",""time""
""fullscreenenter"",""0"",""2745""
","
","
","""event"",""trial"",""time""
""fullscreenenter"",""0"",""2745""
","
","null","<p></p>","null","","","","","","","",""
"","image","312","465098","0.0-250.0-0.0","""event"",""trial"",""time""
""fullscreenenter"",""0"",""2745""
","
","
","""event"",""trial"",""time""
""fullscreenenter"",""0"",""2745""
","
","1459.8999999999069","run_exp/static/images/Set 6_rs/055b.jpg","66","","","","","","test","TL","4"
"","show_choice","313","465604","0.0-250.0-1.0","""event"",""trial"",""time""
""fullscreenenter"",""0"",""2745""
","
","
","""event"",""trial"",""time""
""fullscreenenter"",""0"",""2745""
","
","null","run_exp/static/images/Set 6_rs/055b.jpg","null","","","","","","test","TL",""
"","html-keyboard-response","314","466107","0.0-250.0-2.0","""event"",""trial"",""time""
""fullscreenenter"",""0"",""2745""
","
","
","""event"",""trial"",""time""
""fullscreenenter"",""0"",""2745""
","
","null","<p></p>","null","","","","","","","",""
"","image","315","467690","0.0-251.0-0.0","""event"",""trial"",""time""
""fullscreenenter"",""0"",""2745""
","
","
","""event"",""trial"",""time""
""fullscreenenter"",""0"",""2745""
","
","1580.2999999998137","run_exp/static/images/Set 6_rs/086a.jpg","66","","","","","","test","TF","1"
"","show_choice","316","468194","0.0-251.0-1.0","""event"",""trial"",""time""
""fullscreenenter"",""0"",""2745""
","
","
","""event"",""trial"",""time""
""fullscreenenter"",""0"",""2745""
","
","null","run_exp/static/images/Set 6_rs/086a.jpg","null","","","","","","test","TF",""
"","html-keyboard-response","317","468697","0.0-251.0-2.0","""event"",""trial"",""time""
""fullscreenenter"",""0"",""2745""
","
","
","""event"",""trial"",""time""
""fullscreenenter"",""0"",""2745""
","
","null","<p></p>","null","","","","","","","",""
"","image","318","470087","0.0-252.0-0.0","""event"",""trial"",""time""
""fullscreenenter"",""0"",""2745""
","
","
","""event"",""trial"",""time""
""fullscreenenter"",""0"",""2745""
","
","1385","run_exp/static/images/Set 6_rs/097a.jpg","78","","","","","","test","TF","5"
"","show_choice","319","470592","0.0-252.0-1.0","""event"",""trial"",""time""
""fullscreenenter"",""0"",""2745""
","
","
","""event"",""trial"",""time""
""fullscreenenter"",""0"",""2745""
","
","null","run_exp/static/images/Set 6_rs/097a.jpg","null","","","","","","test","TF",""
"","html-keyboard-response","320","471095","0.0-252.0-2.0","""event"",""trial"",""time""
""fullscreenenter"",""0"",""2745""
","
","
","""event"",""trial"",""time""
""fullscreenenter"",""0"",""2745""
","
","null","<p></p>","null","","","","","","","",""
"","image","321","472656","0.0-253.0-0.0","""event"",""trial"",""time""
""fullscreenenter"",""0"",""2745""
","
","
","""event"",""trial"",""time""
""fullscreenenter"",""0"",""2745""
","
","1555.5","run_exp/static/images/Set 6_rs/017b.jpg","66","","","","","","test","TL","3"
"","show_choice","322","473163","0.0-253.0-1.0","""event"",""trial"",""time""
""fullscreenenter"",""0"",""2745""
","
","
","""event"",""trial"",""time""
""fullscreenenter"",""0"",""2745""
","
","null","run_exp/static/images/Set 6_rs/017b.jpg","null","","","","","","test","TL",""
"","html-keyboard-response","323","473666","0.0-253.0-2.0","""event"",""trial"",""time""
""fullscreenenter"",""0"",""2745""
","
","
","""event"",""trial"",""time""
""fullscreenenter"",""0"",""2745""
","
","null","<p></p>","null","","","","","","","",""
"","image","324","475232","0.0-254.0-0.0","""event"",""trial"",""time""
""fullscreenenter"",""0"",""2745""
","
","
","""event"",""trial"",""time""
""fullscreenenter"",""0"",""2745""
","
","1559.5","run_exp/static/images/Set 6_rs/116b.jpg","66","","","","","","test","TL","2"
"","show_choice","325","475737","0.0-254.0-1.0","""event"",""trial"",""time""
""fullscreenenter"",""0"",""2745""
","
","
","""event"",""trial"",""time""
""fullscreenenter"",""0"",""2745""
","
","null","run_exp/static/images/Set 6_rs/116b.jpg","null","","","","","","test","TL",""
"","html-keyboard-response","326","476239","0.0-254.0-2.0","""event"",""trial"",""time""
""fullscreenenter"",""0"",""2745""
","
","
","""event"",""trial"",""time""
""fullscreenenter"",""0"",""2745""
","
","null","<p></p>","null","","","","","","","",""
"","image","327","477403","0.0-255.0-0.0","""event"",""trial"",""time""
""fullscreenenter"",""0"",""2745""
","
","
","""event"",""trial"",""time""
""fullscreenenter"",""0"",""2745""
","
","1160.8999999999069","run_exp/static/images/Set 6_rs/190a.jpg","78","","","","","","test","TF","3"
"","show_choice","328","477906","0.0-255.0-1.0","""event"",""trial"",""time""
""fullscreenenter"",""0"",""2745""
","
","
","""event"",""trial"",""time""
""fullscreenenter"",""0"",""2745""
","
","null","run_exp/static/images/Set 6_rs/190a.jpg","null","","","","","","test","TF",""
"","html-keyboard-response","329","478410","0.0-255.0-2.0","""event"",""trial"",""time""
""fullscreenenter"",""0"",""2745""
","
","
","""event"",""trial"",""time""
""fullscreenenter"",""0"",""2745""
","
","null","<p></p>","null","","","","","","","",""
"","image","330","479693","0.0-256.0-0.0","""event"",""trial"",""time""
""fullscreenenter"",""0"",""2745""
","
","
","""event"",""trial"",""time""
""fullscreenenter"",""0"",""2745""
","
","1278.6000000000931","run_exp/static/images/Set 6_rs/188a.jpg","78","","","","","","test","TF","3"
"","show_choice","331","480198","0.0-256.0-1.0","""event"",""trial"",""time""
""fullscreenenter"",""0"",""2745""
","
","
","""event"",""trial"",""time""
""fullscreenenter"",""0"",""2745""
","
","null","run_exp/static/images/Set 6_rs/188a.jpg","null","","","","","","test","TF",""
"","html-keyboard-response","332","480703","0.0-256.0-2.0","""event"",""trial"",""time""
""fullscreenenter"",""0"",""2745""
","
","
","""event"",""trial"",""time""
""fullscreenenter"",""0"",""2745""
","
","null","<p></p>","null","","","","","","","",""
"","image","333","482045","0.0-257.0-0.0","""event"",""trial"",""time""
""fullscreenenter"",""0"",""2745""
","
","
","""event"",""trial"",""time""
""fullscreenenter"",""0"",""2745""
","
","1335.5","run_exp/static/images/Set 6_rs/095b.jpg","86","","","","","","test","TL","5"
"","show_choice","334","482552","0.0-257.0-1.0","""event"",""trial"",""time""
""fullscreenenter"",""0"",""2745""
","
","
","""event"",""trial"",""time""
""fullscreenenter"",""0"",""2745""
","
","null","run_exp/static/images/Set 6_rs/095b.jpg","null","","","","","","test","TL",""
"","html-keyboard-response","335","483056","0.0-257.0-2.0","""event"",""trial"",""time""
""fullscreenenter"",""0"",""2745""
","
","
","""event"",""trial"",""time""
""fullscreenenter"",""0"",""2745""
","
","null","<p></p>","null","","","","","","","",""
"","image","336","484600","0.0-258.0-0.0","""event"",""trial"",""time""
""fullscreenenter"",""0"",""2745""
","
","
","""event"",""trial"",""time""
""fullscreenenter"",""0"",""2745""
","
","1531.5","run_exp/static/images/Set 6_rs/131a.jpg","86","","","","","","test","TR","5"
"","show_choice","337","485106","0.0-258.0-1.0","""event"",""trial"",""time""
""fullscreenenter"",""0"",""2745""
","
","
","""event"",""trial"",""time""
""fullscreenenter"",""0"",""2745""
","
","null","run_exp/static/images/Set 6_rs/131a.jpg","null","","","","","","test","TR",""
"","html-keyboard-response","338","485611","0.0-258.0-2.0","""event"",""trial"",""time""
""fullscreenenter"",""0"",""2745""
","
","
","""event"",""trial"",""time""
""fullscreenenter"",""0"",""2745""
","
","null","<p></p>","null","","","","","","","",""
"","image","339","487611","0.0-259.0-0.0","""event"",""trial"",""time""
""fullscreenenter"",""0"",""2745""
","
","
","""event"",""trial"",""time""
""fullscreenenter"",""0"",""2745""
","
","1995.8000000002794","run_exp/static/images/Set 6_rs/071b.jpg","86","","","","","","test","TL","4"
"","show_choice","340","488119","0.0-259.0-1.0","""event"",""trial"",""time""
""fullscreenenter"",""0"",""2745""
","
","
","""event"",""trial"",""time""
""fullscreenenter"",""0"",""2745""
","
","null","run_exp/static/images/Set 6_rs/071b.jpg","null","","","","","","test","TL",""
