"success","trial_type","trial_index","time_elapsed","internal_node_id","interactions","blur_events","focus_events","fullscreenenter_events","fullscreenexit_events","rt","stimulus","key_press","subject_id","participant_id","age","gender","prompt","phase","condition","lure_bin"
"true","fullscreen","0","19604","0.0-0.0","""event"",""trial"",""time""
""blur"",""0"",""17301""
""focus"",""0"",""18511""
""fullscreenenter"",""0"",""18619""
","""event"",""trial"",""time""
""blur"",""0"",""17301""
","""event"",""trial"",""time""
""focus"",""0"",""18511""
","""event"",""trial"",""time""
""fullscreenenter"",""0"",""18619""
","
","","","","","","","","","","",""
"","pavlovia","1","19607","0.0-1.0","""event"",""trial"",""time""
""blur"",""0"",""17301""
""focus"",""0"",""18511""
""fullscreenenter"",""0"",""18619""
""blur"",""2"",""35034""
","""event"",""trial"",""time""
""blur"",""0"",""17301""
""blur"",""2"",""35034""
","""event"",""trial"",""time""
""focus"",""0"",""18511""
","""event"",""trial"",""time""
""fullscreenenter"",""0"",""18619""
","
","","","","","","","","","","",""
"","welcome","2","54393","0.0-2.0","""event"",""trial"",""time""
""blur"",""0"",""17301""
""focus"",""0"",""18511""
""fullscreenenter"",""0"",""18619""
""blur"",""2"",""35034""
""focus"",""3"",""54400""
""blur"",""3"",""55485""
""focus"",""3"",""55677""
","""event"",""trial"",""time""
""blur"",""0"",""17301""
""blur"",""2"",""35034""
""blur"",""3"",""55485""
","""event"",""trial"",""time""
""focus"",""0"",""18511""
""focus"",""3"",""54400""
""focus"",""3"",""55677""
","""event"",""trial"",""time""
""fullscreenenter"",""0"",""18619""
","
","null","run_exp/static/audio/clip_1_welcome.m4a","null","479","611","15","Male","<div class='center'><p>Welcome to the third part of the study! First, you'll be shown pictures of items one at a time. For each picture, you have to decide if the item is typically found indoors or outdoors.</p><p>If you think it's usually found indoors, then press <b>v</b> key on your keyboard. If you think it's usually found outdoors, then press the <b>n</b> key.There will be reminders on the screen to help you remember which keys to press. </p><p>If you're not sure whether the item is an indoor item or an outdoor item, go ahead and take a guess but try your best not to skip that choice. </p></div>","","",""
"","html-keyboard-response","3","57381","0.0-3.0","""event"",""trial"",""time""
""blur"",""0"",""17301""
""focus"",""0"",""18511""
""fullscreenenter"",""0"",""18619""
""blur"",""2"",""35034""
""focus"",""3"",""54400""
""blur"",""3"",""55485""
""focus"",""3"",""55677""
","""event"",""trial"",""time""
""blur"",""0"",""17301""
""blur"",""2"",""35034""
""blur"",""3"",""55485""
","""event"",""trial"",""time""
""focus"",""0"",""18511""
""focus"",""3"",""54400""
""focus"",""3"",""55677""
","""event"",""trial"",""time""
""fullscreenenter"",""0"",""18619""
","
","2986.399999976158","<div class='center'><p>Welcome to the third part of the study! First, you'll be shown pictures of items one at a time. For each picture, you have to decide if the item is typically found indoors or outdoors.</p><p>If you think it's usually found indoors, then press <b>v</b> key on your keyboard. If you think it's usually found outdoors, then press the <b>n</b> key.There will be reminders on the screen to help you remember which keys to press. </p><p>If you're not sure whether the item is an indoor item or an outdoor item, go ahead and take a guess but try your best not to skip that choice. </p><div><p><b>[Press the space bar to continue]</b></p></div>","32","","","","","","","",""
"","image","4","59396","0.0-4.0","""event"",""trial"",""time""
""blur"",""0"",""17301""
""focus"",""0"",""18511""
""fullscreenenter"",""0"",""18619""
""blur"",""2"",""35034""
""focus"",""3"",""54400""
""blur"",""3"",""55485""
""focus"",""3"",""55677""
","""event"",""trial"",""time""
""blur"",""0"",""17301""
""blur"",""2"",""35034""
""blur"",""3"",""55485""
","""event"",""trial"",""time""
""focus"",""0"",""18511""
""focus"",""3"",""54400""
""focus"",""3"",""55677""
","""event"",""trial"",""time""
""fullscreenenter"",""0"",""18619""
","
","null","run_exp/static/images/Set 6_rs/008a.jpg","null","","","","","","learn","SL",""
"","show_choice","5","61397","0.0-5.0","""event"",""trial"",""time""
""blur"",""0"",""17301""
""focus"",""0"",""18511""
""fullscreenenter"",""0"",""18619""
""blur"",""2"",""35034""
""focus"",""3"",""54400""
""blur"",""3"",""55485""
""focus"",""3"",""55677""
","""event"",""trial"",""time""
""blur"",""0"",""17301""
""blur"",""2"",""35034""
""blur"",""3"",""55485""
","""event"",""trial"",""time""
""focus"",""0"",""18511""
""focus"",""3"",""54400""
""focus"",""3"",""55677""
","""event"",""trial"",""time""
""fullscreenenter"",""0"",""18619""
","
","null","run_exp/static/images/blank.png","null","","","","","","learn","SL",""
"","html-keyboard-response","6","61898","0.0-6.0","""event"",""trial"",""time""
""blur"",""0"",""17301""
""focus"",""0"",""18511""
""fullscreenenter"",""0"",""18619""
""blur"",""2"",""35034""
""focus"",""3"",""54400""
""blur"",""3"",""55485""
""focus"",""3"",""55677""
","""event"",""trial"",""time""
""blur"",""0"",""17301""
""blur"",""2"",""35034""
""blur"",""3"",""55485""
","""event"",""trial"",""time""
""focus"",""0"",""18511""
""focus"",""3"",""54400""
""focus"",""3"",""55677""
","""event"",""trial"",""time""
""fullscreenenter"",""0"",""18619""
","
","null","<p></p>","null","","","","","","","",""
"","image","7","62732","0.0-7.0","""event"",""trial"",""time""
""blur"",""0"",""17301""
""focus"",""0"",""18511""
""fullscreenenter"",""0"",""18619""
""blur"",""2"",""35034""
""focus"",""3"",""54400""
""blur"",""3"",""55485""
""focus"",""3"",""55677""
","""event"",""trial"",""time""
""blur"",""0"",""17301""
""blur"",""2"",""35034""
""blur"",""3"",""55485""
","""event"",""trial"",""time""
""focus"",""0"",""18511""
""focus"",""3"",""54400""
""focus"",""3"",""55677""
","""event"",""trial"",""time""
""fullscreenenter"",""0"",""18619""
","
","833","run_exp/static/images/Set 6_rs/014a.jpg","86","","","","","","learn","SL",""
"","show_choice","8","63903","0.0-8.0","""event"",""trial"",""time""
""blur"",""0"",""17301""
""focus"",""0"",""18511""
""fullscreenenter"",""0"",""18619""
""blur"",""2"",""35034""
""focus"",""3"",""54400""
""blur"",""3"",""55485""
""focus"",""3"",""55677""
","""event"",""trial"",""time""
""blur"",""0"",""17301""
""blur"",""2"",""35034""
""blur"",""3"",""55485""
","""event"",""trial"",""time""
""focus"",""0"",""18511""
""focus"",""3"",""54400""
""focus"",""3"",""55677""
","""event"",""trial"",""time""
""fullscreenenter"",""0"",""18619""
","
","null","run_exp/static/images/Set 6_rs/014a.jpg","null","","","","","","learn","SL",""
"","html-keyboard-response","9","64411","0.0-9.0","""event"",""trial"",""time""
""blur"",""0"",""17301""
""focus"",""0"",""18511""
""fullscreenenter"",""0"",""18619""
""blur"",""2"",""35034""
""focus"",""3"",""54400""
""blur"",""3"",""55485""
""focus"",""3"",""55677""
","""event"",""trial"",""time""
""blur"",""0"",""17301""
""blur"",""2"",""35034""
""blur"",""3"",""55485""
","""event"",""trial"",""time""
""focus"",""0"",""18511""
""focus"",""3"",""54400""
""focus"",""3"",""55677""
","""event"",""trial"",""time""
""fullscreenenter"",""0"",""18619""
","
","null","<p></p>","null","","","","","","","",""
"","image","10","65364","0.0-10.0","""event"",""trial"",""time""
""blur"",""0"",""17301""
""focus"",""0"",""18511""
""fullscreenenter"",""0"",""18619""
""blur"",""2"",""35034""
""focus"",""3"",""54400""
""blur"",""3"",""55485""
""focus"",""3"",""55677""
","""event"",""trial"",""time""
""blur"",""0"",""17301""
""blur"",""2"",""35034""
""blur"",""3"",""55485""
","""event"",""trial"",""time""
""focus"",""0"",""18511""
""focus"",""3"",""54400""
""focus"",""3"",""55677""
","""event"",""trial"",""time""
""fullscreenenter"",""0"",""18619""
","
","952.1999999880791","run_exp/static/images/Set 6_rs/089a.jpg","86","","","","","","learn","SL",""
"","show_choice","11","66412","0.0-11.0","""event"",""trial"",""time""
""blur"",""0"",""17301""
""focus"",""0"",""18511""
""fullscreenenter"",""0"",""18619""
""blur"",""2"",""35034""
""focus"",""3"",""54400""
""blur"",""3"",""55485""
""focus"",""3"",""55677""
","""event"",""trial"",""time""
""blur"",""0"",""17301""
""blur"",""2"",""35034""
""blur"",""3"",""55485""
","""event"",""trial"",""time""
""focus"",""0"",""18511""
""focus"",""3"",""54400""
""focus"",""3"",""55677""
","""event"",""trial"",""time""
""fullscreenenter"",""0"",""18619""
","
","null","run_exp/static/images/Set 6_rs/089a.jpg","null","","","","","","learn","SL",""
"","html-keyboard-response","12","66915","0.0-12.0","""event"",""trial"",""time""
""blur"",""0"",""17301""
""focus"",""0"",""18511""
""fullscreenenter"",""0"",""18619""
""blur"",""2"",""35034""
""focus"",""3"",""54400""
""blur"",""3"",""55485""
""focus"",""3"",""55677""
","""event"",""trial"",""time""
""blur"",""0"",""17301""
""blur"",""2"",""35034""
""blur"",""3"",""55485""
","""event"",""trial"",""time""
""focus"",""0"",""18511""
""focus"",""3"",""54400""
""focus"",""3"",""55677""
","""event"",""trial"",""time""
""fullscreenenter"",""0"",""18619""
","
","null","<p></p>","null","","","","","","","",""
"","image","13","67596","0.0-13.0","""event"",""trial"",""time""
""blur"",""0"",""17301""
""focus"",""0"",""18511""
""fullscreenenter"",""0"",""18619""
""blur"",""2"",""35034""
""focus"",""3"",""54400""
""blur"",""3"",""55485""
""focus"",""3"",""55677""
","""event"",""trial"",""time""
""blur"",""0"",""17301""
""blur"",""2"",""35034""
""blur"",""3"",""55485""
","""event"",""trial"",""time""
""focus"",""0"",""18511""
""focus"",""3"",""54400""
""focus"",""3"",""55677""
","""event"",""trial"",""time""
""fullscreenenter"",""0"",""18619""
","
","679.7999999523163","run_exp/static/images/Set 6_rs/007a.jpg","86","","","","","","learn","SR",""
"","show_choice","14","68926","0.0-14.0","""event"",""trial"",""time""
""blur"",""0"",""17301""
""focus"",""0"",""18511""
""fullscreenenter"",""0"",""18619""
""blur"",""2"",""35034""
""focus"",""3"",""54400""
""blur"",""3"",""55485""
""focus"",""3"",""55677""
","""event"",""trial"",""time""
""blur"",""0"",""17301""
""blur"",""2"",""35034""
""blur"",""3"",""55485""
","""event"",""trial"",""time""
""focus"",""0"",""18511""
""focus"",""3"",""54400""
""focus"",""3"",""55677""
","""event"",""trial"",""time""
""fullscreenenter"",""0"",""18619""
","
","null","run_exp/static/images/Set 6_rs/007a.jpg","null","","","","","","learn","SR",""
"","html-keyboard-response","15","69434","0.0-15.0","""event"",""trial"",""time""
""blur"",""0"",""17301""
""focus"",""0"",""18511""
""fullscreenenter"",""0"",""18619""
""blur"",""2"",""35034""
""focus"",""3"",""54400""
""blur"",""3"",""55485""
""focus"",""3"",""55677""
","""event"",""trial"",""time""
""blur"",""0"",""17301""
""blur"",""2"",""35034""
""blur"",""3"",""55485""
","""event"",""trial"",""time""
""focus"",""0"",""18511""
""focus"",""3"",""54400""
""focus"",""3"",""55677""
","""event"",""trial"",""time""
""fullscreenenter"",""0"",""18619""
","
","null","<p></p>","null","","","","","","","",""
"","image","16","70196","0.0-16.0","""event"",""trial"",""time""
""blur"",""0"",""17301""
""focus"",""0"",""18511""
""fullscreenenter"",""0"",""18619""
""blur"",""2"",""35034""
""focus"",""3"",""54400""
""blur"",""3"",""55485""
""focus"",""3"",""55677""
","""event"",""trial"",""time""
""blur"",""0"",""17301""
""blur"",""2"",""35034""
""blur"",""3"",""55485""
","""event"",""trial"",""time""
""focus"",""0"",""18511""
""focus"",""3"",""54400""
""focus"",""3"",""55677""
","""event"",""trial"",""time""
""fullscreenenter"",""0"",""18619""
","
","761.5999999642372","run_exp/static/images/Set 6_rs/088a.jpg","86","","","","","","learn","SR",""
"","show_choice","17","71436","0.0-17.0","""event"",""trial"",""time""
""blur"",""0"",""17301""
""focus"",""0"",""18511""
""fullscreenenter"",""0"",""18619""
""blur"",""2"",""35034""
""focus"",""3"",""54400""
""blur"",""3"",""55485""
""focus"",""3"",""55677""
","""event"",""trial"",""time""
""blur"",""0"",""17301""
""blur"",""2"",""35034""
""blur"",""3"",""55485""
","""event"",""trial"",""time""
""focus"",""0"",""18511""
""focus"",""3"",""54400""
""focus"",""3"",""55677""
","""event"",""trial"",""time""
""fullscreenenter"",""0"",""18619""
","
","null","run_exp/static/images/Set 6_rs/088a.jpg","null","","","","","","learn","SR",""
"","html-keyboard-response","18","71948","0.0-18.0","""event"",""trial"",""time""
""blur"",""0"",""17301""
""focus"",""0"",""18511""
""fullscreenenter"",""0"",""18619""
""blur"",""2"",""35034""
""focus"",""3"",""54400""
""blur"",""3"",""55485""
""focus"",""3"",""55677""
","""event"",""trial"",""time""
""blur"",""0"",""17301""
""blur"",""2"",""35034""
""blur"",""3"",""55485""
","""event"",""trial"",""time""
""focus"",""0"",""18511""
""focus"",""3"",""54400""
""focus"",""3"",""55677""
","""event"",""trial"",""time""
""fullscreenenter"",""0"",""18619""
","
","null","<p></p>","null","","","","","","","",""
"","image","19","72764","0.0-19.0","""event"",""trial"",""time""
""blur"",""0"",""17301""
""focus"",""0"",""18511""
""fullscreenenter"",""0"",""18619""
""blur"",""2"",""35034""
""focus"",""3"",""54400""
""blur"",""3"",""55485""
""focus"",""3"",""55677""
","""event"",""trial"",""time""
""blur"",""0"",""17301""
""blur"",""2"",""35034""
""blur"",""3"",""55485""
","""event"",""trial"",""time""
""focus"",""0"",""18511""
""focus"",""3"",""54400""
""focus"",""3"",""55677""
","""event"",""trial"",""time""
""fullscreenenter"",""0"",""18619""
","
","815","run_exp/static/images/Set 6_rs/167a.jpg","86","","","","","","learn","SL",""
"","show_choice","20","73961","0.0-20.0","""event"",""trial"",""time""
""blur"",""0"",""17301""
""focus"",""0"",""18511""
""fullscreenenter"",""0"",""18619""
""blur"",""2"",""35034""
""focus"",""3"",""54400""
""blur"",""3"",""55485""
""focus"",""3"",""55677""
","""event"",""trial"",""time""
""blur"",""0"",""17301""
""blur"",""2"",""35034""
""blur"",""3"",""55485""
","""event"",""trial"",""time""
""focus"",""0"",""18511""
""focus"",""3"",""54400""
""focus"",""3"",""55677""
","""event"",""trial"",""time""
""fullscreenenter"",""0"",""18619""
","
","null","run_exp/static/images/Set 6_rs/167a.jpg","null","","","","","","learn","SL",""
"","html-keyboard-response","21","74472","0.0-21.0","""event"",""trial"",""time""
""blur"",""0"",""17301""
""focus"",""0"",""18511""
""fullscreenenter"",""0"",""18619""
""blur"",""2"",""35034""
""focus"",""3"",""54400""
""blur"",""3"",""55485""
""focus"",""3"",""55677""
","""event"",""trial"",""time""
""blur"",""0"",""17301""
""blur"",""2"",""35034""
""blur"",""3"",""55485""
","""event"",""trial"",""time""
""focus"",""0"",""18511""
""focus"",""3"",""54400""
""focus"",""3"",""55677""
","""event"",""trial"",""time""
""fullscreenenter"",""0"",""18619""
","
","null","<p></p>","null","","","","","","","",""
"","image","22","75404","0.0-22.0","""event"",""trial"",""time""
""blur"",""0"",""17301""
""focus"",""0"",""18511""
""fullscreenenter"",""0"",""18619""
""blur"",""2"",""35034""
""focus"",""3"",""54400""
""blur"",""3"",""55485""
""focus"",""3"",""55677""
","""event"",""trial"",""time""
""blur"",""0"",""17301""
""blur"",""2"",""35034""
""blur"",""3"",""55485""
","""event"",""trial"",""time""
""focus"",""0"",""18511""
""focus"",""3"",""54400""
""focus"",""3"",""55677""
","""event"",""trial"",""time""
""fullscreenenter"",""0"",""18619""
","
","931.1999999880791","run_exp/static/images/Set 6_rs/116a.jpg","86","","","","","","learn","SL",""
"","show_choice","23","76484","0.0-23.0","""event"",""trial"",""time""
""blur"",""0"",""17301""
""focus"",""0"",""18511""
""fullscreenenter"",""0"",""18619""
""blur"",""2"",""35034""
""focus"",""3"",""54400""
""blur"",""3"",""55485""
""focus"",""3"",""55677""
","""event"",""trial"",""time""
""blur"",""0"",""17301""
""blur"",""2"",""35034""
""blur"",""3"",""55485""
","""event"",""trial"",""time""
""focus"",""0"",""18511""
""focus"",""3"",""54400""
""focus"",""3"",""55677""
","""event"",""trial"",""time""
""fullscreenenter"",""0"",""18619""
","
","null","run_exp/static/images/Set 6_rs/116a.jpg","null","","","","","","learn","SL",""
"","html-keyboard-response","24","76995","0.0-24.0","""event"",""trial"",""time""
""blur"",""0"",""17301""
""focus"",""0"",""18511""
""fullscreenenter"",""0"",""18619""
""blur"",""2"",""35034""
""focus"",""3"",""54400""
""blur"",""3"",""55485""
""focus"",""3"",""55677""
","""event"",""trial"",""time""
""blur"",""0"",""17301""
""blur"",""2"",""35034""
""blur"",""3"",""55485""
","""event"",""trial"",""time""
""focus"",""0"",""18511""
""focus"",""3"",""54400""
""focus"",""3"",""55677""
","""event"",""trial"",""time""
""fullscreenenter"",""0"",""18619""
","
","null","<p></p>","null","","","","","","","",""
"","image","25","77948","0.0-25.0","""event"",""trial"",""time""
""blur"",""0"",""17301""
""focus"",""0"",""18511""
""fullscreenenter"",""0"",""18619""
""blur"",""2"",""35034""
""focus"",""3"",""54400""
""blur"",""3"",""55485""
""focus"",""3"",""55677""
","""event"",""trial"",""time""
""blur"",""0"",""17301""
""blur"",""2"",""35034""
""blur"",""3"",""55485""
","""event"",""trial"",""time""
""focus"",""0"",""18511""
""focus"",""3"",""54400""
""focus"",""3"",""55677""
","""event"",""trial"",""time""
""fullscreenenter"",""0"",""18619""
","
","952.8000000119209","run_exp/static/images/Set 6_rs/010a.jpg","86","","","","","","learn","SR",""
"","show_choice","26","79007","0.0-26.0","""event"",""trial"",""time""
""blur"",""0"",""17301""
""focus"",""0"",""18511""
""fullscreenenter"",""0"",""18619""
""blur"",""2"",""35034""
""focus"",""3"",""54400""
""blur"",""3"",""55485""
""focus"",""3"",""55677""
","""event"",""trial"",""time""
""blur"",""0"",""17301""
""blur"",""2"",""35034""
""blur"",""3"",""55485""
","""event"",""trial"",""time""
""focus"",""0"",""18511""
""focus"",""3"",""54400""
""focus"",""3"",""55677""
","""event"",""trial"",""time""
""fullscreenenter"",""0"",""18619""
","
","null","run_exp/static/images/Set 6_rs/010a.jpg","null","","","","","","learn","SR",""
"","html-keyboard-response","27","79517","0.0-27.0","""event"",""trial"",""time""
""blur"",""0"",""17301""
""focus"",""0"",""18511""
""fullscreenenter"",""0"",""18619""
""blur"",""2"",""35034""
""focus"",""3"",""54400""
""blur"",""3"",""55485""
""focus"",""3"",""55677""
","""event"",""trial"",""time""
""blur"",""0"",""17301""
""blur"",""2"",""35034""
""blur"",""3"",""55485""
","""event"",""trial"",""time""
""focus"",""0"",""18511""
""focus"",""3"",""54400""
""focus"",""3"",""55677""
","""event"",""trial"",""time""
""fullscreenenter"",""0"",""18619""
","
","null","<p></p>","null","","","","","","","",""
"","image","28","80076","0.0-28.0","""event"",""trial"",""time""
""blur"",""0"",""17301""
""focus"",""0"",""18511""
""fullscreenenter"",""0"",""18619""
""blur"",""2"",""35034""
""focus"",""3"",""54400""
""blur"",""3"",""55485""
""focus"",""3"",""55677""
","""event"",""trial"",""time""
""blur"",""0"",""17301""
""blur"",""2"",""35034""
""blur"",""3"",""55485""
","""event"",""trial"",""time""
""focus"",""0"",""18511""
""focus"",""3"",""54400""
""focus"",""3"",""55677""
","""event"",""trial"",""time""
""fullscreenenter"",""0"",""18619""
","
","558.4000000357628","run_exp/static/images/Set 6_rs/172a.jpg","78","","","","","","learn","SR",""
"","show_choice","29","81530","0.0-29.0","""event"",""trial"",""time""
""blur"",""0"",""17301""
""focus"",""0"",""18511""
""fullscreenenter"",""0"",""18619""
""blur"",""2"",""35034""
""focus"",""3"",""54400""
""blur"",""3"",""55485""
""focus"",""3"",""55677""
","""event"",""trial"",""time""
""blur"",""0"",""17301""
""blur"",""2"",""35034""
""blur"",""3"",""55485""
","""event"",""trial"",""time""
""focus"",""0"",""18511""
""focus"",""3"",""54400""
""focus"",""3"",""55677""
","""event"",""trial"",""time""
""fullscreenenter"",""0"",""18619""
","
","null","run_exp/static/images/Set 6_rs/172a.jpg","null","","","","","","learn","SR",""
"","html-keyboard-response","30","82040","0.0-30.0","""event"",""trial"",""time""
""blur"",""0"",""17301""
""focus"",""0"",""18511""
""fullscreenenter"",""0"",""18619""
""blur"",""2"",""35034""
""focus"",""3"",""54400""
""blur"",""3"",""55485""
""focus"",""3"",""55677""
","""event"",""trial"",""time""
""blur"",""0"",""17301""
""blur"",""2"",""35034""
""blur"",""3"",""55485""
","""event"",""trial"",""time""
""focus"",""0"",""18511""
""focus"",""3"",""54400""
""focus"",""3"",""55677""
","""event"",""trial"",""time""
""fullscreenenter"",""0"",""18619""
","
","null","<p></p>","null","","","","","","","",""
"","image","31","82948","0.0-31.0","""event"",""trial"",""time""
""blur"",""0"",""17301""
""focus"",""0"",""18511""
""fullscreenenter"",""0"",""18619""
""blur"",""2"",""35034""
""focus"",""3"",""54400""
""blur"",""3"",""55485""
""focus"",""3"",""55677""
","""event"",""trial"",""time""
""blur"",""0"",""17301""
""blur"",""2"",""35034""
""blur"",""3"",""55485""
","""event"",""trial"",""time""
""focus"",""0"",""18511""
""focus"",""3"",""54400""
""focus"",""3"",""55677""
","""event"",""trial"",""time""
""fullscreenenter"",""0"",""18619""
","
","907.7000000476837","run_exp/static/images/Set 6_rs/168a.jpg","86","","","","","","learn","SL",""
"","show_choice","32","84048","0.0-32.0","""event"",""trial"",""time""
""blur"",""0"",""17301""
""focus"",""0"",""18511""
""fullscreenenter"",""0"",""18619""
""blur"",""2"",""35034""
""focus"",""3"",""54400""
""blur"",""3"",""55485""
""focus"",""3"",""55677""
","""event"",""trial"",""time""
""blur"",""0"",""17301""
""blur"",""2"",""35034""
""blur"",""3"",""55485""
","""event"",""trial"",""time""
""focus"",""0"",""18511""
""focus"",""3"",""54400""
""focus"",""3"",""55677""
","""event"",""trial"",""time""
""fullscreenenter"",""0"",""18619""
","
","null","run_exp/static/images/Set 6_rs/168a.jpg","null","","","","","","learn","SL",""
"","html-keyboard-response","33","84554","0.0-33.0","""event"",""trial"",""time""
""blur"",""0"",""17301""
""focus"",""0"",""18511""
""fullscreenenter"",""0"",""18619""
""blur"",""2"",""35034""
""focus"",""3"",""54400""
""blur"",""3"",""55485""
""focus"",""3"",""55677""
","""event"",""trial"",""time""
""blur"",""0"",""17301""
""blur"",""2"",""35034""
""blur"",""3"",""55485""
","""event"",""trial"",""time""
""focus"",""0"",""18511""
""focus"",""3"",""54400""
""focus"",""3"",""55677""
","""event"",""trial"",""time""
""fullscreenenter"",""0"",""18619""
","
","null","<p></p>","null","","","","","","","",""
"","image","34","85220","0.0-34.0","""event"",""trial"",""time""
""blur"",""0"",""17301""
""focus"",""0"",""18511""
""fullscreenenter"",""0"",""18619""
""blur"",""2"",""35034""
""focus"",""3"",""54400""
""blur"",""3"",""55485""
""focus"",""3"",""55677""
","""event"",""trial"",""time""
""blur"",""0"",""17301""
""blur"",""2"",""35034""
""blur"",""3"",""55485""
","""event"",""trial"",""time""
""focus"",""0"",""18511""
""focus"",""3"",""54400""
""focus"",""3"",""55677""
","""event"",""trial"",""time""
""fullscreenenter"",""0"",""18619""
","
","665.4000000357628","run_exp/static/images/Set 6_rs/074a.jpg","86","","","","","","learn","SL",""
"","show_choice","35","86569","0.0-35.0","""event"",""trial"",""time""
""blur"",""0"",""17301""
""focus"",""0"",""18511""
""fullscreenenter"",""0"",""18619""
""blur"",""2"",""35034""
""focus"",""3"",""54400""
""blur"",""3"",""55485""
""focus"",""3"",""55677""
","""event"",""trial"",""time""
""blur"",""0"",""17301""
""blur"",""2"",""35034""
""blur"",""3"",""55485""
","""event"",""trial"",""time""
""focus"",""0"",""18511""
""focus"",""3"",""54400""
""focus"",""3"",""55677""
","""event"",""trial"",""time""
""fullscreenenter"",""0"",""18619""
","
","null","run_exp/static/images/Set 6_rs/074a.jpg","null","","","","","","learn","SL",""
"","html-keyboard-response","36","87079","0.0-36.0","""event"",""trial"",""time""
""blur"",""0"",""17301""
""focus"",""0"",""18511""
""fullscreenenter"",""0"",""18619""
""blur"",""2"",""35034""
""focus"",""3"",""54400""
""blur"",""3"",""55485""
""focus"",""3"",""55677""
","""event"",""trial"",""time""
""blur"",""0"",""17301""
""blur"",""2"",""35034""
""blur"",""3"",""55485""
","""event"",""trial"",""time""
""focus"",""0"",""18511""
""focus"",""3"",""54400""
""focus"",""3"",""55677""
","""event"",""trial"",""time""
""fullscreenenter"",""0"",""18619""
","
","null","<p></p>","null","","","","","","","",""
"","image","37","88236","0.0-37.0","""event"",""trial"",""time""
""blur"",""0"",""17301""
""focus"",""0"",""18511""
""fullscreenenter"",""0"",""18619""
""blur"",""2"",""35034""
""focus"",""3"",""54400""
""blur"",""3"",""55485""
""focus"",""3"",""55677""
","""event"",""trial"",""time""
""blur"",""0"",""17301""
""blur"",""2"",""35034""
""blur"",""3"",""55485""
","""event"",""trial"",""time""
""focus"",""0"",""18511""
""focus"",""3"",""54400""
""focus"",""3"",""55677""
","""event"",""trial"",""time""
""fullscreenenter"",""0"",""18619""
","
","1157","run_exp/static/images/Set 6_rs/061a.jpg","78","","","","","","learn","SR",""
"","show_choice","38","89085","0.0-38.0","""event"",""trial"",""time""
""blur"",""0"",""17301""
""focus"",""0"",""18511""
""fullscreenenter"",""0"",""18619""
""blur"",""2"",""35034""
""focus"",""3"",""54400""
""blur"",""3"",""55485""
""focus"",""3"",""55677""
","""event"",""trial"",""time""
""blur"",""0"",""17301""
""blur"",""2"",""35034""
""blur"",""3"",""55485""
","""event"",""trial"",""time""
""focus"",""0"",""18511""
""focus"",""3"",""54400""
""focus"",""3"",""55677""
","""event"",""trial"",""time""
""fullscreenenter"",""0"",""18619""
","
","null","run_exp/static/images/Set 6_rs/061a.jpg","null","","","","","","learn","SR",""
"","html-keyboard-response","39","89597","0.0-39.0","""event"",""trial"",""time""
""blur"",""0"",""17301""
""focus"",""0"",""18511""
""fullscreenenter"",""0"",""18619""
""blur"",""2"",""35034""
""focus"",""3"",""54400""
""blur"",""3"",""55485""
""focus"",""3"",""55677""
","""event"",""trial"",""time""
""blur"",""0"",""17301""
""blur"",""2"",""35034""
""blur"",""3"",""55485""
","""event"",""trial"",""time""
""focus"",""0"",""18511""
""focus"",""3"",""54400""
""focus"",""3"",""55677""
","""event"",""trial"",""time""
""fullscreenenter"",""0"",""18619""
","
","null","<p></p>","null","","","","","","","",""
"","image","40","90196","0.0-40.0","""event"",""trial"",""time""
""blur"",""0"",""17301""
""focus"",""0"",""18511""
""fullscreenenter"",""0"",""18619""
""blur"",""2"",""35034""
""focus"",""3"",""54400""
""blur"",""3"",""55485""
""focus"",""3"",""55677""
","""event"",""trial"",""time""
""blur"",""0"",""17301""
""blur"",""2"",""35034""
""blur"",""3"",""55485""
","""event"",""trial"",""time""
""focus"",""0"",""18511""
""focus"",""3"",""54400""
""focus"",""3"",""55677""
","""event"",""trial"",""time""
""fullscreenenter"",""0"",""18619""
","
","598.3000000119209","run_exp/static/images/Set 6_rs/112a.jpg","86","","","","","","learn","SR",""
"","show_choice","41","91598","0.0-41.0","""event"",""trial"",""time""
""blur"",""0"",""17301""
""focus"",""0"",""18511""
""fullscreenenter"",""0"",""18619""
""blur"",""2"",""35034""
""focus"",""3"",""54400""
""blur"",""3"",""55485""
""focus"",""3"",""55677""
","""event"",""trial"",""time""
""blur"",""0"",""17301""
""blur"",""2"",""35034""
""blur"",""3"",""55485""
","""event"",""trial"",""time""
""focus"",""0"",""18511""
""focus"",""3"",""54400""
""focus"",""3"",""55677""
","""event"",""trial"",""time""
""fullscreenenter"",""0"",""18619""
","
","null","run_exp/static/images/Set 6_rs/112a.jpg","null","","","","","","learn","SR",""
"","html-keyboard-response","42","92108","0.0-42.0","""event"",""trial"",""time""
""blur"",""0"",""17301""
""focus"",""0"",""18511""
""fullscreenenter"",""0"",""18619""
""blur"",""2"",""35034""
""focus"",""3"",""54400""
""blur"",""3"",""55485""
""focus"",""3"",""55677""
","""event"",""trial"",""time""
""blur"",""0"",""17301""
""blur"",""2"",""35034""
""blur"",""3"",""55485""
","""event"",""trial"",""time""
""focus"",""0"",""18511""
""focus"",""3"",""54400""
""focus"",""3"",""55677""
","""event"",""trial"",""time""
""fullscreenenter"",""0"",""18619""
","
","null","<p></p>","null","","","","","","","",""
"","image","43","93004","0.0-43.0","""event"",""trial"",""time""
""blur"",""0"",""17301""
""focus"",""0"",""18511""
""fullscreenenter"",""0"",""18619""
""blur"",""2"",""35034""
""focus"",""3"",""54400""
""blur"",""3"",""55485""
""focus"",""3"",""55677""
","""event"",""trial"",""time""
""blur"",""0"",""17301""
""blur"",""2"",""35034""
""blur"",""3"",""55485""
","""event"",""trial"",""time""
""focus"",""0"",""18511""
""focus"",""3"",""54400""
""focus"",""3"",""55677""
","""event"",""trial"",""time""
""fullscreenenter"",""0"",""18619""
","
","895.9000000357628","run_exp/static/images/Set 6_rs/079a.jpg","86","","","","","","learn","SL",""
"","show_choice","44","94112","0.0-44.0","""event"",""trial"",""time""
""blur"",""0"",""17301""
""focus"",""0"",""18511""
""fullscreenenter"",""0"",""18619""
""blur"",""2"",""35034""
""focus"",""3"",""54400""
""blur"",""3"",""55485""
""focus"",""3"",""55677""
","""event"",""trial"",""time""
""blur"",""0"",""17301""
""blur"",""2"",""35034""
""blur"",""3"",""55485""
","""event"",""trial"",""time""
""focus"",""0"",""18511""
""focus"",""3"",""54400""
""focus"",""3"",""55677""
","""event"",""trial"",""time""
""fullscreenenter"",""0"",""18619""
","
","null","run_exp/static/images/Set 6_rs/079a.jpg","null","","","","","","learn","SL",""
"","html-keyboard-response","45","94624","0.0-45.0","""event"",""trial"",""time""
""blur"",""0"",""17301""
""focus"",""0"",""18511""
""fullscreenenter"",""0"",""18619""
""blur"",""2"",""35034""
""focus"",""3"",""54400""
""blur"",""3"",""55485""
""focus"",""3"",""55677""
","""event"",""trial"",""time""
""blur"",""0"",""17301""
""blur"",""2"",""35034""
""blur"",""3"",""55485""
","""event"",""trial"",""time""
""focus"",""0"",""18511""
""focus"",""3"",""54400""
""focus"",""3"",""55677""
","""event"",""trial"",""time""
""fullscreenenter"",""0"",""18619""
","
","null","<p></p>","null","","","","","","","",""
"","image","46","95852","0.0-46.0","""event"",""trial"",""time""
""blur"",""0"",""17301""
""focus"",""0"",""18511""
""fullscreenenter"",""0"",""18619""
""blur"",""2"",""35034""
""focus"",""3"",""54400""
""blur"",""3"",""55485""
""focus"",""3"",""55677""
","""event"",""trial"",""time""
""blur"",""0"",""17301""
""blur"",""2"",""35034""
""blur"",""3"",""55485""
","""event"",""trial"",""time""
""focus"",""0"",""18511""
""focus"",""3"",""54400""
""focus"",""3"",""55677""
","""event"",""trial"",""time""
""fullscreenenter"",""0"",""18619""
","
","1227.4000000357628","run_exp/static/images/Set 6_rs/132a.jpg","86","","","","","","learn","SR",""
"","show_choice","47","96632","0.0-47.0","""event"",""trial"",""time""
""blur"",""0"",""17301""
""focus"",""0"",""18511""
""fullscreenenter"",""0"",""18619""
""blur"",""2"",""35034""
""focus"",""3"",""54400""
""blur"",""3"",""55485""
""focus"",""3"",""55677""
","""event"",""trial"",""time""
""blur"",""0"",""17301""
""blur"",""2"",""35034""
""blur"",""3"",""55485""
","""event"",""trial"",""time""
""focus"",""0"",""18511""
""focus"",""3"",""54400""
""focus"",""3"",""55677""
","""event"",""trial"",""time""
""fullscreenenter"",""0"",""18619""
","
","null","run_exp/static/images/Set 6_rs/132a.jpg","null","","","","","","learn","SR",""
"","html-keyboard-response","48","97144","0.0-48.0","""event"",""trial"",""time""
""blur"",""0"",""17301""
""focus"",""0"",""18511""
""fullscreenenter"",""0"",""18619""
""blur"",""2"",""35034""
""focus"",""3"",""54400""
""blur"",""3"",""55485""
""focus"",""3"",""55677""
","""event"",""trial"",""time""
""blur"",""0"",""17301""
""blur"",""2"",""35034""
""blur"",""3"",""55485""
","""event"",""trial"",""time""
""focus"",""0"",""18511""
""focus"",""3"",""54400""
""focus"",""3"",""55677""
","""event"",""trial"",""time""
""fullscreenenter"",""0"",""18619""
","
","null","<p></p>","null","","","","","","","",""
"","image","49","97812","0.0-49.0","""event"",""trial"",""time""
""blur"",""0"",""17301""
""focus"",""0"",""18511""
""fullscreenenter"",""0"",""18619""
""blur"",""2"",""35034""
""focus"",""3"",""54400""
""blur"",""3"",""55485""
""focus"",""3"",""55677""
","""event"",""trial"",""time""
""blur"",""0"",""17301""
""blur"",""2"",""35034""
""blur"",""3"",""55485""
","""event"",""trial"",""time""
""focus"",""0"",""18511""
""focus"",""3"",""54400""
""focus"",""3"",""55677""
","""event"",""trial"",""time""
""fullscreenenter"",""0"",""18619""
","
","666.5999999642372","run_exp/static/images/Set 6_rs/187a.jpg","86","","","","","","learn","SR",""
"","show_choice","50","99149","0.0-50.0","""event"",""trial"",""time""
""blur"",""0"",""17301""
""focus"",""0"",""18511""
""fullscreenenter"",""0"",""18619""
""blur"",""2"",""35034""
""focus"",""3"",""54400""
""blur"",""3"",""55485""
""focus"",""3"",""55677""
","""event"",""trial"",""time""
""blur"",""0"",""17301""
""blur"",""2"",""35034""
""blur"",""3"",""55485""
","""event"",""trial"",""time""
""focus"",""0"",""18511""
""focus"",""3"",""54400""
""focus"",""3"",""55677""
","""event"",""trial"",""time""
""fullscreenenter"",""0"",""18619""
","
","null","run_exp/static/images/Set 6_rs/187a.jpg","null","","","","","","learn","SR",""
"","html-keyboard-response","51","99655","0.0-51.0","""event"",""trial"",""time""
""blur"",""0"",""17301""
""focus"",""0"",""18511""
""fullscreenenter"",""0"",""18619""
""blur"",""2"",""35034""
""focus"",""3"",""54400""
""blur"",""3"",""55485""
""focus"",""3"",""55677""
","""event"",""trial"",""time""
""blur"",""0"",""17301""
""blur"",""2"",""35034""
""blur"",""3"",""55485""
","""event"",""trial"",""time""
""focus"",""0"",""18511""
""focus"",""3"",""54400""
""focus"",""3"",""55677""
","""event"",""trial"",""time""
""fullscreenenter"",""0"",""18619""
","
","null","<p></p>","null","","","","","","","",""
"","image","52","100604","0.0-52.0","""event"",""trial"",""time""
""blur"",""0"",""17301""
""focus"",""0"",""18511""
""fullscreenenter"",""0"",""18619""
""blur"",""2"",""35034""
""focus"",""3"",""54400""
""blur"",""3"",""55485""
""focus"",""3"",""55677""
","""event"",""trial"",""time""
""blur"",""0"",""17301""
""blur"",""2"",""35034""
""blur"",""3"",""55485""
","""event"",""trial"",""time""
""focus"",""0"",""18511""
""focus"",""3"",""54400""
""focus"",""3"",""55677""
","""event"",""trial"",""time""
""fullscreenenter"",""0"",""18619""
","
","948.5","run_exp/static/images/Set 6_rs/150a.jpg","86","","","","","","learn","SR",""
"","show_choice","53","101667","0.0-53.0","""event"",""trial"",""time""
""blur"",""0"",""17301""
""focus"",""0"",""18511""
""fullscreenenter"",""0"",""18619""
""blur"",""2"",""35034""
""focus"",""3"",""54400""
""blur"",""3"",""55485""
""focus"",""3"",""55677""
","""event"",""trial"",""time""
""blur"",""0"",""17301""
""blur"",""2"",""35034""
""blur"",""3"",""55485""
","""event"",""trial"",""time""
""focus"",""0"",""18511""
""focus"",""3"",""54400""
""focus"",""3"",""55677""
","""event"",""trial"",""time""
""fullscreenenter"",""0"",""18619""
","
","null","run_exp/static/images/Set 6_rs/150a.jpg","null","","","","","","learn","SR",""
"","html-keyboard-response","54","102179","0.0-54.0","""event"",""trial"",""time""
""blur"",""0"",""17301""
""focus"",""0"",""18511""
""fullscreenenter"",""0"",""18619""
""blur"",""2"",""35034""
""focus"",""3"",""54400""
""blur"",""3"",""55485""
""focus"",""3"",""55677""
","""event"",""trial"",""time""
""blur"",""0"",""17301""
""blur"",""2"",""35034""
""blur"",""3"",""55485""
","""event"",""trial"",""time""
""focus"",""0"",""18511""
""focus"",""3"",""54400""
""focus"",""3"",""55677""
","""event"",""trial"",""time""
""fullscreenenter"",""0"",""18619""
","
","null","<p></p>","null","","","","","","","",""
"","image","55","103444","0.0-55.0","""event"",""trial"",""time""
""blur"",""0"",""17301""
""focus"",""0"",""18511""
""fullscreenenter"",""0"",""18619""
""blur"",""2"",""35034""
""focus"",""3"",""54400""
""blur"",""3"",""55485""
""focus"",""3"",""55677""
","""event"",""trial"",""time""
""blur"",""0"",""17301""
""blur"",""2"",""35034""
""blur"",""3"",""55485""
","""event"",""trial"",""time""
""focus"",""0"",""18511""
""focus"",""3"",""54400""
""focus"",""3"",""55677""
","""event"",""trial"",""time""
""fullscreenenter"",""0"",""18619""
","
","1263.699999988079","run_exp/static/images/Set 6_rs/111a.jpg","86","","","","","","learn","SL",""
"","show_choice","56","104190","0.0-56.0","""event"",""trial"",""time""
""blur"",""0"",""17301""
""focus"",""0"",""18511""
""fullscreenenter"",""0"",""18619""
""blur"",""2"",""35034""
""focus"",""3"",""54400""
""blur"",""3"",""55485""
""focus"",""3"",""55677""
","""event"",""trial"",""time""
""blur"",""0"",""17301""
""blur"",""2"",""35034""
""blur"",""3"",""55485""
","""event"",""trial"",""time""
""focus"",""0"",""18511""
""focus"",""3"",""54400""
""focus"",""3"",""55677""
","""event"",""trial"",""time""
""fullscreenenter"",""0"",""18619""
","
","null","run_exp/static/images/Set 6_rs/111a.jpg","null","","","","","","learn","SL",""
"","html-keyboard-response","57","104699","0.0-57.0","""event"",""trial"",""time""
""blur"",""0"",""17301""
""focus"",""0"",""18511""
""fullscreenenter"",""0"",""18619""
""blur"",""2"",""35034""
""focus"",""3"",""54400""
""blur"",""3"",""55485""
""focus"",""3"",""55677""
","""event"",""trial"",""time""
""blur"",""0"",""17301""
""blur"",""2"",""35034""
""blur"",""3"",""55485""
","""event"",""trial"",""time""
""focus"",""0"",""18511""
""focus"",""3"",""54400""
""focus"",""3"",""55677""
","""event"",""trial"",""time""
""fullscreenenter"",""0"",""18619""
","
","null","<p></p>","null","","","","","","","",""
"","image","58","105924","0.0-58.0","""event"",""trial"",""time""
""blur"",""0"",""17301""
""focus"",""0"",""18511""
""fullscreenenter"",""0"",""18619""
""blur"",""2"",""35034""
""focus"",""3"",""54400""
""blur"",""3"",""55485""
""focus"",""3"",""55677""
","""event"",""trial"",""time""
""blur"",""0"",""17301""
""blur"",""2"",""35034""
""blur"",""3"",""55485""
","""event"",""trial"",""time""
""focus"",""0"",""18511""
""focus"",""3"",""54400""
""focus"",""3"",""55677""
","""event"",""trial"",""time""
""fullscreenenter"",""0"",""18619""
","
","1224.1000000238419","run_exp/static/images/Set 6_rs/050a.jpg","86","","","","","","learn","SL",""
"","show_choice","59","106705","0.0-59.0","""event"",""trial"",""time""
""blur"",""0"",""17301""
""focus"",""0"",""18511""
""fullscreenenter"",""0"",""18619""
""blur"",""2"",""35034""
""focus"",""3"",""54400""
""blur"",""3"",""55485""
""focus"",""3"",""55677""
","""event"",""trial"",""time""
""blur"",""0"",""17301""
""blur"",""2"",""35034""
""blur"",""3"",""55485""
","""event"",""trial"",""time""
""focus"",""0"",""18511""
""focus"",""3"",""54400""
""focus"",""3"",""55677""
","""event"",""trial"",""time""
""fullscreenenter"",""0"",""18619""
","
","null","run_exp/static/images/Set 6_rs/050a.jpg","null","","","","","","learn","SL",""
"","html-keyboard-response","60","107215","0.0-60.0","""event"",""trial"",""time""
""blur"",""0"",""17301""
""focus"",""0"",""18511""
""fullscreenenter"",""0"",""18619""
""blur"",""2"",""35034""
""focus"",""3"",""54400""
""blur"",""3"",""55485""
""focus"",""3"",""55677""
","""event"",""trial"",""time""
""blur"",""0"",""17301""
""blur"",""2"",""35034""
""blur"",""3"",""55485""
","""event"",""trial"",""time""
""focus"",""0"",""18511""
""focus"",""3"",""54400""
""focus"",""3"",""55677""
","""event"",""trial"",""time""
""fullscreenenter"",""0"",""18619""
","
","null","<p></p>","null","","","","","","","",""
"","image","61","108100","0.0-61.0","""event"",""trial"",""time""
""blur"",""0"",""17301""
""focus"",""0"",""18511""
""fullscreenenter"",""0"",""18619""
""blur"",""2"",""35034""
""focus"",""3"",""54400""
""blur"",""3"",""55485""
""focus"",""3"",""55677""
","""event"",""trial"",""time""
""blur"",""0"",""17301""
""blur"",""2"",""35034""
""blur"",""3"",""55485""
","""event"",""trial"",""time""
""focus"",""0"",""18511""
""focus"",""3"",""54400""
""focus"",""3"",""55677""
","""event"",""trial"",""time""
""fullscreenenter"",""0"",""18619""
","
","884.7000000476837","run_exp/static/images/Set 6_rs/126a.jpg","86","","","","","","learn","SR",""
"","show_choice","62","109227","0.0-62.0","""event"",""trial"",""time""
""blur"",""0"",""17301""
""focus"",""0"",""18511""
""fullscreenenter"",""0"",""18619""
""blur"",""2"",""35034""
""focus"",""3"",""54400""
""blur"",""3"",""55485""
""focus"",""3"",""55677""
","""event"",""trial"",""time""
""blur"",""0"",""17301""
""blur"",""2"",""35034""
""blur"",""3"",""55485""
","""event"",""trial"",""time""
""focus"",""0"",""18511""
""focus"",""3"",""54400""
""focus"",""3"",""55677""
","""event"",""trial"",""time""
""fullscreenenter"",""0"",""18619""
","
","null","run_exp/static/images/Set 6_rs/126a.jpg","null","","","","","","learn","SR",""
"","html-keyboard-response","63","109739","0.0-63.0","""event"",""trial"",""time""
""blur"",""0"",""17301""
""focus"",""0"",""18511""
""fullscreenenter"",""0"",""18619""
""blur"",""2"",""35034""
""focus"",""3"",""54400""
""blur"",""3"",""55485""
""focus"",""3"",""55677""
","""event"",""trial"",""time""
""blur"",""0"",""17301""
""blur"",""2"",""35034""
""blur"",""3"",""55485""
","""event"",""trial"",""time""
""focus"",""0"",""18511""
""focus"",""3"",""54400""
""focus"",""3"",""55677""
","""event"",""trial"",""time""
""fullscreenenter"",""0"",""18619""
","
","null","<p></p>","null","","","","","","","",""
"","image","64","110532","0.0-64.0","""event"",""trial"",""time""
""blur"",""0"",""17301""
""focus"",""0"",""18511""
""fullscreenenter"",""0"",""18619""
""blur"",""2"",""35034""
""focus"",""3"",""54400""
""blur"",""3"",""55485""
""focus"",""3"",""55677""
","""event"",""trial"",""time""
""blur"",""0"",""17301""
""blur"",""2"",""35034""
""blur"",""3"",""55485""
","""event"",""trial"",""time""
""focus"",""0"",""18511""
""focus"",""3"",""54400""
""focus"",""3"",""55677""
","""event"",""trial"",""time""
""fullscreenenter"",""0"",""18619""
","
","792.1000000238419","run_exp/static/images/Set 6_rs/017a.jpg","86","","","","","","learn","SL",""
"","show_choice","65","111754","0.0-65.0","""event"",""trial"",""time""
""blur"",""0"",""17301""
""focus"",""0"",""18511""
""fullscreenenter"",""0"",""18619""
""blur"",""2"",""35034""
""focus"",""3"",""54400""
""blur"",""3"",""55485""
""focus"",""3"",""55677""
","""event"",""trial"",""time""
""blur"",""0"",""17301""
""blur"",""2"",""35034""
""blur"",""3"",""55485""
","""event"",""trial"",""time""
""focus"",""0"",""18511""
""focus"",""3"",""54400""
""focus"",""3"",""55677""
","""event"",""trial"",""time""
""fullscreenenter"",""0"",""18619""
","
","null","run_exp/static/images/Set 6_rs/017a.jpg","null","","","","","","learn","SL",""
"","html-keyboard-response","66","112264","0.0-66.0","""event"",""trial"",""time""
""blur"",""0"",""17301""
""focus"",""0"",""18511""
""fullscreenenter"",""0"",""18619""
""blur"",""2"",""35034""
""focus"",""3"",""54400""
""blur"",""3"",""55485""
""focus"",""3"",""55677""
","""event"",""trial"",""time""
""blur"",""0"",""17301""
""blur"",""2"",""35034""
""blur"",""3"",""55485""
","""event"",""trial"",""time""
""focus"",""0"",""18511""
""focus"",""3"",""54400""
""focus"",""3"",""55677""
","""event"",""trial"",""time""
""fullscreenenter"",""0"",""18619""
","
","null","<p></p>","null","","","","","","","",""
"","image","67","113396","0.0-67.0","""event"",""trial"",""time""
""blur"",""0"",""17301""
""focus"",""0"",""18511""
""fullscreenenter"",""0"",""18619""
""blur"",""2"",""35034""
""focus"",""3"",""54400""
""blur"",""3"",""55485""
""focus"",""3"",""55677""
","""event"",""trial"",""time""
""blur"",""0"",""17301""
""blur"",""2"",""35034""
""blur"",""3"",""55485""
","""event"",""trial"",""time""
""focus"",""0"",""18511""
""focus"",""3"",""54400""
""focus"",""3"",""55677""
","""event"",""trial"",""time""
""fullscreenenter"",""0"",""18619""
","
","1131.5999999642372","run_exp/static/images/Set 6_rs/012a.jpg","86","","","","","","learn","SR",""
"","show_choice","68","114274","0.0-68.0","""event"",""trial"",""time""
""blur"",""0"",""17301""
""focus"",""0"",""18511""
""fullscreenenter"",""0"",""18619""
""blur"",""2"",""35034""
""focus"",""3"",""54400""
""blur"",""3"",""55485""
""focus"",""3"",""55677""
","""event"",""trial"",""time""
""blur"",""0"",""17301""
""blur"",""2"",""35034""
""blur"",""3"",""55485""
","""event"",""trial"",""time""
""focus"",""0"",""18511""
""focus"",""3"",""54400""
""focus"",""3"",""55677""
","""event"",""trial"",""time""
""fullscreenenter"",""0"",""18619""
","
","null","run_exp/static/images/Set 6_rs/012a.jpg","null","","","","","","learn","SR",""
"","html-keyboard-response","69","114783","0.0-69.0","""event"",""trial"",""time""
""blur"",""0"",""17301""
""focus"",""0"",""18511""
""fullscreenenter"",""0"",""18619""
""blur"",""2"",""35034""
""focus"",""3"",""54400""
""blur"",""3"",""55485""
""focus"",""3"",""55677""
","""event"",""trial"",""time""
""blur"",""0"",""17301""
""blur"",""2"",""35034""
""blur"",""3"",""55485""
","""event"",""trial"",""time""
""focus"",""0"",""18511""
""focus"",""3"",""54400""
""focus"",""3"",""55677""
","""event"",""trial"",""time""
""fullscreenenter"",""0"",""18619""
","
","null","<p></p>","null","","","","","","","",""
"","image","70","115804","0.0-70.0","""event"",""trial"",""time""
""blur"",""0"",""17301""
""focus"",""0"",""18511""
""fullscreenenter"",""0"",""18619""
""blur"",""2"",""35034""
""focus"",""3"",""54400""
""blur"",""3"",""55485""
""focus"",""3"",""55677""
","""event"",""trial"",""time""
""blur"",""0"",""17301""
""blur"",""2"",""35034""
""blur"",""3"",""55485""
","""event"",""trial"",""time""
""focus"",""0"",""18511""
""focus"",""3"",""54400""
""focus"",""3"",""55677""
","""event"",""trial"",""time""
""fullscreenenter"",""0"",""18619""
","
","1020","run_exp/static/images/Set 6_rs/070a.jpg","86","","","","","","learn","SR",""
"","show_choice","71","116799","0.0-71.0","""event"",""trial"",""time""
""blur"",""0"",""17301""
""focus"",""0"",""18511""
""fullscreenenter"",""0"",""18619""
""blur"",""2"",""35034""
""focus"",""3"",""54400""
""blur"",""3"",""55485""
""focus"",""3"",""55677""
","""event"",""trial"",""time""
""blur"",""0"",""17301""
""blur"",""2"",""35034""
""blur"",""3"",""55485""
","""event"",""trial"",""time""
""focus"",""0"",""18511""
""focus"",""3"",""54400""
""focus"",""3"",""55677""
","""event"",""trial"",""time""
""fullscreenenter"",""0"",""18619""
","
","null","run_exp/static/images/Set 6_rs/070a.jpg","null","","","","","","learn","SR",""
"","html-keyboard-response","72","117307","0.0-72.0","""event"",""trial"",""time""
""blur"",""0"",""17301""
""focus"",""0"",""18511""
""fullscreenenter"",""0"",""18619""
""blur"",""2"",""35034""
""focus"",""3"",""54400""
""blur"",""3"",""55485""
""focus"",""3"",""55677""
","""event"",""trial"",""time""
""blur"",""0"",""17301""
""blur"",""2"",""35034""
""blur"",""3"",""55485""
","""event"",""trial"",""time""
""focus"",""0"",""18511""
""focus"",""3"",""54400""
""focus"",""3"",""55677""
","""event"",""trial"",""time""
""fullscreenenter"",""0"",""18619""
","
","null","<p></p>","null","","","","","","","",""
"","image","73","118268","0.0-73.0","""event"",""trial"",""time""
""blur"",""0"",""17301""
""focus"",""0"",""18511""
""fullscreenenter"",""0"",""18619""
""blur"",""2"",""35034""
""focus"",""3"",""54400""
""blur"",""3"",""55485""
""focus"",""3"",""55677""
","""event"",""trial"",""time""
""blur"",""0"",""17301""
""blur"",""2"",""35034""
""blur"",""3"",""55485""
","""event"",""trial"",""time""
""focus"",""0"",""18511""
""focus"",""3"",""54400""
""focus"",""3"",""55677""
","""event"",""trial"",""time""
""fullscreenenter"",""0"",""18619""
","
","960.4000000357628","run_exp/static/images/Set 6_rs/095a.jpg","78","","","","","","learn","SL",""
"","show_choice","74","119312","0.0-74.0","""event"",""trial"",""time""
""blur"",""0"",""17301""
""focus"",""0"",""18511""
""fullscreenenter"",""0"",""18619""
""blur"",""2"",""35034""
""focus"",""3"",""54400""
""blur"",""3"",""55485""
""focus"",""3"",""55677""
","""event"",""trial"",""time""
""blur"",""0"",""17301""
""blur"",""2"",""35034""
""blur"",""3"",""55485""
","""event"",""trial"",""time""
""focus"",""0"",""18511""
""focus"",""3"",""54400""
""focus"",""3"",""55677""
","""event"",""trial"",""time""
""fullscreenenter"",""0"",""18619""
","
","null","run_exp/static/images/Set 6_rs/095a.jpg","null","","","","","","learn","SL",""
"","html-keyboard-response","75","119818","0.0-75.0","""event"",""trial"",""time""
""blur"",""0"",""17301""
""focus"",""0"",""18511""
""fullscreenenter"",""0"",""18619""
""blur"",""2"",""35034""
""focus"",""3"",""54400""
""blur"",""3"",""55485""
""focus"",""3"",""55677""
","""event"",""trial"",""time""
""blur"",""0"",""17301""
""blur"",""2"",""35034""
""blur"",""3"",""55485""
","""event"",""trial"",""time""
""focus"",""0"",""18511""
""focus"",""3"",""54400""
""focus"",""3"",""55677""
","""event"",""trial"",""time""
""fullscreenenter"",""0"",""18619""
","
","null","<p></p>","null","","","","","","","",""
"","image","76","120900","0.0-76.0","""event"",""trial"",""time""
""blur"",""0"",""17301""
""focus"",""0"",""18511""
""fullscreenenter"",""0"",""18619""
""blur"",""2"",""35034""
""focus"",""3"",""54400""
""blur"",""3"",""55485""
""focus"",""3"",""55677""
","""event"",""trial"",""time""
""blur"",""0"",""17301""
""blur"",""2"",""35034""
""blur"",""3"",""55485""
","""event"",""trial"",""time""
""focus"",""0"",""18511""
""focus"",""3"",""54400""
""focus"",""3"",""55677""
","""event"",""trial"",""time""
""fullscreenenter"",""0"",""18619""
","
","1081.2000000476837","run_exp/static/images/Set 6_rs/036a.jpg","78","","","","","","learn","SL",""
"","show_choice","77","121834","0.0-77.0","""event"",""trial"",""time""
""blur"",""0"",""17301""
""focus"",""0"",""18511""
""fullscreenenter"",""0"",""18619""
""blur"",""2"",""35034""
""focus"",""3"",""54400""
""blur"",""3"",""55485""
""focus"",""3"",""55677""
","""event"",""trial"",""time""
""blur"",""0"",""17301""
""blur"",""2"",""35034""
""blur"",""3"",""55485""
","""event"",""trial"",""time""
""focus"",""0"",""18511""
""focus"",""3"",""54400""
""focus"",""3"",""55677""
","""event"",""trial"",""time""
""fullscreenenter"",""0"",""18619""
","
","null","run_exp/static/images/Set 6_rs/036a.jpg","null","","","","","","learn","SL",""
"","html-keyboard-response","78","122346","0.0-78.0","""event"",""trial"",""time""
""blur"",""0"",""17301""
""focus"",""0"",""18511""
""fullscreenenter"",""0"",""18619""
""blur"",""2"",""35034""
""focus"",""3"",""54400""
""blur"",""3"",""55485""
""focus"",""3"",""55677""
","""event"",""trial"",""time""
""blur"",""0"",""17301""
""blur"",""2"",""35034""
""blur"",""3"",""55485""
","""event"",""trial"",""time""
""focus"",""0"",""18511""
""focus"",""3"",""54400""
""focus"",""3"",""55677""
","""event"",""trial"",""time""
""fullscreenenter"",""0"",""18619""
","
","null","<p></p>","null","","","","","","","",""
"","image","79","123308","0.0-79.0","""event"",""trial"",""time""
""blur"",""0"",""17301""
""focus"",""0"",""18511""
""fullscreenenter"",""0"",""18619""
""blur"",""2"",""35034""
""focus"",""3"",""54400""
""blur"",""3"",""55485""
""focus"",""3"",""55677""
","""event"",""trial"",""time""
""blur"",""0"",""17301""
""blur"",""2"",""35034""
""blur"",""3"",""55485""
","""event"",""trial"",""time""
""focus"",""0"",""18511""
""focus"",""3"",""54400""
""focus"",""3"",""55677""
","""event"",""trial"",""time""
""fullscreenenter"",""0"",""18619""
","
","961","run_exp/static/images/Set 6_rs/071a.jpg","86","","","","","","learn","SL",""
"","show_choice","80","124359","0.0-80.0","""event"",""trial"",""time""
""blur"",""0"",""17301""
""focus"",""0"",""18511""
""fullscreenenter"",""0"",""18619""
""blur"",""2"",""35034""
""focus"",""3"",""54400""
""blur"",""3"",""55485""
""focus"",""3"",""55677""
","""event"",""trial"",""time""
""blur"",""0"",""17301""
""blur"",""2"",""35034""
""blur"",""3"",""55485""
","""event"",""trial"",""time""
""focus"",""0"",""18511""
""focus"",""3"",""54400""
""focus"",""3"",""55677""
","""event"",""trial"",""time""
""fullscreenenter"",""0"",""18619""
","
","null","run_exp/static/images/Set 6_rs/071a.jpg","null","","","","","","learn","SL",""
"","html-keyboard-response","81","124869","0.0-81.0","""event"",""trial"",""time""
""blur"",""0"",""17301""
""focus"",""0"",""18511""
""fullscreenenter"",""0"",""18619""
""blur"",""2"",""35034""
""focus"",""3"",""54400""
""blur"",""3"",""55485""
""focus"",""3"",""55677""
","""event"",""trial"",""time""
""blur"",""0"",""17301""
""blur"",""2"",""35034""
""blur"",""3"",""55485""
","""event"",""trial"",""time""
""focus"",""0"",""18511""
""focus"",""3"",""54400""
""focus"",""3"",""55677""
","""event"",""trial"",""time""
""fullscreenenter"",""0"",""18619""
","
","null","<p></p>","null","","","","","","","",""
"","image","82","126052","0.0-82.0","""event"",""trial"",""time""
""blur"",""0"",""17301""
""focus"",""0"",""18511""
""fullscreenenter"",""0"",""18619""
""blur"",""2"",""35034""
""focus"",""3"",""54400""
""blur"",""3"",""55485""
""focus"",""3"",""55677""
","""event"",""trial"",""time""
""blur"",""0"",""17301""
""blur"",""2"",""35034""
""blur"",""3"",""55485""
","""event"",""trial"",""time""
""focus"",""0"",""18511""
""focus"",""3"",""54400""
""focus"",""3"",""55677""
","""event"",""trial"",""time""
""fullscreenenter"",""0"",""18619""
","
","1182.3999999761581","run_exp/static/images/Set 6_rs/181a.jpg","86","","","","","","learn","SL",""
"","show_choice","83","126876","0.0-83.0","""event"",""trial"",""time""
""blur"",""0"",""17301""
""focus"",""0"",""18511""
""fullscreenenter"",""0"",""18619""
""blur"",""2"",""35034""
""focus"",""3"",""54400""
""blur"",""3"",""55485""
""focus"",""3"",""55677""
","""event"",""trial"",""time""
""blur"",""0"",""17301""
""blur"",""2"",""35034""
""blur"",""3"",""55485""
","""event"",""trial"",""time""
""focus"",""0"",""18511""
""focus"",""3"",""54400""
""focus"",""3"",""55677""
","""event"",""trial"",""time""
""fullscreenenter"",""0"",""18619""
","
","null","run_exp/static/images/Set 6_rs/181a.jpg","null","","","","","","learn","SL",""
"","html-keyboard-response","84","127386","0.0-84.0","""event"",""trial"",""time""
""blur"",""0"",""17301""
""focus"",""0"",""18511""
""fullscreenenter"",""0"",""18619""
""blur"",""2"",""35034""
""focus"",""3"",""54400""
""blur"",""3"",""55485""
""focus"",""3"",""55677""
","""event"",""trial"",""time""
""blur"",""0"",""17301""
""blur"",""2"",""35034""
""blur"",""3"",""55485""
","""event"",""trial"",""time""
""focus"",""0"",""18511""
""focus"",""3"",""54400""
""focus"",""3"",""55677""
","""event"",""trial"",""time""
""fullscreenenter"",""0"",""18619""
","
","null","<p></p>","null","","","","","","","",""
"","image","85","128540","0.0-85.0","""event"",""trial"",""time""
""blur"",""0"",""17301""
""focus"",""0"",""18511""
""fullscreenenter"",""0"",""18619""
""blur"",""2"",""35034""
""focus"",""3"",""54400""
""blur"",""3"",""55485""
""focus"",""3"",""55677""
","""event"",""trial"",""time""
""blur"",""0"",""17301""
""blur"",""2"",""35034""
""blur"",""3"",""55485""
","""event"",""trial"",""time""
""focus"",""0"",""18511""
""focus"",""3"",""54400""
""focus"",""3"",""55677""
","""event"",""trial"",""time""
""fullscreenenter"",""0"",""18619""
","
","1153.699999988079","run_exp/static/images/Set 6_rs/123a.jpg","86","","","","","","learn","SL",""
"","show_choice","86","129389","0.0-86.0","""event"",""trial"",""time""
""blur"",""0"",""17301""
""focus"",""0"",""18511""
""fullscreenenter"",""0"",""18619""
""blur"",""2"",""35034""
""focus"",""3"",""54400""
""blur"",""3"",""55485""
""focus"",""3"",""55677""
","""event"",""trial"",""time""
""blur"",""0"",""17301""
""blur"",""2"",""35034""
""blur"",""3"",""55485""
","""event"",""trial"",""time""
""focus"",""0"",""18511""
""focus"",""3"",""54400""
""focus"",""3"",""55677""
","""event"",""trial"",""time""
""fullscreenenter"",""0"",""18619""
","
","null","run_exp/static/images/Set 6_rs/123a.jpg","null","","","","","","learn","SL",""
"","html-keyboard-response","87","129901","0.0-87.0","""event"",""trial"",""time""
""blur"",""0"",""17301""
""focus"",""0"",""18511""
""fullscreenenter"",""0"",""18619""
""blur"",""2"",""35034""
""focus"",""3"",""54400""
""blur"",""3"",""55485""
""focus"",""3"",""55677""
","""event"",""trial"",""time""
""blur"",""0"",""17301""
""blur"",""2"",""35034""
""blur"",""3"",""55485""
","""event"",""trial"",""time""
""focus"",""0"",""18511""
""focus"",""3"",""54400""
""focus"",""3"",""55677""
","""event"",""trial"",""time""
""fullscreenenter"",""0"",""18619""
","
","null","<p></p>","null","","","","","","","",""
"","image","88","131596","0.0-88.0","""event"",""trial"",""time""
""blur"",""0"",""17301""
""focus"",""0"",""18511""
""fullscreenenter"",""0"",""18619""
""blur"",""2"",""35034""
""focus"",""3"",""54400""
""blur"",""3"",""55485""
""focus"",""3"",""55677""
","""event"",""trial"",""time""
""blur"",""0"",""17301""
""blur"",""2"",""35034""
""blur"",""3"",""55485""
","""event"",""trial"",""time""
""focus"",""0"",""18511""
""focus"",""3"",""54400""
""focus"",""3"",""55677""
","""event"",""trial"",""time""
""fullscreenenter"",""0"",""18619""
","
","1694.2999999523163","run_exp/static/images/Set 6_rs/131a.jpg","86","","","","","","learn","SR",""
"","show_choice","89","131910","0.0-89.0","""event"",""trial"",""time""
""blur"",""0"",""17301""
""focus"",""0"",""18511""
""fullscreenenter"",""0"",""18619""
""blur"",""2"",""35034""
""focus"",""3"",""54400""
""blur"",""3"",""55485""
""focus"",""3"",""55677""
","""event"",""trial"",""time""
""blur"",""0"",""17301""
""blur"",""2"",""35034""
""blur"",""3"",""55485""
","""event"",""trial"",""time""
""focus"",""0"",""18511""
""focus"",""3"",""54400""
""focus"",""3"",""55677""
","""event"",""trial"",""time""
""fullscreenenter"",""0"",""18619""
","
","null","run_exp/static/images/Set 6_rs/131a.jpg","null","","","","","","learn","SR",""
"","html-keyboard-response","90","132415","0.0-90.0","""event"",""trial"",""time""
""blur"",""0"",""17301""
""focus"",""0"",""18511""
""fullscreenenter"",""0"",""18619""
""blur"",""2"",""35034""
""focus"",""3"",""54400""
""blur"",""3"",""55485""
""focus"",""3"",""55677""
","""event"",""trial"",""time""
""blur"",""0"",""17301""
""blur"",""2"",""35034""
""blur"",""3"",""55485""
","""event"",""trial"",""time""
""focus"",""0"",""18511""
""focus"",""3"",""54400""
""focus"",""3"",""55677""
","""event"",""trial"",""time""
""fullscreenenter"",""0"",""18619""
","
","null","<p></p>","null","","","","","","","",""
"","image","91","133316","0.0-91.0","""event"",""trial"",""time""
""blur"",""0"",""17301""
""focus"",""0"",""18511""
""fullscreenenter"",""0"",""18619""
""blur"",""2"",""35034""
""focus"",""3"",""54400""
""blur"",""3"",""55485""
""focus"",""3"",""55677""
","""event"",""trial"",""time""
""blur"",""0"",""17301""
""blur"",""2"",""35034""
""blur"",""3"",""55485""
","""event"",""trial"",""time""
""focus"",""0"",""18511""
""focus"",""3"",""54400""
""focus"",""3"",""55677""
","""event"",""trial"",""time""
""fullscreenenter"",""0"",""18619""
","
","900.5999999642372","run_exp/static/images/Set 6_rs/025a.jpg","86","","","","","","learn","SL",""
"","show_choice","92","134419","0.0-92.0","""event"",""trial"",""time""
""blur"",""0"",""17301""
""focus"",""0"",""18511""
""fullscreenenter"",""0"",""18619""
""blur"",""2"",""35034""
""focus"",""3"",""54400""
""blur"",""3"",""55485""
""focus"",""3"",""55677""
","""event"",""trial"",""time""
""blur"",""0"",""17301""
""blur"",""2"",""35034""
""blur"",""3"",""55485""
","""event"",""trial"",""time""
""focus"",""0"",""18511""
""focus"",""3"",""54400""
""focus"",""3"",""55677""
","""event"",""trial"",""time""
""fullscreenenter"",""0"",""18619""
","
","null","run_exp/static/images/Set 6_rs/025a.jpg","null","","","","","","learn","SL",""
"","html-keyboard-response","93","134930","0.0-93.0","""event"",""trial"",""time""
""blur"",""0"",""17301""
""focus"",""0"",""18511""
""fullscreenenter"",""0"",""18619""
""blur"",""2"",""35034""
""focus"",""3"",""54400""
""blur"",""3"",""55485""
""focus"",""3"",""55677""
","""event"",""trial"",""time""
""blur"",""0"",""17301""
""blur"",""2"",""35034""
""blur"",""3"",""55485""
","""event"",""trial"",""time""
""focus"",""0"",""18511""
""focus"",""3"",""54400""
""focus"",""3"",""55677""
","""event"",""trial"",""time""
""fullscreenenter"",""0"",""18619""
","
","null","<p></p>","null","","","","","","","",""
"","image","94","135412","0.0-94.0","""event"",""trial"",""time""
""blur"",""0"",""17301""
""focus"",""0"",""18511""
""fullscreenenter"",""0"",""18619""
""blur"",""2"",""35034""
""focus"",""3"",""54400""
""blur"",""3"",""55485""
""focus"",""3"",""55677""
","""event"",""trial"",""time""
""blur"",""0"",""17301""
""blur"",""2"",""35034""
""blur"",""3"",""55485""
","""event"",""trial"",""time""
""focus"",""0"",""18511""
""focus"",""3"",""54400""
""focus"",""3"",""55677""
","""event"",""trial"",""time""
""fullscreenenter"",""0"",""18619""
","
","481.80000001192093","run_exp/static/images/Set 6_rs/019a.jpg","86","","","","","","learn","SL",""
"","show_choice","95","136945","0.0-95.0","""event"",""trial"",""time""
""blur"",""0"",""17301""
""focus"",""0"",""18511""
""fullscreenenter"",""0"",""18619""
""blur"",""2"",""35034""
""focus"",""3"",""54400""
""blur"",""3"",""55485""
""focus"",""3"",""55677""
","""event"",""trial"",""time""
""blur"",""0"",""17301""
""blur"",""2"",""35034""
""blur"",""3"",""55485""
","""event"",""trial"",""time""
""focus"",""0"",""18511""
""focus"",""3"",""54400""
""focus"",""3"",""55677""
","""event"",""trial"",""time""
""fullscreenenter"",""0"",""18619""
","
","null","run_exp/static/images/Set 6_rs/019a.jpg","null","","","","","","learn","SL",""
"","html-keyboard-response","96","137455","0.0-96.0","""event"",""trial"",""time""
""blur"",""0"",""17301""
""focus"",""0"",""18511""
""fullscreenenter"",""0"",""18619""
""blur"",""2"",""35034""
""focus"",""3"",""54400""
""blur"",""3"",""55485""
""focus"",""3"",""55677""
","""event"",""trial"",""time""
""blur"",""0"",""17301""
""blur"",""2"",""35034""
""blur"",""3"",""55485""
","""event"",""trial"",""time""
""focus"",""0"",""18511""
""focus"",""3"",""54400""
""focus"",""3"",""55677""
","""event"",""trial"",""time""
""fullscreenenter"",""0"",""18619""
","
","null","<p></p>","null","","","","","","","",""
"","image","97","137861","0.0-97.0","""event"",""trial"",""time""
""blur"",""0"",""17301""
""focus"",""0"",""18511""
""fullscreenenter"",""0"",""18619""
""blur"",""2"",""35034""
""focus"",""3"",""54400""
""blur"",""3"",""55485""
""focus"",""3"",""55677""
","""event"",""trial"",""time""
""blur"",""0"",""17301""
""blur"",""2"",""35034""
""blur"",""3"",""55485""
","""event"",""trial"",""time""
""focus"",""0"",""18511""
""focus"",""3"",""54400""
""focus"",""3"",""55677""
","""event"",""trial"",""time""
""fullscreenenter"",""0"",""18619""
","
","405","run_exp/static/images/Set 6_rs/178a.jpg","86","","","","","","learn","SR",""
"","show_choice","98","139466","0.0-98.0","""event"",""trial"",""time""
""blur"",""0"",""17301""
""focus"",""0"",""18511""
""fullscreenenter"",""0"",""18619""
""blur"",""2"",""35034""
""focus"",""3"",""54400""
""blur"",""3"",""55485""
""focus"",""3"",""55677""
","""event"",""trial"",""time""
""blur"",""0"",""17301""
""blur"",""2"",""35034""
""blur"",""3"",""55485""
","""event"",""trial"",""time""
""focus"",""0"",""18511""
""focus"",""3"",""54400""
""focus"",""3"",""55677""
","""event"",""trial"",""time""
""fullscreenenter"",""0"",""18619""
","
","null","run_exp/static/images/Set 6_rs/178a.jpg","null","","","","","","learn","SR",""
"","html-keyboard-response","99","139976","0.0-99.0","""event"",""trial"",""time""
""blur"",""0"",""17301""
""focus"",""0"",""18511""
""fullscreenenter"",""0"",""18619""
""blur"",""2"",""35034""
""focus"",""3"",""54400""
""blur"",""3"",""55485""
""focus"",""3"",""55677""
","""event"",""trial"",""time""
""blur"",""0"",""17301""
""blur"",""2"",""35034""
""blur"",""3"",""55485""
","""event"",""trial"",""time""
""focus"",""0"",""18511""
""focus"",""3"",""54400""
""focus"",""3"",""55677""
","""event"",""trial"",""time""
""fullscreenenter"",""0"",""18619""
","
","null","<p></p>","null","","","","","","","",""
"","image","100","140612","0.0-100.0","""event"",""trial"",""time""
""blur"",""0"",""17301""
""focus"",""0"",""18511""
""fullscreenenter"",""0"",""18619""
""blur"",""2"",""35034""
""focus"",""3"",""54400""
""blur"",""3"",""55485""
""focus"",""3"",""55677""
","""event"",""trial"",""time""
""blur"",""0"",""17301""
""blur"",""2"",""35034""
""blur"",""3"",""55485""
","""event"",""trial"",""time""
""focus"",""0"",""18511""
""focus"",""3"",""54400""
""focus"",""3"",""55677""
","""event"",""trial"",""time""
""fullscreenenter"",""0"",""18619""
","
","635.3999999761581","run_exp/static/images/Set 6_rs/055a.jpg","86","","","","","","learn","SL",""
"","show_choice","101","141985","0.0-101.0","""event"",""trial"",""time""
""blur"",""0"",""17301""
""focus"",""0"",""18511""
""fullscreenenter"",""0"",""18619""
""blur"",""2"",""35034""
""focus"",""3"",""54400""
""blur"",""3"",""55485""
""focus"",""3"",""55677""
","""event"",""trial"",""time""
""blur"",""0"",""17301""
""blur"",""2"",""35034""
""blur"",""3"",""55485""
","""event"",""trial"",""time""
""focus"",""0"",""18511""
""focus"",""3"",""54400""
""focus"",""3"",""55677""
","""event"",""trial"",""time""
""fullscreenenter"",""0"",""18619""
","
","null","run_exp/static/images/Set 6_rs/055a.jpg","null","","","","","","learn","SL",""
"","html-keyboard-response","102","142497","0.0-102.0","""event"",""trial"",""time""
""blur"",""0"",""17301""
""focus"",""0"",""18511""
""fullscreenenter"",""0"",""18619""
""blur"",""2"",""35034""
""focus"",""3"",""54400""
""blur"",""3"",""55485""
""focus"",""3"",""55677""
","""event"",""trial"",""time""
""blur"",""0"",""17301""
""blur"",""2"",""35034""
""blur"",""3"",""55485""
","""event"",""trial"",""time""
""focus"",""0"",""18511""
""focus"",""3"",""54400""
""focus"",""3"",""55677""
","""event"",""trial"",""time""
""fullscreenenter"",""0"",""18619""
","
","null","<p></p>","null","","","","","","","",""
"","image","103","143068","0.0-103.0","""event"",""trial"",""time""
""blur"",""0"",""17301""
""focus"",""0"",""18511""
""fullscreenenter"",""0"",""18619""
""blur"",""2"",""35034""
""focus"",""3"",""54400""
""blur"",""3"",""55485""
""focus"",""3"",""55677""
","""event"",""trial"",""time""
""blur"",""0"",""17301""
""blur"",""2"",""35034""
""blur"",""3"",""55485""
","""event"",""trial"",""time""
""focus"",""0"",""18511""
""focus"",""3"",""54400""
""focus"",""3"",""55677""
","""event"",""trial"",""time""
""fullscreenenter"",""0"",""18619""
","
","570.8000000119209","run_exp/static/images/Set 6_rs/006a.jpg","86","","","","","","learn","SL",""
"","show_choice","104","144507","0.0-104.0","""event"",""trial"",""time""
""blur"",""0"",""17301""
""focus"",""0"",""18511""
""fullscreenenter"",""0"",""18619""
""blur"",""2"",""35034""
""focus"",""3"",""54400""
""blur"",""3"",""55485""
""focus"",""3"",""55677""
","""event"",""trial"",""time""
""blur"",""0"",""17301""
""blur"",""2"",""35034""
""blur"",""3"",""55485""
","""event"",""trial"",""time""
""focus"",""0"",""18511""
""focus"",""3"",""54400""
""focus"",""3"",""55677""
","""event"",""trial"",""time""
""fullscreenenter"",""0"",""18619""
","
","null","run_exp/static/images/Set 6_rs/006a.jpg","null","","","","","","learn","SL",""
"","html-keyboard-response","105","145016","0.0-105.0","""event"",""trial"",""time""
""blur"",""0"",""17301""
""focus"",""0"",""18511""
""fullscreenenter"",""0"",""18619""
""blur"",""2"",""35034""
""focus"",""3"",""54400""
""blur"",""3"",""55485""
""focus"",""3"",""55677""
","""event"",""trial"",""time""
""blur"",""0"",""17301""
""blur"",""2"",""35034""
""blur"",""3"",""55485""
","""event"",""trial"",""time""
""focus"",""0"",""18511""
""focus"",""3"",""54400""
""focus"",""3"",""55677""
","""event"",""trial"",""time""
""fullscreenenter"",""0"",""18619""
","
","null","<p></p>","null","","","","","","","",""
"","image","106","146196","0.0-106.0","""event"",""trial"",""time""
""blur"",""0"",""17301""
""focus"",""0"",""18511""
""fullscreenenter"",""0"",""18619""
""blur"",""2"",""35034""
""focus"",""3"",""54400""
""blur"",""3"",""55485""
""focus"",""3"",""55677""
","""event"",""trial"",""time""
""blur"",""0"",""17301""
""blur"",""2"",""35034""
""blur"",""3"",""55485""
","""event"",""trial"",""time""
""focus"",""0"",""18511""
""focus"",""3"",""54400""
""focus"",""3"",""55677""
","""event"",""trial"",""time""
""fullscreenenter"",""0"",""18619""
","
","1180.4000000357628","run_exp/static/images/Set 6_rs/117a.jpg","86","","","","","","learn","SL",""
"","show_choice","107","147022","0.0-107.0","""event"",""trial"",""time""
""blur"",""0"",""17301""
""focus"",""0"",""18511""
""fullscreenenter"",""0"",""18619""
""blur"",""2"",""35034""
""focus"",""3"",""54400""
""blur"",""3"",""55485""
""focus"",""3"",""55677""
","""event"",""trial"",""time""
""blur"",""0"",""17301""
""blur"",""2"",""35034""
""blur"",""3"",""55485""
","""event"",""trial"",""time""
""focus"",""0"",""18511""
""focus"",""3"",""54400""
""focus"",""3"",""55677""
","""event"",""trial"",""time""
""fullscreenenter"",""0"",""18619""
","
","null","run_exp/static/images/Set 6_rs/117a.jpg","null","","","","","","learn","SL",""
"","html-keyboard-response","108","147532","0.0-108.0","""event"",""trial"",""time""
""blur"",""0"",""17301""
""focus"",""0"",""18511""
""fullscreenenter"",""0"",""18619""
""blur"",""2"",""35034""
""focus"",""3"",""54400""
""blur"",""3"",""55485""
""focus"",""3"",""55677""
","""event"",""trial"",""time""
""blur"",""0"",""17301""
""blur"",""2"",""35034""
""blur"",""3"",""55485""
","""event"",""trial"",""time""
""focus"",""0"",""18511""
""focus"",""3"",""54400""
""focus"",""3"",""55677""
","""event"",""trial"",""time""
""fullscreenenter"",""0"",""18619""
","
","null","<p></p>","null","","","","","","","",""
"","image","109","148349","0.0-109.0","""event"",""trial"",""time""
""blur"",""0"",""17301""
""focus"",""0"",""18511""
""fullscreenenter"",""0"",""18619""
""blur"",""2"",""35034""
""focus"",""3"",""54400""
""blur"",""3"",""55485""
""focus"",""3"",""55677""
","""event"",""trial"",""time""
""blur"",""0"",""17301""
""blur"",""2"",""35034""
""blur"",""3"",""55485""
","""event"",""trial"",""time""
""focus"",""0"",""18511""
""focus"",""3"",""54400""
""focus"",""3"",""55677""
","""event"",""trial"",""time""
""fullscreenenter"",""0"",""18619""
","
","815.9000000357628","run_exp/static/images/Set 6_rs/045a.jpg","86","","","","","","learn","SR",""
"","show_choice","110","149547","0.0-110.0","""event"",""trial"",""time""
""blur"",""0"",""17301""
""focus"",""0"",""18511""
""fullscreenenter"",""0"",""18619""
""blur"",""2"",""35034""
""focus"",""3"",""54400""
""blur"",""3"",""55485""
""focus"",""3"",""55677""
","""event"",""trial"",""time""
""blur"",""0"",""17301""
""blur"",""2"",""35034""
""blur"",""3"",""55485""
","""event"",""trial"",""time""
""focus"",""0"",""18511""
""focus"",""3"",""54400""
""focus"",""3"",""55677""
","""event"",""trial"",""time""
""fullscreenenter"",""0"",""18619""
","
","null","run_exp/static/images/Set 6_rs/045a.jpg","null","","","","","","learn","SR",""
"","html-keyboard-response","111","150058","0.0-111.0","""event"",""trial"",""time""
""blur"",""0"",""17301""
""focus"",""0"",""18511""
""fullscreenenter"",""0"",""18619""
""blur"",""2"",""35034""
""focus"",""3"",""54400""
""blur"",""3"",""55485""
""focus"",""3"",""55677""
","""event"",""trial"",""time""
""blur"",""0"",""17301""
""blur"",""2"",""35034""
""blur"",""3"",""55485""
","""event"",""trial"",""time""
""focus"",""0"",""18511""
""focus"",""3"",""54400""
""focus"",""3"",""55677""
","""event"",""trial"",""time""
""fullscreenenter"",""0"",""18619""
","
","null","<p></p>","null","","","","","","","",""
"","image","112","150940","0.0-112.0","""event"",""trial"",""time""
""blur"",""0"",""17301""
""focus"",""0"",""18511""
""fullscreenenter"",""0"",""18619""
""blur"",""2"",""35034""
""focus"",""3"",""54400""
""blur"",""3"",""55485""
""focus"",""3"",""55677""
","""event"",""trial"",""time""
""blur"",""0"",""17301""
""blur"",""2"",""35034""
""blur"",""3"",""55485""
","""event"",""trial"",""time""
""focus"",""0"",""18511""
""focus"",""3"",""54400""
""focus"",""3"",""55677""
","""event"",""trial"",""time""
""fullscreenenter"",""0"",""18619""
","
","881.6000000238419","run_exp/static/images/Set 6_rs/108a.jpg","86","","","","","","learn","SR",""
"","show_choice","113","152071","0.0-113.0","""event"",""trial"",""time""
""blur"",""0"",""17301""
""focus"",""0"",""18511""
""fullscreenenter"",""0"",""18619""
""blur"",""2"",""35034""
""focus"",""3"",""54400""
""blur"",""3"",""55485""
""focus"",""3"",""55677""
","""event"",""trial"",""time""
""blur"",""0"",""17301""
""blur"",""2"",""35034""
""blur"",""3"",""55485""
","""event"",""trial"",""time""
""focus"",""0"",""18511""
""focus"",""3"",""54400""
""focus"",""3"",""55677""
","""event"",""trial"",""time""
""fullscreenenter"",""0"",""18619""
","
","null","run_exp/static/images/Set 6_rs/108a.jpg","null","","","","","","learn","SR",""
"","html-keyboard-response","114","152581","0.0-114.0","""event"",""trial"",""time""
""blur"",""0"",""17301""
""focus"",""0"",""18511""
""fullscreenenter"",""0"",""18619""
""blur"",""2"",""35034""
""focus"",""3"",""54400""
""blur"",""3"",""55485""
""focus"",""3"",""55677""
","""event"",""trial"",""time""
""blur"",""0"",""17301""
""blur"",""2"",""35034""
""blur"",""3"",""55485""
","""event"",""trial"",""time""
""focus"",""0"",""18511""
""focus"",""3"",""54400""
""focus"",""3"",""55677""
","""event"",""trial"",""time""
""fullscreenenter"",""0"",""18619""
","
","null","<p></p>","null","","","","","","","",""
"","image","115","153237","0.0-115.0","""event"",""trial"",""time""
""blur"",""0"",""17301""
""focus"",""0"",""18511""
""fullscreenenter"",""0"",""18619""
""blur"",""2"",""35034""
""focus"",""3"",""54400""
""blur"",""3"",""55485""
""focus"",""3"",""55677""
","""event"",""trial"",""time""
""blur"",""0"",""17301""
""blur"",""2"",""35034""
""blur"",""3"",""55485""
","""event"",""trial"",""time""
""focus"",""0"",""18511""
""focus"",""3"",""54400""
""focus"",""3"",""55677""
","""event"",""trial"",""time""
""fullscreenenter"",""0"",""18619""
","
","655.0999999642372","run_exp/static/images/Set 6_rs/023a.jpg","86","","","","","","learn","SR",""
"","show_choice","116","154591","0.0-116.0","""event"",""trial"",""time""
""blur"",""0"",""17301""
""focus"",""0"",""18511""
""fullscreenenter"",""0"",""18619""
""blur"",""2"",""35034""
""focus"",""3"",""54400""
""blur"",""3"",""55485""
""focus"",""3"",""55677""
","""event"",""trial"",""time""
""blur"",""0"",""17301""
""blur"",""2"",""35034""
""blur"",""3"",""55485""
","""event"",""trial"",""time""
""focus"",""0"",""18511""
""focus"",""3"",""54400""
""focus"",""3"",""55677""
","""event"",""trial"",""time""
""fullscreenenter"",""0"",""18619""
","
","null","run_exp/static/images/Set 6_rs/023a.jpg","null","","","","","","learn","SR",""
"","html-keyboard-response","117","155103","0.0-117.0","""event"",""trial"",""time""
""blur"",""0"",""17301""
""focus"",""0"",""18511""
""fullscreenenter"",""0"",""18619""
""blur"",""2"",""35034""
""focus"",""3"",""54400""
""blur"",""3"",""55485""
""focus"",""3"",""55677""
","""event"",""trial"",""time""
""blur"",""0"",""17301""
""blur"",""2"",""35034""
""blur"",""3"",""55485""
","""event"",""trial"",""time""
""focus"",""0"",""18511""
""focus"",""3"",""54400""
""focus"",""3"",""55677""
","""event"",""trial"",""time""
""fullscreenenter"",""0"",""18619""
","
","null","<p></p>","null","","","","","","","",""
"","image","118","156117","0.0-118.0","""event"",""trial"",""time""
""blur"",""0"",""17301""
""focus"",""0"",""18511""
""fullscreenenter"",""0"",""18619""
""blur"",""2"",""35034""
""focus"",""3"",""54400""
""blur"",""3"",""55485""
""focus"",""3"",""55677""
","""event"",""trial"",""time""
""blur"",""0"",""17301""
""blur"",""2"",""35034""
""blur"",""3"",""55485""
","""event"",""trial"",""time""
""focus"",""0"",""18511""
""focus"",""3"",""54400""
""focus"",""3"",""55677""
","""event"",""trial"",""time""
""fullscreenenter"",""0"",""18619""
","
","1012.5","run_exp/static/images/Set 6_rs/129a.jpg","86","","","","","","learn","SL",""
"","show_choice","119","157113","0.0-119.0","""event"",""trial"",""time""
""blur"",""0"",""17301""
""focus"",""0"",""18511""
""fullscreenenter"",""0"",""18619""
""blur"",""2"",""35034""
""focus"",""3"",""54400""
""blur"",""3"",""55485""
""focus"",""3"",""55677""
","""event"",""trial"",""time""
""blur"",""0"",""17301""
""blur"",""2"",""35034""
""blur"",""3"",""55485""
","""event"",""trial"",""time""
""focus"",""0"",""18511""
""focus"",""3"",""54400""
""focus"",""3"",""55677""
","""event"",""trial"",""time""
""fullscreenenter"",""0"",""18619""
","
","null","run_exp/static/images/Set 6_rs/129a.jpg","null","","","","","","learn","SL",""
"","html-keyboard-response","120","157625","0.0-120.0","""event"",""trial"",""time""
""blur"",""0"",""17301""
""focus"",""0"",""18511""
""fullscreenenter"",""0"",""18619""
""blur"",""2"",""35034""
""focus"",""3"",""54400""
""blur"",""3"",""55485""
""focus"",""3"",""55677""
","""event"",""trial"",""time""
""blur"",""0"",""17301""
""blur"",""2"",""35034""
""blur"",""3"",""55485""
","""event"",""trial"",""time""
""focus"",""0"",""18511""
""focus"",""3"",""54400""
""focus"",""3"",""55677""
","""event"",""trial"",""time""
""fullscreenenter"",""0"",""18619""
","
","null","<p></p>","null","","","","","","","",""
"","image","121","158189","0.0-121.0","""event"",""trial"",""time""
""blur"",""0"",""17301""
""focus"",""0"",""18511""
""fullscreenenter"",""0"",""18619""
""blur"",""2"",""35034""
""focus"",""3"",""54400""
""blur"",""3"",""55485""
""focus"",""3"",""55677""
","""event"",""trial"",""time""
""blur"",""0"",""17301""
""blur"",""2"",""35034""
""blur"",""3"",""55485""
","""event"",""trial"",""time""
""focus"",""0"",""18511""
""focus"",""3"",""54400""
""focus"",""3"",""55677""
","""event"",""trial"",""time""
""fullscreenenter"",""0"",""18619""
","
","563.8000000119209","run_exp/static/images/Set 6_rs/122a.jpg","86","","","","","","learn","SR",""
"","show_choice","122","159639","0.0-122.0","""event"",""trial"",""time""
""blur"",""0"",""17301""
""focus"",""0"",""18511""
""fullscreenenter"",""0"",""18619""
""blur"",""2"",""35034""
""focus"",""3"",""54400""
""blur"",""3"",""55485""
""focus"",""3"",""55677""
","""event"",""trial"",""time""
""blur"",""0"",""17301""
""blur"",""2"",""35034""
""blur"",""3"",""55485""
","""event"",""trial"",""time""
""focus"",""0"",""18511""
""focus"",""3"",""54400""
""focus"",""3"",""55677""
","""event"",""trial"",""time""
""fullscreenenter"",""0"",""18619""
","
","null","run_exp/static/images/Set 6_rs/122a.jpg","null","","","","","","learn","SR",""
"","html-keyboard-response","123","160151","0.0-123.0","""event"",""trial"",""time""
""blur"",""0"",""17301""
""focus"",""0"",""18511""
""fullscreenenter"",""0"",""18619""
""blur"",""2"",""35034""
""focus"",""3"",""54400""
""blur"",""3"",""55485""
""focus"",""3"",""55677""
","""event"",""trial"",""time""
""blur"",""0"",""17301""
""blur"",""2"",""35034""
""blur"",""3"",""55485""
","""event"",""trial"",""time""
""focus"",""0"",""18511""
""focus"",""3"",""54400""
""focus"",""3"",""55677""
","""event"",""trial"",""time""
""fullscreenenter"",""0"",""18619""
","
","null","<p></p>","null","","","","","","","",""
"","image","124","160710","0.0-124.0","""event"",""trial"",""time""
""blur"",""0"",""17301""
""focus"",""0"",""18511""
""fullscreenenter"",""0"",""18619""
""blur"",""2"",""35034""
""focus"",""3"",""54400""
""blur"",""3"",""55485""
""focus"",""3"",""55677""
","""event"",""trial"",""time""
""blur"",""0"",""17301""
""blur"",""2"",""35034""
""blur"",""3"",""55485""
","""event"",""trial"",""time""
""focus"",""0"",""18511""
""focus"",""3"",""54400""
""focus"",""3"",""55677""
","""event"",""trial"",""time""
""fullscreenenter"",""0"",""18619""
","
","557.5","run_exp/static/images/Set 6_rs/152a.jpg","78","","","","","","learn","SR",""
"","show_choice","125","162158","0.0-125.0","""event"",""trial"",""time""
""blur"",""0"",""17301""
""focus"",""0"",""18511""
""fullscreenenter"",""0"",""18619""
""blur"",""2"",""35034""
""focus"",""3"",""54400""
""blur"",""3"",""55485""
""focus"",""3"",""55677""
","""event"",""trial"",""time""
""blur"",""0"",""17301""
""blur"",""2"",""35034""
""blur"",""3"",""55485""
","""event"",""trial"",""time""
""focus"",""0"",""18511""
""focus"",""3"",""54400""
""focus"",""3"",""55677""
","""event"",""trial"",""time""
""fullscreenenter"",""0"",""18619""
","
","null","run_exp/static/images/Set 6_rs/152a.jpg","null","","","","","","learn","SR",""
"","html-keyboard-response","126","162668","0.0-126.0","""event"",""trial"",""time""
""blur"",""0"",""17301""
""focus"",""0"",""18511""
""fullscreenenter"",""0"",""18619""
""blur"",""2"",""35034""
""focus"",""3"",""54400""
""blur"",""3"",""55485""
""focus"",""3"",""55677""
","""event"",""trial"",""time""
""blur"",""0"",""17301""
""blur"",""2"",""35034""
""blur"",""3"",""55485""
","""event"",""trial"",""time""
""focus"",""0"",""18511""
""focus"",""3"",""54400""
""focus"",""3"",""55677""
","""event"",""trial"",""time""
""fullscreenenter"",""0"",""18619""
","
","null","<p></p>","null","","","","","","","",""
"","image","127","163366","0.0-127.0","""event"",""trial"",""time""
""blur"",""0"",""17301""
""focus"",""0"",""18511""
""fullscreenenter"",""0"",""18619""
""blur"",""2"",""35034""
""focus"",""3"",""54400""
""blur"",""3"",""55485""
""focus"",""3"",""55677""
","""event"",""trial"",""time""
""blur"",""0"",""17301""
""blur"",""2"",""35034""
""blur"",""3"",""55485""
","""event"",""trial"",""time""
""focus"",""0"",""18511""
""focus"",""3"",""54400""
""focus"",""3"",""55677""
","""event"",""trial"",""time""
""fullscreenenter"",""0"",""18619""
","
","696.6999999880791","run_exp/static/images/Set 6_rs/016a.jpg","86","","","","","","learn","SL",""
"","show_choice","128","164675","0.0-128.0","""event"",""trial"",""time""
""blur"",""0"",""17301""
""focus"",""0"",""18511""
""fullscreenenter"",""0"",""18619""
""blur"",""2"",""35034""
""focus"",""3"",""54400""
""blur"",""3"",""55485""
""focus"",""3"",""55677""
","""event"",""trial"",""time""
""blur"",""0"",""17301""
""blur"",""2"",""35034""
""blur"",""3"",""55485""
","""event"",""trial"",""time""
""focus"",""0"",""18511""
""focus"",""3"",""54400""
""focus"",""3"",""55677""
","""event"",""trial"",""time""
""fullscreenenter"",""0"",""18619""
","
","null","run_exp/static/images/Set 6_rs/016a.jpg","null","","","","","","learn","SL",""
"","html-keyboard-response","129","165183","0.0-129.0","""event"",""trial"",""time""
""blur"",""0"",""17301""
""focus"",""0"",""18511""
""fullscreenenter"",""0"",""18619""
""blur"",""2"",""35034""
""focus"",""3"",""54400""
""blur"",""3"",""55485""
""focus"",""3"",""55677""
","""event"",""trial"",""time""
""blur"",""0"",""17301""
""blur"",""2"",""35034""
""blur"",""3"",""55485""
","""event"",""trial"",""time""
""focus"",""0"",""18511""
""focus"",""3"",""54400""
""focus"",""3"",""55677""
","""event"",""trial"",""time""
""fullscreenenter"",""0"",""18619""
","
","null","<p></p>","null","","","","","","","",""
"","image","130","166582","0.0-130.0","""event"",""trial"",""time""
""blur"",""0"",""17301""
""focus"",""0"",""18511""
""fullscreenenter"",""0"",""18619""
""blur"",""2"",""35034""
""focus"",""3"",""54400""
""blur"",""3"",""55485""
""focus"",""3"",""55677""
","""event"",""trial"",""time""
""blur"",""0"",""17301""
""blur"",""2"",""35034""
""blur"",""3"",""55485""
","""event"",""trial"",""time""
""focus"",""0"",""18511""
""focus"",""3"",""54400""
""focus"",""3"",""55677""
","""event"",""trial"",""time""
""fullscreenenter"",""0"",""18619""
","
","1398.199999988079","run_exp/static/images/Set 6_rs/062a.jpg","86","","","","","","learn","SL",""
"","show_choice","131","167188","0.0-131.0","""event"",""trial"",""time""
""blur"",""0"",""17301""
""focus"",""0"",""18511""
""fullscreenenter"",""0"",""18619""
""blur"",""2"",""35034""
""focus"",""3"",""54400""
""blur"",""3"",""55485""
""focus"",""3"",""55677""
","""event"",""trial"",""time""
""blur"",""0"",""17301""
""blur"",""2"",""35034""
""blur"",""3"",""55485""
","""event"",""trial"",""time""
""focus"",""0"",""18511""
""focus"",""3"",""54400""
""focus"",""3"",""55677""
","""event"",""trial"",""time""
""fullscreenenter"",""0"",""18619""
","
","null","run_exp/static/images/Set 6_rs/062a.jpg","null","","","","","","learn","SL",""
"","html-keyboard-response","132","167698","0.0-132.0","""event"",""trial"",""time""
""blur"",""0"",""17301""
""focus"",""0"",""18511""
""fullscreenenter"",""0"",""18619""
""blur"",""2"",""35034""
""focus"",""3"",""54400""
""blur"",""3"",""55485""
""focus"",""3"",""55677""
","""event"",""trial"",""time""
""blur"",""0"",""17301""
""blur"",""2"",""35034""
""blur"",""3"",""55485""
","""event"",""trial"",""time""
""focus"",""0"",""18511""
""focus"",""3"",""54400""
""focus"",""3"",""55677""
","""event"",""trial"",""time""
""fullscreenenter"",""0"",""18619""
","
","null","<p></p>","null","","","","","","","",""
"","image","133","169711","0.0-133.0","""event"",""trial"",""time""
""blur"",""0"",""17301""
""focus"",""0"",""18511""
""fullscreenenter"",""0"",""18619""
""blur"",""2"",""35034""
""focus"",""3"",""54400""
""blur"",""3"",""55485""
""focus"",""3"",""55677""
","""event"",""trial"",""time""
""blur"",""0"",""17301""
""blur"",""2"",""35034""
""blur"",""3"",""55485""
","""event"",""trial"",""time""
""focus"",""0"",""18511""
""focus"",""3"",""54400""
""focus"",""3"",""55677""
","""event"",""trial"",""time""
""fullscreenenter"",""0"",""18619""
","
","null","run_exp/static/images/Set 6_rs/073a.jpg","null","","","","","","learn","SL",""
"","show_choice","134","171727","0.0-134.0","""event"",""trial"",""time""
""blur"",""0"",""17301""
""focus"",""0"",""18511""
""fullscreenenter"",""0"",""18619""
""blur"",""2"",""35034""
""focus"",""3"",""54400""
""blur"",""3"",""55485""
""focus"",""3"",""55677""
","""event"",""trial"",""time""
""blur"",""0"",""17301""
""blur"",""2"",""35034""
""blur"",""3"",""55485""
","""event"",""trial"",""time""
""focus"",""0"",""18511""
""focus"",""3"",""54400""
""focus"",""3"",""55677""
","""event"",""trial"",""time""
""fullscreenenter"",""0"",""18619""
","
","null","run_exp/static/images/blank.png","null","","","","","","learn","SL",""
"","html-keyboard-response","135","172239","0.0-135.0","""event"",""trial"",""time""
""blur"",""0"",""17301""
""focus"",""0"",""18511""
""fullscreenenter"",""0"",""18619""
""blur"",""2"",""35034""
""focus"",""3"",""54400""
""blur"",""3"",""55485""
""focus"",""3"",""55677""
","""event"",""trial"",""time""
""blur"",""0"",""17301""
""blur"",""2"",""35034""
""blur"",""3"",""55485""
","""event"",""trial"",""time""
""focus"",""0"",""18511""
""focus"",""3"",""54400""
""focus"",""3"",""55677""
","""event"",""trial"",""time""
""fullscreenenter"",""0"",""18619""
","
","null","<p></p>","null","","","","","","","",""
"","image","136","172846","0.0-136.0","""event"",""trial"",""time""
""blur"",""0"",""17301""
""focus"",""0"",""18511""
""fullscreenenter"",""0"",""18619""
""blur"",""2"",""35034""
""focus"",""3"",""54400""
""blur"",""3"",""55485""
""focus"",""3"",""55677""
","""event"",""trial"",""time""
""blur"",""0"",""17301""
""blur"",""2"",""35034""
""blur"",""3"",""55485""
","""event"",""trial"",""time""
""focus"",""0"",""18511""
""focus"",""3"",""54400""
""focus"",""3"",""55677""
","""event"",""trial"",""time""
""fullscreenenter"",""0"",""18619""
","
","605.9000000357628","run_exp/static/images/Set 6_rs/024a.jpg","86","","","","","","learn","SR",""
"","show_choice","137","174243","0.0-137.0","""event"",""trial"",""time""
""blur"",""0"",""17301""
""focus"",""0"",""18511""
""fullscreenenter"",""0"",""18619""
""blur"",""2"",""35034""
""focus"",""3"",""54400""
""blur"",""3"",""55485""
""focus"",""3"",""55677""
","""event"",""trial"",""time""
""blur"",""0"",""17301""
""blur"",""2"",""35034""
""blur"",""3"",""55485""
","""event"",""trial"",""time""
""focus"",""0"",""18511""
""focus"",""3"",""54400""
""focus"",""3"",""55677""
","""event"",""trial"",""time""
""fullscreenenter"",""0"",""18619""
","
","null","run_exp/static/images/Set 6_rs/024a.jpg","null","","","","","","learn","SR",""
"","html-keyboard-response","138","174755","0.0-138.0","""event"",""trial"",""time""
""blur"",""0"",""17301""
""focus"",""0"",""18511""
""fullscreenenter"",""0"",""18619""
""blur"",""2"",""35034""
""focus"",""3"",""54400""
""blur"",""3"",""55485""
""focus"",""3"",""55677""
","""event"",""trial"",""time""
""blur"",""0"",""17301""
""blur"",""2"",""35034""
""blur"",""3"",""55485""
","""event"",""trial"",""time""
""focus"",""0"",""18511""
""focus"",""3"",""54400""
""focus"",""3"",""55677""
","""event"",""trial"",""time""
""fullscreenenter"",""0"",""18619""
","
","null","<p></p>","null","","","","","","","",""
"","image","139","176006","0.0-139.0","""event"",""trial"",""time""
""blur"",""0"",""17301""
""focus"",""0"",""18511""
""fullscreenenter"",""0"",""18619""
""blur"",""2"",""35034""
""focus"",""3"",""54400""
""blur"",""3"",""55485""
""focus"",""3"",""55677""
","""event"",""trial"",""time""
""blur"",""0"",""17301""
""blur"",""2"",""35034""
""blur"",""3"",""55485""
","""event"",""trial"",""time""
""focus"",""0"",""18511""
""focus"",""3"",""54400""
""focus"",""3"",""55677""
","""event"",""trial"",""time""
""fullscreenenter"",""0"",""18619""
","
","1250.4000000357628","run_exp/static/images/Set 6_rs/134a.jpg","86","","","","","","learn","SR",""
"","show_choice","140","176764","0.0-140.0","""event"",""trial"",""time""
""blur"",""0"",""17301""
""focus"",""0"",""18511""
""fullscreenenter"",""0"",""18619""
""blur"",""2"",""35034""
""focus"",""3"",""54400""
""blur"",""3"",""55485""
""focus"",""3"",""55677""
","""event"",""trial"",""time""
""blur"",""0"",""17301""
""blur"",""2"",""35034""
""blur"",""3"",""55485""
","""event"",""trial"",""time""
""focus"",""0"",""18511""
""focus"",""3"",""54400""
""focus"",""3"",""55677""
","""event"",""trial"",""time""
""fullscreenenter"",""0"",""18619""
","
","null","run_exp/static/images/Set 6_rs/134a.jpg","null","","","","","","learn","SR",""
"","html-keyboard-response","141","177272","0.0-141.0","""event"",""trial"",""time""
""blur"",""0"",""17301""
""focus"",""0"",""18511""
""fullscreenenter"",""0"",""18619""
""blur"",""2"",""35034""
""focus"",""3"",""54400""
""blur"",""3"",""55485""
""focus"",""3"",""55677""
","""event"",""trial"",""time""
""blur"",""0"",""17301""
""blur"",""2"",""35034""
""blur"",""3"",""55485""
","""event"",""trial"",""time""
""focus"",""0"",""18511""
""focus"",""3"",""54400""
""focus"",""3"",""55677""
","""event"",""trial"",""time""
""fullscreenenter"",""0"",""18619""
","
","null","<p></p>","null","","","","","","","",""
"","image","142","178654","0.0-142.0","""event"",""trial"",""time""
""blur"",""0"",""17301""
""focus"",""0"",""18511""
""fullscreenenter"",""0"",""18619""
""blur"",""2"",""35034""
""focus"",""3"",""54400""
""blur"",""3"",""55485""
""focus"",""3"",""55677""
","""event"",""trial"",""time""
""blur"",""0"",""17301""
""blur"",""2"",""35034""
""blur"",""3"",""55485""
","""event"",""trial"",""time""
""focus"",""0"",""18511""
""focus"",""3"",""54400""
""focus"",""3"",""55677""
","""event"",""trial"",""time""
""fullscreenenter"",""0"",""18619""
","
","1380.800000011921","run_exp/static/images/Set 6_rs/169a.jpg","86","","","","","","learn","SR",""
"","show_choice","143","179285","0.0-143.0","""event"",""trial"",""time""
""blur"",""0"",""17301""
""focus"",""0"",""18511""
""fullscreenenter"",""0"",""18619""
""blur"",""2"",""35034""
""focus"",""3"",""54400""
""blur"",""3"",""55485""
""focus"",""3"",""55677""
","""event"",""trial"",""time""
""blur"",""0"",""17301""
""blur"",""2"",""35034""
""blur"",""3"",""55485""
","""event"",""trial"",""time""
""focus"",""0"",""18511""
""focus"",""3"",""54400""
""focus"",""3"",""55677""
","""event"",""trial"",""time""
""fullscreenenter"",""0"",""18619""
","
","null","run_exp/static/images/Set 6_rs/169a.jpg","null","","","","","","learn","SR",""
"","html-keyboard-response","144","179795","0.0-144.0","""event"",""trial"",""time""
""blur"",""0"",""17301""
""focus"",""0"",""18511""
""fullscreenenter"",""0"",""18619""
""blur"",""2"",""35034""
""focus"",""3"",""54400""
""blur"",""3"",""55485""
""focus"",""3"",""55677""
","""event"",""trial"",""time""
""blur"",""0"",""17301""
""blur"",""2"",""35034""
""blur"",""3"",""55485""
","""event"",""trial"",""time""
""focus"",""0"",""18511""
""focus"",""3"",""54400""
""focus"",""3"",""55677""
","""event"",""trial"",""time""
""fullscreenenter"",""0"",""18619""
","
","null","<p></p>","null","","","","","","","",""
"","image","145","181796","0.0-145.0","""event"",""trial"",""time""
""blur"",""0"",""17301""
""focus"",""0"",""18511""
""fullscreenenter"",""0"",""18619""
""blur"",""2"",""35034""
""focus"",""3"",""54400""
""blur"",""3"",""55485""
""focus"",""3"",""55677""
","""event"",""trial"",""time""
""blur"",""0"",""17301""
""blur"",""2"",""35034""
""blur"",""3"",""55485""
","""event"",""trial"",""time""
""focus"",""0"",""18511""
""focus"",""3"",""54400""
""focus"",""3"",""55677""
","""event"",""trial"",""time""
""fullscreenenter"",""0"",""18619""
","
","null","run_exp/static/images/Set 6_rs/141a.jpg","null","","","","","","learn","SR",""
"","show_choice","146","183810","0.0-146.0","""event"",""trial"",""time""
""blur"",""0"",""17301""
""focus"",""0"",""18511""
""fullscreenenter"",""0"",""18619""
""blur"",""2"",""35034""
""focus"",""3"",""54400""
""blur"",""3"",""55485""
""focus"",""3"",""55677""
","""event"",""trial"",""time""
""blur"",""0"",""17301""
""blur"",""2"",""35034""
""blur"",""3"",""55485""
","""event"",""trial"",""time""
""focus"",""0"",""18511""
""focus"",""3"",""54400""
""focus"",""3"",""55677""
","""event"",""trial"",""time""
""fullscreenenter"",""0"",""18619""
","
","null","run_exp/static/images/blank.png","null","","","","","","learn","SR",""
"","html-keyboard-response","147","184318","0.0-147.0","""event"",""trial"",""time""
""blur"",""0"",""17301""
""focus"",""0"",""18511""
""fullscreenenter"",""0"",""18619""
""blur"",""2"",""35034""
""focus"",""3"",""54400""
""blur"",""3"",""55485""
""focus"",""3"",""55677""
","""event"",""trial"",""time""
""blur"",""0"",""17301""
""blur"",""2"",""35034""
""blur"",""3"",""55485""
","""event"",""trial"",""time""
""focus"",""0"",""18511""
""focus"",""3"",""54400""
""focus"",""3"",""55677""
","""event"",""trial"",""time""
""fullscreenenter"",""0"",""18619""
","
","null","<p></p>","null","","","","","","","",""
"","image","148","186070","0.0-148.0","""event"",""trial"",""time""
""blur"",""0"",""17301""
""focus"",""0"",""18511""
""fullscreenenter"",""0"",""18619""
""blur"",""2"",""35034""
""focus"",""3"",""54400""
""blur"",""3"",""55485""
""focus"",""3"",""55677""
","""event"",""trial"",""time""
""blur"",""0"",""17301""
""blur"",""2"",""35034""
""blur"",""3"",""55485""
","""event"",""trial"",""time""
""focus"",""0"",""18511""
""focus"",""3"",""54400""
""focus"",""3"",""55677""
","""event"",""trial"",""time""
""fullscreenenter"",""0"",""18619""
","
","1751.0999999642372","run_exp/static/images/Set 6_rs/191a.jpg","86","","","","","","learn","SL",""
"","show_choice","149","186322","0.0-149.0","""event"",""trial"",""time""
""blur"",""0"",""17301""
""focus"",""0"",""18511""
""fullscreenenter"",""0"",""18619""
""blur"",""2"",""35034""
""focus"",""3"",""54400""
""blur"",""3"",""55485""
""focus"",""3"",""55677""
","""event"",""trial"",""time""
""blur"",""0"",""17301""
""blur"",""2"",""35034""
""blur"",""3"",""55485""
","""event"",""trial"",""time""
""focus"",""0"",""18511""
""focus"",""3"",""54400""
""focus"",""3"",""55677""
","""event"",""trial"",""time""
""fullscreenenter"",""0"",""18619""
","
","null","run_exp/static/images/Set 6_rs/191a.jpg","null","","","","","","learn","SL",""
"","html-keyboard-response","150","186833","0.0-150.0","""event"",""trial"",""time""
""blur"",""0"",""17301""
""focus"",""0"",""18511""
""fullscreenenter"",""0"",""18619""
""blur"",""2"",""35034""
""focus"",""3"",""54400""
""blur"",""3"",""55485""
""focus"",""3"",""55677""
","""event"",""trial"",""time""
""blur"",""0"",""17301""
""blur"",""2"",""35034""
""blur"",""3"",""55485""
","""event"",""trial"",""time""
""focus"",""0"",""18511""
""focus"",""3"",""54400""
""focus"",""3"",""55677""
","""event"",""trial"",""time""
""fullscreenenter"",""0"",""18619""
","
","null","<p></p>","null","","","","","","","",""
"","image","151","188310","0.0-151.0","""event"",""trial"",""time""
""blur"",""0"",""17301""
""focus"",""0"",""18511""
""fullscreenenter"",""0"",""18619""
""blur"",""2"",""35034""
""focus"",""3"",""54400""
""blur"",""3"",""55485""
""focus"",""3"",""55677""
","""event"",""trial"",""time""
""blur"",""0"",""17301""
""blur"",""2"",""35034""
""blur"",""3"",""55485""
","""event"",""trial"",""time""
""focus"",""0"",""18511""
""focus"",""3"",""54400""
""focus"",""3"",""55677""
","""event"",""trial"",""time""
""fullscreenenter"",""0"",""18619""
","
","1476","run_exp/static/images/Set 6_rs/075a.jpg","86","","","","","","learn","SR",""
