"success","trial_type","trial_index","time_elapsed","internal_node_id","interactions","blur_events","focus_events","fullscreenenter_events","fullscreenexit_events","rt","stimulus","key_press","subject_id","participant_id","age","gender","prompt","phase","condition","lure_bin"
"true","fullscreen","0","2181","0.0-0.0","""event"",""trial"",""time""
""fullscreenenter"",""0"",""1195""
","
","
","""event"",""trial"",""time""
""fullscreenenter"",""0"",""1195""
","
","","","","","","","","","","",""
"","pavlovia","1","2193","0.0-1.0","""event"",""trial"",""time""
""fullscreenenter"",""0"",""1195""
","
","
","""event"",""trial"",""time""
""fullscreenenter"",""0"",""1195""
","
","","","","","","","","","","",""
"","welcome","2","37135","0.0-2.0","""event"",""trial"",""time""
""fullscreenenter"",""0"",""1195""
","
","
","""event"",""trial"",""time""
""fullscreenenter"",""0"",""1195""
","
","null","run_exp/static/audio/clip_1_welcome.m4a","null","595","928","15","Male","<div class='center'><p>Welcome to the third part of the study! First, you'll be shown pictures of items one at a time. For each picture, you have to decide if the item is typically found indoors or outdoors.</p><p>If you think it's usually found indoors, then press <b>v</b> key on your keyboard. If you think it's usually found outdoors, then press the <b>n</b> key.There will be reminders on the screen to help you remember which keys to press. </p><p>If you're not sure whether the item is an indoor item or an outdoor item, go ahead and take a guess but try your best not to skip that choice. </p></div>","","",""
"","html-keyboard-response","3","37851","0.0-3.0","""event"",""trial"",""time""
""fullscreenenter"",""0"",""1195""
","
","
","""event"",""trial"",""time""
""fullscreenenter"",""0"",""1195""
","
","705.1999999999534","<div class='center'><p>Welcome to the third part of the study! First, you'll be shown pictures of items one at a time. For each picture, you have to decide if the item is typically found indoors or outdoors.</p><p>If you think it's usually found indoors, then press <b>v</b> key on your keyboard. If you think it's usually found outdoors, then press the <b>n</b> key.There will be reminders on the screen to help you remember which keys to press. </p><p>If you're not sure whether the item is an indoor item or an outdoor item, go ahead and take a guess but try your best not to skip that choice. </p><div><p><b>[Press the space bar to continue]</b></p></div>","32","","","","","","","",""
"","image","4","39442","0.0-4.0","""event"",""trial"",""time""
""fullscreenenter"",""0"",""1195""
","
","
","""event"",""trial"",""time""
""fullscreenenter"",""0"",""1195""
","
","1585.8000000000466","run_exp/static/images/Set 6_rs/181a.jpg","78","","","","","","learn","SL",""
"","show_choice","5","39861","0.0-5.0","""event"",""trial"",""time""
""fullscreenenter"",""0"",""1195""
","
","
","""event"",""trial"",""time""
""fullscreenenter"",""0"",""1195""
","
","null","run_exp/static/images/Set 6_rs/181a.jpg","null","","","","","","learn","SL",""
"","html-keyboard-response","6","40366","0.0-6.0","""event"",""trial"",""time""
""fullscreenenter"",""0"",""1195""
","
","
","""event"",""trial"",""time""
""fullscreenenter"",""0"",""1195""
","
","null","<p></p>","null","","","","","","","",""
"","image","7","41473","0.0-7.0","""event"",""trial"",""time""
""fullscreenenter"",""0"",""1195""
","
","
","""event"",""trial"",""time""
""fullscreenenter"",""0"",""1195""
","
","1102","run_exp/static/images/Set 6_rs/169a.jpg","78","","","","","","learn","SR",""
"","show_choice","8","42376","0.0-8.0","""event"",""trial"",""time""
""fullscreenenter"",""0"",""1195""
","
","
","""event"",""trial"",""time""
""fullscreenenter"",""0"",""1195""
","
","null","run_exp/static/images/Set 6_rs/169a.jpg","null","","","","","","learn","SR",""
"","html-keyboard-response","9","42886","0.0-9.0","""event"",""trial"",""time""
""fullscreenenter"",""0"",""1195""
","
","
","""event"",""trial"",""time""
""fullscreenenter"",""0"",""1195""
","
","null","<p></p>","null","","","","","","","",""
"","image","10","44818","0.0-10.0","""event"",""trial"",""time""
""fullscreenenter"",""0"",""1195""
","
","
","""event"",""trial"",""time""
""fullscreenenter"",""0"",""1195""
","
","1924.8000000000466","run_exp/static/images/Set 6_rs/191a.jpg","78","","","","","","learn","SL",""
"","show_choice","11","44897","0.0-11.0","""event"",""trial"",""time""
""fullscreenenter"",""0"",""1195""
","
","
","""event"",""trial"",""time""
""fullscreenenter"",""0"",""1195""
","
","null","run_exp/static/images/Set 6_rs/191a.jpg","null","","","","","","learn","SL",""
"","html-keyboard-response","12","45399","0.0-12.0","""event"",""trial"",""time""
""fullscreenenter"",""0"",""1195""
","
","
","""event"",""trial"",""time""
""fullscreenenter"",""0"",""1195""
","
","null","<p></p>","null","","","","","","","",""
"","image","13","47413","0.0-13.0","""event"",""trial"",""time""
""fullscreenenter"",""0"",""1195""
","
","
","""event"",""trial"",""time""
""fullscreenenter"",""0"",""1195""
","
","null","run_exp/static/images/Set 6_rs/186a.jpg","null","","","","","","learn","SR",""
"","show_choice","14","49417","0.0-14.0","""event"",""trial"",""time""
""fullscreenenter"",""0"",""1195""
","
","
","""event"",""trial"",""time""
""fullscreenenter"",""0"",""1195""
","
","null","run_exp/static/images/blank.png","null","","","","","","learn","SR",""
"","html-keyboard-response","15","49921","0.0-15.0","""event"",""trial"",""time""
""fullscreenenter"",""0"",""1195""
","
","
","""event"",""trial"",""time""
""fullscreenenter"",""0"",""1195""
","
","null","<p></p>","null","","","","","","","",""
"","image","16","51028","0.0-16.0","""event"",""trial"",""time""
""fullscreenenter"",""0"",""1195""
","
","
","""event"",""trial"",""time""
""fullscreenenter"",""0"",""1195""
","
","1100.7000000000698","run_exp/static/images/Set 6_rs/073a.jpg","86","","","","","","learn","SL",""
"","show_choice","17","51930","0.0-17.0","""event"",""trial"",""time""
""fullscreenenter"",""0"",""1195""
","
","
","""event"",""trial"",""time""
""fullscreenenter"",""0"",""1195""
","
","null","run_exp/static/images/Set 6_rs/073a.jpg","null","","","","","","learn","SL",""
"","html-keyboard-response","18","52431","0.0-18.0","""event"",""trial"",""time""
""fullscreenenter"",""0"",""1195""
","
","
","""event"",""trial"",""time""
""fullscreenenter"",""0"",""1195""
","
","null","<p></p>","null","","","","","","","",""
"","image","19","53851","0.0-19.0","""event"",""trial"",""time""
""fullscreenenter"",""0"",""1195""
","
","
","""event"",""trial"",""time""
""fullscreenenter"",""0"",""1195""
","
","1416","run_exp/static/images/Set 6_rs/066a.jpg","86","","","","","","learn","SL",""
"","show_choice","20","54439","0.0-20.0","""event"",""trial"",""time""
""fullscreenenter"",""0"",""1195""
","
","
","""event"",""trial"",""time""
""fullscreenenter"",""0"",""1195""
","
","null","run_exp/static/images/Set 6_rs/066a.jpg","null","","","","","","learn","SL",""
"","html-keyboard-response","21","54943","0.0-21.0","""event"",""trial"",""time""
""fullscreenenter"",""0"",""1195""
","
","
","""event"",""trial"",""time""
""fullscreenenter"",""0"",""1195""
","
","null","<p></p>","null","","","","","","","",""
"","image","22","56045","0.0-22.0","""event"",""trial"",""time""
""fullscreenenter"",""0"",""1195""
","
","
","""event"",""trial"",""time""
""fullscreenenter"",""0"",""1195""
","
","1095.8000000000466","run_exp/static/images/Set 6_rs/121a.jpg","86","","","","","","learn","SR",""
"","show_choice","23","56955","0.0-23.0","""event"",""trial"",""time""
""fullscreenenter"",""0"",""1195""
","
","
","""event"",""trial"",""time""
""fullscreenenter"",""0"",""1195""
","
","null","run_exp/static/images/Set 6_rs/121a.jpg","null","","","","","","learn","SR",""
"","html-keyboard-response","24","57459","0.0-24.0","""event"",""trial"",""time""
""fullscreenenter"",""0"",""1195""
","
","
","""event"",""trial"",""time""
""fullscreenenter"",""0"",""1195""
","
","null","<p></p>","null","","","","","","","",""
"","image","25","59041","0.0-25.0","""event"",""trial"",""time""
""fullscreenenter"",""0"",""1195""
","
","
","""event"",""trial"",""time""
""fullscreenenter"",""0"",""1195""
","
","1578.4000000000233","run_exp/static/images/Set 6_rs/131a.jpg","86","","","","","","learn","SR",""
"","show_choice","26","59465","0.0-26.0","""event"",""trial"",""time""
""fullscreenenter"",""0"",""1195""
","
","
","""event"",""trial"",""time""
""fullscreenenter"",""0"",""1195""
","
","null","run_exp/static/images/Set 6_rs/131a.jpg","null","","","","","","learn","SR",""
"","html-keyboard-response","27","59968","0.0-27.0","""event"",""trial"",""time""
""fullscreenenter"",""0"",""1195""
","
","
","""event"",""trial"",""time""
""fullscreenenter"",""0"",""1195""
","
","null","<p></p>","null","","","","","","","",""
"","image","28","60947","0.0-28.0","""event"",""trial"",""time""
""fullscreenenter"",""0"",""1195""
","
","
","""event"",""trial"",""time""
""fullscreenenter"",""0"",""1195""
","
","974.7000000000698","run_exp/static/images/Set 6_rs/178a.jpg","78","","","","","","learn","SR",""
"","show_choice","29","61977","0.0-29.0","""event"",""trial"",""time""
""fullscreenenter"",""0"",""1195""
","
","
","""event"",""trial"",""time""
""fullscreenenter"",""0"",""1195""
","
","null","run_exp/static/images/Set 6_rs/178a.jpg","null","","","","","","learn","SR",""
"","html-keyboard-response","30","62478","0.0-30.0","""event"",""trial"",""time""
""fullscreenenter"",""0"",""1195""
","
","
","""event"",""trial"",""time""
""fullscreenenter"",""0"",""1195""
","
","null","<p></p>","null","","","","","","","",""
"","image","31","63340","0.0-31.0","""event"",""trial"",""time""
""fullscreenenter"",""0"",""1195""
","
","
","""event"",""trial"",""time""
""fullscreenenter"",""0"",""1195""
","
","857.6999999999534","run_exp/static/images/Set 6_rs/050a.jpg","86","","","","","","learn","SL",""
"","show_choice","32","64487","0.0-32.0","""event"",""trial"",""time""
""fullscreenenter"",""0"",""1195""
","
","
","""event"",""trial"",""time""
""fullscreenenter"",""0"",""1195""
","
","null","run_exp/static/images/Set 6_rs/050a.jpg","null","","","","","","learn","SL",""
"","html-keyboard-response","33","64992","0.0-33.0","""event"",""trial"",""time""
""fullscreenenter"",""0"",""1195""
","
","
","""event"",""trial"",""time""
""fullscreenenter"",""0"",""1195""
","
","null","<p></p>","null","","","","","","","",""
"","image","34","65962","0.0-34.0","""event"",""trial"",""time""
""fullscreenenter"",""0"",""1195""
","
","
","""event"",""trial"",""time""
""fullscreenenter"",""0"",""1195""
","
","963.7999999999302","run_exp/static/images/Set 6_rs/172a.jpg","78","","","","","","learn","SR",""
"","show_choice","35","67003","0.0-35.0","""event"",""trial"",""time""
""fullscreenenter"",""0"",""1195""
","
","
","""event"",""trial"",""time""
""fullscreenenter"",""0"",""1195""
","
","null","run_exp/static/images/Set 6_rs/172a.jpg","null","","","","","","learn","SR",""
"","html-keyboard-response","36","67506","0.0-36.0","""event"",""trial"",""time""
""fullscreenenter"",""0"",""1195""
","
","
","""event"",""trial"",""time""
""fullscreenenter"",""0"",""1195""
","
","null","<p></p>","null","","","","","","","",""
"","image","37","68288","0.0-37.0","""event"",""trial"",""time""
""fullscreenenter"",""0"",""1195""
","
","
","""event"",""trial"",""time""
""fullscreenenter"",""0"",""1195""
","
","776.2999999999302","run_exp/static/images/Set 6_rs/014a.jpg","86","","","","","","learn","SL",""
"","show_choice","38","69517","0.0-38.0","""event"",""trial"",""time""
""fullscreenenter"",""0"",""1195""
","
","
","""event"",""trial"",""time""
""fullscreenenter"",""0"",""1195""
","
","null","run_exp/static/images/Set 6_rs/014a.jpg","null","","","","","","learn","SL",""
"","html-keyboard-response","39","70022","0.0-39.0","""event"",""trial"",""time""
""fullscreenenter"",""0"",""1195""
","
","
","""event"",""trial"",""time""
""fullscreenenter"",""0"",""1195""
","
","null","<p></p>","null","","","","","","","",""
"","image","40","70962","0.0-40.0","""event"",""trial"",""time""
""fullscreenenter"",""0"",""1195""
","
","
","""event"",""trial"",""time""
""fullscreenenter"",""0"",""1195""
","
","932.8000000000466","run_exp/static/images/Set 6_rs/138a.jpg","78","","","","","","learn","SL",""
"","show_choice","41","72035","0.0-41.0","""event"",""trial"",""time""
""fullscreenenter"",""0"",""1195""
","
","
","""event"",""trial"",""time""
""fullscreenenter"",""0"",""1195""
","
","null","run_exp/static/images/Set 6_rs/138a.jpg","null","","","","","","learn","SL",""
"","html-keyboard-response","42","72539","0.0-42.0","""event"",""trial"",""time""
""fullscreenenter"",""0"",""1195""
","
","
","""event"",""trial"",""time""
""fullscreenenter"",""0"",""1195""
","
","null","<p></p>","null","","","","","","","",""
"","image","43","73752","0.0-43.0","""event"",""trial"",""time""
""fullscreenenter"",""0"",""1195""
","
","
","""event"",""trial"",""time""
""fullscreenenter"",""0"",""1195""
","
","1209","run_exp/static/images/Set 6_rs/024a.jpg","86","","","","","","learn","SR",""
"","show_choice","44","74547","0.0-44.0","""event"",""trial"",""time""
""fullscreenenter"",""0"",""1195""
","
","
","""event"",""trial"",""time""
""fullscreenenter"",""0"",""1195""
","
","null","run_exp/static/images/Set 6_rs/024a.jpg","null","","","","","","learn","SR",""
"","html-keyboard-response","45","75051","0.0-45.0","""event"",""trial"",""time""
""fullscreenenter"",""0"",""1195""
","
","
","""event"",""trial"",""time""
""fullscreenenter"",""0"",""1195""
","
","null","<p></p>","null","","","","","","","",""
"","image","46","75964","0.0-46.0","""event"",""trial"",""time""
""fullscreenenter"",""0"",""1195""
","
","
","""event"",""trial"",""time""
""fullscreenenter"",""0"",""1195""
","
","906.9000000000233","run_exp/static/images/Set 6_rs/123a.jpg","78","","","","","","learn","SL",""
"","show_choice","47","77064","0.0-47.0","""event"",""trial"",""time""
""fullscreenenter"",""0"",""1195""
","
","
","""event"",""trial"",""time""
""fullscreenenter"",""0"",""1195""
","
","null","run_exp/static/images/Set 6_rs/123a.jpg","null","","","","","","learn","SL",""
"","html-keyboard-response","48","77567","0.0-48.0","""event"",""trial"",""time""
""fullscreenenter"",""0"",""1195""
","
","
","""event"",""trial"",""time""
""fullscreenenter"",""0"",""1195""
","
","null","<p></p>","null","","","","","","","",""
"","image","49","78443","0.0-49.0","""event"",""trial"",""time""
""fullscreenenter"",""0"",""1195""
","
","
","""event"",""trial"",""time""
""fullscreenenter"",""0"",""1195""
","
","872.6999999999534","run_exp/static/images/Set 6_rs/063a.jpg","86","","","","","","learn","SR",""
"","show_choice","50","79574","0.0-50.0","""event"",""trial"",""time""
""fullscreenenter"",""0"",""1195""
","
","
","""event"",""trial"",""time""
""fullscreenenter"",""0"",""1195""
","
","null","run_exp/static/images/Set 6_rs/063a.jpg","null","","","","","","learn","SR",""
"","html-keyboard-response","51","80078","0.0-51.0","""event"",""trial"",""time""
""fullscreenenter"",""0"",""1195""
","
","
","""event"",""trial"",""time""
""fullscreenenter"",""0"",""1195""
","
","null","<p></p>","null","","","","","","","",""
"","image","52","81000","0.0-52.0","""event"",""trial"",""time""
""fullscreenenter"",""0"",""1195""
","
","
","""event"",""trial"",""time""
""fullscreenenter"",""0"",""1195""
","
","916.1999999999534","run_exp/static/images/Set 6_rs/079a.jpg","86","","","","","","learn","SL",""
"","show_choice","53","82088","0.0-53.0","""event"",""trial"",""time""
""fullscreenenter"",""0"",""1195""
","
","
","""event"",""trial"",""time""
""fullscreenenter"",""0"",""1195""
","
","null","run_exp/static/images/Set 6_rs/079a.jpg","null","","","","","","learn","SL",""
"","html-keyboard-response","54","82592","0.0-54.0","""event"",""trial"",""time""
""fullscreenenter"",""0"",""1195""
","
","
","""event"",""trial"",""time""
""fullscreenenter"",""0"",""1195""
","
","null","<p></p>","null","","","","","","","",""
"","image","55","83455","0.0-55.0","""event"",""trial"",""time""
""fullscreenenter"",""0"",""1195""
","
","
","""event"",""trial"",""time""
""fullscreenenter"",""0"",""1195""
","
","855.8000000000466","run_exp/static/images/Set 6_rs/025a.jpg","78","","","","","","learn","SL",""
"","show_choice","56","84603","0.0-56.0","""event"",""trial"",""time""
""fullscreenenter"",""0"",""1195""
","
","
","""event"",""trial"",""time""
""fullscreenenter"",""0"",""1195""
","
","null","run_exp/static/images/Set 6_rs/025a.jpg","null","","","","","","learn","SL",""
"","html-keyboard-response","57","85108","0.0-57.0","""event"",""trial"",""time""
""fullscreenenter"",""0"",""1195""
","
","
","""event"",""trial"",""time""
""fullscreenenter"",""0"",""1195""
","
","null","<p></p>","null","","","","","","","",""
"","image","58","86313","0.0-58.0","""event"",""trial"",""time""
""fullscreenenter"",""0"",""1195""
","
","
","""event"",""trial"",""time""
""fullscreenenter"",""0"",""1195""
","
","1200.4000000000233","run_exp/static/images/Set 6_rs/166a.jpg","78","","","","","","learn","SR",""
"","show_choice","59","87116","0.0-59.0","""event"",""trial"",""time""
""fullscreenenter"",""0"",""1195""
","
","
","""event"",""trial"",""time""
""fullscreenenter"",""0"",""1195""
","
","null","run_exp/static/images/Set 6_rs/166a.jpg","null","","","","","","learn","SR",""
"","html-keyboard-response","60","87619","0.0-60.0","""event"",""trial"",""time""
""fullscreenenter"",""0"",""1195""
","
","
","""event"",""trial"",""time""
""fullscreenenter"",""0"",""1195""
","
","null","<p></p>","null","","","","","","","",""
"","image","61","88398","0.0-61.0","""event"",""trial"",""time""
""fullscreenenter"",""0"",""1195""
","
","
","""event"",""trial"",""time""
""fullscreenenter"",""0"",""1195""
","
","771.7000000000698","run_exp/static/images/Set 6_rs/095a.jpg","86","","","","","","learn","SL",""
"","show_choice","62","89628","0.0-62.0","""event"",""trial"",""time""
""fullscreenenter"",""0"",""1195""
","
","
","""event"",""trial"",""time""
""fullscreenenter"",""0"",""1195""
","
","null","run_exp/static/images/Set 6_rs/095a.jpg","null","","","","","","learn","SL",""
"","html-keyboard-response","63","90138","0.0-63.0","""event"",""trial"",""time""
""fullscreenenter"",""0"",""1195""
","
","
","""event"",""trial"",""time""
""fullscreenenter"",""0"",""1195""
","
","null","<p></p>","null","","","","","","","",""
"","image","64","91728","0.0-64.0","""event"",""trial"",""time""
""fullscreenenter"",""0"",""1195""
","
","
","""event"",""trial"",""time""
""fullscreenenter"",""0"",""1195""
","
","1584.7999999999302","run_exp/static/images/Set 6_rs/023a.jpg","86","","","","","","learn","SR",""
"","show_choice","65","92148","0.0-65.0","""event"",""trial"",""time""
""fullscreenenter"",""0"",""1195""
","
","
","""event"",""trial"",""time""
""fullscreenenter"",""0"",""1195""
","
","null","run_exp/static/images/Set 6_rs/023a.jpg","null","","","","","","learn","SR",""
"","html-keyboard-response","66","92651","0.0-66.0","""event"",""trial"",""time""
""fullscreenenter"",""0"",""1195""
","
","
","""event"",""trial"",""time""
""fullscreenenter"",""0"",""1195""
","
","null","<p></p>","null","","","","","","","",""
"","image","67","93393","0.0-67.0","""event"",""trial"",""time""
""fullscreenenter"",""0"",""1195""
","
","
","""event"",""trial"",""time""
""fullscreenenter"",""0"",""1195""
","
","739.3999999999069","run_exp/static/images/Set 6_rs/036a.jpg","78","","","","","","learn","SL",""
"","show_choice","68","94655","0.0-68.0","""event"",""trial"",""time""
""fullscreenenter"",""0"",""1195""
","
","
","""event"",""trial"",""time""
""fullscreenenter"",""0"",""1195""
","
","null","run_exp/static/images/Set 6_rs/036a.jpg","null","","","","","","learn","SL",""
"","html-keyboard-response","69","95158","0.0-69.0","""event"",""trial"",""time""
""fullscreenenter"",""0"",""1195""
","
","
","""event"",""trial"",""time""
""fullscreenenter"",""0"",""1195""
","
","null","<p></p>","null","","","","","","","",""
"","image","70","95939","0.0-70.0","""event"",""trial"",""time""
""fullscreenenter"",""0"",""1195""
","
","
","""event"",""trial"",""time""
""fullscreenenter"",""0"",""1195""
","
","778.8000000000466","run_exp/static/images/Set 6_rs/057a.jpg","86","","","","","","learn","SL",""
"","show_choice","71","97162","0.0-71.0","""event"",""trial"",""time""
""fullscreenenter"",""0"",""1195""
","
","
","""event"",""trial"",""time""
""fullscreenenter"",""0"",""1195""
","
","null","run_exp/static/images/Set 6_rs/057a.jpg","null","","","","","","learn","SL",""
"","html-keyboard-response","72","97664","0.0-72.0","""event"",""trial"",""time""
""fullscreenenter"",""0"",""1195""
","
","
","""event"",""trial"",""time""
""fullscreenenter"",""0"",""1195""
","
","null","<p></p>","null","","","","","","","",""
"","image","73","99005","0.0-73.0","""event"",""trial"",""time""
""fullscreenenter"",""0"",""1195""
","
","
","""event"",""trial"",""time""
""fullscreenenter"",""0"",""1195""
","
","1337.5999999999767","run_exp/static/images/Set 6_rs/071a.jpg","86","","","","","","learn","SL",""
"","show_choice","74","99670","0.0-74.0","""event"",""trial"",""time""
""fullscreenenter"",""0"",""1195""
","
","
","""event"",""trial"",""time""
""fullscreenenter"",""0"",""1195""
","
","null","run_exp/static/images/Set 6_rs/071a.jpg","null","","","","","","learn","SL",""
"","html-keyboard-response","75","100173","0.0-75.0","""event"",""trial"",""time""
""fullscreenenter"",""0"",""1195""
","
","
","""event"",""trial"",""time""
""fullscreenenter"",""0"",""1195""
","
","null","<p></p>","null","","","","","","","",""
"","image","76","101459","0.0-76.0","""event"",""trial"",""time""
""fullscreenenter"",""0"",""1195""
","
","
","""event"",""trial"",""time""
""fullscreenenter"",""0"",""1195""
","
","1283","run_exp/static/images/Set 6_rs/144a.jpg","86","","","","","","learn","SL",""
"","show_choice","77","102178","0.0-77.0","""event"",""trial"",""time""
""fullscreenenter"",""0"",""1195""
","
","
","""event"",""trial"",""time""
""fullscreenenter"",""0"",""1195""
","
","null","run_exp/static/images/Set 6_rs/144a.jpg","null","","","","","","learn","SL",""
"","html-keyboard-response","78","102681","0.0-78.0","""event"",""trial"",""time""
""fullscreenenter"",""0"",""1195""
","
","
","""event"",""trial"",""time""
""fullscreenenter"",""0"",""1195""
","
","null","<p></p>","null","","","","","","","",""
"","image","79","103212","0.0-79.0","""event"",""trial"",""time""
""fullscreenenter"",""0"",""1195""
","
","
","""event"",""trial"",""time""
""fullscreenenter"",""0"",""1195""
","
","528.5","run_exp/static/images/Set 6_rs/122a.jpg","86","","","","","","learn","SR",""
"","show_choice","80","104686","0.0-80.0","""event"",""trial"",""time""
""fullscreenenter"",""0"",""1195""
","
","
","""event"",""trial"",""time""
""fullscreenenter"",""0"",""1195""
","
","null","run_exp/static/images/Set 6_rs/122a.jpg","null","","","","","","learn","SR",""
"","html-keyboard-response","81","105188","0.0-81.0","""event"",""trial"",""time""
""fullscreenenter"",""0"",""1195""
","
","
","""event"",""trial"",""time""
""fullscreenenter"",""0"",""1195""
","
","null","<p></p>","null","","","","","","","",""
"","image","82","106346","0.0-82.0","""event"",""trial"",""time""
""fullscreenenter"",""0"",""1195""
","
","
","""event"",""trial"",""time""
""fullscreenenter"",""0"",""1195""
","
","1154.9000000000233","run_exp/static/images/Set 6_rs/141a.jpg","86","","","","","","learn","SR",""
"","show_choice","83","107193","0.0-83.0","""event"",""trial"",""time""
""fullscreenenter"",""0"",""1195""
","
","
","""event"",""trial"",""time""
""fullscreenenter"",""0"",""1195""
","
","null","run_exp/static/images/Set 6_rs/141a.jpg","null","","","","","","learn","SR",""
"","html-keyboard-response","84","107695","0.0-84.0","""event"",""trial"",""time""
""fullscreenenter"",""0"",""1195""
","
","
","""event"",""trial"",""time""
""fullscreenenter"",""0"",""1195""
","
","null","<p></p>","null","","","","","","","",""
"","image","85","108718","0.0-85.0","""event"",""trial"",""time""
""fullscreenenter"",""0"",""1195""
","
","
","""event"",""trial"",""time""
""fullscreenenter"",""0"",""1195""
","
","1020.4000000000233","run_exp/static/images/Set 6_rs/177a.jpg","78","","","","","","learn","SR",""
"","show_choice","86","109701","0.0-86.0","""event"",""trial"",""time""
""fullscreenenter"",""0"",""1195""
","
","
","""event"",""trial"",""time""
""fullscreenenter"",""0"",""1195""
","
","null","run_exp/static/images/Set 6_rs/177a.jpg","null","","","","","","learn","SR",""
"","html-keyboard-response","87","110203","0.0-87.0","""event"",""trial"",""time""
""fullscreenenter"",""0"",""1195""
","
","
","""event"",""trial"",""time""
""fullscreenenter"",""0"",""1195""
","
","null","<p></p>","null","","","","","","","",""
"","image","88","112130","0.0-88.0","""event"",""trial"",""time""
""fullscreenenter"",""0"",""1195""
","
","
","""event"",""trial"",""time""
""fullscreenenter"",""0"",""1195""
","
","1923.9000000000233","run_exp/static/images/Set 6_rs/006a.jpg","86","","","","","","learn","SL",""
"","show_choice","89","112209","0.0-89.0","""event"",""trial"",""time""
""fullscreenenter"",""0"",""1195""
","
","
","""event"",""trial"",""time""
""fullscreenenter"",""0"",""1195""
","
","null","run_exp/static/images/Set 6_rs/006a.jpg","null","","","","","","learn","SL",""
"","html-keyboard-response","90","112711","0.0-90.0","""event"",""trial"",""time""
""fullscreenenter"",""0"",""1195""
","
","
","""event"",""trial"",""time""
""fullscreenenter"",""0"",""1195""
","
","null","<p></p>","null","","","","","","","",""
"","image","91","113664","0.0-91.0","""event"",""trial"",""time""
""fullscreenenter"",""0"",""1195""
","
","
","""event"",""trial"",""time""
""fullscreenenter"",""0"",""1195""
","
","949.1999999999534","run_exp/static/images/Set 6_rs/112a.jpg","86","","","","","","learn","SR",""
"","show_choice","92","114718","0.0-92.0","""event"",""trial"",""time""
""fullscreenenter"",""0"",""1195""
","
","
","""event"",""trial"",""time""
""fullscreenenter"",""0"",""1195""
","
","null","run_exp/static/images/Set 6_rs/112a.jpg","null","","","","","","learn","SR",""
"","html-keyboard-response","93","115219","0.0-93.0","""event"",""trial"",""time""
""fullscreenenter"",""0"",""1195""
","
","
","""event"",""trial"",""time""
""fullscreenenter"",""0"",""1195""
","
","null","<p></p>","null","","","","","","","",""
"","image","94","116464","0.0-94.0","""event"",""trial"",""time""
""fullscreenenter"",""0"",""1195""
","
","
","""event"",""trial"",""time""
""fullscreenenter"",""0"",""1195""
","
","1241.0999999999767","run_exp/static/images/Set 6_rs/132a.jpg","78","","","","","","learn","SR",""
"","show_choice","95","117225","0.0-95.0","""event"",""trial"",""time""
""fullscreenenter"",""0"",""1195""
","
","
","""event"",""trial"",""time""
""fullscreenenter"",""0"",""1195""
","
","null","run_exp/static/images/Set 6_rs/132a.jpg","null","","","","","","learn","SR",""
"","html-keyboard-response","96","117727","0.0-96.0","""event"",""trial"",""time""
""fullscreenenter"",""0"",""1195""
","
","
","""event"",""trial"",""time""
""fullscreenenter"",""0"",""1195""
","
","null","<p></p>","null","","","","","","","",""
"","image","97","118548","0.0-97.0","""event"",""trial"",""time""
""fullscreenenter"",""0"",""1195""
","
","
","""event"",""trial"",""time""
""fullscreenenter"",""0"",""1195""
","
","817.5","run_exp/static/images/Set 6_rs/167a.jpg","86","","","","","","learn","SL",""
"","show_choice","98","119733","0.0-98.0","""event"",""trial"",""time""
""fullscreenenter"",""0"",""1195""
","
","
","""event"",""trial"",""time""
""fullscreenenter"",""0"",""1195""
","
","null","run_exp/static/images/Set 6_rs/167a.jpg","null","","","","","","learn","SL",""
"","html-keyboard-response","99","120235","0.0-99.0","""event"",""trial"",""time""
""fullscreenenter"",""0"",""1195""
","
","
","""event"",""trial"",""time""
""fullscreenenter"",""0"",""1195""
","
","null","<p></p>","null","","","","","","","",""
"","image","100","121212","0.0-100.0","""event"",""trial"",""time""
""fullscreenenter"",""0"",""1195""
","
","
","""event"",""trial"",""time""
""fullscreenenter"",""0"",""1195""
","
","973.9000000000233","run_exp/static/images/Set 6_rs/150a.jpg","86","","","","","","learn","SR",""
"","show_choice","101","122240","0.0-101.0","""event"",""trial"",""time""
""fullscreenenter"",""0"",""1195""
","
","
","""event"",""trial"",""time""
""fullscreenenter"",""0"",""1195""
","
","null","run_exp/static/images/Set 6_rs/150a.jpg","null","","","","","","learn","SR",""
"","html-keyboard-response","102","122743","0.0-102.0","""event"",""trial"",""time""
""fullscreenenter"",""0"",""1195""
","
","
","""event"",""trial"",""time""
""fullscreenenter"",""0"",""1195""
","
","null","<p></p>","null","","","","","","","",""
"","image","103","123786","0.0-103.0","""event"",""trial"",""time""
""fullscreenenter"",""0"",""1195""
","
","
","""event"",""trial"",""time""
""fullscreenenter"",""0"",""1195""
","
","1041.3999999999069","run_exp/static/images/Set 6_rs/019a.jpg","86","","","","","","learn","SL",""
"","show_choice","104","124747","0.0-104.0","""event"",""trial"",""time""
""fullscreenenter"",""0"",""1195""
","
","
","""event"",""trial"",""time""
""fullscreenenter"",""0"",""1195""
","
","null","run_exp/static/images/Set 6_rs/019a.jpg","null","","","","","","learn","SL",""
"","html-keyboard-response","105","125249","0.0-105.0","""event"",""trial"",""time""
""fullscreenenter"",""0"",""1195""
","
","
","""event"",""trial"",""time""
""fullscreenenter"",""0"",""1195""
","
","null","<p></p>","null","","","","","","","",""
"","image","106","126024","0.0-106.0","""event"",""trial"",""time""
""fullscreenenter"",""0"",""1195""
","
","
","""event"",""trial"",""time""
""fullscreenenter"",""0"",""1195""
","
","772.0999999999767","run_exp/static/images/Set 6_rs/111a.jpg","78","","","","","","learn","SL",""
"","show_choice","107","127254","0.0-107.0","""event"",""trial"",""time""
""fullscreenenter"",""0"",""1195""
","
","
","""event"",""trial"",""time""
""fullscreenenter"",""0"",""1195""
","
","null","run_exp/static/images/Set 6_rs/111a.jpg","null","","","","","","learn","SL",""
"","html-keyboard-response","108","127756","0.0-108.0","""event"",""trial"",""time""
""fullscreenenter"",""0"",""1195""
","
","
","""event"",""trial"",""time""
""fullscreenenter"",""0"",""1195""
","
","null","<p></p>","null","","","","","","","",""
"","image","109","128714","0.0-109.0","""event"",""trial"",""time""
""fullscreenenter"",""0"",""1195""
","
","
","""event"",""trial"",""time""
""fullscreenenter"",""0"",""1195""
","
","954.2999999999302","run_exp/static/images/Set 6_rs/010a.jpg","86","","","","","","learn","SR",""
"","show_choice","110","129761","0.0-110.0","""event"",""trial"",""time""
""fullscreenenter"",""0"",""1195""
","
","
","""event"",""trial"",""time""
""fullscreenenter"",""0"",""1195""
","
","null","run_exp/static/images/Set 6_rs/010a.jpg","null","","","","","","learn","SR",""
"","html-keyboard-response","111","130263","0.0-111.0","""event"",""trial"",""time""
""fullscreenenter"",""0"",""1195""
","
","
","""event"",""trial"",""time""
""fullscreenenter"",""0"",""1195""
","
","null","<p></p>","null","","","","","","","",""
"","image","112","131233","0.0-112.0","""event"",""trial"",""time""
""fullscreenenter"",""0"",""1195""
","
","
","""event"",""trial"",""time""
""fullscreenenter"",""0"",""1195""
","
","961.8000000000466","run_exp/static/images/Set 6_rs/008a.jpg","78","","","","","","learn","SL",""
"","show_choice","113","132274","0.0-113.0","""event"",""trial"",""time""
""fullscreenenter"",""0"",""1195""
","
","
","""event"",""trial"",""time""
""fullscreenenter"",""0"",""1195""
","
","null","run_exp/static/images/Set 6_rs/008a.jpg","null","","","","","","learn","SL",""
"","html-keyboard-response","114","132775","0.0-114.0","""event"",""trial"",""time""
""fullscreenenter"",""0"",""1195""
","
","
","""event"",""trial"",""time""
""fullscreenenter"",""0"",""1195""
","
","null","<p></p>","null","","","","","","","",""
"","image","115","133738","0.0-115.0","""event"",""trial"",""time""
""fullscreenenter"",""0"",""1195""
","
","
","""event"",""trial"",""time""
""fullscreenenter"",""0"",""1195""
","
","960.3000000000466","run_exp/static/images/Set 6_rs/088a.jpg","86","","","","","","learn","SR",""
"","show_choice","116","134779","0.0-116.0","""event"",""trial"",""time""
""fullscreenenter"",""0"",""1195""
","
","
","""event"",""trial"",""time""
""fullscreenenter"",""0"",""1195""
","
","null","run_exp/static/images/Set 6_rs/088a.jpg","null","","","","","","learn","SR",""
"","html-keyboard-response","117","135281","0.0-117.0","""event"",""trial"",""time""
""fullscreenenter"",""0"",""1195""
","
","
","""event"",""trial"",""time""
""fullscreenenter"",""0"",""1195""
","
","null","<p></p>","null","","","","","","","",""
"","image","118","136293","0.0-118.0","""event"",""trial"",""time""
""fullscreenenter"",""0"",""1195""
","
","
","""event"",""trial"",""time""
""fullscreenenter"",""0"",""1195""
","
","1009.5999999999767","run_exp/static/images/Set 6_rs/075a.jpg","78","","","","","","learn","SR",""
"","show_choice","119","137286","0.0-119.0","""event"",""trial"",""time""
""fullscreenenter"",""0"",""1195""
","
","
","""event"",""trial"",""time""
""fullscreenenter"",""0"",""1195""
","
","null","run_exp/static/images/Set 6_rs/075a.jpg","null","","","","","","learn","SR",""
"","html-keyboard-response","120","137787","0.0-120.0","""event"",""trial"",""time""
""fullscreenenter"",""0"",""1195""
","
","
","""event"",""trial"",""time""
""fullscreenenter"",""0"",""1195""
","
","null","<p></p>","null","","","","","","","",""
"","image","121","138542","0.0-121.0","""event"",""trial"",""time""
""fullscreenenter"",""0"",""1195""
","
","
","""event"",""trial"",""time""
""fullscreenenter"",""0"",""1195""
","
","751.5","run_exp/static/images/Set 6_rs/061a.jpg","86","","","","","","learn","SR",""
"","show_choice","122","139793","0.0-122.0","""event"",""trial"",""time""
""fullscreenenter"",""0"",""1195""
","
","
","""event"",""trial"",""time""
""fullscreenenter"",""0"",""1195""
","
","null","run_exp/static/images/Set 6_rs/061a.jpg","null","","","","","","learn","SR",""
"","html-keyboard-response","123","140295","0.0-123.0","""event"",""trial"",""time""
""fullscreenenter"",""0"",""1195""
","
","
","""event"",""trial"",""time""
""fullscreenenter"",""0"",""1195""
","
","null","<p></p>","null","","","","","","","",""
"","image","124","141131","0.0-124.0","""event"",""trial"",""time""
""fullscreenenter"",""0"",""1195""
","
","
","""event"",""trial"",""time""
""fullscreenenter"",""0"",""1195""
","
","832.6999999999534","run_exp/static/images/Set 6_rs/116a.jpg","78","","","","","","learn","SL",""
"","show_choice","125","142301","0.0-125.0","""event"",""trial"",""time""
""fullscreenenter"",""0"",""1195""
","
","
","""event"",""trial"",""time""
""fullscreenenter"",""0"",""1195""
","
","null","run_exp/static/images/Set 6_rs/116a.jpg","null","","","","","","learn","SL",""
"","html-keyboard-response","126","142802","0.0-126.0","""event"",""trial"",""time""
""fullscreenenter"",""0"",""1195""
","
","
","""event"",""trial"",""time""
""fullscreenenter"",""0"",""1195""
","
","null","<p></p>","null","","","","","","","",""
"","image","127","144029","0.0-127.0","""event"",""trial"",""time""
""fullscreenenter"",""0"",""1195""
","
","
","""event"",""trial"",""time""
""fullscreenenter"",""0"",""1195""
","
","1223.5999999999767","run_exp/static/images/Set 6_rs/154a.jpg","86","","","","","","learn","SR",""
"","show_choice","128","144808","0.0-128.0","""event"",""trial"",""time""
""fullscreenenter"",""0"",""1195""
","
","
","""event"",""trial"",""time""
""fullscreenenter"",""0"",""1195""
","
","null","run_exp/static/images/Set 6_rs/154a.jpg","null","","","","","","learn","SR",""
"","html-keyboard-response","129","145310","0.0-129.0","""event"",""trial"",""time""
""fullscreenenter"",""0"",""1195""
","
","
","""event"",""trial"",""time""
""fullscreenenter"",""0"",""1195""
","
","null","<p></p>","null","","","","","","","",""
"","image","130","146047","0.0-130.0","""event"",""trial"",""time""
""fullscreenenter"",""0"",""1195""
","
","
","""event"",""trial"",""time""
""fullscreenenter"",""0"",""1195""
","
","734.0999999999767","run_exp/static/images/Set 6_rs/055a.jpg","86","","","","","","learn","SL",""
"","show_choice","131","147315","0.0-131.0","""event"",""trial"",""time""
""fullscreenenter"",""0"",""1195""
","
","
","""event"",""trial"",""time""
""fullscreenenter"",""0"",""1195""
","
","null","run_exp/static/images/Set 6_rs/055a.jpg","null","","","","","","learn","SL",""
"","html-keyboard-response","132","147818","0.0-132.0","""event"",""trial"",""time""
""fullscreenenter"",""0"",""1195""
","
","
","""event"",""trial"",""time""
""fullscreenenter"",""0"",""1195""
","
","null","<p></p>","null","","","","","","","",""
"","image","133","148689","0.0-133.0","""event"",""trial"",""time""
""fullscreenenter"",""0"",""1195""
","
","
","""event"",""trial"",""time""
""fullscreenenter"",""0"",""1195""
","
","868.0999999999767","run_exp/static/images/Set 6_rs/074a.jpg","78","","","","","","learn","SL",""
"","show_choice","134","149823","0.0-134.0","""event"",""trial"",""time""
""fullscreenenter"",""0"",""1195""
","
","
","""event"",""trial"",""time""
""fullscreenenter"",""0"",""1195""
","
","null","run_exp/static/images/Set 6_rs/074a.jpg","null","","","","","","learn","SL",""
"","html-keyboard-response","135","150325","0.0-135.0","""event"",""trial"",""time""
""fullscreenenter"",""0"",""1195""
","
","
","""event"",""trial"",""time""
""fullscreenenter"",""0"",""1195""
","
","null","<p></p>","null","","","","","","","",""
"","image","136","151572","0.0-136.0","""event"",""trial"",""time""
""fullscreenenter"",""0"",""1195""
","
","
","""event"",""trial"",""time""
""fullscreenenter"",""0"",""1195""
","
","1245.4000000000233","run_exp/static/images/Set 6_rs/187a.jpg","86","","","","","","learn","SR",""
"","show_choice","137","152330","0.0-137.0","""event"",""trial"",""time""
""fullscreenenter"",""0"",""1195""
","
","
","""event"",""trial"",""time""
""fullscreenenter"",""0"",""1195""
","
","null","run_exp/static/images/Set 6_rs/187a.jpg","null","","","","","","learn","SR",""
"","html-keyboard-response","138","152833","0.0-138.0","""event"",""trial"",""time""
""fullscreenenter"",""0"",""1195""
","
","
","""event"",""trial"",""time""
""fullscreenenter"",""0"",""1195""
","
","null","<p></p>","null","","","","","","","",""
"","image","139","154322","0.0-139.0","""event"",""trial"",""time""
""fullscreenenter"",""0"",""1195""
","
","
","""event"",""trial"",""time""
""fullscreenenter"",""0"",""1195""
","
","1485.7999999999302","run_exp/static/images/Set 6_rs/089a.jpg","86","","","","","","learn","SL",""
"","show_choice","140","154840","0.0-140.0","""event"",""trial"",""time""
""fullscreenenter"",""0"",""1195""
","
","
","""event"",""trial"",""time""
""fullscreenenter"",""0"",""1195""
","
","null","run_exp/static/images/Set 6_rs/089a.jpg","null","","","","","","learn","SL",""
"","html-keyboard-response","141","155343","0.0-141.0","""event"",""trial"",""time""
""fullscreenenter"",""0"",""1195""
","
","
","""event"",""trial"",""time""
""fullscreenenter"",""0"",""1195""
","
","null","<p></p>","null","","","","","","","",""
"","image","142","156096","0.0-142.0","""event"",""trial"",""time""
""fullscreenenter"",""0"",""1195""
","
","
","""event"",""trial"",""time""
""fullscreenenter"",""0"",""1195""
","
","748.9000000000233","run_exp/static/images/Set 6_rs/134a.jpg","86","","","","","","learn","SR",""
"","show_choice","143","157350","0.0-143.0","""event"",""trial"",""time""
""fullscreenenter"",""0"",""1195""
","
","
","""event"",""trial"",""time""
""fullscreenenter"",""0"",""1195""
","
","null","run_exp/static/images/Set 6_rs/134a.jpg","null","","","","","","learn","SR",""
"","html-keyboard-response","144","157854","0.0-144.0","""event"",""trial"",""time""
""fullscreenenter"",""0"",""1195""
","
","
","""event"",""trial"",""time""
""fullscreenenter"",""0"",""1195""
","
","null","<p></p>","null","","","","","","","",""
"","image","145","158862","0.0-145.0","""event"",""trial"",""time""
""fullscreenenter"",""0"",""1195""
","
","
","""event"",""trial"",""time""
""fullscreenenter"",""0"",""1195""
","
","999","run_exp/static/images/Set 6_rs/076a.jpg","78","","","","","","learn","SR",""
"","show_choice","146","159867","0.0-146.0","""event"",""trial"",""time""
""fullscreenenter"",""0"",""1195""
","
","
","""event"",""trial"",""time""
""fullscreenenter"",""0"",""1195""
","
","null","run_exp/static/images/Set 6_rs/076a.jpg","null","","","","","","learn","SR",""
"","html-keyboard-response","147","160369","0.0-147.0","""event"",""trial"",""time""
""fullscreenenter"",""0"",""1195""
","
","
","""event"",""trial"",""time""
""fullscreenenter"",""0"",""1195""
","
","null","<p></p>","null","","","","","","","",""
"","image","148","161335","0.0-148.0","""event"",""trial"",""time""
""fullscreenenter"",""0"",""1195""
","
","
","""event"",""trial"",""time""
""fullscreenenter"",""0"",""1195""
","
","962.8000000000466","run_exp/static/images/Set 6_rs/091a.jpg","86","","","","","","learn","SL",""
"","show_choice","149","162375","0.0-149.0","""event"",""trial"",""time""
""fullscreenenter"",""0"",""1195""
","
","
","""event"",""trial"",""time""
""fullscreenenter"",""0"",""1195""
","
","null","run_exp/static/images/Set 6_rs/091a.jpg","null","","","","","","learn","SL",""
"","html-keyboard-response","150","162876","0.0-150.0","""event"",""trial"",""time""
""fullscreenenter"",""0"",""1195""
","
","
","""event"",""trial"",""time""
""fullscreenenter"",""0"",""1195""
","
","null","<p></p>","null","","","","","","","",""
"","image","151","163480","0.0-151.0","""event"",""trial"",""time""
""fullscreenenter"",""0"",""1195""
","
","
","""event"",""trial"",""time""
""fullscreenenter"",""0"",""1195""
","
","600.5999999999767","run_exp/static/images/Set 6_rs/129a.jpg","86","","","","","","learn","SL",""
"","show_choice","152","164881","0.0-152.0","""event"",""trial"",""time""
""fullscreenenter"",""0"",""1195""
","
","
","""event"",""trial"",""time""
""fullscreenenter"",""0"",""1195""
","
","null","run_exp/static/images/Set 6_rs/129a.jpg","null","","","","","","learn","SL",""
"","html-keyboard-response","153","165383","0.0-153.0","""event"",""trial"",""time""
""fullscreenenter"",""0"",""1195""
","
","
","""event"",""trial"",""time""
""fullscreenenter"",""0"",""1195""
","
","null","<p></p>","null","","","","","","","",""
"","image","154","166129","0.0-154.0","""event"",""trial"",""time""
""fullscreenenter"",""0"",""1195""
","
","
","""event"",""trial"",""time""
""fullscreenenter"",""0"",""1195""
","
","742.5","run_exp/static/images/Set 6_rs/152a.jpg","78","","","","","","learn","SR",""
"","show_choice","155","167388","0.0-155.0","""event"",""trial"",""time""
""fullscreenenter"",""0"",""1195""
","
","
","""event"",""trial"",""time""
""fullscreenenter"",""0"",""1195""
","
","null","run_exp/static/images/Set 6_rs/152a.jpg","null","","","","","","learn","SR",""
"","html-keyboard-response","156","167891","0.0-156.0","""event"",""trial"",""time""
""fullscreenenter"",""0"",""1195""
","
","
","""event"",""trial"",""time""
""fullscreenenter"",""0"",""1195""
","
","null","<p></p>","null","","","","","","","",""
"","image","157","168908","0.0-157.0","""event"",""trial"",""time""
""fullscreenenter"",""0"",""1195""
","
","
","""event"",""trial"",""time""
""fullscreenenter"",""0"",""1195""
","
","1014.8000000000466","run_exp/static/images/Set 6_rs/117a.jpg","86","","","","","","learn","SL",""
"","show_choice","158","169896","0.0-158.0","""event"",""trial"",""time""
""fullscreenenter"",""0"",""1195""
","
","
","""event"",""trial"",""time""
""fullscreenenter"",""0"",""1195""
","
","null","run_exp/static/images/Set 6_rs/117a.jpg","null","","","","","","learn","SL",""
"","html-keyboard-response","159","170399","0.0-159.0","""event"",""trial"",""time""
""fullscreenenter"",""0"",""1195""
","
","
","""event"",""trial"",""time""
""fullscreenenter"",""0"",""1195""
","
","null","<p></p>","null","","","","","","","",""
"","image","160","171908","0.0-160.0","""event"",""trial"",""time""
""fullscreenenter"",""0"",""1195""
","
","
","""event"",""trial"",""time""
""fullscreenenter"",""0"",""1195""
","
","1506.5","run_exp/static/images/Set 6_rs/126a.jpg","78","","","","","","learn","SR",""
"","show_choice","161","172404","0.0-161.0","""event"",""trial"",""time""
""fullscreenenter"",""0"",""1195""
","
","
","""event"",""trial"",""time""
""fullscreenenter"",""0"",""1195""
","
","null","run_exp/static/images/Set 6_rs/126a.jpg","null","","","","","","learn","SR",""
"","html-keyboard-response","162","172906","0.0-162.0","""event"",""trial"",""time""
""fullscreenenter"",""0"",""1195""
","
","
","""event"",""trial"",""time""
""fullscreenenter"",""0"",""1195""
","
","null","<p></p>","null","","","","","","","",""
"","image","163","174295","0.0-163.0","""event"",""trial"",""time""
""fullscreenenter"",""0"",""1195""
","
","
","""event"",""trial"",""time""
""fullscreenenter"",""0"",""1195""
","
","1383.6999999999534","run_exp/static/images/Set 6_rs/012a.jpg","86","","","","","","learn","SR",""
"","show_choice","164","174915","0.0-164.0","""event"",""trial"",""time""
""fullscreenenter"",""0"",""1195""
","
","
","""event"",""trial"",""time""
""fullscreenenter"",""0"",""1195""
","
","null","run_exp/static/images/Set 6_rs/012a.jpg","null","","","","","","learn","SR",""
"","html-keyboard-response","165","175418","0.0-165.0","""event"",""trial"",""time""
""fullscreenenter"",""0"",""1195""
","
","
","""event"",""trial"",""time""
""fullscreenenter"",""0"",""1195""
","
","null","<p></p>","null","","","","","","","",""
"","image","166","177063","0.0-166.0","""event"",""trial"",""time""
""fullscreenenter"",""0"",""1195""
","
","
","""event"",""trial"",""time""
""fullscreenenter"",""0"",""1195""
","
","1640.9000000000233","run_exp/static/images/Set 6_rs/045a.jpg","86","","","","","","learn","SR",""
"","show_choice","167","177428","0.0-167.0","""event"",""trial"",""time""
""fullscreenenter"",""0"",""1195""
","
","
","""event"",""trial"",""time""
""fullscreenenter"",""0"",""1195""
","
","null","run_exp/static/images/Set 6_rs/045a.jpg","null","","","","","","learn","SR",""
"","html-keyboard-response","168","177930","0.0-168.0","""event"",""trial"",""time""
""fullscreenenter"",""0"",""1195""
","
","
","""event"",""trial"",""time""
""fullscreenenter"",""0"",""1195""
","
","null","<p></p>","null","","","","","","","",""
"","image","169","179247","0.0-169.0","""event"",""trial"",""time""
""fullscreenenter"",""0"",""1195""
","
","
","""event"",""trial"",""time""
""fullscreenenter"",""0"",""1195""
","
","1313.3999999999069","run_exp/static/images/Set 6_rs/085a.jpg","86","","","","","","learn","SL",""
"","show_choice","170","179935","0.0-170.0","""event"",""trial"",""time""
""fullscreenenter"",""0"",""1195""
","
","
","""event"",""trial"",""time""
""fullscreenenter"",""0"",""1195""
","
","null","run_exp/static/images/Set 6_rs/085a.jpg","null","","","","","","learn","SL",""
"","html-keyboard-response","171","180438","0.0-171.0","""event"",""trial"",""time""
""fullscreenenter"",""0"",""1195""
","
","
","""event"",""trial"",""time""
""fullscreenenter"",""0"",""1195""
","
","null","<p></p>","null","","","","","","","",""
"","image","172","181288","0.0-172.0","""event"",""trial"",""time""
""fullscreenenter"",""0"",""1195""
","
","
","""event"",""trial"",""time""
""fullscreenenter"",""0"",""1195""
","
","848.0999999999767","run_exp/static/images/Set 6_rs/168a.jpg","86","","","","","","learn","SL",""
"","show_choice","173","182443","0.0-173.0","""event"",""trial"",""time""
""fullscreenenter"",""0"",""1195""
","
","
","""event"",""trial"",""time""
""fullscreenenter"",""0"",""1195""
","
","null","run_exp/static/images/Set 6_rs/168a.jpg","null","","","","","","learn","SL",""
"","html-keyboard-response","174","182945","0.0-174.0","""event"",""trial"",""time""
""fullscreenenter"",""0"",""1195""
","
","
","""event"",""trial"",""time""
""fullscreenenter"",""0"",""1195""
","
","null","<p></p>","null","","","","","","","",""
"","image","175","183649","0.0-175.0","""event"",""trial"",""time""
""fullscreenenter"",""0"",""1195""
","
","
","""event"",""trial"",""time""
""fullscreenenter"",""0"",""1195""
","
","701","run_exp/static/images/Set 6_rs/007a.jpg","86","","","","","","learn","SR",""
"","show_choice","176","184951","0.0-176.0","""event"",""trial"",""time""
""fullscreenenter"",""0"",""1195""
","
","
","""event"",""trial"",""time""
""fullscreenenter"",""0"",""1195""
","
","null","run_exp/static/images/Set 6_rs/007a.jpg","null","","","","","","learn","SR",""
"","html-keyboard-response","177","185454","0.0-177.0","""event"",""trial"",""time""
""fullscreenenter"",""0"",""1195""
","
","
","""event"",""trial"",""time""
""fullscreenenter"",""0"",""1195""
","
","null","<p></p>","null","","","","","","","",""
"","image","178","187371","0.0-178.0","""event"",""trial"",""time""
""fullscreenenter"",""0"",""1195""
","
","
","""event"",""trial"",""time""
""fullscreenenter"",""0"",""1195""
","
","1914.6999999999534","run_exp/static/images/Set 6_rs/108a.jpg","86","","","","","","learn","SR",""
"","show_choice","179","187458","0.0-179.0","""event"",""trial"",""time""
""fullscreenenter"",""0"",""1195""
","
","
","""event"",""trial"",""time""
""fullscreenenter"",""0"",""1195""
","
","null","run_exp/static/images/Set 6_rs/108a.jpg","null","","","","","","learn","SR",""
"","html-keyboard-response","180","187960","0.0-180.0","""event"",""trial"",""time""
""fullscreenenter"",""0"",""1195""
","
","
","""event"",""trial"",""time""
""fullscreenenter"",""0"",""1195""
","
","null","<p></p>","null","","","","","","","",""
"","image","181","188897","0.0-181.0","""event"",""trial"",""time""
""fullscreenenter"",""0"",""1195""
","
","
","""event"",""trial"",""time""
""fullscreenenter"",""0"",""1195""
","
","931.7000000000698","run_exp/static/images/Set 6_rs/070a.jpg","86","","","","","","learn","SR",""
"","show_choice","182","189968","0.0-182.0","""event"",""trial"",""time""
""fullscreenenter"",""0"",""1195""
","
","
","""event"",""trial"",""time""
""fullscreenenter"",""0"",""1195""
","
","null","run_exp/static/images/Set 6_rs/070a.jpg","null","","","","","","learn","SR",""
"","html-keyboard-response","183","190471","0.0-183.0","""event"",""trial"",""time""
""fullscreenenter"",""0"",""1195""
","
","
","""event"",""trial"",""time""
""fullscreenenter"",""0"",""1195""
","
","null","<p></p>","null","","","","","","","",""
"","image","184","191143","0.0-184.0","""event"",""trial"",""time""
""fullscreenenter"",""0"",""1195""
","
","
","""event"",""trial"",""time""
""fullscreenenter"",""0"",""1195""
","
","665.8999999999069","run_exp/static/images/Set 6_rs/016a.jpg","86","","","","","","learn","SL",""
"","show_choice","185","192479","0.0-185.0","""event"",""trial"",""time""
""fullscreenenter"",""0"",""1195""
","
","
","""event"",""trial"",""time""
""fullscreenenter"",""0"",""1195""
","
","null","run_exp/static/images/Set 6_rs/016a.jpg","null","","","","","","learn","SL",""
"","html-keyboard-response","186","192981","0.0-186.0","""event"",""trial"",""time""
""fullscreenenter"",""0"",""1195""
","
","
","""event"",""trial"",""time""
""fullscreenenter"",""0"",""1195""
","
","null","<p></p>","null","","","","","","","",""
"","image","187","193648","0.0-187.0","""event"",""trial"",""time""
""fullscreenenter"",""0"",""1195""
","
","
","""event"",""trial"",""time""
""fullscreenenter"",""0"",""1195""
","
","664.0999999999767","run_exp/static/images/Set 6_rs/062a.jpg","86","","","","","","learn","SL",""
"","show_choice","188","194986","0.0-188.0","""event"",""trial"",""time""
""fullscreenenter"",""0"",""1195""
","
","
","""event"",""trial"",""time""
""fullscreenenter"",""0"",""1195""
","
","null","run_exp/static/images/Set 6_rs/062a.jpg","null","","","","","","learn","SL",""
"","html-keyboard-response","189","195488","0.0-189.0","""event"",""trial"",""time""
""fullscreenenter"",""0"",""1195""
","
","
","""event"",""trial"",""time""
""fullscreenenter"",""0"",""1195""
","
","null","<p></p>","null","","","","","","","",""
"","image","190","196245","0.0-190.0","""event"",""trial"",""time""
""fullscreenenter"",""0"",""1195""
","
","
","""event"",""trial"",""time""
""fullscreenenter"",""0"",""1195""
","
","753.3000000000466","run_exp/static/images/Set 6_rs/064a.jpg","78","","","","","","learn","SR",""
"","show_choice","191","197496","0.0-191.0","""event"",""trial"",""time""
""fullscreenenter"",""0"",""1195""
","
","
","""event"",""trial"",""time""
""fullscreenenter"",""0"",""1195""
","
","null","run_exp/static/images/Set 6_rs/064a.jpg","null","","","","","","learn","SR",""
"","html-keyboard-response","192","197998","0.0-192.0","""event"",""trial"",""time""
""fullscreenenter"",""0"",""1195""
","
","
","""event"",""trial"",""time""
""fullscreenenter"",""0"",""1195""
","
","null","<p></p>","null","","","","","","","",""
"","image","193","199166","0.0-193.0","""event"",""trial"",""time""
""fullscreenenter"",""0"",""1195""
","
","
","""event"",""trial"",""time""
""fullscreenenter"",""0"",""1195""
","
","1165","run_exp/static/images/Set 6_rs/017a.jpg","86","","","","","","learn","SL",""
"","show_choice","194","200004","0.0-194.0","""event"",""trial"",""time""
""fullscreenenter"",""0"",""1195""
","
","
","""event"",""trial"",""time""
""fullscreenenter"",""0"",""1195""
","
","null","run_exp/static/images/Set 6_rs/017a.jpg","null","","","","","","learn","SL",""
"","html-keyboard-response","195","200506","0.0-195.0","""event"",""trial"",""time""
""fullscreenenter"",""0"",""1195""
","
","
","""event"",""trial"",""time""
""fullscreenenter"",""0"",""1195""
","
","null","<p></p>","null","","","","","","","",""
"","test_intro","196","237462","0.0-196.0","""event"",""trial"",""time""
""fullscreenenter"",""0"",""1195""
","
","
","""event"",""trial"",""time""
""fullscreenenter"",""0"",""1195""
","
","null","run_exp/static/audio/clip_2_memory.m4a","null","","","","","<div class='center'><p>Now, lets see how much you remember about the items you just saw.  For each item, you need to indicate if it was <b>old</b> by pressing the <b>v</b> key, <b>similar</b> by pressing the <b>b</b> key, or <b>new</b> by pressing the <b>n</b> key.</p><p>Old refers to an item that you saw before in the indoor/outdoor game that you just played, new refers to an item you have <b>not</b> seen before within the indoor/outdoor game, and similar refers to an item that is similar to an item youve seen before but is not exactly the same. </p><p>Before we begin, lets go over some brief demonstrations to make sure you understand.</p></div>","","",""
"","html-keyboard-response","197","238804","0.0-197.0","""event"",""trial"",""time""
""fullscreenenter"",""0"",""1195""
","
","
","""event"",""trial"",""time""
""fullscreenenter"",""0"",""1195""
","
","1339","<div class='center'><p>Now, lets see how much you remember about the items you just saw.  For each item, you need to indicate if it was <b>old</b> by pressing the <b>v</b> key, <b>similar</b> by pressing the <b>b</b> key, or <b>new</b> by pressing the <b>n</b> key.</p><p>Old refers to an item that you saw before in the indoor/outdoor game that you just played, new refers to an item you have <b>not</b> seen before within the indoor/outdoor game, and similar refers to an item that is similar to an item youve seen before but is not exactly the same. </p><p>Before we begin, lets go over some brief demonstrations to make sure you understand.</p><div><p><b>[Press the space bar to continue]</b></p></div>","32","","","","","","","",""
"","items","198","246307","0.0-198.0","""event"",""trial"",""time""
""fullscreenenter"",""0"",""1195""
","
","
","""event"",""trial"",""time""
""fullscreenenter"",""0"",""1195""
","
","null","run_exp/static/audio/clip_3_items.m4a","null","","","","","","","",""
"","mop","199","250818","0.0-199.0","""event"",""trial"",""time""
""fullscreenenter"",""0"",""1195""
","
","
","""event"",""trial"",""time""
""fullscreenenter"",""0"",""1195""
","
","null","run_exp/static/audio/clip_4_mop.m4a","null","","","","","","","",""
"","baseball","200","254322","0.0-200.0","""event"",""trial"",""time""
""fullscreenenter"",""0"",""1195""
","
","
","""event"",""trial"",""time""
""fullscreenenter"",""0"",""1195""
","
","null","run_exp/static/audio/clip_5_baseball.m4a","null","","","","","","","",""
"","trumpet","201","257831","0.0-201.0","""event"",""trial"",""time""
""fullscreenenter"",""0"",""1195""
","
","
","""event"",""trial"",""time""
""fullscreenenter"",""0"",""1195""
","
","null","run_exp/static/audio/clip_6_trumpet.m4a","null","","","","","","","",""
"","gummies","202","261336","0.0-202.0","""event"",""trial"",""time""
""fullscreenenter"",""0"",""1195""
","
","
","""event"",""trial"",""time""
""fullscreenenter"",""0"",""1195""
","
","null","run_exp/static/audio/clip_7_gummies.m4a","null","","","","","","","",""
"","osn","203","265845","0.0-203.0","""event"",""trial"",""time""
""fullscreenenter"",""0"",""1195""
","
","
","""event"",""trial"",""time""
""fullscreenenter"",""0"",""1195""
","
","null","run_exp/static/audio/clip_8_osn.m4a","null","","","","","","","",""
"","old_1","204","272358","0.0-204.0","""event"",""trial"",""time""
""fullscreenenter"",""0"",""1195""
","
","
","""event"",""trial"",""time""
""fullscreenenter"",""0"",""1195""
","
","null","run_exp/static/audio/clip_9_old_trumpet.m4a","null","","","","","","","",""
"","new_1","205","279865","0.0-205.0","""event"",""trial"",""time""
""fullscreenenter"",""0"",""1195""
","
","
","""event"",""trial"",""time""
""fullscreenenter"",""0"",""1195""
","
","null","run_exp/static/audio/clip_10_new_balloon.m4a","null","","","","","","","",""
"","similar_1a","206","284373","0.0-206.0","""event"",""trial"",""time""
""fullscreenenter"",""0"",""1195""
","
","
","""event"",""trial"",""time""
""fullscreenenter"",""0"",""1195""
","
","null","run_exp/static/audio/clip_11a_similar_mop.m4a","null","","","","","","","",""
"","similar_1b","207","290885","0.0-207.0","""event"",""trial"",""time""
""fullscreenenter"",""0"",""1195""
","
","
","""event"",""trial"",""time""
""fullscreenenter"",""0"",""1195""
","
","null","run_exp/static/audio/clip_11b_similar_mop.m4a","null","","","","","","","",""
"","new_2","208","294393","0.0-208.0","""event"",""trial"",""time""
""fullscreenenter"",""0"",""1195""
","
","
","""event"",""trial"",""time""
""fullscreenenter"",""0"",""1195""
","
","null","run_exp/static/audio/clip_12_new_stoplight.m4a","null","","","","","","","",""
"","old_2","209","297901","0.0-209.0","""event"",""trial"",""time""
""fullscreenenter"",""0"",""1195""
","
","
","""event"",""trial"",""time""
""fullscreenenter"",""0"",""1195""
","
","null","run_exp/static/audio/clip_13_old_baseball.m4a","null","","","","","","","",""
"","similar_2a","210","301408","0.0-210.0","""event"",""trial"",""time""
""fullscreenenter"",""0"",""1195""
","
","
","""event"",""trial"",""time""
""fullscreenenter"",""0"",""1195""
","
","null","run_exp/static/audio/clip_14a_similar_gummies.m4a","null","","","","","","","",""
"","similar_2b","211","308917","0.0-211.0","""event"",""trial"",""time""
""fullscreenenter"",""0"",""1195""
","
","
","""event"",""trial"",""time""
""fullscreenenter"",""0"",""1195""
","
","null","run_exp/static/audio/clip_14b_similar_gummies.m4a","null","","","","","","","",""
"","practice","212","351212","0.0-212.0","""event"",""trial"",""time""
""fullscreenenter"",""0"",""1195""
","
","
","""event"",""trial"",""time""
""fullscreenenter"",""0"",""1195""
","
","null","run_exp/static/audio/clip_15_practice.m4a","null","","","","","<div class='center'><p>Lets practice a little to make sure you understand the difference between new, similar, and old. Lets say you saw these three items in the indoor/outdoor game.</p><p> Try your best to remember these images because youll soon be tested on them in a practice game. In the practice game, youll be shown images and youll have to say if they are old (one of the three images belows), similar (similar to one of the images below but not exactly the same), or new (are not one of the images below nor similar to them).</p><p>Once you press the space bar youll be shown these images again but one at time. Then youll begin the practice game.</p><p><img src='run_exp/static/images/tutorial/test/three_indoor_outdoor.png' height='300'></p></div>","","",""
"","html-keyboard-response","213","351638","0.0-213.0","""event"",""trial"",""time""
""fullscreenenter"",""0"",""1195""
","
","
","""event"",""trial"",""time""
""fullscreenenter"",""0"",""1195""
","
","421.5","<div class='center'><p>Lets practice a little to make sure you understand the difference between new, similar, and old. Lets say you saw these three items in the indoor/outdoor game.</p><p> Try your best to remember these images because youll soon be tested on them in a practice game. In the practice game, youll be shown images and youll have to say if they are old (one of the three images belows), similar (similar to one of the images below but not exactly the same), or new (are not one of the images below nor similar to them).</p><p>Once you press the space bar youll be shown these images again but one at time. Then youll begin the practice game.</p><p><img src='run_exp/static/images/tutorial/test/three_indoor_outdoor.png' height='300'></p><div><p><b>[Press the space bar to continue]</b></p></div>","32","","","","","","","",""
"","planet","214","353640","0.0-214.0","""event"",""trial"",""time""
""fullscreenenter"",""0"",""1195""
","
","
","""event"",""trial"",""time""
""fullscreenenter"",""0"",""1195""
","
","null","run_exp/static/images/tutorial/test/008a.jpg","null","","","","","","","",""
"","boot","215","355643","0.0-215.0","""event"",""trial"",""time""
""fullscreenenter"",""0"",""1195""
","
","
","""event"",""trial"",""time""
""fullscreenenter"",""0"",""1195""
","
","null","run_exp/static/images/tutorial/test/011a.jpg","null","","","","","","","",""
"","lemon","216","357646","0.0-216.0","""event"",""trial"",""time""
""fullscreenenter"",""0"",""1195""
","
","
","""event"",""trial"",""time""
""fullscreenenter"",""0"",""1195""
","
","null","run_exp/static/images/tutorial/test/018a.jpg","null","","","","","","","",""
"","practice_q1","217","359533","0.0-217.0","""event"",""trial"",""time""
""fullscreenenter"",""0"",""1195""
","
","
","""event"",""trial"",""time""
""fullscreenenter"",""0"",""1195""
","
","1883.8999999999069","run_exp/static/audio/clip_16_practice_question.m4a","78","","","","","","","",""
"","correct","218","361622","0.0-218.0-0.0","""event"",""trial"",""time""
""fullscreenenter"",""0"",""1195""
","
","
","""event"",""trial"",""time""
""fullscreenenter"",""0"",""1195""
","
","null","run_exp/static/audio/clip_17_correct.m4a","null","","","","","<div class='center'><p>That's correct!</p></div>","","",""
"","html-keyboard-response","219","362807","0.0-218.0-1.0","""event"",""trial"",""time""
""fullscreenenter"",""0"",""1195""
","
","
","""event"",""trial"",""time""
""fullscreenenter"",""0"",""1195""
","
","1181.9000000000233","<div class='center'><p>That's correct!</p><div><p><b>[Press the space bar to continue]</b></p></div>","32","","","","","","","",""
"","practice_q2","220","364199","0.0-218.0-2.0","""event"",""trial"",""time""
""fullscreenenter"",""0"",""1195""
","
","
","""event"",""trial"",""time""
""fullscreenenter"",""0"",""1195""
","
","1388.3000000000466","run_exp/static/audio/clip_16_practice_question.m4a","86","","","","","","","",""
"","correct","221","366316","0.0-219.0-0.0","""event"",""trial"",""time""
""fullscreenenter"",""0"",""1195""
","
","
","""event"",""trial"",""time""
""fullscreenenter"",""0"",""1195""
","
","null","run_exp/static/audio/clip_17_correct.m4a","null","","","","","<div class='center'><p>That's correct!</p></div>","","",""
"","html-keyboard-response","222","366763","0.0-219.0-1.0","""event"",""trial"",""time""
""fullscreenenter"",""0"",""1195""
","
","
","""event"",""trial"",""time""
""fullscreenenter"",""0"",""1195""
","
","444.70000000006985","<div class='center'><p>That's correct!</p><div><p><b>[Press the space bar to continue]</b></p></div>","32","","","","","","","",""
"","practice_q3","223","367840","0.0-219.0-2.0","""event"",""trial"",""time""
""fullscreenenter"",""0"",""1195""
","
","
","""event"",""trial"",""time""
""fullscreenenter"",""0"",""1195""
","
","1070.4000000000233","run_exp/static/audio/clip_16_practice_question.m4a","66","","","","","","","",""
"","correct","224","370582","0.0-220.0-0.0","""event"",""trial"",""time""
""fullscreenenter"",""0"",""1195""
","
","
","""event"",""trial"",""time""
""fullscreenenter"",""0"",""1195""
","
","null","run_exp/static/audio/clip_17_correct.m4a","null","","","","","<div class='center'><p>That's correct!</p></div>","","",""
"","html-keyboard-response","225","371084","0.0-220.0-1.0","""event"",""trial"",""time""
""fullscreenenter"",""0"",""1195""
","
","
","""event"",""trial"",""time""
""fullscreenenter"",""0"",""1195""
","
","497.19999999995343","<div class='center'><p>That's correct!</p><div><p><b>[Press the space bar to continue]</b></p></div>","32","","","","","","","",""
"","begin_text","226","389697","0.0-221.0-0.0","""event"",""trial"",""time""
""fullscreenenter"",""0"",""1195""
","
","
","""event"",""trial"",""time""
""fullscreenenter"",""0"",""1195""
","
","null","run_exp/static/audio/clip_22_begin_test.m4a","null","","","","","<div class='center'><p>On to the real game where well test your memory of items from the indoor/outdoor game. For each item, you need to indicate if the item is <b>old</b> by pressing the <b>v</b> key, <b>similar</b> by pressing the <b>b</b> key, or <b>new</b> by pressing the <b>n</b> key. </p></div>","","",""
"","html-keyboard-response","227","390406","0.0-221.0-1.0","""event"",""trial"",""time""
""fullscreenenter"",""0"",""1195""
","
","
","""event"",""trial"",""time""
""fullscreenenter"",""0"",""1195""
","
","706.2000000000698","<div class='center'><p>On to the real game where well test your memory of items from the indoor/outdoor game. For each item, you need to indicate if the item is <b>old</b> by pressing the <b>v</b> key, <b>similar</b> by pressing the <b>b</b> key, or <b>new</b> by pressing the <b>n</b> key. </p><div><p><b>[Press the space bar to continue]</b></p></div>","32","","","","","","","",""
"","image","228","392282","0.0-222.0-0.0","""event"",""trial"",""time""
""fullscreenenter"",""0"",""1195""
","
","
","""event"",""trial"",""time""
""fullscreenenter"",""0"",""1195""
","
","1871.8000000000466","run_exp/static/images/Set 6_rs/066b.jpg","66","","","","","","test","TL","5"
"","show_choice","229","392784","0.0-222.0-1.0","""event"",""trial"",""time""
""fullscreenenter"",""0"",""1195""
","
","
","""event"",""trial"",""time""
""fullscreenenter"",""0"",""1195""
","
","null","run_exp/static/images/Set 6_rs/066b.jpg","null","","","","","","test","TL",""
"","html-keyboard-response","230","393287","0.0-222.0-2.0","""event"",""trial"",""time""
""fullscreenenter"",""0"",""1195""
","
","
","""event"",""trial"",""time""
""fullscreenenter"",""0"",""1195""
","
","null","<p></p>","null","","","","","","","",""
"","image","231","394094","0.0-223.0-0.0","""event"",""trial"",""time""
""fullscreenenter"",""0"",""1195""
","
","
","""event"",""trial"",""time""
""fullscreenenter"",""0"",""1195""
","
","803","run_exp/static/images/Set 6_rs/116b.jpg","66","","","","","","test","TL","2"
"","show_choice","232","394597","0.0-223.0-1.0","""event"",""trial"",""time""
""fullscreenenter"",""0"",""1195""
","
","
","""event"",""trial"",""time""
""fullscreenenter"",""0"",""1195""
","
","null","run_exp/static/images/Set 6_rs/116b.jpg","null","","","","","","test","TL",""
"","html-keyboard-response","233","395099","0.0-223.0-2.0","""event"",""trial"",""time""
""fullscreenenter"",""0"",""1195""
","
","
","""event"",""trial"",""time""
""fullscreenenter"",""0"",""1195""
","
","null","<p></p>","null","","","","","","","",""
"","image","234","396776","0.0-224.0-0.0","""event"",""trial"",""time""
""fullscreenenter"",""0"",""1195""
","
","
","""event"",""trial"",""time""
""fullscreenenter"",""0"",""1195""
","
","1673.1999999999534","run_exp/static/images/Set 6_rs/086a.jpg","78","","","","","","test","TF","1"
"","show_choice","235","397279","0.0-224.0-1.0","""event"",""trial"",""time""
""fullscreenenter"",""0"",""1195""
","
","
","""event"",""trial"",""time""
""fullscreenenter"",""0"",""1195""
","
","null","run_exp/static/images/Set 6_rs/086a.jpg","null","","","","","","test","TF",""
"","html-keyboard-response","236","397785","0.0-224.0-2.0","""event"",""trial"",""time""
""fullscreenenter"",""0"",""1195""
","
","
","""event"",""trial"",""time""
""fullscreenenter"",""0"",""1195""
","
","null","<p></p>","null","","","","","","","",""
"","image","237","399258","0.0-225.0-0.0","""event"",""trial"",""time""
""fullscreenenter"",""0"",""1195""
","
","
","""event"",""trial"",""time""
""fullscreenenter"",""0"",""1195""
","
","1470.7999999999302","run_exp/static/images/Set 6_rs/129b.jpg","86","","","","","","test","TL","1"
"","show_choice","238","399770","0.0-225.0-1.0","""event"",""trial"",""time""
""fullscreenenter"",""0"",""1195""
","
","
","""event"",""trial"",""time""
""fullscreenenter"",""0"",""1195""
","
","null","run_exp/static/images/Set 6_rs/129b.jpg","null","","","","","","test","TL",""
"","html-keyboard-response","239","400271","0.0-225.0-2.0","""event"",""trial"",""time""
""fullscreenenter"",""0"",""1195""
","
","
","""event"",""trial"",""time""
""fullscreenenter"",""0"",""1195""
","
","null","<p></p>","null","","","","","","","",""
"","image","240","401384","0.0-226.0-0.0","""event"",""trial"",""time""
""fullscreenenter"",""0"",""1195""
","
","
","""event"",""trial"",""time""
""fullscreenenter"",""0"",""1195""
","
","1107","run_exp/static/images/Set 6_rs/172a.jpg","86","","","","","","test","TR","1"
"","show_choice","241","401893","0.0-226.0-1.0","""event"",""trial"",""time""
""fullscreenenter"",""0"",""1195""
","
","
","""event"",""trial"",""time""
""fullscreenenter"",""0"",""1195""
","
","null","run_exp/static/images/Set 6_rs/172a.jpg","null","","","","","","test","TR",""
"","html-keyboard-response","242","402395","0.0-226.0-2.0","""event"",""trial"",""time""
""fullscreenenter"",""0"",""1195""
","
","
","""event"",""trial"",""time""
""fullscreenenter"",""0"",""1195""
","
","null","<p></p>","null","","","","","","","",""
"","image","243","403539","0.0-227.0-0.0","""event"",""trial"",""time""
""fullscreenenter"",""0"",""1195""
","
","
","""event"",""trial"",""time""
""fullscreenenter"",""0"",""1195""
","
","1140.0999999999767","run_exp/static/images/Set 6_rs/025b.jpg","66","","","","","","test","TL","5"
"","show_choice","244","404043","0.0-227.0-1.0","""event"",""trial"",""time""
""fullscreenenter"",""0"",""1195""
","
","
","""event"",""trial"",""time""
""fullscreenenter"",""0"",""1195""
","
","null","run_exp/static/images/Set 6_rs/025b.jpg","null","","","","","","test","TL",""
"","html-keyboard-response","245","404545","0.0-227.0-2.0","""event"",""trial"",""time""
""fullscreenenter"",""0"",""1195""
","
","
","""event"",""trial"",""time""
""fullscreenenter"",""0"",""1195""
","
","null","<p></p>","null","","","","","","","",""
"","image","246","405610","0.0-228.0-0.0","""event"",""trial"",""time""
""fullscreenenter"",""0"",""1195""
","
","
","""event"",""trial"",""time""
""fullscreenenter"",""0"",""1195""
","
","1061","run_exp/static/images/Set 6_rs/079b.jpg","66","","","","","","test","TL","5"
"","show_choice","247","406112","0.0-228.0-1.0","""event"",""trial"",""time""
""fullscreenenter"",""0"",""1195""
","
","
","""event"",""trial"",""time""
""fullscreenenter"",""0"",""1195""
","
","null","run_exp/static/images/Set 6_rs/079b.jpg","null","","","","","","test","TL",""
"","html-keyboard-response","248","406615","0.0-228.0-2.0","""event"",""trial"",""time""
""fullscreenenter"",""0"",""1195""
","
","
","""event"",""trial"",""time""
""fullscreenenter"",""0"",""1195""
","
","null","<p></p>","null","","","","","","","",""
"","image","249","407960","0.0-229.0-0.0","""event"",""trial"",""time""
""fullscreenenter"",""0"",""1195""
","
","
","""event"",""trial"",""time""
""fullscreenenter"",""0"",""1195""
","
","1340.6999999999534","run_exp/static/images/Set 6_rs/132a.jpg","86","","","","","","test","TR","5"
"","show_choice","250","408464","0.0-229.0-1.0","""event"",""trial"",""time""
""fullscreenenter"",""0"",""1195""
","
","
","""event"",""trial"",""time""
""fullscreenenter"",""0"",""1195""
","
","null","run_exp/static/images/Set 6_rs/132a.jpg","null","","","","","","test","TR",""
"","html-keyboard-response","251","408966","0.0-229.0-2.0","""event"",""trial"",""time""
""fullscreenenter"",""0"",""1195""
","
","
","""event"",""trial"",""time""
""fullscreenenter"",""0"",""1195""
","
","null","<p></p>","null","","","","","","","",""
"","image","252","410078","0.0-230.0-0.0","""event"",""trial"",""time""
""fullscreenenter"",""0"",""1195""
","
","
","""event"",""trial"",""time""
""fullscreenenter"",""0"",""1195""
","
","1108.2000000000698","run_exp/static/images/Set 6_rs/075a.jpg","86","","","","","","test","TR","1"
"","show_choice","253","410582","0.0-230.0-1.0","""event"",""trial"",""time""
""fullscreenenter"",""0"",""1195""
","
","
","""event"",""trial"",""time""
""fullscreenenter"",""0"",""1195""
","
","null","run_exp/static/images/Set 6_rs/075a.jpg","null","","","","","","test","TR",""
"","html-keyboard-response","254","411085","0.0-230.0-2.0","""event"",""trial"",""time""
""fullscreenenter"",""0"",""1195""
","
","
","""event"",""trial"",""time""
""fullscreenenter"",""0"",""1195""
","
","null","<p></p>","null","","","","","","","",""
"","image","255","411888","0.0-231.0-0.0","""event"",""trial"",""time""
""fullscreenenter"",""0"",""1195""
","
","
","""event"",""trial"",""time""
""fullscreenenter"",""0"",""1195""
","
","799.9000000000233","run_exp/static/images/Set 6_rs/117b.jpg","86","","","","","","test","TL","5"
"","show_choice","256","412391","0.0-231.0-1.0","""event"",""trial"",""time""
""fullscreenenter"",""0"",""1195""
","
","
","""event"",""trial"",""time""
""fullscreenenter"",""0"",""1195""
","
","null","run_exp/static/images/Set 6_rs/117b.jpg","null","","","","","","test","TL",""
"","html-keyboard-response","257","412893","0.0-231.0-2.0","""event"",""trial"",""time""
""fullscreenenter"",""0"",""1195""
","
","
","""event"",""trial"",""time""
""fullscreenenter"",""0"",""1195""
","
","null","<p></p>","null","","","","","","","",""
"","image","258","413940","0.0-232.0-0.0","""event"",""trial"",""time""
""fullscreenenter"",""0"",""1195""
","
","
","""event"",""trial"",""time""
""fullscreenenter"",""0"",""1195""
","
","1042.5","run_exp/static/images/Set 6_rs/078a.jpg","78","","","","","","test","TF","1"
"","show_choice","259","414444","0.0-232.0-1.0","""event"",""trial"",""time""
""fullscreenenter"",""0"",""1195""
","
","
","""event"",""trial"",""time""
""fullscreenenter"",""0"",""1195""
","
","null","run_exp/static/images/Set 6_rs/078a.jpg","null","","","","","","test","TF",""
"","html-keyboard-response","260","414948","0.0-232.0-2.0","""event"",""trial"",""time""
""fullscreenenter"",""0"",""1195""
","
","
","""event"",""trial"",""time""
""fullscreenenter"",""0"",""1195""
","
","null","<p></p>","null","","","","","","","",""
"","image","261","415667","0.0-233.0-0.0","""event"",""trial"",""time""
""fullscreenenter"",""0"",""1195""
","
","
","""event"",""trial"",""time""
""fullscreenenter"",""0"",""1195""
","
","715.2000000000698","run_exp/static/images/Set 6_rs/176a.jpg","78","","","","","","test","TF","4"
"","show_choice","262","416170","0.0-233.0-1.0","""event"",""trial"",""time""
""fullscreenenter"",""0"",""1195""
","
","
","""event"",""trial"",""time""
""fullscreenenter"",""0"",""1195""
","
","null","run_exp/static/images/Set 6_rs/176a.jpg","null","","","","","","test","TF",""
"","html-keyboard-response","263","416672","0.0-233.0-2.0","""event"",""trial"",""time""
""fullscreenenter"",""0"",""1195""
","
","
","""event"",""trial"",""time""
""fullscreenenter"",""0"",""1195""
","
","null","<p></p>","null","","","","","","","",""
"","image","264","417857","0.0-234.0-0.0","""event"",""trial"",""time""
""fullscreenenter"",""0"",""1195""
","
","
","""event"",""trial"",""time""
""fullscreenenter"",""0"",""1195""
","
","1182.6999999999534","run_exp/static/images/Set 6_rs/052a.jpg","78","","","","","","test","TF","1"
"","show_choice","265","418361","0.0-234.0-1.0","""event"",""trial"",""time""
""fullscreenenter"",""0"",""1195""
","
","
","""event"",""trial"",""time""
""fullscreenenter"",""0"",""1195""
","
","null","run_exp/static/images/Set 6_rs/052a.jpg","null","","","","","","test","TF",""
"","html-keyboard-response","266","418865","0.0-234.0-2.0","""event"",""trial"",""time""
""fullscreenenter"",""0"",""1195""
","
","
","""event"",""trial"",""time""
""fullscreenenter"",""0"",""1195""
","
","null","<p></p>","null","","","","","","","",""
"","image","267","419849","0.0-235.0-0.0","""event"",""trial"",""time""
""fullscreenenter"",""0"",""1195""
","
","
","""event"",""trial"",""time""
""fullscreenenter"",""0"",""1195""
","
","979.8000000000466","run_exp/static/images/Set 6_rs/181b.jpg","86","","","","","","test","TL","1"
"","show_choice","268","420352","0.0-235.0-1.0","""event"",""trial"",""time""
""fullscreenenter"",""0"",""1195""
","
","
","""event"",""trial"",""time""
""fullscreenenter"",""0"",""1195""
","
","null","run_exp/static/images/Set 6_rs/181b.jpg","null","","","","","","test","TL",""
"","html-keyboard-response","269","420853","0.0-235.0-2.0","""event"",""trial"",""time""
""fullscreenenter"",""0"",""1195""
","
","
","""event"",""trial"",""time""
""fullscreenenter"",""0"",""1195""
","
","null","<p></p>","null","","","","","","","",""
"","image","270","422272","0.0-236.0-0.0","""event"",""trial"",""time""
""fullscreenenter"",""0"",""1195""
","
","
","""event"",""trial"",""time""
""fullscreenenter"",""0"",""1195""
","
","1415.4000000000233","run_exp/static/images/Set 6_rs/028a.jpg","66","","","","","","test","TF","1"
"","show_choice","271","422775","0.0-236.0-1.0","""event"",""trial"",""time""
""fullscreenenter"",""0"",""1195""
","
","
","""event"",""trial"",""time""
""fullscreenenter"",""0"",""1195""
","
","null","run_exp/static/images/Set 6_rs/028a.jpg","null","","","","","","test","TF",""
"","html-keyboard-response","272","423278","0.0-236.0-2.0","""event"",""trial"",""time""
""fullscreenenter"",""0"",""1195""
","
","
","""event"",""trial"",""time""
""fullscreenenter"",""0"",""1195""
","
","null","<p></p>","null","","","","","","","",""
"","image","273","424112","0.0-237.0-0.0","""event"",""trial"",""time""
""fullscreenenter"",""0"",""1195""
","
","
","""event"",""trial"",""time""
""fullscreenenter"",""0"",""1195""
","
","829.6999999999534","run_exp/static/images/Set 6_rs/109a.jpg","78","","","","","","test","TF","5"
"","show_choice","274","424616","0.0-237.0-1.0","""event"",""trial"",""time""
""fullscreenenter"",""0"",""1195""
","
","
","""event"",""trial"",""time""
""fullscreenenter"",""0"",""1195""
","
","null","run_exp/static/images/Set 6_rs/109a.jpg","null","","","","","","test","TF",""
"","html-keyboard-response","275","425119","0.0-237.0-2.0","""event"",""trial"",""time""
""fullscreenenter"",""0"",""1195""
","
","
","""event"",""trial"",""time""
""fullscreenenter"",""0"",""1195""
","
","null","<p></p>","null","","","","","","","",""
"","image","276","426169","0.0-238.0-0.0","""event"",""trial"",""time""
""fullscreenenter"",""0"",""1195""
","
","
","""event"",""trial"",""time""
""fullscreenenter"",""0"",""1195""
","
","1047.5","run_exp/static/images/Set 6_rs/062b.jpg","86","","","","","","test","TL","1"
"","show_choice","277","426673","0.0-238.0-1.0","""event"",""trial"",""time""
""fullscreenenter"",""0"",""1195""
","
","
","""event"",""trial"",""time""
""fullscreenenter"",""0"",""1195""
","
","null","run_exp/static/images/Set 6_rs/062b.jpg","null","","","","","","test","TL",""
"","html-keyboard-response","278","427176","0.0-238.0-2.0","""event"",""trial"",""time""
""fullscreenenter"",""0"",""1195""
","
","
","""event"",""trial"",""time""
""fullscreenenter"",""0"",""1195""
","
","null","<p></p>","null","","","","","","","",""
"","image","279","428427","0.0-239.0-0.0","""event"",""trial"",""time""
""fullscreenenter"",""0"",""1195""
","
","
","""event"",""trial"",""time""
""fullscreenenter"",""0"",""1195""
","
","1245.9000000000233","run_exp/static/images/Set 6_rs/017b.jpg","86","","","","","","test","TL","3"
"","show_choice","280","428933","0.0-239.0-1.0","""event"",""trial"",""time""
""fullscreenenter"",""0"",""1195""
","
","
","""event"",""trial"",""time""
""fullscreenenter"",""0"",""1195""
","
","null","run_exp/static/images/Set 6_rs/017b.jpg","null","","","","","","test","TL",""
"","html-keyboard-response","281","429435","0.0-239.0-2.0","""event"",""trial"",""time""
""fullscreenenter"",""0"",""1195""
","
","
","""event"",""trial"",""time""
""fullscreenenter"",""0"",""1195""
","
","null","<p></p>","null","","","","","","","",""
"","image","282","431181","0.0-240.0-0.0","""event"",""trial"",""time""
""fullscreenenter"",""0"",""1195""
","
","
","""event"",""trial"",""time""
""fullscreenenter"",""0"",""1195""
","
","1742.6000000000931","run_exp/static/images/Set 6_rs/095b.jpg","66","","","","","","test","TL","5"
"","show_choice","283","431686","0.0-240.0-1.0","""event"",""trial"",""time""
""fullscreenenter"",""0"",""1195""
","
","
","""event"",""trial"",""time""
""fullscreenenter"",""0"",""1195""
","
","null","run_exp/static/images/Set 6_rs/095b.jpg","null","","","","","","test","TL",""
"","html-keyboard-response","284","432187","0.0-240.0-2.0","""event"",""trial"",""time""
""fullscreenenter"",""0"",""1195""
","
","
","""event"",""trial"",""time""
""fullscreenenter"",""0"",""1195""
","
","null","<p></p>","null","","","","","","","",""
"","image","285","433600","0.0-241.0-0.0","""event"",""trial"",""time""
""fullscreenenter"",""0"",""1195""
","
","
","""event"",""trial"",""time""
""fullscreenenter"",""0"",""1195""
","
","1410","run_exp/static/images/Set 6_rs/071b.jpg","66","","","","","","test","TL","4"
"","show_choice","286","434104","0.0-241.0-1.0","""event"",""trial"",""time""
""fullscreenenter"",""0"",""1195""
","
","
","""event"",""trial"",""time""
""fullscreenenter"",""0"",""1195""
","
","null","run_exp/static/images/Set 6_rs/071b.jpg","null","","","","","","test","TL",""
"","html-keyboard-response","287","434606","0.0-241.0-2.0","""event"",""trial"",""time""
""fullscreenenter"",""0"",""1195""
","
","
","""event"",""trial"",""time""
""fullscreenenter"",""0"",""1195""
","
","null","<p></p>","null","","","","","","","",""
"","image","288","435729","0.0-242.0-0.0","""event"",""trial"",""time""
""fullscreenenter"",""0"",""1195""
","
","
","""event"",""trial"",""time""
""fullscreenenter"",""0"",""1195""
","
","1119.8000000000466","run_exp/static/images/Set 6_rs/188a.jpg","78","","","","","","test","TF","3"
"","show_choice","289","436233","0.0-242.0-1.0","""event"",""trial"",""time""
""fullscreenenter"",""0"",""1195""
","
","
","""event"",""trial"",""time""
""fullscreenenter"",""0"",""1195""
","
","null","run_exp/static/images/Set 6_rs/188a.jpg","null","","","","","","test","TF",""
"","html-keyboard-response","290","436735","0.0-242.0-2.0","""event"",""trial"",""time""
""fullscreenenter"",""0"",""1195""
","
","
","""event"",""trial"",""time""
""fullscreenenter"",""0"",""1195""
","
","null","<p></p>","null","","","","","","","",""
"","image","291","439140","0.0-243.0-0.0","""event"",""trial"",""time""
""fullscreenenter"",""0"",""1195""
","
","
","""event"",""trial"",""time""
""fullscreenenter"",""0"",""1195""
","
","2401.9000000000233","run_exp/static/images/Set 6_rs/105a.jpg","86","","","","","","test","TF","5"
"","show_choice","292","439643","0.0-243.0-1.0","""event"",""trial"",""time""
""fullscreenenter"",""0"",""1195""
","
","
","""event"",""trial"",""time""
""fullscreenenter"",""0"",""1195""
","
","null","run_exp/static/images/Set 6_rs/105a.jpg","null","","","","","","test","TF",""
"","html-keyboard-response","293","440146","0.0-243.0-2.0","""event"",""trial"",""time""
""fullscreenenter"",""0"",""1195""
","
","
","""event"",""trial"",""time""
""fullscreenenter"",""0"",""1195""
","
","null","<p></p>","null","","","","","","","",""
"","image","294","441315","0.0-244.0-0.0","""event"",""trial"",""time""
""fullscreenenter"",""0"",""1195""
","
","
","""event"",""trial"",""time""
""fullscreenenter"",""0"",""1195""
","
","1165.9000000000233","run_exp/static/images/Set 6_rs/010a.jpg","86","","","","","","test","TR","5"
"","show_choice","295","441819","0.0-244.0-1.0","""event"",""trial"",""time""
""fullscreenenter"",""0"",""1195""
","
","
","""event"",""trial"",""time""
""fullscreenenter"",""0"",""1195""
","
","null","run_exp/static/images/Set 6_rs/010a.jpg","null","","","","","","test","TR",""
"","html-keyboard-response","296","442322","0.0-244.0-2.0","""event"",""trial"",""time""
""fullscreenenter"",""0"",""1195""
","
","
","""event"",""trial"",""time""
""fullscreenenter"",""0"",""1195""
","
","null","<p></p>","null","","","","","","","",""
"","image","297","443128","0.0-245.0-0.0","""event"",""trial"",""time""
""fullscreenenter"",""0"",""1195""
","
","
","""event"",""trial"",""time""
""fullscreenenter"",""0"",""1195""
","
","801.6999999999534","run_exp/static/images/Set 6_rs/138b.jpg","86","","","","","","test","TL","1"
"","show_choice","298","443633","0.0-245.0-1.0","""event"",""trial"",""time""
""fullscreenenter"",""0"",""1195""
","
","
","""event"",""trial"",""time""
""fullscreenenter"",""0"",""1195""
","
","null","run_exp/static/images/Set 6_rs/138b.jpg","null","","","","","","test","TL",""
"","html-keyboard-response","299","444135","0.0-245.0-2.0","""event"",""trial"",""time""
""fullscreenenter"",""0"",""1195""
","
","
","""event"",""trial"",""time""
""fullscreenenter"",""0"",""1195""
","
","null","<p></p>","null","","","","","","","",""
"","image","300","445062","0.0-246.0-0.0","""event"",""trial"",""time""
""fullscreenenter"",""0"",""1195""
","
","
","""event"",""trial"",""time""
""fullscreenenter"",""0"",""1195""
","
","923.1000000000931","run_exp/static/images/Set 6_rs/064a.jpg","86","","","","","","test","TR","5"
"","show_choice","301","445565","0.0-246.0-1.0","""event"",""trial"",""time""
""fullscreenenter"",""0"",""1195""
","
","
","""event"",""trial"",""time""
""fullscreenenter"",""0"",""1195""
","
","null","run_exp/static/images/Set 6_rs/064a.jpg","null","","","","","","test","TR",""
"","html-keyboard-response","302","446067","0.0-246.0-2.0","""event"",""trial"",""time""
""fullscreenenter"",""0"",""1195""
","
","
","""event"",""trial"",""time""
""fullscreenenter"",""0"",""1195""
","
","null","<p></p>","null","","","","","","","",""
"","image","303","447037","0.0-247.0-0.0","""event"",""trial"",""time""
""fullscreenenter"",""0"",""1195""
","
","
","""event"",""trial"",""time""
""fullscreenenter"",""0"",""1195""
","
","967.0999999999767","run_exp/static/images/Set 6_rs/154a.jpg","86","","","","","","test","TR","3"
"","show_choice","304","447542","0.0-247.0-1.0","""event"",""trial"",""time""
""fullscreenenter"",""0"",""1195""
","
","
","""event"",""trial"",""time""
""fullscreenenter"",""0"",""1195""
","
","null","run_exp/static/images/Set 6_rs/154a.jpg","null","","","","","","test","TR",""
"","html-keyboard-response","305","448047","0.0-247.0-2.0","""event"",""trial"",""time""
""fullscreenenter"",""0"",""1195""
","
","
","""event"",""trial"",""time""
""fullscreenenter"",""0"",""1195""
","
","null","<p></p>","null","","","","","","","",""
"","image","306","448877","0.0-248.0-0.0","""event"",""trial"",""time""
""fullscreenenter"",""0"",""1195""
","
","
","""event"",""trial"",""time""
""fullscreenenter"",""0"",""1195""
","
","825.2000000000698","run_exp/static/images/Set 6_rs/005a.jpg","78","","","","","","test","TF","5"
"","show_choice","307","449380","0.0-248.0-1.0","""event"",""trial"",""time""
""fullscreenenter"",""0"",""1195""
","
","
","""event"",""trial"",""time""
""fullscreenenter"",""0"",""1195""
","
","null","run_exp/static/images/Set 6_rs/005a.jpg","null","","","","","","test","TF",""
"","html-keyboard-response","308","449885","0.0-248.0-2.0","""event"",""trial"",""time""
""fullscreenenter"",""0"",""1195""
","
","
","""event"",""trial"",""time""
""fullscreenenter"",""0"",""1195""
","
","null","<p></p>","null","","","","","","","",""
"","image","309","450550","0.0-249.0-0.0","""event"",""trial"",""time""
""fullscreenenter"",""0"",""1195""
","
","
","""event"",""trial"",""time""
""fullscreenenter"",""0"",""1195""
","
","661.5","run_exp/static/images/Set 6_rs/056a.jpg","66","","","","","","test","TF","3"
"","show_choice","310","451053","0.0-249.0-1.0","""event"",""trial"",""time""
""fullscreenenter"",""0"",""1195""
","
","
","""event"",""trial"",""time""
""fullscreenenter"",""0"",""1195""
","
","null","run_exp/static/images/Set 6_rs/056a.jpg","null","","","","","","test","TF",""
"","html-keyboard-response","311","451556","0.0-249.0-2.0","""event"",""trial"",""time""
""fullscreenenter"",""0"",""1195""
","
","
","""event"",""trial"",""time""
""fullscreenenter"",""0"",""1195""
","
","null","<p></p>","null","","","","","","","",""
"","image","312","452284","0.0-250.0-0.0","""event"",""trial"",""time""
""fullscreenenter"",""0"",""1195""
","
","
","""event"",""trial"",""time""
""fullscreenenter"",""0"",""1195""
","
","724.1000000000931","run_exp/static/images/Set 6_rs/136a.jpg","66","","","","","","test","TF","4"
"","show_choice","313","452787","0.0-250.0-1.0","""event"",""trial"",""time""
""fullscreenenter"",""0"",""1195""
","
","
","""event"",""trial"",""time""
""fullscreenenter"",""0"",""1195""
","
","null","run_exp/static/images/Set 6_rs/136a.jpg","null","","","","","","test","TF",""
"","html-keyboard-response","314","453290","0.0-250.0-2.0","""event"",""trial"",""time""
""fullscreenenter"",""0"",""1195""
","
","
","""event"",""trial"",""time""
""fullscreenenter"",""0"",""1195""
","
","null","<p></p>","null","","","","","","","",""
"","image","315","454320","0.0-251.0-0.0","""event"",""trial"",""time""
""fullscreenenter"",""0"",""1195""
","
","
","""event"",""trial"",""time""
""fullscreenenter"",""0"",""1195""
","
","1025.2000000000698","run_exp/static/images/Set 6_rs/050b.jpg","86","","","","","","test","TL","3"
"","show_choice","316","454823","0.0-251.0-1.0","""event"",""trial"",""time""
""fullscreenenter"",""0"",""1195""
","
","
","""event"",""trial"",""time""
""fullscreenenter"",""0"",""1195""
","
","null","run_exp/static/images/Set 6_rs/050b.jpg","null","","","","","","test","TL",""
"","html-keyboard-response","317","455325","0.0-251.0-2.0","""event"",""trial"",""time""
""fullscreenenter"",""0"",""1195""
","
","
","""event"",""trial"",""time""
""fullscreenenter"",""0"",""1195""
","
","null","<p></p>","null","","","","","","","",""
"","image","318","456349","0.0-252.0-0.0","""event"",""trial"",""time""
""fullscreenenter"",""0"",""1195""
","
","
","""event"",""trial"",""time""
""fullscreenenter"",""0"",""1195""
","
","1020.5","run_exp/static/images/Set 6_rs/023a.jpg","86","","","","","","test","TR","3"
"","show_choice","319","456852","0.0-252.0-1.0","""event"",""trial"",""time""
""fullscreenenter"",""0"",""1195""
","
","
","""event"",""trial"",""time""
""fullscreenenter"",""0"",""1195""
","
","null","run_exp/static/images/Set 6_rs/023a.jpg","null","","","","","","test","TR",""
"","html-keyboard-response","320","457355","0.0-252.0-2.0","""event"",""trial"",""time""
""fullscreenenter"",""0"",""1195""
","
","
","""event"",""trial"",""time""
""fullscreenenter"",""0"",""1195""
","
","null","<p></p>","null","","","","","","","",""
"","image","321","458276","0.0-253.0-0.0","""event"",""trial"",""time""
""fullscreenenter"",""0"",""1195""
","
","
","""event"",""trial"",""time""
""fullscreenenter"",""0"",""1195""
","
","917.9000000000233","run_exp/static/images/Set 6_rs/111b.jpg","86","","","","","","test","TL","3"
"","show_choice","322","458782","0.0-253.0-1.0","""event"",""trial"",""time""
""fullscreenenter"",""0"",""1195""
","
","
","""event"",""trial"",""time""
""fullscreenenter"",""0"",""1195""
","
","null","run_exp/static/images/Set 6_rs/111b.jpg","null","","","","","","test","TL",""
"","html-keyboard-response","323","459286","0.0-253.0-2.0","""event"",""trial"",""time""
""fullscreenenter"",""0"",""1195""
","
","
","""event"",""trial"",""time""
""fullscreenenter"",""0"",""1195""
","
","null","<p></p>","null","","","","","","","",""
"","image","324","460599","0.0-254.0-0.0","""event"",""trial"",""time""
""fullscreenenter"",""0"",""1195""
","
","
","""event"",""trial"",""time""
""fullscreenenter"",""0"",""1195""
","
","1309.0999999999767","run_exp/static/images/Set 6_rs/108a.jpg","66","","","","","","test","TR","5"
"","show_choice","325","461102","0.0-254.0-1.0","""event"",""trial"",""time""
""fullscreenenter"",""0"",""1195""
","
","
","""event"",""trial"",""time""
""fullscreenenter"",""0"",""1195""
","
","null","run_exp/static/images/Set 6_rs/108a.jpg","null","","","","","","test","TR",""
"","html-keyboard-response","326","461605","0.0-254.0-2.0","""event"",""trial"",""time""
""fullscreenenter"",""0"",""1195""
","
","
","""event"",""trial"",""time""
""fullscreenenter"",""0"",""1195""
","
","null","<p></p>","null","","","","","","","",""
"","image","327","462809","0.0-255.0-0.0","""event"",""trial"",""time""
""fullscreenenter"",""0"",""1195""
","
","
","""event"",""trial"",""time""
""fullscreenenter"",""0"",""1195""
","
","1199.7999999999302","run_exp/static/images/Set 6_rs/047a.jpg","66","","","","","","test","TF","3"
"","show_choice","328","463312","0.0-255.0-1.0","""event"",""trial"",""time""
""fullscreenenter"",""0"",""1195""
","
","
","""event"",""trial"",""time""
""fullscreenenter"",""0"",""1195""
","
","null","run_exp/static/images/Set 6_rs/047a.jpg","null","","","","","","test","TF",""
"","html-keyboard-response","329","463815","0.0-255.0-2.0","""event"",""trial"",""time""
""fullscreenenter"",""0"",""1195""
","
","
","""event"",""trial"",""time""
""fullscreenenter"",""0"",""1195""
","
","null","<p></p>","null","","","","","","","",""
"","image","330","464834","0.0-256.0-0.0","""event"",""trial"",""time""
""fullscreenenter"",""0"",""1195""
","
","
","""event"",""trial"",""time""
""fullscreenenter"",""0"",""1195""
","
","1015.5999999999767","run_exp/static/images/Set 6_rs/091b.jpg","78","","","","","","test","TL","3"
"","show_choice","331","465339","0.0-256.0-1.0","""event"",""trial"",""time""
""fullscreenenter"",""0"",""1195""
","
","
","""event"",""trial"",""time""
""fullscreenenter"",""0"",""1195""
","
","null","run_exp/static/images/Set 6_rs/091b.jpg","null","","","","","","test","TL",""
"","html-keyboard-response","332","465842","0.0-256.0-2.0","""event"",""trial"",""time""
""fullscreenenter"",""0"",""1195""
","
","
","""event"",""trial"",""time""
""fullscreenenter"",""0"",""1195""
","
","null","<p></p>","null","","","","","","","",""
"","image","333","467321","0.0-257.0-0.0","""event"",""trial"",""time""
""fullscreenenter"",""0"",""1195""
","
","
","""event"",""trial"",""time""
""fullscreenenter"",""0"",""1195""
","
","1476.7000000000698","run_exp/static/images/Set 6_rs/048a.jpg","66","","","","","","test","TF","4"
"","show_choice","334","467825","0.0-257.0-1.0","""event"",""trial"",""time""
""fullscreenenter"",""0"",""1195""
","
","
","""event"",""trial"",""time""
""fullscreenenter"",""0"",""1195""
","
","null","run_exp/static/images/Set 6_rs/048a.jpg","null","","","","","","test","TF",""
"","html-keyboard-response","335","468327","0.0-257.0-2.0","""event"",""trial"",""time""
""fullscreenenter"",""0"",""1195""
","
","
","""event"",""trial"",""time""
""fullscreenenter"",""0"",""1195""
","
","null","<p></p>","null","","","","","","","",""
"","image","336","469272","0.0-258.0-0.0","""event"",""trial"",""time""
""fullscreenenter"",""0"",""1195""
","
","
","""event"",""trial"",""time""
""fullscreenenter"",""0"",""1195""
","
","941.0999999999767","run_exp/static/images/Set 6_rs/131a.jpg","86","","","","","","test","TR","5"
"","show_choice","337","469775","0.0-258.0-1.0","""event"",""trial"",""time""
""fullscreenenter"",""0"",""1195""
","
","
","""event"",""trial"",""time""
""fullscreenenter"",""0"",""1195""
","
","null","run_exp/static/images/Set 6_rs/131a.jpg","null","","","","","","test","TR",""
"","html-keyboard-response","338","470278","0.0-258.0-2.0","""event"",""trial"",""time""
""fullscreenenter"",""0"",""1195""
","
","
","""event"",""trial"",""time""
""fullscreenenter"",""0"",""1195""
","
","null","<p></p>","null","","","","","","","",""
"","image","339","471904","0.0-259.0-0.0","""event"",""trial"",""time""
""fullscreenenter"",""0"",""1195""
","
","
","""event"",""trial"",""time""
""fullscreenenter"",""0"",""1195""
","
","1619.6999999999534","run_exp/static/images/Set 6_rs/186a.jpg","86","","","","","","test","TR","5"
"","show_choice","340","472407","0.0-259.0-1.0","""event"",""trial"",""time""
""fullscreenenter"",""0"",""1195""
","
","
","""event"",""trial"",""time""
""fullscreenenter"",""0"",""1195""
","
","null","run_exp/static/images/Set 6_rs/186a.jpg","null","","","","","","test","TR",""
