"success","trial_type","trial_index","time_elapsed","internal_node_id","interactions","blur_events","focus_events","fullscreenenter_events","fullscreenexit_events","rt","stimulus","key_press","subject_id","participant_id","age","gender","prompt","phase","condition","lure_bin"
"true","fullscreen","0","37349","0.0-0.0","""event"",""trial"",""time""
""fullscreenenter"",""0"",""36374""
","
","
","""event"",""trial"",""time""
""fullscreenenter"",""0"",""36374""
","
","","","","","","","","","","",""
"","pavlovia","1","37352","0.0-1.0","""event"",""trial"",""time""
""fullscreenenter"",""0"",""36374""
""fullscreenexit"",""2"",""65159""
","
","
","""event"",""trial"",""time""
""fullscreenenter"",""0"",""36374""
","""event"",""trial"",""time""
""fullscreenexit"",""2"",""65159""
","","","","","","","","","","",""
"","welcome","2","72795","0.0-2.0","""event"",""trial"",""time""
""fullscreenenter"",""0"",""36374""
""fullscreenexit"",""2"",""65159""
","
","
","""event"",""trial"",""time""
""fullscreenenter"",""0"",""36374""
","""event"",""trial"",""time""
""fullscreenexit"",""2"",""65159""
","null","run_exp/static/audio/clip_1_welcome.m4a","null","1205","913","19","Male","<div class='center'><p>Welcome to the third part of the study! First, you'll be shown pictures of items one at a time. For each picture, you have to decide if the item is typically found indoors or outdoors.</p><p>If you think it's usually found indoors, then press <b>v</b> key on your keyboard. If you think it's usually found outdoors, then press the <b>n</b> key.There will be reminders on the screen to help you remember which keys to press. </p><p>If you're not sure whether the item is an indoor item or an outdoor item, go ahead and take a guess but try your best not to skip that choice. </p></div>","","",""
"","html-keyboard-response","3","74515","0.0-3.0","""event"",""trial"",""time""
""fullscreenenter"",""0"",""36374""
""fullscreenexit"",""2"",""65159""
","
","
","""event"",""trial"",""time""
""fullscreenenter"",""0"",""36374""
","""event"",""trial"",""time""
""fullscreenexit"",""2"",""65159""
","1719.3999999910593","<div class='center'><p>Welcome to the third part of the study! First, you'll be shown pictures of items one at a time. For each picture, you have to decide if the item is typically found indoors or outdoors.</p><p>If you think it's usually found indoors, then press <b>v</b> key on your keyboard. If you think it's usually found outdoors, then press the <b>n</b> key.There will be reminders on the screen to help you remember which keys to press. </p><p>If you're not sure whether the item is an indoor item or an outdoor item, go ahead and take a guess but try your best not to skip that choice. </p><div><p><b>[Press the space bar to continue]</b></p></div>","32","","","","","","","",""
"","image","4","76530","0.0-4.0","""event"",""trial"",""time""
""fullscreenenter"",""0"",""36374""
""fullscreenexit"",""2"",""65159""
","
","
","""event"",""trial"",""time""
""fullscreenenter"",""0"",""36374""
","""event"",""trial"",""time""
""fullscreenexit"",""2"",""65159""
","null","run_exp/static/images/Set 6_rs/168a.jpg","null","","","","","","learn","SL",""
"","show_choice","5","78539","0.0-5.0","""event"",""trial"",""time""
""fullscreenenter"",""0"",""36374""
""fullscreenexit"",""2"",""65159""
","
","
","""event"",""trial"",""time""
""fullscreenenter"",""0"",""36374""
","""event"",""trial"",""time""
""fullscreenexit"",""2"",""65159""
","null","run_exp/static/images/blank.png","null","","","","","","learn","SL",""
"","html-keyboard-response","6","79056","0.0-6.0","""event"",""trial"",""time""
""fullscreenenter"",""0"",""36374""
""fullscreenexit"",""2"",""65159""
","
","
","""event"",""trial"",""time""
""fullscreenenter"",""0"",""36374""
","""event"",""trial"",""time""
""fullscreenexit"",""2"",""65159""
","null","<p></p>","null","","","","","","","",""
"","image","7","80706","0.0-7.0","""event"",""trial"",""time""
""fullscreenenter"",""0"",""36374""
""fullscreenexit"",""2"",""65159""
","
","
","""event"",""trial"",""time""
""fullscreenenter"",""0"",""36374""
","""event"",""trial"",""time""
""fullscreenexit"",""2"",""65159""
","1648.699999988079","run_exp/static/images/Set 6_rs/024a.jpg","86","","","","","","learn","SR",""
"","show_choice","8","81066","0.0-8.0","""event"",""trial"",""time""
""fullscreenenter"",""0"",""36374""
""fullscreenexit"",""2"",""65159""
","
","
","""event"",""trial"",""time""
""fullscreenenter"",""0"",""36374""
","""event"",""trial"",""time""
""fullscreenexit"",""2"",""65159""
","null","run_exp/static/images/Set 6_rs/024a.jpg","null","","","","","","learn","SR",""
"","html-keyboard-response","9","81581","0.0-9.0","""event"",""trial"",""time""
""fullscreenenter"",""0"",""36374""
""fullscreenexit"",""2"",""65159""
","
","
","""event"",""trial"",""time""
""fullscreenenter"",""0"",""36374""
","""event"",""trial"",""time""
""fullscreenexit"",""2"",""65159""
","null","<p></p>","null","","","","","","","",""
"","image","10","82679","0.0-10.0","""event"",""trial"",""time""
""fullscreenenter"",""0"",""36374""
""fullscreenexit"",""2"",""65159""
","
","
","""event"",""trial"",""time""
""fullscreenenter"",""0"",""36374""
","""event"",""trial"",""time""
""fullscreenexit"",""2"",""65159""
","1096.2000000029802","run_exp/static/images/Set 6_rs/191a.jpg","78","","","","","","learn","SL",""
"","show_choice","11","83596","0.0-11.0","""event"",""trial"",""time""
""fullscreenenter"",""0"",""36374""
""fullscreenexit"",""2"",""65159""
","
","
","""event"",""trial"",""time""
""fullscreenenter"",""0"",""36374""
","""event"",""trial"",""time""
""fullscreenexit"",""2"",""65159""
","null","run_exp/static/images/Set 6_rs/191a.jpg","null","","","","","","learn","SL",""
"","html-keyboard-response","12","84112","0.0-12.0","""event"",""trial"",""time""
""fullscreenenter"",""0"",""36374""
""fullscreenexit"",""2"",""65159""
","
","
","""event"",""trial"",""time""
""fullscreenenter"",""0"",""36374""
","""event"",""trial"",""time""
""fullscreenexit"",""2"",""65159""
","null","<p></p>","null","","","","","","","",""
"","image","13","84846","0.0-13.0","""event"",""trial"",""time""
""fullscreenenter"",""0"",""36374""
""fullscreenexit"",""2"",""65159""
","
","
","""event"",""trial"",""time""
""fullscreenenter"",""0"",""36374""
","""event"",""trial"",""time""
""fullscreenexit"",""2"",""65159""
","733.4000000059605","run_exp/static/images/Set 6_rs/095a.jpg","86","","","","","","learn","SL",""
"","show_choice","14","86121","0.0-14.0","""event"",""trial"",""time""
""fullscreenenter"",""0"",""36374""
""fullscreenexit"",""2"",""65159""
","
","
","""event"",""trial"",""time""
""fullscreenenter"",""0"",""36374""
","""event"",""trial"",""time""
""fullscreenexit"",""2"",""65159""
","null","run_exp/static/images/Set 6_rs/095a.jpg","null","","","","","","learn","SL",""
"","html-keyboard-response","15","86635","0.0-15.0","""event"",""trial"",""time""
""fullscreenenter"",""0"",""36374""
""fullscreenexit"",""2"",""65159""
","
","
","""event"",""trial"",""time""
""fullscreenenter"",""0"",""36374""
","""event"",""trial"",""time""
""fullscreenexit"",""2"",""65159""
","null","<p></p>","null","","","","","","","",""
"","image","16","87359","0.0-16.0","""event"",""trial"",""time""
""fullscreenenter"",""0"",""36374""
""fullscreenexit"",""2"",""65159""
","
","
","""event"",""trial"",""time""
""fullscreenenter"",""0"",""36374""
","""event"",""trial"",""time""
""fullscreenexit"",""2"",""65159""
","723.4000000059605","run_exp/static/images/Set 6_rs/172a.jpg","78","","","","","","learn","SR",""
"","show_choice","17","88651","0.0-17.0","""event"",""trial"",""time""
""fullscreenenter"",""0"",""36374""
""fullscreenexit"",""2"",""65159""
","
","
","""event"",""trial"",""time""
""fullscreenenter"",""0"",""36374""
","""event"",""trial"",""time""
""fullscreenexit"",""2"",""65159""
","null","run_exp/static/images/Set 6_rs/172a.jpg","null","","","","","","learn","SR",""
"","html-keyboard-response","18","89163","0.0-18.0","""event"",""trial"",""time""
""fullscreenenter"",""0"",""36374""
""fullscreenexit"",""2"",""65159""
","
","
","""event"",""trial"",""time""
""fullscreenenter"",""0"",""36374""
","""event"",""trial"",""time""
""fullscreenexit"",""2"",""65159""
","null","<p></p>","null","","","","","","","",""
"","image","19","90526","0.0-19.0","""event"",""trial"",""time""
""fullscreenenter"",""0"",""36374""
""fullscreenexit"",""2"",""65159""
","
","
","""event"",""trial"",""time""
""fullscreenenter"",""0"",""36374""
","""event"",""trial"",""time""
""fullscreenexit"",""2"",""65159""
","1361.3999999910593","run_exp/static/images/Set 6_rs/008a.jpg","86","","","","","","learn","SL",""
"","show_choice","20","91176","0.0-20.0","""event"",""trial"",""time""
""fullscreenenter"",""0"",""36374""
""fullscreenexit"",""2"",""65159""
","
","
","""event"",""trial"",""time""
""fullscreenenter"",""0"",""36374""
","""event"",""trial"",""time""
""fullscreenexit"",""2"",""65159""
","null","run_exp/static/images/Set 6_rs/008a.jpg","null","","","","","","learn","SL",""
"","html-keyboard-response","21","91692","0.0-21.0","""event"",""trial"",""time""
""fullscreenenter"",""0"",""36374""
""fullscreenexit"",""2"",""65159""
","
","
","""event"",""trial"",""time""
""fullscreenenter"",""0"",""36374""
","""event"",""trial"",""time""
""fullscreenexit"",""2"",""65159""
","null","<p></p>","null","","","","","","","",""
"","image","22","92319","0.0-22.0","""event"",""trial"",""time""
""fullscreenenter"",""0"",""36374""
""fullscreenexit"",""2"",""65159""
","
","
","""event"",""trial"",""time""
""fullscreenenter"",""0"",""36374""
","""event"",""trial"",""time""
""fullscreenexit"",""2"",""65159""
","625.0999999940395","run_exp/static/images/Set 6_rs/134a.jpg","86","","","","","","learn","SR",""
"","show_choice","23","93704","0.0-23.0","""event"",""trial"",""time""
""fullscreenenter"",""0"",""36374""
""fullscreenexit"",""2"",""65159""
","
","
","""event"",""trial"",""time""
""fullscreenenter"",""0"",""36374""
","""event"",""trial"",""time""
""fullscreenexit"",""2"",""65159""
","null","run_exp/static/images/Set 6_rs/134a.jpg","null","","","","","","learn","SR",""
"","html-keyboard-response","24","94206","0.0-24.0","""event"",""trial"",""time""
""fullscreenenter"",""0"",""36374""
""fullscreenexit"",""2"",""65159""
","
","
","""event"",""trial"",""time""
""fullscreenenter"",""0"",""36374""
","""event"",""trial"",""time""
""fullscreenexit"",""2"",""65159""
","null","<p></p>","null","","","","","","","",""
"","image","25","95196","0.0-25.0","""event"",""trial"",""time""
""fullscreenenter"",""0"",""36374""
""fullscreenexit"",""2"",""65159""
","
","
","""event"",""trial"",""time""
""fullscreenenter"",""0"",""36374""
","""event"",""trial"",""time""
""fullscreenexit"",""2"",""65159""
","989.5","run_exp/static/images/Set 6_rs/019a.jpg","86","","","","","","learn","SL",""
"","show_choice","26","96220","0.0-26.0","""event"",""trial"",""time""
""fullscreenenter"",""0"",""36374""
""fullscreenexit"",""2"",""65159""
","
","
","""event"",""trial"",""time""
""fullscreenenter"",""0"",""36374""
","""event"",""trial"",""time""
""fullscreenexit"",""2"",""65159""
","null","run_exp/static/images/Set 6_rs/019a.jpg","null","","","","","","learn","SL",""
"","html-keyboard-response","27","96735","0.0-27.0","""event"",""trial"",""time""
""fullscreenenter"",""0"",""36374""
""fullscreenexit"",""2"",""65159""
","
","
","""event"",""trial"",""time""
""fullscreenenter"",""0"",""36374""
","""event"",""trial"",""time""
""fullscreenexit"",""2"",""65159""
","null","<p></p>","null","","","","","","","",""
"","image","28","97408","0.0-28.0","""event"",""trial"",""time""
""fullscreenenter"",""0"",""36374""
""fullscreenexit"",""2"",""65159""
","
","
","""event"",""trial"",""time""
""fullscreenenter"",""0"",""36374""
","""event"",""trial"",""time""
""fullscreenexit"",""2"",""65159""
","671.2999999970198","run_exp/static/images/Set 6_rs/181a.jpg","78","","","","","","learn","SL",""
"","show_choice","29","98746","0.0-29.0","""event"",""trial"",""time""
""fullscreenenter"",""0"",""36374""
""fullscreenexit"",""2"",""65159""
","
","
","""event"",""trial"",""time""
""fullscreenenter"",""0"",""36374""
","""event"",""trial"",""time""
""fullscreenexit"",""2"",""65159""
","null","run_exp/static/images/Set 6_rs/181a.jpg","null","","","","","","learn","SL",""
"","html-keyboard-response","30","99260","0.0-30.0","""event"",""trial"",""time""
""fullscreenenter"",""0"",""36374""
""fullscreenexit"",""2"",""65159""
","
","
","""event"",""trial"",""time""
""fullscreenenter"",""0"",""36374""
","""event"",""trial"",""time""
""fullscreenexit"",""2"",""65159""
","null","<p></p>","null","","","","","","","",""
"","image","31","99837","0.0-31.0","""event"",""trial"",""time""
""fullscreenenter"",""0"",""36374""
""fullscreenexit"",""2"",""65159""
","
","
","""event"",""trial"",""time""
""fullscreenenter"",""0"",""36374""
","""event"",""trial"",""time""
""fullscreenexit"",""2"",""65159""
","576.1999999880791","run_exp/static/images/Set 6_rs/169a.jpg","86","","","","","","learn","SR",""
"","show_choice","32","101273","0.0-32.0","""event"",""trial"",""time""
""fullscreenenter"",""0"",""36374""
""fullscreenexit"",""2"",""65159""
","
","
","""event"",""trial"",""time""
""fullscreenenter"",""0"",""36374""
","""event"",""trial"",""time""
""fullscreenexit"",""2"",""65159""
","null","run_exp/static/images/Set 6_rs/169a.jpg","null","","","","","","learn","SR",""
"","html-keyboard-response","33","101787","0.0-33.0","""event"",""trial"",""time""
""fullscreenenter"",""0"",""36374""
""fullscreenexit"",""2"",""65159""
","
","
","""event"",""trial"",""time""
""fullscreenenter"",""0"",""36374""
","""event"",""trial"",""time""
""fullscreenexit"",""2"",""65159""
","null","<p></p>","null","","","","","","","",""
"","image","34","102730","0.0-34.0","""event"",""trial"",""time""
""fullscreenenter"",""0"",""36374""
""fullscreenexit"",""2"",""65159""
","
","
","""event"",""trial"",""time""
""fullscreenenter"",""0"",""36374""
","""event"",""trial"",""time""
""fullscreenexit"",""2"",""65159""
","941.6000000089407","run_exp/static/images/Set 6_rs/061a.jpg","78","","","","","","learn","SR",""
"","show_choice","35","103800","0.0-35.0","""event"",""trial"",""time""
""fullscreenenter"",""0"",""36374""
""fullscreenexit"",""2"",""65159""
","
","
","""event"",""trial"",""time""
""fullscreenenter"",""0"",""36374""
","""event"",""trial"",""time""
""fullscreenexit"",""2"",""65159""
","null","run_exp/static/images/Set 6_rs/061a.jpg","null","","","","","","learn","SR",""
"","html-keyboard-response","36","104312","0.0-36.0","""event"",""trial"",""time""
""fullscreenenter"",""0"",""36374""
""fullscreenexit"",""2"",""65159""
","
","
","""event"",""trial"",""time""
""fullscreenenter"",""0"",""36374""
","""event"",""trial"",""time""
""fullscreenexit"",""2"",""65159""
","null","<p></p>","null","","","","","","","",""
"","image","37","104903","0.0-37.0","""event"",""trial"",""time""
""fullscreenenter"",""0"",""36374""
""fullscreenexit"",""2"",""65159""
","
","
","""event"",""trial"",""time""
""fullscreenenter"",""0"",""36374""
","""event"",""trial"",""time""
""fullscreenexit"",""2"",""65159""
","589.8000000119209","run_exp/static/images/Set 6_rs/111a.jpg","86","","","","","","learn","SL",""
"","show_choice","38","106319","0.0-38.0","""event"",""trial"",""time""
""fullscreenenter"",""0"",""36374""
""fullscreenexit"",""2"",""65159""
","
","
","""event"",""trial"",""time""
""fullscreenenter"",""0"",""36374""
","""event"",""trial"",""time""
""fullscreenexit"",""2"",""65159""
","null","run_exp/static/images/Set 6_rs/111a.jpg","null","","","","","","learn","SL",""
"","html-keyboard-response","39","106834","0.0-39.0","""event"",""trial"",""time""
""fullscreenenter"",""0"",""36374""
""fullscreenexit"",""2"",""65159""
","
","
","""event"",""trial"",""time""
""fullscreenenter"",""0"",""36374""
","""event"",""trial"",""time""
""fullscreenexit"",""2"",""65159""
","null","<p></p>","null","","","","","","","",""
"","image","40","107737","0.0-40.0","""event"",""trial"",""time""
""fullscreenenter"",""0"",""36374""
""fullscreenexit"",""2"",""65159""
","
","
","""event"",""trial"",""time""
""fullscreenenter"",""0"",""36374""
","""event"",""trial"",""time""
""fullscreenexit"",""2"",""65159""
","901.9000000059605","run_exp/static/images/Set 6_rs/014a.jpg","86","","","","","","learn","SL",""
"","show_choice","41","108848","0.0-41.0","""event"",""trial"",""time""
""fullscreenenter"",""0"",""36374""
""fullscreenexit"",""2"",""65159""
","
","
","""event"",""trial"",""time""
""fullscreenenter"",""0"",""36374""
","""event"",""trial"",""time""
""fullscreenexit"",""2"",""65159""
","null","run_exp/static/images/Set 6_rs/014a.jpg","null","","","","","","learn","SL",""
"","html-keyboard-response","42","109359","0.0-42.0","""event"",""trial"",""time""
""fullscreenenter"",""0"",""36374""
""fullscreenexit"",""2"",""65159""
","
","
","""event"",""trial"",""time""
""fullscreenenter"",""0"",""36374""
","""event"",""trial"",""time""
""fullscreenexit"",""2"",""65159""
","null","<p></p>","null","","","","","","","",""
"","image","43","110334","0.0-43.0","""event"",""trial"",""time""
""fullscreenenter"",""0"",""36374""
""fullscreenexit"",""2"",""65159""
","
","
","""event"",""trial"",""time""
""fullscreenenter"",""0"",""36374""
","""event"",""trial"",""time""
""fullscreenexit"",""2"",""65159""
","974","run_exp/static/images/Set 6_rs/126a.jpg","78","","","","","","learn","SR",""
"","show_choice","44","111372","0.0-44.0","""event"",""trial"",""time""
""fullscreenenter"",""0"",""36374""
""fullscreenexit"",""2"",""65159""
","
","
","""event"",""trial"",""time""
""fullscreenenter"",""0"",""36374""
","""event"",""trial"",""time""
""fullscreenexit"",""2"",""65159""
","null","run_exp/static/images/Set 6_rs/126a.jpg","null","","","","","","learn","SR",""
"","html-keyboard-response","45","111885","0.0-45.0","""event"",""trial"",""time""
""fullscreenenter"",""0"",""36374""
""fullscreenexit"",""2"",""65159""
","
","
","""event"",""trial"",""time""
""fullscreenenter"",""0"",""36374""
","""event"",""trial"",""time""
""fullscreenexit"",""2"",""65159""
","null","<p></p>","null","","","","","","","",""
"","image","46","112944","0.0-46.0","""event"",""trial"",""time""
""fullscreenenter"",""0"",""36374""
""fullscreenexit"",""2"",""65159""
","
","
","""event"",""trial"",""time""
""fullscreenenter"",""0"",""36374""
","""event"",""trial"",""time""
""fullscreenexit"",""2"",""65159""
","1057.2000000029802","run_exp/static/images/Set 6_rs/017a.jpg","86","","","","","","learn","SL",""
"","show_choice","47","113901","0.0-47.0","""event"",""trial"",""time""
""fullscreenenter"",""0"",""36374""
""fullscreenexit"",""2"",""65159""
","
","
","""event"",""trial"",""time""
""fullscreenenter"",""0"",""36374""
","""event"",""trial"",""time""
""fullscreenexit"",""2"",""65159""
","null","run_exp/static/images/Set 6_rs/017a.jpg","null","","","","","","learn","SL",""
"","html-keyboard-response","48","114414","0.0-48.0","""event"",""trial"",""time""
""fullscreenenter"",""0"",""36374""
""fullscreenexit"",""2"",""65159""
","
","
","""event"",""trial"",""time""
""fullscreenenter"",""0"",""36374""
","""event"",""trial"",""time""
""fullscreenexit"",""2"",""65159""
","null","<p></p>","null","","","","","","","",""
"","image","49","115037","0.0-49.0","""event"",""trial"",""time""
""fullscreenenter"",""0"",""36374""
""fullscreenexit"",""2"",""65159""
","
","
","""event"",""trial"",""time""
""fullscreenenter"",""0"",""36374""
","""event"",""trial"",""time""
""fullscreenexit"",""2"",""65159""
","621.4000000059605","run_exp/static/images/Set 6_rs/023a.jpg","86","","","","","","learn","SR",""
"","show_choice","50","116425","0.0-50.0","""event"",""trial"",""time""
""fullscreenenter"",""0"",""36374""
""fullscreenexit"",""2"",""65159""
","
","
","""event"",""trial"",""time""
""fullscreenenter"",""0"",""36374""
","""event"",""trial"",""time""
""fullscreenexit"",""2"",""65159""
","null","run_exp/static/images/Set 6_rs/023a.jpg","null","","","","","","learn","SR",""
"","html-keyboard-response","51","116941","0.0-51.0","""event"",""trial"",""time""
""fullscreenenter"",""0"",""36374""
""fullscreenexit"",""2"",""65159""
","
","
","""event"",""trial"",""time""
""fullscreenenter"",""0"",""36374""
","""event"",""trial"",""time""
""fullscreenexit"",""2"",""65159""
","null","<p></p>","null","","","","","","","",""
"","image","52","117661","0.0-52.0","""event"",""trial"",""time""
""fullscreenenter"",""0"",""36374""
""fullscreenexit"",""2"",""65159""
","
","
","""event"",""trial"",""time""
""fullscreenenter"",""0"",""36374""
","""event"",""trial"",""time""
""fullscreenexit"",""2"",""65159""
","719.4000000059605","run_exp/static/images/Set 6_rs/150a.jpg","86","","","","","","learn","SR",""
"","show_choice","53","118954","0.0-53.0","""event"",""trial"",""time""
""fullscreenenter"",""0"",""36374""
""fullscreenexit"",""2"",""65159""
","
","
","""event"",""trial"",""time""
""fullscreenenter"",""0"",""36374""
","""event"",""trial"",""time""
""fullscreenexit"",""2"",""65159""
","null","run_exp/static/images/Set 6_rs/150a.jpg","null","","","","","","learn","SR",""
"","html-keyboard-response","54","119471","0.0-54.0","""event"",""trial"",""time""
""fullscreenenter"",""0"",""36374""
""fullscreenexit"",""2"",""65159""
","
","
","""event"",""trial"",""time""
""fullscreenenter"",""0"",""36374""
","""event"",""trial"",""time""
""fullscreenexit"",""2"",""65159""
","null","<p></p>","null","","","","","","","",""
"","image","55","120166","0.0-55.0","""event"",""trial"",""time""
""fullscreenenter"",""0"",""36374""
""fullscreenexit"",""2"",""65159""
","
","
","""event"",""trial"",""time""
""fullscreenenter"",""0"",""36374""
","""event"",""trial"",""time""
""fullscreenexit"",""2"",""65159""
","694.1000000089407","run_exp/static/images/Set 6_rs/123a.jpg","78","","","","","","learn","SL",""
"","show_choice","56","121488","0.0-56.0","""event"",""trial"",""time""
""fullscreenenter"",""0"",""36374""
""fullscreenexit"",""2"",""65159""
","
","
","""event"",""trial"",""time""
""fullscreenenter"",""0"",""36374""
","""event"",""trial"",""time""
""fullscreenexit"",""2"",""65159""
","null","run_exp/static/images/Set 6_rs/123a.jpg","null","","","","","","learn","SL",""
"","html-keyboard-response","57","122001","0.0-57.0","""event"",""trial"",""time""
""fullscreenenter"",""0"",""36374""
""fullscreenexit"",""2"",""65159""
","
","
","""event"",""trial"",""time""
""fullscreenenter"",""0"",""36374""
","""event"",""trial"",""time""
""fullscreenexit"",""2"",""65159""
","null","<p></p>","null","","","","","","","",""
"","image","58","122684","0.0-58.0","""event"",""trial"",""time""
""fullscreenenter"",""0"",""36374""
""fullscreenexit"",""2"",""65159""
","
","
","""event"",""trial"",""time""
""fullscreenenter"",""0"",""36374""
","""event"",""trial"",""time""
""fullscreenexit"",""2"",""65159""
","682.2999999970198","run_exp/static/images/Set 6_rs/071a.jpg","78","","","","","","learn","SL",""
"","show_choice","59","124015","0.0-59.0","""event"",""trial"",""time""
""fullscreenenter"",""0"",""36374""
""fullscreenexit"",""2"",""65159""
","
","
","""event"",""trial"",""time""
""fullscreenenter"",""0"",""36374""
","""event"",""trial"",""time""
""fullscreenexit"",""2"",""65159""
","null","run_exp/static/images/Set 6_rs/071a.jpg","null","","","","","","learn","SL",""
"","html-keyboard-response","60","124531","0.0-60.0","""event"",""trial"",""time""
""fullscreenenter"",""0"",""36374""
""fullscreenexit"",""2"",""65159""
","
","
","""event"",""trial"",""time""
""fullscreenenter"",""0"",""36374""
","""event"",""trial"",""time""
""fullscreenexit"",""2"",""65159""
","null","<p></p>","null","","","","","","","",""
"","image","61","125124","0.0-61.0","""event"",""trial"",""time""
""fullscreenenter"",""0"",""36374""
""fullscreenexit"",""2"",""65159""
","
","
","""event"",""trial"",""time""
""fullscreenenter"",""0"",""36374""
","""event"",""trial"",""time""
""fullscreenexit"",""2"",""65159""
","592.4000000059605","run_exp/static/images/Set 6_rs/045a.jpg","86","","","","","","learn","SR",""
"","show_choice","62","126539","0.0-62.0","""event"",""trial"",""time""
""fullscreenenter"",""0"",""36374""
""fullscreenexit"",""2"",""65159""
","
","
","""event"",""trial"",""time""
""fullscreenenter"",""0"",""36374""
","""event"",""trial"",""time""
""fullscreenexit"",""2"",""65159""
","null","run_exp/static/images/Set 6_rs/045a.jpg","null","","","","","","learn","SR",""
"","html-keyboard-response","63","127055","0.0-63.0","""event"",""trial"",""time""
""fullscreenenter"",""0"",""36374""
""fullscreenexit"",""2"",""65159""
","
","
","""event"",""trial"",""time""
""fullscreenenter"",""0"",""36374""
","""event"",""trial"",""time""
""fullscreenexit"",""2"",""65159""
","null","<p></p>","null","","","","","","","",""
"","image","64","128202","0.0-64.0","""event"",""trial"",""time""
""fullscreenenter"",""0"",""36374""
""fullscreenexit"",""2"",""65159""
","
","
","""event"",""trial"",""time""
""fullscreenenter"",""0"",""36374""
","""event"",""trial"",""time""
""fullscreenexit"",""2"",""65159""
","1145.3999999910593","run_exp/static/images/Set 6_rs/187a.jpg","86","","","","","","learn","SR",""
"","show_choice","65","129065","0.0-65.0","""event"",""trial"",""time""
""fullscreenenter"",""0"",""36374""
""fullscreenexit"",""2"",""65159""
","
","
","""event"",""trial"",""time""
""fullscreenenter"",""0"",""36374""
","""event"",""trial"",""time""
""fullscreenexit"",""2"",""65159""
","null","run_exp/static/images/Set 6_rs/187a.jpg","null","","","","","","learn","SR",""
"","html-keyboard-response","66","129581","0.0-66.0","""event"",""trial"",""time""
""fullscreenenter"",""0"",""36374""
""fullscreenexit"",""2"",""65159""
","
","
","""event"",""trial"",""time""
""fullscreenenter"",""0"",""36374""
","""event"",""trial"",""time""
""fullscreenexit"",""2"",""65159""
","null","<p></p>","null","","","","","","","",""
"","image","67","130660","0.0-67.0","""event"",""trial"",""time""
""fullscreenenter"",""0"",""36374""
""fullscreenexit"",""2"",""65159""
","
","
","""event"",""trial"",""time""
""fullscreenenter"",""0"",""36374""
","""event"",""trial"",""time""
""fullscreenexit"",""2"",""65159""
","1078.2000000029802","run_exp/static/images/Set 6_rs/025a.jpg","86","","","","","","learn","SL",""
"","show_choice","68","131594","0.0-68.0","""event"",""trial"",""time""
""fullscreenenter"",""0"",""36374""
""fullscreenexit"",""2"",""65159""
","
","
","""event"",""trial"",""time""
""fullscreenenter"",""0"",""36374""
","""event"",""trial"",""time""
""fullscreenexit"",""2"",""65159""
","null","run_exp/static/images/Set 6_rs/025a.jpg","null","","","","","","learn","SL",""
"","html-keyboard-response","69","132108","0.0-69.0","""event"",""trial"",""time""
""fullscreenenter"",""0"",""36374""
""fullscreenexit"",""2"",""65159""
","
","
","""event"",""trial"",""time""
""fullscreenenter"",""0"",""36374""
","""event"",""trial"",""time""
""fullscreenexit"",""2"",""65159""
","null","<p></p>","null","","","","","","","",""
"","image","70","132948","0.0-70.0","""event"",""trial"",""time""
""fullscreenenter"",""0"",""36374""
""fullscreenexit"",""2"",""65159""
","
","
","""event"",""trial"",""time""
""fullscreenenter"",""0"",""36374""
","""event"",""trial"",""time""
""fullscreenexit"",""2"",""65159""
","838.2999999970198","run_exp/static/images/Set 6_rs/089a.jpg","86","","","","","","learn","SL",""
"","show_choice","71","134118","0.0-71.0","""event"",""trial"",""time""
""fullscreenenter"",""0"",""36374""
""fullscreenexit"",""2"",""65159""
","
","
","""event"",""trial"",""time""
""fullscreenenter"",""0"",""36374""
","""event"",""trial"",""time""
""fullscreenexit"",""2"",""65159""
","null","run_exp/static/images/Set 6_rs/089a.jpg","null","","","","","","learn","SL",""
"","html-keyboard-response","72","134634","0.0-72.0","""event"",""trial"",""time""
""fullscreenenter"",""0"",""36374""
""fullscreenexit"",""2"",""65159""
","
","
","""event"",""trial"",""time""
""fullscreenenter"",""0"",""36374""
","""event"",""trial"",""time""
""fullscreenexit"",""2"",""65159""
","null","<p></p>","null","","","","","","","",""
"","image","73","135220","0.0-73.0","""event"",""trial"",""time""
""fullscreenenter"",""0"",""36374""
""fullscreenexit"",""2"",""65159""
","
","
","""event"",""trial"",""time""
""fullscreenenter"",""0"",""36374""
","""event"",""trial"",""time""
""fullscreenexit"",""2"",""65159""
","585.2000000029802","run_exp/static/images/Set 6_rs/007a.jpg","86","","","","","","learn","SR",""
"","show_choice","74","136643","0.0-74.0","""event"",""trial"",""time""
""fullscreenenter"",""0"",""36374""
""fullscreenexit"",""2"",""65159""
","
","
","""event"",""trial"",""time""
""fullscreenenter"",""0"",""36374""
","""event"",""trial"",""time""
""fullscreenexit"",""2"",""65159""
","null","run_exp/static/images/Set 6_rs/007a.jpg","null","","","","","","learn","SR",""
"","html-keyboard-response","75","137156","0.0-75.0","""event"",""trial"",""time""
""fullscreenenter"",""0"",""36374""
""fullscreenexit"",""2"",""65159""
","
","
","""event"",""trial"",""time""
""fullscreenenter"",""0"",""36374""
","""event"",""trial"",""time""
""fullscreenexit"",""2"",""65159""
","null","<p></p>","null","","","","","","","",""
"","image","76","138101","0.0-76.0","""event"",""trial"",""time""
""fullscreenenter"",""0"",""36374""
""fullscreenexit"",""2"",""65159""
","
","
","""event"",""trial"",""time""
""fullscreenenter"",""0"",""36374""
","""event"",""trial"",""time""
""fullscreenexit"",""2"",""65159""
","944","run_exp/static/images/Set 6_rs/166a.jpg","78","","","","","","learn","SR",""
"","show_choice","77","139163","0.0-77.0","""event"",""trial"",""time""
""fullscreenenter"",""0"",""36374""
""fullscreenexit"",""2"",""65159""
","
","
","""event"",""trial"",""time""
""fullscreenenter"",""0"",""36374""
","""event"",""trial"",""time""
""fullscreenexit"",""2"",""65159""
","null","run_exp/static/images/Set 6_rs/166a.jpg","null","","","","","","learn","SR",""
"","html-keyboard-response","78","139677","0.0-78.0","""event"",""trial"",""time""
""fullscreenenter"",""0"",""36374""
""fullscreenexit"",""2"",""65159""
","
","
","""event"",""trial"",""time""
""fullscreenenter"",""0"",""36374""
","""event"",""trial"",""time""
""fullscreenexit"",""2"",""65159""
","null","<p></p>","null","","","","","","","",""
"","image","79","140609","0.0-79.0","""event"",""trial"",""time""
""fullscreenenter"",""0"",""36374""
""fullscreenexit"",""2"",""65159""
","
","
","""event"",""trial"",""time""
""fullscreenenter"",""0"",""36374""
","""event"",""trial"",""time""
""fullscreenexit"",""2"",""65159""
","930.4000000059605","run_exp/static/images/Set 6_rs/062a.jpg","86","","","","","","learn","SL",""
"","show_choice","80","141690","0.0-80.0","""event"",""trial"",""time""
""fullscreenenter"",""0"",""36374""
""fullscreenexit"",""2"",""65159""
","
","
","""event"",""trial"",""time""
""fullscreenenter"",""0"",""36374""
","""event"",""trial"",""time""
""fullscreenexit"",""2"",""65159""
","null","run_exp/static/images/Set 6_rs/062a.jpg","null","","","","","","learn","SL",""
"","html-keyboard-response","81","142203","0.0-81.0","""event"",""trial"",""time""
""fullscreenenter"",""0"",""36374""
""fullscreenexit"",""2"",""65159""
","
","
","""event"",""trial"",""time""
""fullscreenenter"",""0"",""36374""
","""event"",""trial"",""time""
""fullscreenexit"",""2"",""65159""
","null","<p></p>","null","","","","","","","",""
"","image","82","143290","0.0-82.0","""event"",""trial"",""time""
""fullscreenenter"",""0"",""36374""
""fullscreenexit"",""2"",""65159""
","
","
","""event"",""trial"",""time""
""fullscreenenter"",""0"",""36374""
","""event"",""trial"",""time""
""fullscreenexit"",""2"",""65159""
","1085.800000011921","run_exp/static/images/Set 6_rs/177a.jpg","78","","","","","","learn","SR",""
"","show_choice","83","144207","0.0-83.0","""event"",""trial"",""time""
""fullscreenenter"",""0"",""36374""
""fullscreenexit"",""2"",""65159""
","
","
","""event"",""trial"",""time""
""fullscreenenter"",""0"",""36374""
","""event"",""trial"",""time""
""fullscreenexit"",""2"",""65159""
","null","run_exp/static/images/Set 6_rs/177a.jpg","null","","","","","","learn","SR",""
"","html-keyboard-response","84","144721","0.0-84.0","""event"",""trial"",""time""
""fullscreenenter"",""0"",""36374""
""fullscreenexit"",""2"",""65159""
","
","
","""event"",""trial"",""time""
""fullscreenenter"",""0"",""36374""
","""event"",""trial"",""time""
""fullscreenexit"",""2"",""65159""
","null","<p></p>","null","","","","","","","",""
"","image","85","145249","0.0-85.0","""event"",""trial"",""time""
""fullscreenenter"",""0"",""36374""
""fullscreenexit"",""2"",""65159""
","
","
","""event"",""trial"",""time""
""fullscreenenter"",""0"",""36374""
","""event"",""trial"",""time""
""fullscreenexit"",""2"",""65159""
","526.2000000029802","run_exp/static/images/Set 6_rs/154a.jpg","86","","","","","","learn","SR",""
"","show_choice","86","146731","0.0-86.0","""event"",""trial"",""time""
""fullscreenenter"",""0"",""36374""
""fullscreenexit"",""2"",""65159""
","
","
","""event"",""trial"",""time""
""fullscreenenter"",""0"",""36374""
","""event"",""trial"",""time""
""fullscreenexit"",""2"",""65159""
","null","run_exp/static/images/Set 6_rs/154a.jpg","null","","","","","","learn","SR",""
"","html-keyboard-response","87","147244","0.0-87.0","""event"",""trial"",""time""
""fullscreenenter"",""0"",""36374""
""fullscreenexit"",""2"",""65159""
","
","
","""event"",""trial"",""time""
""fullscreenenter"",""0"",""36374""
","""event"",""trial"",""time""
""fullscreenexit"",""2"",""65159""
","null","<p></p>","null","","","","","","","",""
"","image","88","148936","0.0-88.0","""event"",""trial"",""time""
""fullscreenenter"",""0"",""36374""
""fullscreenexit"",""2"",""65159""
","
","
","""event"",""trial"",""time""
""fullscreenenter"",""0"",""36374""
","""event"",""trial"",""time""
""fullscreenexit"",""2"",""65159""
","1690.2999999970198","run_exp/static/images/Set 6_rs/138a.jpg","86","","","","","","learn","SL",""
"","show_choice","89","149257","0.0-89.0","""event"",""trial"",""time""
""fullscreenenter"",""0"",""36374""
""fullscreenexit"",""2"",""65159""
","
","
","""event"",""trial"",""time""
""fullscreenenter"",""0"",""36374""
","""event"",""trial"",""time""
""fullscreenexit"",""2"",""65159""
","null","run_exp/static/images/Set 6_rs/138a.jpg","null","","","","","","learn","SL",""
"","html-keyboard-response","90","149772","0.0-90.0","""event"",""trial"",""time""
""fullscreenenter"",""0"",""36374""
""fullscreenexit"",""2"",""65159""
","
","
","""event"",""trial"",""time""
""fullscreenenter"",""0"",""36374""
","""event"",""trial"",""time""
""fullscreenexit"",""2"",""65159""
","null","<p></p>","null","","","","","","","",""
"","image","91","150553","0.0-91.0","""event"",""trial"",""time""
""fullscreenenter"",""0"",""36374""
""fullscreenexit"",""2"",""65159""
","
","
","""event"",""trial"",""time""
""fullscreenenter"",""0"",""36374""
","""event"",""trial"",""time""
""fullscreenexit"",""2"",""65159""
","779.7000000029802","run_exp/static/images/Set 6_rs/055a.jpg","86","","","","","","learn","SL",""
"","show_choice","92","151781","0.0-92.0","""event"",""trial"",""time""
""fullscreenenter"",""0"",""36374""
""fullscreenexit"",""2"",""65159""
","
","
","""event"",""trial"",""time""
""fullscreenenter"",""0"",""36374""
","""event"",""trial"",""time""
""fullscreenexit"",""2"",""65159""
","null","run_exp/static/images/Set 6_rs/055a.jpg","null","","","","","","learn","SL",""
"","html-keyboard-response","93","152294","0.0-93.0","""event"",""trial"",""time""
""fullscreenenter"",""0"",""36374""
""fullscreenexit"",""2"",""65159""
","
","
","""event"",""trial"",""time""
""fullscreenenter"",""0"",""36374""
","""event"",""trial"",""time""
""fullscreenexit"",""2"",""65159""
","null","<p></p>","null","","","","","","","",""
"","image","94","153574","0.0-94.0","""event"",""trial"",""time""
""fullscreenenter"",""0"",""36374""
""fullscreenexit"",""2"",""65159""
","
","
","""event"",""trial"",""time""
""fullscreenenter"",""0"",""36374""
","""event"",""trial"",""time""
""fullscreenexit"",""2"",""65159""
","1278","run_exp/static/images/Set 6_rs/141a.jpg","78","","","","","","learn","SR",""
"","show_choice","95","154306","0.0-95.0","""event"",""trial"",""time""
""fullscreenenter"",""0"",""36374""
""fullscreenexit"",""2"",""65159""
","
","
","""event"",""trial"",""time""
""fullscreenenter"",""0"",""36374""
","""event"",""trial"",""time""
""fullscreenexit"",""2"",""65159""
","null","run_exp/static/images/Set 6_rs/141a.jpg","null","","","","","","learn","SR",""
"","html-keyboard-response","96","154823","0.0-96.0","""event"",""trial"",""time""
""fullscreenenter"",""0"",""36374""
""fullscreenexit"",""2"",""65159""
","
","
","""event"",""trial"",""time""
""fullscreenenter"",""0"",""36374""
","""event"",""trial"",""time""
""fullscreenexit"",""2"",""65159""
","null","<p></p>","null","","","","","","","",""
"","image","97","155596","0.0-97.0","""event"",""trial"",""time""
""fullscreenenter"",""0"",""36374""
""fullscreenexit"",""2"",""65159""
","
","
","""event"",""trial"",""time""
""fullscreenenter"",""0"",""36374""
","""event"",""trial"",""time""
""fullscreenexit"",""2"",""65159""
","772.4000000059605","run_exp/static/images/Set 6_rs/075a.jpg","86","","","","","","learn","SR",""
"","show_choice","98","156835","0.0-98.0","""event"",""trial"",""time""
""fullscreenenter"",""0"",""36374""
""fullscreenexit"",""2"",""65159""
","
","
","""event"",""trial"",""time""
""fullscreenenter"",""0"",""36374""
","""event"",""trial"",""time""
""fullscreenexit"",""2"",""65159""
","null","run_exp/static/images/Set 6_rs/075a.jpg","null","","","","","","learn","SR",""
"","html-keyboard-response","99","157350","0.0-99.0","""event"",""trial"",""time""
""fullscreenenter"",""0"",""36374""
""fullscreenexit"",""2"",""65159""
","
","
","""event"",""trial"",""time""
""fullscreenenter"",""0"",""36374""
","""event"",""trial"",""time""
""fullscreenexit"",""2"",""65159""
","null","<p></p>","null","","","","","","","",""
"","image","100","158152","0.0-100.0","""event"",""trial"",""time""
""fullscreenenter"",""0"",""36374""
""fullscreenexit"",""2"",""65159""
","
","
","""event"",""trial"",""time""
""fullscreenenter"",""0"",""36374""
","""event"",""trial"",""time""
""fullscreenexit"",""2"",""65159""
","801","run_exp/static/images/Set 6_rs/012a.jpg","86","","","","","","learn","SR",""
"","show_choice","101","159362","0.0-101.0","""event"",""trial"",""time""
""fullscreenenter"",""0"",""36374""
""fullscreenexit"",""2"",""65159""
","
","
","""event"",""trial"",""time""
""fullscreenenter"",""0"",""36374""
","""event"",""trial"",""time""
""fullscreenexit"",""2"",""65159""
","null","run_exp/static/images/Set 6_rs/012a.jpg","null","","","","","","learn","SR",""
"","html-keyboard-response","102","159879","0.0-102.0","""event"",""trial"",""time""
""fullscreenenter"",""0"",""36374""
""fullscreenexit"",""2"",""65159""
","
","
","""event"",""trial"",""time""
""fullscreenenter"",""0"",""36374""
","""event"",""trial"",""time""
""fullscreenexit"",""2"",""65159""
","null","<p></p>","null","","","","","","","",""
"","image","103","161647","0.0-103.0","""event"",""trial"",""time""
""fullscreenenter"",""0"",""36374""
""fullscreenexit"",""2"",""65159""
","
","
","""event"",""trial"",""time""
""fullscreenenter"",""0"",""36374""
","""event"",""trial"",""time""
""fullscreenexit"",""2"",""65159""
","1767.2000000029802","run_exp/static/images/Set 6_rs/066a.jpg","78","","","","","","learn","SL",""
"","show_choice","104","161887","0.0-104.0","""event"",""trial"",""time""
""fullscreenenter"",""0"",""36374""
""fullscreenexit"",""2"",""65159""
","
","
","""event"",""trial"",""time""
""fullscreenenter"",""0"",""36374""
","""event"",""trial"",""time""
""fullscreenexit"",""2"",""65159""
","null","run_exp/static/images/Set 6_rs/066a.jpg","null","","","","","","learn","SL",""
"","html-keyboard-response","105","162398","0.0-105.0","""event"",""trial"",""time""
""fullscreenenter"",""0"",""36374""
""fullscreenexit"",""2"",""65159""
","
","
","""event"",""trial"",""time""
""fullscreenenter"",""0"",""36374""
","""event"",""trial"",""time""
""fullscreenexit"",""2"",""65159""
","null","<p></p>","null","","","","","","","",""
"","image","106","163449","0.0-106.0","""event"",""trial"",""time""
""fullscreenenter"",""0"",""36374""
""fullscreenexit"",""2"",""65159""
","
","
","""event"",""trial"",""time""
""fullscreenenter"",""0"",""36374""
","""event"",""trial"",""time""
""fullscreenexit"",""2"",""65159""
","1049.8999999910593","run_exp/static/images/Set 6_rs/073a.jpg","86","","","","","","learn","SL",""
"","show_choice","107","164410","0.0-107.0","""event"",""trial"",""time""
""fullscreenenter"",""0"",""36374""
""fullscreenexit"",""2"",""65159""
","
","
","""event"",""trial"",""time""
""fullscreenenter"",""0"",""36374""
","""event"",""trial"",""time""
""fullscreenexit"",""2"",""65159""
","null","run_exp/static/images/Set 6_rs/073a.jpg","null","","","","","","learn","SL",""
"","html-keyboard-response","108","164924","0.0-108.0","""event"",""trial"",""time""
""fullscreenenter"",""0"",""36374""
""fullscreenexit"",""2"",""65159""
","
","
","""event"",""trial"",""time""
""fullscreenenter"",""0"",""36374""
","""event"",""trial"",""time""
""fullscreenexit"",""2"",""65159""
","null","<p></p>","null","","","","","","","",""
"","image","109","165503","0.0-109.0","""event"",""trial"",""time""
""fullscreenenter"",""0"",""36374""
""fullscreenexit"",""2"",""65159""
","
","
","""event"",""trial"",""time""
""fullscreenenter"",""0"",""36374""
","""event"",""trial"",""time""
""fullscreenexit"",""2"",""65159""
","578.2999999970198","run_exp/static/images/Set 6_rs/186a.jpg","86","","","","","","learn","SR",""
"","show_choice","110","166934","0.0-110.0","""event"",""trial"",""time""
""fullscreenenter"",""0"",""36374""
""fullscreenexit"",""2"",""65159""
","
","
","""event"",""trial"",""time""
""fullscreenenter"",""0"",""36374""
","""event"",""trial"",""time""
""fullscreenexit"",""2"",""65159""
","null","run_exp/static/images/Set 6_rs/186a.jpg","null","","","","","","learn","SR",""
"","html-keyboard-response","111","167451","0.0-111.0","""event"",""trial"",""time""
""fullscreenenter"",""0"",""36374""
""fullscreenexit"",""2"",""65159""
","
","
","""event"",""trial"",""time""
""fullscreenenter"",""0"",""36374""
","""event"",""trial"",""time""
""fullscreenexit"",""2"",""65159""
","null","<p></p>","null","","","","","","","",""
"","image","112","168210","0.0-112.0","""event"",""trial"",""time""
""fullscreenenter"",""0"",""36374""
""fullscreenexit"",""2"",""65159""
","
","
","""event"",""trial"",""time""
""fullscreenenter"",""0"",""36374""
","""event"",""trial"",""time""
""fullscreenexit"",""2"",""65159""
","758.2000000029802","run_exp/static/images/Set 6_rs/064a.jpg","86","","","","","","learn","SR",""
"","show_choice","113","169458","0.0-113.0","""event"",""trial"",""time""
""fullscreenenter"",""0"",""36374""
""fullscreenexit"",""2"",""65159""
","
","
","""event"",""trial"",""time""
""fullscreenenter"",""0"",""36374""
","""event"",""trial"",""time""
""fullscreenexit"",""2"",""65159""
","null","run_exp/static/images/Set 6_rs/064a.jpg","null","","","","","","learn","SR",""
"","html-keyboard-response","114","169971","0.0-114.0","""event"",""trial"",""time""
""fullscreenenter"",""0"",""36374""
""fullscreenexit"",""2"",""65159""
","
","
","""event"",""trial"",""time""
""fullscreenenter"",""0"",""36374""
","""event"",""trial"",""time""
""fullscreenexit"",""2"",""65159""
","null","<p></p>","null","","","","","","","",""
"","image","115","170452","0.0-115.0","""event"",""trial"",""time""
""fullscreenenter"",""0"",""36374""
""fullscreenexit"",""2"",""65159""
","
","
","""event"",""trial"",""time""
""fullscreenenter"",""0"",""36374""
","""event"",""trial"",""time""
""fullscreenexit"",""2"",""65159""
","480","run_exp/static/images/Set 6_rs/152a.jpg","86","","","","","","learn","SR",""
"","show_choice","116","171982","0.0-116.0","""event"",""trial"",""time""
""fullscreenenter"",""0"",""36374""
""fullscreenexit"",""2"",""65159""
","
","
","""event"",""trial"",""time""
""fullscreenenter"",""0"",""36374""
","""event"",""trial"",""time""
""fullscreenexit"",""2"",""65159""
","null","run_exp/static/images/Set 6_rs/152a.jpg","null","","","","","","learn","SR",""
"","html-keyboard-response","117","172496","0.0-117.0","""event"",""trial"",""time""
""fullscreenenter"",""0"",""36374""
""fullscreenexit"",""2"",""65159""
","
","
","""event"",""trial"",""time""
""fullscreenenter"",""0"",""36374""
","""event"",""trial"",""time""
""fullscreenexit"",""2"",""65159""
","null","<p></p>","null","","","","","","","",""
"","image","118","173099","0.0-118.0","""event"",""trial"",""time""
""fullscreenenter"",""0"",""36374""
""fullscreenexit"",""2"",""65159""
","
","
","""event"",""trial"",""time""
""fullscreenenter"",""0"",""36374""
","""event"",""trial"",""time""
""fullscreenexit"",""2"",""65159""
","602.1000000089407","run_exp/static/images/Set 6_rs/010a.jpg","86","","","","","","learn","SR",""
"","show_choice","119","174507","0.0-119.0","""event"",""trial"",""time""
""fullscreenenter"",""0"",""36374""
""fullscreenexit"",""2"",""65159""
","
","
","""event"",""trial"",""time""
""fullscreenenter"",""0"",""36374""
","""event"",""trial"",""time""
""fullscreenexit"",""2"",""65159""
","null","run_exp/static/images/Set 6_rs/010a.jpg","null","","","","","","learn","SR",""
"","html-keyboard-response","120","175021","0.0-120.0","""event"",""trial"",""time""
""fullscreenenter"",""0"",""36374""
""fullscreenexit"",""2"",""65159""
","
","
","""event"",""trial"",""time""
""fullscreenenter"",""0"",""36374""
","""event"",""trial"",""time""
""fullscreenexit"",""2"",""65159""
","null","<p></p>","null","","","","","","","",""
"","image","121","175573","0.0-121.0","""event"",""trial"",""time""
""fullscreenenter"",""0"",""36374""
""fullscreenexit"",""2"",""65159""
","
","
","""event"",""trial"",""time""
""fullscreenenter"",""0"",""36374""
","""event"",""trial"",""time""
""fullscreenexit"",""2"",""65159""
","550.2999999970198","run_exp/static/images/Set 6_rs/121a.jpg","86","","","","","","learn","SR",""
"","show_choice","122","177033","0.0-122.0","""event"",""trial"",""time""
""fullscreenenter"",""0"",""36374""
""fullscreenexit"",""2"",""65159""
","
","
","""event"",""trial"",""time""
""fullscreenenter"",""0"",""36374""
","""event"",""trial"",""time""
""fullscreenexit"",""2"",""65159""
","null","run_exp/static/images/Set 6_rs/121a.jpg","null","","","","","","learn","SR",""
"","html-keyboard-response","123","177549","0.0-123.0","""event"",""trial"",""time""
""fullscreenenter"",""0"",""36374""
""fullscreenexit"",""2"",""65159""
","
","
","""event"",""trial"",""time""
""fullscreenenter"",""0"",""36374""
","""event"",""trial"",""time""
""fullscreenexit"",""2"",""65159""
","null","<p></p>","null","","","","","","","",""
"","image","124","178093","0.0-124.0","""event"",""trial"",""time""
""fullscreenenter"",""0"",""36374""
""fullscreenexit"",""2"",""65159""
","
","
","""event"",""trial"",""time""
""fullscreenenter"",""0"",""36374""
","""event"",""trial"",""time""
""fullscreenexit"",""2"",""65159""
","543.2999999970198","run_exp/static/images/Set 6_rs/108a.jpg","78","","","","","","learn","SR",""
"","show_choice","125","179560","0.0-125.0","""event"",""trial"",""time""
""fullscreenenter"",""0"",""36374""
""fullscreenexit"",""2"",""65159""
","
","
","""event"",""trial"",""time""
""fullscreenenter"",""0"",""36374""
","""event"",""trial"",""time""
""fullscreenexit"",""2"",""65159""
","null","run_exp/static/images/Set 6_rs/108a.jpg","null","","","","","","learn","SR",""
"","html-keyboard-response","126","180073","0.0-126.0","""event"",""trial"",""time""
""fullscreenenter"",""0"",""36374""
""fullscreenexit"",""2"",""65159""
","
","
","""event"",""trial"",""time""
""fullscreenenter"",""0"",""36374""
","""event"",""trial"",""time""
""fullscreenexit"",""2"",""65159""
","null","<p></p>","null","","","","","","","",""
"","image","127","180676","0.0-127.0","""event"",""trial"",""time""
""fullscreenenter"",""0"",""36374""
""fullscreenexit"",""2"",""65159""
","
","
","""event"",""trial"",""time""
""fullscreenenter"",""0"",""36374""
","""event"",""trial"",""time""
""fullscreenexit"",""2"",""65159""
","602.5","run_exp/static/images/Set 6_rs/070a.jpg","86","","","","","","learn","SR",""
"","show_choice","128","182075","0.0-128.0","""event"",""trial"",""time""
""fullscreenenter"",""0"",""36374""
""fullscreenexit"",""2"",""65159""
","
","
","""event"",""trial"",""time""
""fullscreenenter"",""0"",""36374""
","""event"",""trial"",""time""
""fullscreenexit"",""2"",""65159""
","null","run_exp/static/images/Set 6_rs/070a.jpg","null","","","","","","learn","SR",""
"","html-keyboard-response","129","182588","0.0-129.0","""event"",""trial"",""time""
""fullscreenenter"",""0"",""36374""
""fullscreenexit"",""2"",""65159""
","
","
","""event"",""trial"",""time""
""fullscreenenter"",""0"",""36374""
","""event"",""trial"",""time""
""fullscreenexit"",""2"",""65159""
","null","<p></p>","null","","","","","","","",""
"","image","130","183482","0.0-130.0","""event"",""trial"",""time""
""fullscreenenter"",""0"",""36374""
""fullscreenexit"",""2"",""65159""
","
","
","""event"",""trial"",""time""
""fullscreenenter"",""0"",""36374""
","""event"",""trial"",""time""
""fullscreenexit"",""2"",""65159""
","892","run_exp/static/images/Set 6_rs/088a.jpg","86","","","","","","learn","SR",""
"","show_choice","131","184604","0.0-131.0","""event"",""trial"",""time""
""fullscreenenter"",""0"",""36374""
""fullscreenexit"",""2"",""65159""
","
","
","""event"",""trial"",""time""
""fullscreenenter"",""0"",""36374""
","""event"",""trial"",""time""
""fullscreenexit"",""2"",""65159""
","null","run_exp/static/images/Set 6_rs/088a.jpg","null","","","","","","learn","SR",""
"","html-keyboard-response","132","185109","0.0-132.0","""event"",""trial"",""time""
""fullscreenenter"",""0"",""36374""
""fullscreenexit"",""2"",""65159""
","
","
","""event"",""trial"",""time""
""fullscreenenter"",""0"",""36374""
","""event"",""trial"",""time""
""fullscreenexit"",""2"",""65159""
","null","<p></p>","null","","","","","","","",""
"","image","133","186010","0.0-133.0","""event"",""trial"",""time""
""fullscreenenter"",""0"",""36374""
""fullscreenexit"",""2"",""65159""
","
","
","""event"",""trial"",""time""
""fullscreenenter"",""0"",""36374""
","""event"",""trial"",""time""
""fullscreenexit"",""2"",""65159""
","900.0999999940395","run_exp/static/images/Set 6_rs/063a.jpg","86","","","","","","learn","SR",""
"","show_choice","134","187120","0.0-134.0","""event"",""trial"",""time""
""fullscreenenter"",""0"",""36374""
""fullscreenexit"",""2"",""65159""
","
","
","""event"",""trial"",""time""
""fullscreenenter"",""0"",""36374""
","""event"",""trial"",""time""
""fullscreenexit"",""2"",""65159""
","null","run_exp/static/images/Set 6_rs/063a.jpg","null","","","","","","learn","SR",""
"","html-keyboard-response","135","187632","0.0-135.0","""event"",""trial"",""time""
""fullscreenenter"",""0"",""36374""
""fullscreenexit"",""2"",""65159""
","
","
","""event"",""trial"",""time""
""fullscreenenter"",""0"",""36374""
","""event"",""trial"",""time""
""fullscreenexit"",""2"",""65159""
","null","<p></p>","null","","","","","","","",""
"","image","136","188411","0.0-136.0","""event"",""trial"",""time""
""fullscreenenter"",""0"",""36374""
""fullscreenexit"",""2"",""65159""
","
","
","""event"",""trial"",""time""
""fullscreenenter"",""0"",""36374""
","""event"",""trial"",""time""
""fullscreenexit"",""2"",""65159""
","777.1999999880791","run_exp/static/images/Set 6_rs/178a.jpg","86","","","","","","learn","SR",""
"","show_choice","137","189638","0.0-137.0","""event"",""trial"",""time""
""fullscreenenter"",""0"",""36374""
""fullscreenexit"",""2"",""65159""
","
","
","""event"",""trial"",""time""
""fullscreenenter"",""0"",""36374""
","""event"",""trial"",""time""
""fullscreenexit"",""2"",""65159""
","null","run_exp/static/images/Set 6_rs/178a.jpg","null","","","","","","learn","SR",""
"","html-keyboard-response","138","190153","0.0-138.0","""event"",""trial"",""time""
""fullscreenenter"",""0"",""36374""
""fullscreenexit"",""2"",""65159""
","
","
","""event"",""trial"",""time""
""fullscreenenter"",""0"",""36374""
","""event"",""trial"",""time""
""fullscreenexit"",""2"",""65159""
","null","<p></p>","null","","","","","","","",""
"","image","139","190905","0.0-139.0","""event"",""trial"",""time""
""fullscreenenter"",""0"",""36374""
""fullscreenexit"",""2"",""65159""
","
","
","""event"",""trial"",""time""
""fullscreenenter"",""0"",""36374""
","""event"",""trial"",""time""
""fullscreenexit"",""2"",""65159""
","750.6999999880791","run_exp/static/images/Set 6_rs/079a.jpg","86","","","","","","learn","SL",""
"","show_choice","140","192165","0.0-140.0","""event"",""trial"",""time""
""fullscreenenter"",""0"",""36374""
""fullscreenexit"",""2"",""65159""
","
","
","""event"",""trial"",""time""
""fullscreenenter"",""0"",""36374""
","""event"",""trial"",""time""
""fullscreenexit"",""2"",""65159""
","null","run_exp/static/images/Set 6_rs/079a.jpg","null","","","","","","learn","SL",""
"","html-keyboard-response","141","192677","0.0-141.0","""event"",""trial"",""time""
""fullscreenenter"",""0"",""36374""
""fullscreenexit"",""2"",""65159""
","
","
","""event"",""trial"",""time""
""fullscreenenter"",""0"",""36374""
","""event"",""trial"",""time""
""fullscreenexit"",""2"",""65159""
","null","<p></p>","null","","","","","","","",""
"","image","142","193732","0.0-142.0","""event"",""trial"",""time""
""fullscreenenter"",""0"",""36374""
""fullscreenexit"",""2"",""65159""
","
","
","""event"",""trial"",""time""
""fullscreenenter"",""0"",""36374""
","""event"",""trial"",""time""
""fullscreenexit"",""2"",""65159""
","1054","run_exp/static/images/Set 6_rs/131a.jpg","86","","","","","","learn","SR",""
"","show_choice","143","194688","0.0-143.0","""event"",""trial"",""time""
""fullscreenenter"",""0"",""36374""
""fullscreenexit"",""2"",""65159""
","
","
","""event"",""trial"",""time""
""fullscreenenter"",""0"",""36374""
","""event"",""trial"",""time""
""fullscreenexit"",""2"",""65159""
","null","run_exp/static/images/Set 6_rs/131a.jpg","null","","","","","","learn","SR",""
"","html-keyboard-response","144","195189","0.0-144.0","""event"",""trial"",""time""
""fullscreenenter"",""0"",""36374""
""fullscreenexit"",""2"",""65159""
","
","
","""event"",""trial"",""time""
""fullscreenenter"",""0"",""36374""
","""event"",""trial"",""time""
""fullscreenexit"",""2"",""65159""
","null","<p></p>","null","","","","","","","",""
"","image","145","196345","0.0-145.0","""event"",""trial"",""time""
""fullscreenenter"",""0"",""36374""
""fullscreenexit"",""2"",""65159""
","
","
","""event"",""trial"",""time""
""fullscreenenter"",""0"",""36374""
","""event"",""trial"",""time""
""fullscreenexit"",""2"",""65159""
","1154.5","run_exp/static/images/Set 6_rs/116a.jpg","86","","","","","","learn","SL",""
"","show_choice","146","197195","0.0-146.0","""event"",""trial"",""time""
""fullscreenenter"",""0"",""36374""
""fullscreenexit"",""2"",""65159""
","
","
","""event"",""trial"",""time""
""fullscreenenter"",""0"",""36374""
","""event"",""trial"",""time""
""fullscreenexit"",""2"",""65159""
","null","run_exp/static/images/Set 6_rs/116a.jpg","null","","","","","","learn","SL",""
"","html-keyboard-response","147","197711","0.0-147.0","""event"",""trial"",""time""
""fullscreenenter"",""0"",""36374""
""fullscreenexit"",""2"",""65159""
","
","
","""event"",""trial"",""time""
""fullscreenenter"",""0"",""36374""
","""event"",""trial"",""time""
""fullscreenexit"",""2"",""65159""
","null","<p></p>","null","","","","","","","",""
"","image","148","199093","0.0-148.0","""event"",""trial"",""time""
""fullscreenenter"",""0"",""36374""
""fullscreenexit"",""2"",""65159""
","
","
","""event"",""trial"",""time""
""fullscreenenter"",""0"",""36374""
","""event"",""trial"",""time""
""fullscreenexit"",""2"",""65159""
","1381.5","run_exp/static/images/Set 6_rs/076a.jpg","78","","","","","","learn","SR",""
"","show_choice","149","199715","0.0-149.0","""event"",""trial"",""time""
""fullscreenenter"",""0"",""36374""
""fullscreenexit"",""2"",""65159""
","
","
","""event"",""trial"",""time""
""fullscreenenter"",""0"",""36374""
","""event"",""trial"",""time""
""fullscreenexit"",""2"",""65159""
","null","run_exp/static/images/Set 6_rs/076a.jpg","null","","","","","","learn","SR",""
"","html-keyboard-response","150","200230","0.0-150.0","""event"",""trial"",""time""
""fullscreenenter"",""0"",""36374""
""fullscreenexit"",""2"",""65159""
","
","
","""event"",""trial"",""time""
""fullscreenenter"",""0"",""36374""
","""event"",""trial"",""time""
""fullscreenexit"",""2"",""65159""
","null","<p></p>","null","","","","","","","",""
"","image","151","201154","0.0-151.0","""event"",""trial"",""time""
""fullscreenenter"",""0"",""36374""
""fullscreenexit"",""2"",""65159""
","
","
","""event"",""trial"",""time""
""fullscreenenter"",""0"",""36374""
","""event"",""trial"",""time""
""fullscreenexit"",""2"",""65159""
","923.2999999970198","run_exp/static/images/Set 6_rs/074a.jpg","78","","","","","","learn","SL",""
"","show_choice","152","202241","0.0-152.0","""event"",""trial"",""time""
""fullscreenenter"",""0"",""36374""
""fullscreenexit"",""2"",""65159""
","
","
","""event"",""trial"",""time""
""fullscreenenter"",""0"",""36374""
","""event"",""trial"",""time""
""fullscreenexit"",""2"",""65159""
","null","run_exp/static/images/Set 6_rs/074a.jpg","null","","","","","","learn","SL",""
"","html-keyboard-response","153","202743","0.0-153.0","""event"",""trial"",""time""
""fullscreenenter"",""0"",""36374""
""fullscreenexit"",""2"",""65159""
","
","
","""event"",""trial"",""time""
""fullscreenenter"",""0"",""36374""
","""event"",""trial"",""time""
""fullscreenexit"",""2"",""65159""
","null","<p></p>","null","","","","","","","",""
"","image","154","203302","0.0-154.0","""event"",""trial"",""time""
""fullscreenenter"",""0"",""36374""
""fullscreenexit"",""2"",""65159""
","
","
","""event"",""trial"",""time""
""fullscreenenter"",""0"",""36374""
","""event"",""trial"",""time""
""fullscreenexit"",""2"",""65159""
","557.7999999970198","run_exp/static/images/Set 6_rs/036a.jpg","78","","","","","","learn","SL",""
"","show_choice","155","204756","0.0-155.0","""event"",""trial"",""time""
""fullscreenenter"",""0"",""36374""
""fullscreenexit"",""2"",""65159""
","
","
","""event"",""trial"",""time""
""fullscreenenter"",""0"",""36374""
","""event"",""trial"",""time""
""fullscreenexit"",""2"",""65159""
","null","run_exp/static/images/Set 6_rs/036a.jpg","null","","","","","","learn","SL",""
"","html-keyboard-response","156","205270","0.0-156.0","""event"",""trial"",""time""
""fullscreenenter"",""0"",""36374""
""fullscreenexit"",""2"",""65159""
","
","
","""event"",""trial"",""time""
""fullscreenenter"",""0"",""36374""
","""event"",""trial"",""time""
""fullscreenexit"",""2"",""65159""
","null","<p></p>","null","","","","","","","",""
"","image","157","206130","0.0-157.0","""event"",""trial"",""time""
""fullscreenenter"",""0"",""36374""
""fullscreenexit"",""2"",""65159""
","
","
","""event"",""trial"",""time""
""fullscreenenter"",""0"",""36374""
","""event"",""trial"",""time""
""fullscreenexit"",""2"",""65159""
","858.7999999970198","run_exp/static/images/Set 6_rs/129a.jpg","86","","","","","","learn","SL",""
"","show_choice","158","207277","0.0-158.0","""event"",""trial"",""time""
""fullscreenenter"",""0"",""36374""
""fullscreenexit"",""2"",""65159""
","
","
","""event"",""trial"",""time""
""fullscreenenter"",""0"",""36374""
","""event"",""trial"",""time""
""fullscreenexit"",""2"",""65159""
","null","run_exp/static/images/Set 6_rs/129a.jpg","null","","","","","","learn","SL",""
"","html-keyboard-response","159","207788","0.0-159.0","""event"",""trial"",""time""
""fullscreenenter"",""0"",""36374""
""fullscreenexit"",""2"",""65159""
","
","
","""event"",""trial"",""time""
""fullscreenenter"",""0"",""36374""
","""event"",""trial"",""time""
""fullscreenexit"",""2"",""65159""
","null","<p></p>","null","","","","","","","",""
"","image","160","208494","0.0-160.0","""event"",""trial"",""time""
""fullscreenenter"",""0"",""36374""
""fullscreenexit"",""2"",""65159""
","
","
","""event"",""trial"",""time""
""fullscreenenter"",""0"",""36374""
","""event"",""trial"",""time""
""fullscreenexit"",""2"",""65159""
","704.7999999970198","run_exp/static/images/Set 6_rs/050a.jpg","86","","","","","","learn","SL",""
"","show_choice","161","209794","0.0-161.0","""event"",""trial"",""time""
""fullscreenenter"",""0"",""36374""
""fullscreenexit"",""2"",""65159""
","
","
","""event"",""trial"",""time""
""fullscreenenter"",""0"",""36374""
","""event"",""trial"",""time""
""fullscreenexit"",""2"",""65159""
","null","run_exp/static/images/Set 6_rs/050a.jpg","null","","","","","","learn","SL",""
"","html-keyboard-response","162","210309","0.0-162.0","""event"",""trial"",""time""
""fullscreenenter"",""0"",""36374""
""fullscreenexit"",""2"",""65159""
","
","
","""event"",""trial"",""time""
""fullscreenenter"",""0"",""36374""
","""event"",""trial"",""time""
""fullscreenexit"",""2"",""65159""
","null","<p></p>","null","","","","","","","",""
"","image","163","211298","0.0-163.0","""event"",""trial"",""time""
""fullscreenenter"",""0"",""36374""
""fullscreenexit"",""2"",""65159""
","
","
","""event"",""trial"",""time""
""fullscreenenter"",""0"",""36374""
","""event"",""trial"",""time""
""fullscreenexit"",""2"",""65159""
","987.7000000029802","run_exp/static/images/Set 6_rs/122a.jpg","86","","","","","","learn","SR",""
"","show_choice","164","212323","0.0-164.0","""event"",""trial"",""time""
""fullscreenenter"",""0"",""36374""
""fullscreenexit"",""2"",""65159""
","
","
","""event"",""trial"",""time""
""fullscreenenter"",""0"",""36374""
","""event"",""trial"",""time""
""fullscreenexit"",""2"",""65159""
","null","run_exp/static/images/Set 6_rs/122a.jpg","null","","","","","","learn","SR",""
"","html-keyboard-response","165","212836","0.0-165.0","""event"",""trial"",""time""
""fullscreenenter"",""0"",""36374""
""fullscreenexit"",""2"",""65159""
","
","
","""event"",""trial"",""time""
""fullscreenenter"",""0"",""36374""
","""event"",""trial"",""time""
""fullscreenexit"",""2"",""65159""
","null","<p></p>","null","","","","","","","",""
"","image","166","214152","0.0-166.0","""event"",""trial"",""time""
""fullscreenenter"",""0"",""36374""
""fullscreenexit"",""2"",""65159""
","
","
","""event"",""trial"",""time""
""fullscreenenter"",""0"",""36374""
","""event"",""trial"",""time""
""fullscreenexit"",""2"",""65159""
","1315.1000000089407","run_exp/static/images/Set 6_rs/132a.jpg","86","","","","","","learn","SR",""
"","show_choice","167","214844","0.0-167.0","""event"",""trial"",""time""
""fullscreenenter"",""0"",""36374""
""fullscreenexit"",""2"",""65159""
","
","
","""event"",""trial"",""time""
""fullscreenenter"",""0"",""36374""
","""event"",""trial"",""time""
""fullscreenexit"",""2"",""65159""
","null","run_exp/static/images/Set 6_rs/132a.jpg","null","","","","","","learn","SR",""
"","html-keyboard-response","168","215358","0.0-168.0","""event"",""trial"",""time""
""fullscreenenter"",""0"",""36374""
""fullscreenexit"",""2"",""65159""
","
","
","""event"",""trial"",""time""
""fullscreenenter"",""0"",""36374""
","""event"",""trial"",""time""
""fullscreenexit"",""2"",""65159""
","null","<p></p>","null","","","","","","","",""
"","image","169","216515","0.0-169.0","""event"",""trial"",""time""
""fullscreenenter"",""0"",""36374""
""fullscreenexit"",""2"",""65159""
","
","
","""event"",""trial"",""time""
""fullscreenenter"",""0"",""36374""
","""event"",""trial"",""time""
""fullscreenexit"",""2"",""65159""
","1155.7000000029802","run_exp/static/images/Set 6_rs/085a.jpg","78","","","","","","learn","SL",""
"","show_choice","170","217371","0.0-170.0","""event"",""trial"",""time""
""fullscreenenter"",""0"",""36374""
""fullscreenexit"",""2"",""65159""
","
","
","""event"",""trial"",""time""
""fullscreenenter"",""0"",""36374""
","""event"",""trial"",""time""
""fullscreenexit"",""2"",""65159""
","null","run_exp/static/images/Set 6_rs/085a.jpg","null","","","","","","learn","SL",""
"","html-keyboard-response","171","217884","0.0-171.0","""event"",""trial"",""time""
""fullscreenenter"",""0"",""36374""
""fullscreenexit"",""2"",""65159""
","
","
","""event"",""trial"",""time""
""fullscreenenter"",""0"",""36374""
","""event"",""trial"",""time""
""fullscreenexit"",""2"",""65159""
","null","<p></p>","null","","","","","","","",""
"","image","172","218660","0.0-172.0","""event"",""trial"",""time""
""fullscreenenter"",""0"",""36374""
""fullscreenexit"",""2"",""65159""
","
","
","""event"",""trial"",""time""
""fullscreenenter"",""0"",""36374""
","""event"",""trial"",""time""
""fullscreenexit"",""2"",""65159""
","774.5","run_exp/static/images/Set 6_rs/117a.jpg","86","","","","","","learn","SL",""
"","show_choice","173","219898","0.0-173.0","""event"",""trial"",""time""
""fullscreenenter"",""0"",""36374""
""fullscreenexit"",""2"",""65159""
","
","
","""event"",""trial"",""time""
""fullscreenenter"",""0"",""36374""
","""event"",""trial"",""time""
""fullscreenexit"",""2"",""65159""
","null","run_exp/static/images/Set 6_rs/117a.jpg","null","","","","","","learn","SL",""
"","html-keyboard-response","174","220410","0.0-174.0","""event"",""trial"",""time""
""fullscreenenter"",""0"",""36374""
""fullscreenexit"",""2"",""65159""
","
","
","""event"",""trial"",""time""
""fullscreenenter"",""0"",""36374""
","""event"",""trial"",""time""
""fullscreenexit"",""2"",""65159""
","null","<p></p>","null","","","","","","","",""
"","image","175","222331","0.0-175.0","""event"",""trial"",""time""
""fullscreenenter"",""0"",""36374""
""fullscreenexit"",""2"",""65159""
","
","
","""event"",""trial"",""time""
""fullscreenenter"",""0"",""36374""
","""event"",""trial"",""time""
""fullscreenexit"",""2"",""65159""
","1920.2999999970198","run_exp/static/images/Set 6_rs/167a.jpg","78","","","","","","learn","SL",""
"","show_choice","176","222411","0.0-176.0","""event"",""trial"",""time""
""fullscreenenter"",""0"",""36374""
""fullscreenexit"",""2"",""65159""
","
","
","""event"",""trial"",""time""
""fullscreenenter"",""0"",""36374""
","""event"",""trial"",""time""
""fullscreenexit"",""2"",""65159""
","null","run_exp/static/images/Set 6_rs/167a.jpg","null","","","","","","learn","SL",""
"","html-keyboard-response","177","222920","0.0-177.0","""event"",""trial"",""time""
""fullscreenenter"",""0"",""36374""
""fullscreenexit"",""2"",""65159""
","
","
","""event"",""trial"",""time""
""fullscreenenter"",""0"",""36374""
","""event"",""trial"",""time""
""fullscreenexit"",""2"",""65159""
","null","<p></p>","null","","","","","","","",""
"","image","178","223658","0.0-178.0","""event"",""trial"",""time""
""fullscreenenter"",""0"",""36374""
""fullscreenexit"",""2"",""65159""
","
","
","""event"",""trial"",""time""
""fullscreenenter"",""0"",""36374""
","""event"",""trial"",""time""
""fullscreenexit"",""2"",""65159""
","737.1000000089407","run_exp/static/images/Set 6_rs/006a.jpg","86","","","","","","learn","SL",""
"","show_choice","179","224933","0.0-179.0","""event"",""trial"",""time""
""fullscreenenter"",""0"",""36374""
""fullscreenexit"",""2"",""65159""
","
","
","""event"",""trial"",""time""
""fullscreenenter"",""0"",""36374""
","""event"",""trial"",""time""
""fullscreenexit"",""2"",""65159""
","null","run_exp/static/images/Set 6_rs/006a.jpg","null","","","","","","learn","SL",""
"","html-keyboard-response","180","225448","0.0-180.0","""event"",""trial"",""time""
""fullscreenenter"",""0"",""36374""
""fullscreenexit"",""2"",""65159""
","
","
","""event"",""trial"",""time""
""fullscreenenter"",""0"",""36374""
","""event"",""trial"",""time""
""fullscreenexit"",""2"",""65159""
","null","<p></p>","null","","","","","","","",""
"","image","181","226115","0.0-181.0","""event"",""trial"",""time""
""fullscreenenter"",""0"",""36374""
""fullscreenexit"",""2"",""65159""
","
","
","""event"",""trial"",""time""
""fullscreenenter"",""0"",""36374""
","""event"",""trial"",""time""
""fullscreenexit"",""2"",""65159""
","665.2999999970198","run_exp/static/images/Set 6_rs/057a.jpg","86","","","","","","learn","SL",""
"","show_choice","182","227457","0.0-182.0","""event"",""trial"",""time""
""fullscreenenter"",""0"",""36374""
""fullscreenexit"",""2"",""65159""
","
","
","""event"",""trial"",""time""
""fullscreenenter"",""0"",""36374""
","""event"",""trial"",""time""
""fullscreenexit"",""2"",""65159""
","null","run_exp/static/images/Set 6_rs/057a.jpg","null","","","","","","learn","SL",""
"","html-keyboard-response","183","227969","0.0-183.0","""event"",""trial"",""time""
""fullscreenenter"",""0"",""36374""
""fullscreenexit"",""2"",""65159""
","
","
","""event"",""trial"",""time""
""fullscreenenter"",""0"",""36374""
","""event"",""trial"",""time""
""fullscreenexit"",""2"",""65159""
","null","<p></p>","null","","","","","","","",""
"","image","184","228897","0.0-184.0","""event"",""trial"",""time""
""fullscreenenter"",""0"",""36374""
""fullscreenexit"",""2"",""65159""
","
","
","""event"",""trial"",""time""
""fullscreenenter"",""0"",""36374""
","""event"",""trial"",""time""
""fullscreenexit"",""2"",""65159""
","927.1999999880791","run_exp/static/images/Set 6_rs/144a.jpg","86","","","","","","learn","SL",""
"","show_choice","185","229981","0.0-185.0","""event"",""trial"",""time""
""fullscreenenter"",""0"",""36374""
""fullscreenexit"",""2"",""65159""
","
","
","""event"",""trial"",""time""
""fullscreenenter"",""0"",""36374""
","""event"",""trial"",""time""
""fullscreenexit"",""2"",""65159""
","null","run_exp/static/images/Set 6_rs/144a.jpg","null","","","","","","learn","SL",""
"","html-keyboard-response","186","230494","0.0-186.0","""event"",""trial"",""time""
""fullscreenenter"",""0"",""36374""
""fullscreenexit"",""2"",""65159""
","
","
","""event"",""trial"",""time""
""fullscreenenter"",""0"",""36374""
","""event"",""trial"",""time""
""fullscreenexit"",""2"",""65159""
","null","<p></p>","null","","","","","","","",""
"","image","187","231996","0.0-187.0","""event"",""trial"",""time""
""fullscreenenter"",""0"",""36374""
""fullscreenexit"",""2"",""65159""
","
","
","""event"",""trial"",""time""
""fullscreenenter"",""0"",""36374""
","""event"",""trial"",""time""
""fullscreenexit"",""2"",""65159""
","1501.6000000089407","run_exp/static/images/Set 6_rs/112a.jpg","86","","","","","","learn","SR",""
"","show_choice","188","232499","0.0-188.0","""event"",""trial"",""time""
""fullscreenenter"",""0"",""36374""
""fullscreenexit"",""2"",""65159""
","
","
","""event"",""trial"",""time""
""fullscreenenter"",""0"",""36374""
","""event"",""trial"",""time""
""fullscreenexit"",""2"",""65159""
","null","run_exp/static/images/Set 6_rs/112a.jpg","null","","","","","","learn","SR",""
"","html-keyboard-response","189","233012","0.0-189.0","""event"",""trial"",""time""
""fullscreenenter"",""0"",""36374""
""fullscreenexit"",""2"",""65159""
","
","
","""event"",""trial"",""time""
""fullscreenenter"",""0"",""36374""
","""event"",""trial"",""time""
""fullscreenexit"",""2"",""65159""
","null","<p></p>","null","","","","","","","",""
"","image","190","233733","0.0-190.0","""event"",""trial"",""time""
""fullscreenenter"",""0"",""36374""
""fullscreenexit"",""2"",""65159""
","
","
","""event"",""trial"",""time""
""fullscreenenter"",""0"",""36374""
","""event"",""trial"",""time""
""fullscreenexit"",""2"",""65159""
","719.2999999970198","run_exp/static/images/Set 6_rs/016a.jpg","86","","","","","","learn","SL",""
"","show_choice","191","235026","0.0-191.0","""event"",""trial"",""time""
""fullscreenenter"",""0"",""36374""
""fullscreenexit"",""2"",""65159""
","
","
","""event"",""trial"",""time""
""fullscreenenter"",""0"",""36374""
","""event"",""trial"",""time""
""fullscreenexit"",""2"",""65159""
","null","run_exp/static/images/Set 6_rs/016a.jpg","null","","","","","","learn","SL",""
"","html-keyboard-response","192","235539","0.0-192.0","""event"",""trial"",""time""
""fullscreenenter"",""0"",""36374""
""fullscreenexit"",""2"",""65159""
","
","
","""event"",""trial"",""time""
""fullscreenenter"",""0"",""36374""
","""event"",""trial"",""time""
""fullscreenexit"",""2"",""65159""
","null","<p></p>","null","","","","","","","",""
"","image","193","236789","0.0-193.0","""event"",""trial"",""time""
""fullscreenenter"",""0"",""36374""
""fullscreenexit"",""2"",""65159""
","
","
","""event"",""trial"",""time""
""fullscreenenter"",""0"",""36374""
","""event"",""trial"",""time""
""fullscreenexit"",""2"",""65159""
","1249.5","run_exp/static/images/Set 6_rs/091a.jpg","78","","","","","","learn","SL",""
"","show_choice","194","237550","0.0-194.0","""event"",""trial"",""time""
""fullscreenenter"",""0"",""36374""
""fullscreenexit"",""2"",""65159""
","
","
","""event"",""trial"",""time""
""fullscreenenter"",""0"",""36374""
","""event"",""trial"",""time""
""fullscreenexit"",""2"",""65159""
","null","run_exp/static/images/Set 6_rs/091a.jpg","null","","","","","","learn","SL",""
"","html-keyboard-response","195","238063","0.0-195.0","""event"",""trial"",""time""
""fullscreenenter"",""0"",""36374""
""fullscreenexit"",""2"",""65159""
","
","
","""event"",""trial"",""time""
""fullscreenenter"",""0"",""36374""
","""event"",""trial"",""time""
""fullscreenexit"",""2"",""65159""
","null","<p></p>","null","","","","","","","",""
"","test_intro","196","275540","0.0-196.0","""event"",""trial"",""time""
""fullscreenenter"",""0"",""36374""
""fullscreenexit"",""2"",""65159""
","
","
","""event"",""trial"",""time""
""fullscreenenter"",""0"",""36374""
","""event"",""trial"",""time""
""fullscreenexit"",""2"",""65159""
","null","run_exp/static/audio/clip_2_memory.m4a","null","","","","","<div class='center'><p>Now, lets see how much you remember about the items you just saw.  For each item, you need to indicate if it was <b>old</b> by pressing the <b>v</b> key, <b>similar</b> by pressing the <b>b</b> key, or <b>new</b> by pressing the <b>n</b> key.</p><p>Old refers to an item that you saw before in the indoor/outdoor game that you just played, new refers to an item you have <b>not</b> seen before within the indoor/outdoor game, and similar refers to an item that is similar to an item youve seen before but is not exactly the same. </p><p>Before we begin, lets go over some brief demonstrations to make sure you understand.</p></div>","","",""
"","html-keyboard-response","197","279262","0.0-197.0","""event"",""trial"",""time""
""fullscreenenter"",""0"",""36374""
""fullscreenexit"",""2"",""65159""
","
","
","""event"",""trial"",""time""
""fullscreenenter"",""0"",""36374""
","""event"",""trial"",""time""
""fullscreenexit"",""2"",""65159""
","3719.7000000029802","<div class='center'><p>Now, lets see how much you remember about the items you just saw.  For each item, you need to indicate if it was <b>old</b> by pressing the <b>v</b> key, <b>similar</b> by pressing the <b>b</b> key, or <b>new</b> by pressing the <b>n</b> key.</p><p>Old refers to an item that you saw before in the indoor/outdoor game that you just played, new refers to an item you have <b>not</b> seen before within the indoor/outdoor game, and similar refers to an item that is similar to an item youve seen before but is not exactly the same. </p><p>Before we begin, lets go over some brief demonstrations to make sure you understand.</p><div><p><b>[Press the space bar to continue]</b></p></div>","32","","","","","","","",""
"","items","198","286770","0.0-198.0","""event"",""trial"",""time""
""fullscreenenter"",""0"",""36374""
""fullscreenexit"",""2"",""65159""
","
","
","""event"",""trial"",""time""
""fullscreenenter"",""0"",""36374""
","""event"",""trial"",""time""
""fullscreenexit"",""2"",""65159""
","null","run_exp/static/audio/clip_3_items.m4a","null","","","","","","","",""
"","mop","199","291278","0.0-199.0","""event"",""trial"",""time""
""fullscreenenter"",""0"",""36374""
""fullscreenexit"",""2"",""65159""
","
","
","""event"",""trial"",""time""
""fullscreenenter"",""0"",""36374""
","""event"",""trial"",""time""
""fullscreenexit"",""2"",""65159""
","null","run_exp/static/audio/clip_4_mop.m4a","null","","","","","","","",""
"","baseball","200","294787","0.0-200.0","""event"",""trial"",""time""
""fullscreenenter"",""0"",""36374""
""fullscreenexit"",""2"",""65159""
","
","
","""event"",""trial"",""time""
""fullscreenenter"",""0"",""36374""
","""event"",""trial"",""time""
""fullscreenexit"",""2"",""65159""
","null","run_exp/static/audio/clip_5_baseball.m4a","null","","","","","","","",""
"","trumpet","201","298300","0.0-201.0","""event"",""trial"",""time""
""fullscreenenter"",""0"",""36374""
""fullscreenexit"",""2"",""65159""
","
","
","""event"",""trial"",""time""
""fullscreenenter"",""0"",""36374""
","""event"",""trial"",""time""
""fullscreenexit"",""2"",""65159""
","null","run_exp/static/audio/clip_6_trumpet.m4a","null","","","","","","","",""
"","gummies","202","301804","0.0-202.0","""event"",""trial"",""time""
""fullscreenenter"",""0"",""36374""
""fullscreenexit"",""2"",""65159""
","
","
","""event"",""trial"",""time""
""fullscreenenter"",""0"",""36374""
","""event"",""trial"",""time""
""fullscreenexit"",""2"",""65159""
","null","run_exp/static/audio/clip_7_gummies.m4a","null","","","","","","","",""
"","osn","203","306317","0.0-203.0","""event"",""trial"",""time""
""fullscreenenter"",""0"",""36374""
""fullscreenexit"",""2"",""65159""
","
","
","""event"",""trial"",""time""
""fullscreenenter"",""0"",""36374""
","""event"",""trial"",""time""
""fullscreenexit"",""2"",""65159""
","null","run_exp/static/audio/clip_8_osn.m4a","null","","","","","","","",""
"","old_1","204","312821","0.0-204.0","""event"",""trial"",""time""
""fullscreenenter"",""0"",""36374""
""fullscreenexit"",""2"",""65159""
","
","
","""event"",""trial"",""time""
""fullscreenenter"",""0"",""36374""
","""event"",""trial"",""time""
""fullscreenexit"",""2"",""65159""
","null","run_exp/static/audio/clip_9_old_trumpet.m4a","null","","","","","","","",""
"","new_1","205","320326","0.0-205.0","""event"",""trial"",""time""
""fullscreenenter"",""0"",""36374""
""fullscreenexit"",""2"",""65159""
","
","
","""event"",""trial"",""time""
""fullscreenenter"",""0"",""36374""
","""event"",""trial"",""time""
""fullscreenexit"",""2"",""65159""
","null","run_exp/static/audio/clip_10_new_balloon.m4a","null","","","","","","","",""
"","similar_1a","206","324837","0.0-206.0","""event"",""trial"",""time""
""fullscreenenter"",""0"",""36374""
""fullscreenexit"",""2"",""65159""
","
","
","""event"",""trial"",""time""
""fullscreenenter"",""0"",""36374""
","""event"",""trial"",""time""
""fullscreenexit"",""2"",""65159""
","null","run_exp/static/audio/clip_11a_similar_mop.m4a","null","","","","","","","",""
"","similar_1b","207","331350","0.0-207.0","""event"",""trial"",""time""
""fullscreenenter"",""0"",""36374""
""fullscreenexit"",""2"",""65159""
","
","
","""event"",""trial"",""time""
""fullscreenenter"",""0"",""36374""
","""event"",""trial"",""time""
""fullscreenexit"",""2"",""65159""
","null","run_exp/static/audio/clip_11b_similar_mop.m4a","null","","","","","","","",""
"","new_2","208","334868","0.0-208.0","""event"",""trial"",""time""
""fullscreenenter"",""0"",""36374""
""fullscreenexit"",""2"",""65159""
","
","
","""event"",""trial"",""time""
""fullscreenenter"",""0"",""36374""
","""event"",""trial"",""time""
""fullscreenexit"",""2"",""65159""
","null","run_exp/static/audio/clip_12_new_stoplight.m4a","null","","","","","","","",""
"","old_2","209","338382","0.0-209.0","""event"",""trial"",""time""
""fullscreenenter"",""0"",""36374""
""fullscreenexit"",""2"",""65159""
","
","
","""event"",""trial"",""time""
""fullscreenenter"",""0"",""36374""
","""event"",""trial"",""time""
""fullscreenexit"",""2"",""65159""
","null","run_exp/static/audio/clip_13_old_baseball.m4a","null","","","","","","","",""
"","similar_2a","210","341887","0.0-210.0","""event"",""trial"",""time""
""fullscreenenter"",""0"",""36374""
""fullscreenexit"",""2"",""65159""
","
","
","""event"",""trial"",""time""
""fullscreenenter"",""0"",""36374""
","""event"",""trial"",""time""
""fullscreenexit"",""2"",""65159""
","null","run_exp/static/audio/clip_14a_similar_gummies.m4a","null","","","","","","","",""
"","similar_2b","211","349403","0.0-211.0","""event"",""trial"",""time""
""fullscreenenter"",""0"",""36374""
""fullscreenexit"",""2"",""65159""
","
","
","""event"",""trial"",""time""
""fullscreenenter"",""0"",""36374""
","""event"",""trial"",""time""
""fullscreenexit"",""2"",""65159""
","null","run_exp/static/audio/clip_14b_similar_gummies.m4a","null","","","","","","","",""
"","practice","212","391541","0.0-212.0","""event"",""trial"",""time""
""fullscreenenter"",""0"",""36374""
""fullscreenexit"",""2"",""65159""
","
","
","""event"",""trial"",""time""
""fullscreenenter"",""0"",""36374""
","""event"",""trial"",""time""
""fullscreenexit"",""2"",""65159""
","null","run_exp/static/audio/clip_15_practice.m4a","null","","","","","<div class='center'><p>Lets practice a little to make sure you understand the difference between new, similar, and old. Lets say you saw these three items in the indoor/outdoor game.</p><p> Try your best to remember these images because youll soon be tested on them in a practice game. In the practice game, youll be shown images and youll have to say if they are old (one of the three images belows), similar (similar to one of the images below but not exactly the same), or new (are not one of the images below nor similar to them).</p><p>Once you press the space bar youll be shown these images again but one at time. Then youll begin the practice game.</p><p><img src='run_exp/static/images/tutorial/test/three_indoor_outdoor.png' height='300'></p></div>","","",""
"","html-keyboard-response","213","391571","0.0-213.0","""event"",""trial"",""time""
""fullscreenenter"",""0"",""36374""
""fullscreenexit"",""2"",""65159""
","
","
","""event"",""trial"",""time""
""fullscreenenter"",""0"",""36374""
","""event"",""trial"",""time""
""fullscreenexit"",""2"",""65159""
","28.30000001192093","<div class='center'><p>Lets practice a little to make sure you understand the difference between new, similar, and old. Lets say you saw these three items in the indoor/outdoor game.</p><p> Try your best to remember these images because youll soon be tested on them in a practice game. In the practice game, youll be shown images and youll have to say if they are old (one of the three images belows), similar (similar to one of the images below but not exactly the same), or new (are not one of the images below nor similar to them).</p><p>Once you press the space bar youll be shown these images again but one at time. Then youll begin the practice game.</p><p><img src='run_exp/static/images/tutorial/test/three_indoor_outdoor.png' height='300'></p><div><p><b>[Press the space bar to continue]</b></p></div>","32","","","","","","","",""
"","planet","214","393578","0.0-214.0","""event"",""trial"",""time""
""fullscreenenter"",""0"",""36374""
""fullscreenexit"",""2"",""65159""
","
","
","""event"",""trial"",""time""
""fullscreenenter"",""0"",""36374""
","""event"",""trial"",""time""
""fullscreenexit"",""2"",""65159""
","null","run_exp/static/images/tutorial/test/008a.jpg","null","","","","","","","",""
"","boot","215","395588","0.0-215.0","""event"",""trial"",""time""
""fullscreenenter"",""0"",""36374""
""fullscreenexit"",""2"",""65159""
","
","
","""event"",""trial"",""time""
""fullscreenenter"",""0"",""36374""
","""event"",""trial"",""time""
""fullscreenexit"",""2"",""65159""
","null","run_exp/static/images/tutorial/test/011a.jpg","null","","","","","","","",""
"","lemon","216","397596","0.0-216.0","""event"",""trial"",""time""
""fullscreenenter"",""0"",""36374""
""fullscreenexit"",""2"",""65159""
","
","
","""event"",""trial"",""time""
""fullscreenenter"",""0"",""36374""
","""event"",""trial"",""time""
""fullscreenexit"",""2"",""65159""
","null","run_exp/static/images/tutorial/test/018a.jpg","null","","","","","","","",""
"","practice_q1","217","400082","0.0-217.0","""event"",""trial"",""time""
""fullscreenenter"",""0"",""36374""
""fullscreenexit"",""2"",""65159""
","
","
","""event"",""trial"",""time""
""fullscreenenter"",""0"",""36374""
","""event"",""trial"",""time""
""fullscreenexit"",""2"",""65159""
","2484.5","run_exp/static/audio/clip_16_practice_question.m4a","78","","","","","","","",""
"","correct","218","402001","0.0-218.0-0.0","""event"",""trial"",""time""
""fullscreenenter"",""0"",""36374""
""fullscreenexit"",""2"",""65159""
","
","
","""event"",""trial"",""time""
""fullscreenenter"",""0"",""36374""
","""event"",""trial"",""time""
""fullscreenexit"",""2"",""65159""
","null","run_exp/static/audio/clip_17_correct.m4a","null","","","","","<div class='center'><p>That's correct!</p></div>","","",""
"","html-keyboard-response","219","402861","0.0-218.0-1.0","""event"",""trial"",""time""
""fullscreenenter"",""0"",""36374""
""fullscreenexit"",""2"",""65159""
","
","
","""event"",""trial"",""time""
""fullscreenenter"",""0"",""36374""
","""event"",""trial"",""time""
""fullscreenexit"",""2"",""65159""
","859.2000000029802","<div class='center'><p>That's correct!</p><div><p><b>[Press the space bar to continue]</b></p></div>","32","","","","","","","",""
"","practice_q2","220","405927","0.0-218.0-2.0","""event"",""trial"",""time""
""fullscreenenter"",""0"",""36374""
""fullscreenexit"",""2"",""65159""
","
","
","""event"",""trial"",""time""
""fullscreenenter"",""0"",""36374""
","""event"",""trial"",""time""
""fullscreenexit"",""2"",""65159""
","3064.6000000089407","run_exp/static/audio/clip_16_practice_question.m4a","66","","","","","","","",""
"","incorrect_q2","221","409021","0.0-219.0-0.0","""event"",""trial"",""time""
""fullscreenenter"",""0"",""36374""
""fullscreenexit"",""2"",""65159""
","
","
","""event"",""trial"",""time""
""fullscreenenter"",""0"",""36374""
","""event"",""trial"",""time""
""fullscreenexit"",""2"",""65159""
","null","run_exp/static/audio/clip_19_incorrect_old.m4a","null","","","","","<div class='center'><p>Thats incorrect. Its old.</p></div>","","",""
"","html-keyboard-response","222","409813","0.0-219.0-1.0","""event"",""trial"",""time""
""fullscreenenter"",""0"",""36374""
""fullscreenexit"",""2"",""65159""
","
","
","""event"",""trial"",""time""
""fullscreenenter"",""0"",""36374""
","""event"",""trial"",""time""
""fullscreenexit"",""2"",""65159""
","791.1000000089407","<div class='center'><p>Thats incorrect. Its old.</p><div><p><b>[Press the space bar to continue]</b></p></div>","32","","","","","","","",""
"","practice_q3","223","411211","0.0-219.0-2.0","""event"",""trial"",""time""
""fullscreenenter"",""0"",""36374""
""fullscreenexit"",""2"",""65159""
","
","
","""event"",""trial"",""time""
""fullscreenenter"",""0"",""36374""
","""event"",""trial"",""time""
""fullscreenexit"",""2"",""65159""
","1396.3999999910593","run_exp/static/audio/clip_16_practice_question.m4a","86","","","","","","","",""
"","incorrect_q3","224","413980","0.0-220.0-0.0","""event"",""trial"",""time""
""fullscreenenter"",""0"",""36374""
""fullscreenexit"",""2"",""65159""
","
","
","""event"",""trial"",""time""
""fullscreenenter"",""0"",""36374""
","""event"",""trial"",""time""
""fullscreenexit"",""2"",""65159""
","null","run_exp/static/audio/clip_20_incorrect_similar.m4a","null","","","","","<div class='center'><p>Thats incorrect. Its similar.</p><p><img src='run_exp/static/images/tutorial/test/boot_comparison.png' height='300'></p></div>","","",""
"","html-keyboard-response","225","417540","0.0-220.0-1.0","""event"",""trial"",""time""
""fullscreenenter"",""0"",""36374""
""fullscreenexit"",""2"",""65159""
","
","
","""event"",""trial"",""time""
""fullscreenenter"",""0"",""36374""
","""event"",""trial"",""time""
""fullscreenexit"",""2"",""65159""
","3557.2999999970198","<div class='center'><p>Thats incorrect. Its similar.</p><p><img src='run_exp/static/images/tutorial/test/boot_comparison.png' height='300'></p><div><p><b>[Press the space bar to continue]</b></p></div>","32","","","","","","","",""
"","repeat","226","422301","0.0-221.0-0.0","""event"",""trial"",""time""
""fullscreenenter"",""0"",""36374""
""fullscreenexit"",""2"",""65159""
","
","
","""event"",""trial"",""time""
""fullscreenenter"",""0"",""36374""
","""event"",""trial"",""time""
""fullscreenexit"",""2"",""65159""
","null","run_exp/static/audio/clip_21_practice_again.m4a","null","","","","","<div class='center'><p>Oops. you missed at least one of these questions. Let's try practicing again. </p></div>","","",""
"","html-keyboard-response","227","422949","0.0-221.0-1.0","""event"",""trial"",""time""
""fullscreenenter"",""0"",""36374""
""fullscreenexit"",""2"",""65159""
","
","
","""event"",""trial"",""time""
""fullscreenenter"",""0"",""36374""
","""event"",""trial"",""time""
""fullscreenexit"",""2"",""65159""
","646.9000000059605","<div class='center'><p>Oops. you missed at least one of these questions. Let's try practicing again. </p><div><p><b>[Press the space bar to continue]</b></p></div>","32","","","","","","","",""
"","practice_q1","228","424647","0.0-221.0-2.0","""event"",""trial"",""time""
""fullscreenenter"",""0"",""36374""
""fullscreenexit"",""2"",""65159""
","
","
","""event"",""trial"",""time""
""fullscreenenter"",""0"",""36374""
","""event"",""trial"",""time""
""fullscreenexit"",""2"",""65159""
","1696.199999988079","run_exp/static/audio/clip_16_practice_question.m4a","78","","","","","","","",""
"","correct","229","426561","0.0-222.0-0.0","""event"",""trial"",""time""
""fullscreenenter"",""0"",""36374""
""fullscreenexit"",""2"",""65159""
","
","
","""event"",""trial"",""time""
""fullscreenenter"",""0"",""36374""
","""event"",""trial"",""time""
""fullscreenexit"",""2"",""65159""
","null","run_exp/static/audio/clip_17_correct.m4a","null","","","","","<div class='center'><p>That's correct!</p></div>","","",""
"","html-keyboard-response","230","427240","0.0-222.0-1.0","""event"",""trial"",""time""
""fullscreenenter"",""0"",""36374""
""fullscreenexit"",""2"",""65159""
","
","
","""event"",""trial"",""time""
""fullscreenenter"",""0"",""36374""
","""event"",""trial"",""time""
""fullscreenexit"",""2"",""65159""
","678.3999999910593","<div class='center'><p>That's correct!</p><div><p><b>[Press the space bar to continue]</b></p></div>","32","","","","","","","",""
"","practice_q2","231","428274","0.0-222.0-2.0","""event"",""trial"",""time""
""fullscreenenter"",""0"",""36374""
""fullscreenexit"",""2"",""65159""
","
","
","""event"",""trial"",""time""
""fullscreenenter"",""0"",""36374""
","""event"",""trial"",""time""
""fullscreenexit"",""2"",""65159""
","1032.2999999970198","run_exp/static/audio/clip_16_practice_question.m4a","86","","","","","","","",""
"","correct","232","430160","0.0-223.0-0.0","""event"",""trial"",""time""
""fullscreenenter"",""0"",""36374""
""fullscreenexit"",""2"",""65159""
","
","
","""event"",""trial"",""time""
""fullscreenenter"",""0"",""36374""
","""event"",""trial"",""time""
""fullscreenexit"",""2"",""65159""
","null","run_exp/static/audio/clip_17_correct.m4a","null","","","","","<div class='center'><p>That's correct!</p></div>","","",""
"","html-keyboard-response","233","430772","0.0-223.0-1.0","""event"",""trial"",""time""
""fullscreenenter"",""0"",""36374""
""fullscreenexit"",""2"",""65159""
","
","
","""event"",""trial"",""time""
""fullscreenenter"",""0"",""36374""
","""event"",""trial"",""time""
""fullscreenexit"",""2"",""65159""
","611.2000000029802","<div class='center'><p>That's correct!</p><div><p><b>[Press the space bar to continue]</b></p></div>","32","","","","","","","",""
"","practice_q3","234","431491","0.0-223.0-2.0","""event"",""trial"",""time""
""fullscreenenter"",""0"",""36374""
""fullscreenexit"",""2"",""65159""
","
","
","""event"",""trial"",""time""
""fullscreenenter"",""0"",""36374""
","""event"",""trial"",""time""
""fullscreenexit"",""2"",""65159""
","718.2000000029802","run_exp/static/audio/clip_16_practice_question.m4a","66","","","","","","","",""
"","correct","235","433481","0.0-224.0-0.0","""event"",""trial"",""time""
""fullscreenenter"",""0"",""36374""
""fullscreenexit"",""2"",""65159""
","
","
","""event"",""trial"",""time""
""fullscreenenter"",""0"",""36374""
","""event"",""trial"",""time""
""fullscreenexit"",""2"",""65159""
","null","run_exp/static/audio/clip_17_correct.m4a","null","","","","","<div class='center'><p>That's correct!</p></div>","","",""
"","html-keyboard-response","236","435017","0.0-224.0-1.0","""event"",""trial"",""time""
""fullscreenenter"",""0"",""36374""
""fullscreenexit"",""2"",""65159""
","
","
","""event"",""trial"",""time""
""fullscreenenter"",""0"",""36374""
","""event"",""trial"",""time""
""fullscreenexit"",""2"",""65159""
","1534.8999999910593","<div class='center'><p>That's correct!</p><div><p><b>[Press the space bar to continue]</b></p></div>","32","","","","","","","",""
"","begin_text","237","453522","0.0-225.0-0.0","""event"",""trial"",""time""
""fullscreenenter"",""0"",""36374""
""fullscreenexit"",""2"",""65159""
","
","
","""event"",""trial"",""time""
""fullscreenenter"",""0"",""36374""
","""event"",""trial"",""time""
""fullscreenexit"",""2"",""65159""
","null","run_exp/static/audio/clip_22_begin_test.m4a","null","","","","","<div class='center'><p>On to the real game where well test your memory of items from the indoor/outdoor game. For each item, you need to indicate if the item is <b>old</b> by pressing the <b>v</b> key, <b>similar</b> by pressing the <b>b</b> key, or <b>new</b> by pressing the <b>n</b> key. </p></div>","","",""
"","html-keyboard-response","238","457614","0.0-225.0-1.0","""event"",""trial"",""time""
""fullscreenenter"",""0"",""36374""
""fullscreenexit"",""2"",""65159""
","
","
","""event"",""trial"",""time""
""fullscreenenter"",""0"",""36374""
","""event"",""trial"",""time""
""fullscreenexit"",""2"",""65159""
","4090.8999999910593","<div class='center'><p>On to the real game where well test your memory of items from the indoor/outdoor game. For each item, you need to indicate if the item is <b>old</b> by pressing the <b>v</b> key, <b>similar</b> by pressing the <b>b</b> key, or <b>new</b> by pressing the <b>n</b> key. </p><div><p><b>[Press the space bar to continue]</b></p></div>","32","","","","","","","",""
"","image","239","459334","0.0-226.0-0.0","""event"",""trial"",""time""
""fullscreenenter"",""0"",""36374""
""fullscreenexit"",""2"",""65159""
","
","
","""event"",""trial"",""time""
""fullscreenenter"",""0"",""36374""
","""event"",""trial"",""time""
""fullscreenexit"",""2"",""65159""
","1719.5","run_exp/static/images/Set 6_rs/073b.jpg","86","","","","","","test","TL","3"
"","show_choice","240","459846","0.0-226.0-1.0","""event"",""trial"",""time""
""fullscreenenter"",""0"",""36374""
""fullscreenexit"",""2"",""65159""
","
","
","""event"",""trial"",""time""
""fullscreenenter"",""0"",""36374""
","""event"",""trial"",""time""
""fullscreenexit"",""2"",""65159""
","null","run_exp/static/images/Set 6_rs/073b.jpg","null","","","","","","test","TL",""
"","html-keyboard-response","241","460358","0.0-226.0-2.0","""event"",""trial"",""time""
""fullscreenenter"",""0"",""36374""
""fullscreenexit"",""2"",""65159""
","
","
","""event"",""trial"",""time""
""fullscreenenter"",""0"",""36374""
","""event"",""trial"",""time""
""fullscreenexit"",""2"",""65159""
","null","<p></p>","null","","","","","","","",""
"","image","242","461516","0.0-227.0-0.0","""event"",""trial"",""time""
""fullscreenenter"",""0"",""36374""
""fullscreenexit"",""2"",""65159""
","
","
","""event"",""trial"",""time""
""fullscreenenter"",""0"",""36374""
","""event"",""trial"",""time""
""fullscreenexit"",""2"",""65159""
","1157.5","run_exp/static/images/Set 6_rs/131a.jpg","86","","","","","","test","TR","5"
"","show_choice","243","462024","0.0-227.0-1.0","""event"",""trial"",""time""
""fullscreenenter"",""0"",""36374""
""fullscreenexit"",""2"",""65159""
","
","
","""event"",""trial"",""time""
""fullscreenenter"",""0"",""36374""
","""event"",""trial"",""time""
""fullscreenexit"",""2"",""65159""
","null","run_exp/static/images/Set 6_rs/131a.jpg","null","","","","","","test","TR",""
"","html-keyboard-response","244","462536","0.0-227.0-2.0","""event"",""trial"",""time""
""fullscreenenter"",""0"",""36374""
""fullscreenexit"",""2"",""65159""
","
","
","""event"",""trial"",""time""
""fullscreenenter"",""0"",""36374""
","""event"",""trial"",""time""
""fullscreenexit"",""2"",""65159""
","null","<p></p>","null","","","","","","","",""
"","image","245","464039","0.0-228.0-0.0","""event"",""trial"",""time""
""fullscreenenter"",""0"",""36374""
""fullscreenexit"",""2"",""65159""
","
","
","""event"",""trial"",""time""
""fullscreenenter"",""0"",""36374""
","""event"",""trial"",""time""
""fullscreenexit"",""2"",""65159""
","1501.199999988079","run_exp/static/images/Set 6_rs/140a.jpg","78","","","","","","test","TF","1"
"","show_choice","246","464549","0.0-228.0-1.0","""event"",""trial"",""time""
""fullscreenenter"",""0"",""36374""
""fullscreenexit"",""2"",""65159""
","
","
","""event"",""trial"",""time""
""fullscreenenter"",""0"",""36374""
","""event"",""trial"",""time""
""fullscreenexit"",""2"",""65159""
","null","run_exp/static/images/Set 6_rs/140a.jpg","null","","","","","","test","TF",""
"","html-keyboard-response","247","465061","0.0-228.0-2.0","""event"",""trial"",""time""
""fullscreenenter"",""0"",""36374""
""fullscreenexit"",""2"",""65159""
","
","
","""event"",""trial"",""time""
""fullscreenenter"",""0"",""36374""
","""event"",""trial"",""time""
""fullscreenexit"",""2"",""65159""
