"success","trial_type","trial_index","time_elapsed","internal_node_id","interactions","blur_events","focus_events","fullscreenenter_events","fullscreenexit_events","rt","stimulus","key_press","subject_id","participant_id","age","gender","prompt","phase","condition","lure_bin"
"true","fullscreen","0","6751","0.0-0.0","""event"",""trial"",""time""
""fullscreenenter"",""0"",""5783""
","
","
","""event"",""trial"",""time""
""fullscreenenter"",""0"",""5783""
","
","","","","","","","","","","",""
"","pavlovia","1","6779","0.0-1.0","""event"",""trial"",""time""
""fullscreenenter"",""0"",""5783""
","
","
","""event"",""trial"",""time""
""fullscreenenter"",""0"",""5783""
","
","","","","","","","","","","",""
"","welcome","2","41700","0.0-2.0","""event"",""trial"",""time""
""fullscreenenter"",""0"",""5783""
","
","
","""event"",""trial"",""time""
""fullscreenenter"",""0"",""5783""
","
","null","run_exp/static/audio/clip_1_welcome.m4a","null","2150","2144","13","Female","<div class='center'><p>Welcome to the third part of the study! First, you'll be shown pictures of items one at a time. For each picture, you have to decide if the item is typically found indoors or outdoors.</p><p>If you think it's usually found indoors, then press <b>v</b> key on your keyboard. If you think it's usually found outdoors, then press the <b>n</b> key.There will be reminders on the screen to help you remember which keys to press. </p><p>If you're not sure whether the item is an indoor item or an outdoor item, go ahead and take a guess but try your best not to skip that choice. </p></div>","","",""
"","html-keyboard-response","3","42623","0.0-3.0","""event"",""trial"",""time""
""fullscreenenter"",""0"",""5783""
","
","
","""event"",""trial"",""time""
""fullscreenenter"",""0"",""5783""
","
","919.5999999046326","<div class='center'><p>Welcome to the third part of the study! First, you'll be shown pictures of items one at a time. For each picture, you have to decide if the item is typically found indoors or outdoors.</p><p>If you think it's usually found indoors, then press <b>v</b> key on your keyboard. If you think it's usually found outdoors, then press the <b>n</b> key.There will be reminders on the screen to help you remember which keys to press. </p><p>If you're not sure whether the item is an indoor item or an outdoor item, go ahead and take a guess but try your best not to skip that choice. </p><div><p><b>[Press the space bar to continue]</b></p></div>","32","","","","","","","",""
"","image","4","44645","0.0-4.0","""event"",""trial"",""time""
""fullscreenenter"",""0"",""5783""
","
","
","""event"",""trial"",""time""
""fullscreenenter"",""0"",""5783""
","
","null","run_exp/static/images/Set 6_rs/167a.jpg","null","","","","","","learn","SL",""
"","show_choice","5","46661","0.0-5.0","""event"",""trial"",""time""
""fullscreenenter"",""0"",""5783""
","
","
","""event"",""trial"",""time""
""fullscreenenter"",""0"",""5783""
","
","null","run_exp/static/images/blank.png","null","","","","","","learn","SL",""
"","html-keyboard-response","6","47172","0.0-6.0","""event"",""trial"",""time""
""fullscreenenter"",""0"",""5783""
","
","
","""event"",""trial"",""time""
""fullscreenenter"",""0"",""5783""
","
","null","<p></p>","null","","","","","","","",""
"","image","7","48834","0.0-7.0","""event"",""trial"",""time""
""fullscreenenter"",""0"",""5783""
","
","
","""event"",""trial"",""time""
""fullscreenenter"",""0"",""5783""
","
","1659","run_exp/static/images/Set 6_rs/150a.jpg","86","","","","","","learn","SR",""
"","show_choice","8","49199","0.0-8.0","""event"",""trial"",""time""
""fullscreenenter"",""0"",""5783""
","
","
","""event"",""trial"",""time""
""fullscreenenter"",""0"",""5783""
","
","null","run_exp/static/images/Set 6_rs/150a.jpg","null","","","","","","learn","SR",""
"","html-keyboard-response","9","49711","0.0-9.0","""event"",""trial"",""time""
""fullscreenenter"",""0"",""5783""
","
","
","""event"",""trial"",""time""
""fullscreenenter"",""0"",""5783""
","
","null","<p></p>","null","","","","","","","",""
"","image","10","51143","0.0-10.0","""event"",""trial"",""time""
""fullscreenenter"",""0"",""5783""
","
","
","""event"",""trial"",""time""
""fullscreenenter"",""0"",""5783""
","
","1430.3999999761581","run_exp/static/images/Set 6_rs/062a.jpg","78","","","","","","learn","SL",""
"","show_choice","11","51727","0.0-11.0","""event"",""trial"",""time""
""fullscreenenter"",""0"",""5783""
","
","
","""event"",""trial"",""time""
""fullscreenenter"",""0"",""5783""
","
","null","run_exp/static/images/Set 6_rs/062a.jpg","null","","","","","","learn","SL",""
"","html-keyboard-response","12","52235","0.0-12.0","""event"",""trial"",""time""
""fullscreenenter"",""0"",""5783""
","
","
","""event"",""trial"",""time""
""fullscreenenter"",""0"",""5783""
","
","null","<p></p>","null","","","","","","","",""
"","image","13","53000","0.0-13.0","""event"",""trial"",""time""
""fullscreenenter"",""0"",""5783""
","
","
","""event"",""trial"",""time""
""fullscreenenter"",""0"",""5783""
","
","762.8999999761581","run_exp/static/images/Set 6_rs/070a.jpg","86","","","","","","learn","SR",""
"","show_choice","14","54241","0.0-14.0","""event"",""trial"",""time""
""fullscreenenter"",""0"",""5783""
","
","
","""event"",""trial"",""time""
""fullscreenenter"",""0"",""5783""
","
","null","run_exp/static/images/Set 6_rs/070a.jpg","null","","","","","","learn","SR",""
"","html-keyboard-response","15","54758","0.0-15.0","""event"",""trial"",""time""
""fullscreenenter"",""0"",""5783""
","
","
","""event"",""trial"",""time""
""fullscreenenter"",""0"",""5783""
","
","null","<p></p>","null","","","","","","","",""
"","image","16","55438","0.0-16.0","""event"",""trial"",""time""
""fullscreenenter"",""0"",""5783""
","
","
","""event"",""trial"",""time""
""fullscreenenter"",""0"",""5783""
","
","678.1000000238419","run_exp/static/images/Set 6_rs/073a.jpg","86","","","","","","learn","SL",""
"","show_choice","17","56767","0.0-17.0","""event"",""trial"",""time""
""fullscreenenter"",""0"",""5783""
","
","
","""event"",""trial"",""time""
""fullscreenenter"",""0"",""5783""
","
","null","run_exp/static/images/Set 6_rs/073a.jpg","null","","","","","","learn","SL",""
"","html-keyboard-response","18","57282","0.0-18.0","""event"",""trial"",""time""
""fullscreenenter"",""0"",""5783""
","
","
","""event"",""trial"",""time""
""fullscreenenter"",""0"",""5783""
","
","null","<p></p>","null","","","","","","","",""
"","image","19","58278","0.0-19.0","""event"",""trial"",""time""
""fullscreenenter"",""0"",""5783""
","
","
","""event"",""trial"",""time""
""fullscreenenter"",""0"",""5783""
","
","993.5","run_exp/static/images/Set 6_rs/017a.jpg","78","","","","","","learn","SL",""
"","show_choice","20","59294","0.0-20.0","""event"",""trial"",""time""
""fullscreenenter"",""0"",""5783""
","
","
","""event"",""trial"",""time""
""fullscreenenter"",""0"",""5783""
","
","null","run_exp/static/images/Set 6_rs/017a.jpg","null","","","","","","learn","SL",""
"","html-keyboard-response","21","59797","0.0-21.0","""event"",""trial"",""time""
""fullscreenenter"",""0"",""5783""
","
","
","""event"",""trial"",""time""
""fullscreenenter"",""0"",""5783""
","
","null","<p></p>","null","","","","","","","",""
"","image","22","60343","0.0-22.0","""event"",""trial"",""time""
""fullscreenenter"",""0"",""5783""
","
","
","""event"",""trial"",""time""
""fullscreenenter"",""0"",""5783""
","
","543.1000000238419","run_exp/static/images/Set 6_rs/172a.jpg","86","","","","","","learn","SR",""
"","show_choice","23","61811","0.0-23.0","""event"",""trial"",""time""
""fullscreenenter"",""0"",""5783""
","
","
","""event"",""trial"",""time""
""fullscreenenter"",""0"",""5783""
","
","null","run_exp/static/images/Set 6_rs/172a.jpg","null","","","","","","learn","SR",""
"","html-keyboard-response","24","62328","0.0-24.0","""event"",""trial"",""time""
""fullscreenenter"",""0"",""5783""
","
","
","""event"",""trial"",""time""
""fullscreenenter"",""0"",""5783""
","
","null","<p></p>","null","","","","","","","",""
"","image","25","63413","0.0-25.0","""event"",""trial"",""time""
""fullscreenenter"",""0"",""5783""
","
","
","""event"",""trial"",""time""
""fullscreenenter"",""0"",""5783""
","
","1082.6000000238419","run_exp/static/images/Set 6_rs/169a.jpg","78","","","","","","learn","SR",""
"","show_choice","26","64342","0.0-26.0","""event"",""trial"",""time""
""fullscreenenter"",""0"",""5783""
","
","
","""event"",""trial"",""time""
""fullscreenenter"",""0"",""5783""
","
","null","run_exp/static/images/Set 6_rs/169a.jpg","null","","","","","","learn","SR",""
"","html-keyboard-response","27","64848","0.0-27.0","""event"",""trial"",""time""
""fullscreenenter"",""0"",""5783""
","
","
","""event"",""trial"",""time""
""fullscreenenter"",""0"",""5783""
","
","null","<p></p>","null","","","","","","","",""
"","image","28","65569","0.0-28.0","""event"",""trial"",""time""
""fullscreenenter"",""0"",""5783""
","
","
","""event"",""trial"",""time""
""fullscreenenter"",""0"",""5783""
","
","718","run_exp/static/images/Set 6_rs/178a.jpg","78","","","","","","learn","SR",""
"","show_choice","29","66858","0.0-29.0","""event"",""trial"",""time""
""fullscreenenter"",""0"",""5783""
","
","
","""event"",""trial"",""time""
""fullscreenenter"",""0"",""5783""
","
","null","run_exp/static/images/Set 6_rs/178a.jpg","null","","","","","","learn","SR",""
"","html-keyboard-response","30","67363","0.0-30.0","""event"",""trial"",""time""
""fullscreenenter"",""0"",""5783""
","
","
","""event"",""trial"",""time""
""fullscreenenter"",""0"",""5783""
","
","null","<p></p>","null","","","","","","","",""
"","image","31","68474","0.0-31.0","""event"",""trial"",""time""
""fullscreenenter"",""0"",""5783""
","
","
","""event"",""trial"",""time""
""fullscreenenter"",""0"",""5783""
","
","1107.8000000715256","run_exp/static/images/Set 6_rs/122a.jpg","86","","","","","","learn","SR",""
"","show_choice","32","69377","0.0-32.0","""event"",""trial"",""time""
""fullscreenenter"",""0"",""5783""
","
","
","""event"",""trial"",""time""
""fullscreenenter"",""0"",""5783""
","
","null","run_exp/static/images/Set 6_rs/122a.jpg","null","","","","","","learn","SR",""
"","html-keyboard-response","33","69891","0.0-33.0","""event"",""trial"",""time""
""fullscreenenter"",""0"",""5783""
","
","
","""event"",""trial"",""time""
""fullscreenenter"",""0"",""5783""
","
","null","<p></p>","null","","","","","","","",""
"","image","34","70669","0.0-34.0","""event"",""trial"",""time""
""fullscreenenter"",""0"",""5783""
","
","
","""event"",""trial"",""time""
""fullscreenenter"",""0"",""5783""
","
","774.3999999761581","run_exp/static/images/Set 6_rs/168a.jpg","86","","","","","","learn","SL",""
"","show_choice","35","71901","0.0-35.0","""event"",""trial"",""time""
""fullscreenenter"",""0"",""5783""
","
","
","""event"",""trial"",""time""
""fullscreenenter"",""0"",""5783""
","
","null","run_exp/static/images/Set 6_rs/168a.jpg","null","","","","","","learn","SL",""
"","html-keyboard-response","36","72419","0.0-36.0","""event"",""trial"",""time""
""fullscreenenter"",""0"",""5783""
","
","
","""event"",""trial"",""time""
""fullscreenenter"",""0"",""5783""
","
","null","<p></p>","null","","","","","","","",""
"","image","37","73149","0.0-37.0","""event"",""trial"",""time""
""fullscreenenter"",""0"",""5783""
","
","
","""event"",""trial"",""time""
""fullscreenenter"",""0"",""5783""
","
","728.5","run_exp/static/images/Set 6_rs/129a.jpg","86","","","","","","learn","SL",""
"","show_choice","38","74425","0.0-38.0","""event"",""trial"",""time""
""fullscreenenter"",""0"",""5783""
","
","
","""event"",""trial"",""time""
""fullscreenenter"",""0"",""5783""
","
","null","run_exp/static/images/Set 6_rs/129a.jpg","null","","","","","","learn","SL",""
"","html-keyboard-response","39","74949","0.0-39.0","""event"",""trial"",""time""
""fullscreenenter"",""0"",""5783""
","
","
","""event"",""trial"",""time""
""fullscreenenter"",""0"",""5783""
","
","null","<p></p>","null","","","","","","","",""
"","image","40","75845","0.0-40.0","""event"",""trial"",""time""
""fullscreenenter"",""0"",""5783""
","
","
","""event"",""trial"",""time""
""fullscreenenter"",""0"",""5783""
","
","894.1999999284744","run_exp/static/images/Set 6_rs/008a.jpg","86","","","","","","learn","SL",""
"","show_choice","41","76954","0.0-41.0","""event"",""trial"",""time""
""fullscreenenter"",""0"",""5783""
","
","
","""event"",""trial"",""time""
""fullscreenenter"",""0"",""5783""
","
","null","run_exp/static/images/Set 6_rs/008a.jpg","null","","","","","","learn","SL",""
"","html-keyboard-response","42","77457","0.0-42.0","""event"",""trial"",""time""
""fullscreenenter"",""0"",""5783""
","
","
","""event"",""trial"",""time""
""fullscreenenter"",""0"",""5783""
","
","null","<p></p>","null","","","","","","","",""
"","image","43","78485","0.0-43.0","""event"",""trial"",""time""
""fullscreenenter"",""0"",""5783""
","
","
","""event"",""trial"",""time""
""fullscreenenter"",""0"",""5783""
","
","1026.5","run_exp/static/images/Set 6_rs/071a.jpg","78","","","","","","learn","SL",""
"","show_choice","44","79472","0.0-44.0","""event"",""trial"",""time""
""fullscreenenter"",""0"",""5783""
","
","
","""event"",""trial"",""time""
""fullscreenenter"",""0"",""5783""
","
","null","run_exp/static/images/Set 6_rs/071a.jpg","null","","","","","","learn","SL",""
"","html-keyboard-response","45","79977","0.0-45.0","""event"",""trial"",""time""
""fullscreenenter"",""0"",""5783""
","
","
","""event"",""trial"",""time""
""fullscreenenter"",""0"",""5783""
","
","null","<p></p>","null","","","","","","","",""
"","image","46","80855","0.0-46.0","""event"",""trial"",""time""
""fullscreenenter"",""0"",""5783""
","
","
","""event"",""trial"",""time""
""fullscreenenter"",""0"",""5783""
","
","876.1999999284744","run_exp/static/images/Set 6_rs/063a.jpg","86","","","","","","learn","SR",""
"","show_choice","47","81992","0.0-47.0","""event"",""trial"",""time""
""fullscreenenter"",""0"",""5783""
","
","
","""event"",""trial"",""time""
""fullscreenenter"",""0"",""5783""
","
","null","run_exp/static/images/Set 6_rs/063a.jpg","null","","","","","","learn","SR",""
"","html-keyboard-response","48","82502","0.0-48.0","""event"",""trial"",""time""
""fullscreenenter"",""0"",""5783""
","
","
","""event"",""trial"",""time""
""fullscreenenter"",""0"",""5783""
","
","null","<p></p>","null","","","","","","","",""
"","image","49","83277","0.0-49.0","""event"",""trial"",""time""
""fullscreenenter"",""0"",""5783""
","
","
","""event"",""trial"",""time""
""fullscreenenter"",""0"",""5783""
","
","773.6000000238419","run_exp/static/images/Set 6_rs/126a.jpg","78","","","","","","learn","SR",""
"","show_choice","50","84513","0.0-50.0","""event"",""trial"",""time""
""fullscreenenter"",""0"",""5783""
","
","
","""event"",""trial"",""time""
""fullscreenenter"",""0"",""5783""
","
","null","run_exp/static/images/Set 6_rs/126a.jpg","null","","","","","","learn","SR",""
"","html-keyboard-response","51","85036","0.0-51.0","""event"",""trial"",""time""
""fullscreenenter"",""0"",""5783""
","
","
","""event"",""trial"",""time""
""fullscreenenter"",""0"",""5783""
","
","null","<p></p>","null","","","","","","","",""
"","image","52","86221","0.0-52.0","""event"",""trial"",""time""
""fullscreenenter"",""0"",""5783""
","
","
","""event"",""trial"",""time""
""fullscreenenter"",""0"",""5783""
","
","1184.3999999761581","run_exp/static/images/Set 6_rs/025a.jpg","78","","","","","","learn","SL",""
"","show_choice","53","87040","0.0-53.0","""event"",""trial"",""time""
""fullscreenenter"",""0"",""5783""
","
","
","""event"",""trial"",""time""
""fullscreenenter"",""0"",""5783""
","
","null","run_exp/static/images/Set 6_rs/025a.jpg","null","","","","","","learn","SL",""
"","html-keyboard-response","54","87557","0.0-54.0","""event"",""trial"",""time""
""fullscreenenter"",""0"",""5783""
","
","
","""event"",""trial"",""time""
""fullscreenenter"",""0"",""5783""
","
","null","<p></p>","null","","","","","","","",""
"","image","55","88231","0.0-55.0","""event"",""trial"",""time""
""fullscreenenter"",""0"",""5783""
","
","
","""event"",""trial"",""time""
""fullscreenenter"",""0"",""5783""
","
","672.5","run_exp/static/images/Set 6_rs/007a.jpg","86","","","","","","learn","SR",""
"","show_choice","56","89563","0.0-56.0","""event"",""trial"",""time""
""fullscreenenter"",""0"",""5783""
","
","
","""event"",""trial"",""time""
""fullscreenenter"",""0"",""5783""
","
","null","run_exp/static/images/Set 6_rs/007a.jpg","null","","","","","","learn","SR",""
"","html-keyboard-response","57","90079","0.0-57.0","""event"",""trial"",""time""
""fullscreenenter"",""0"",""5783""
","
","
","""event"",""trial"",""time""
""fullscreenenter"",""0"",""5783""
","
","null","<p></p>","null","","","","","","","",""
"","image","58","90719","0.0-58.0","""event"",""trial"",""time""
""fullscreenenter"",""0"",""5783""
","
","
","""event"",""trial"",""time""
""fullscreenenter"",""0"",""5783""
","
","638.2999999523163","run_exp/static/images/Set 6_rs/116a.jpg","86","","","","","","learn","SL",""
"","show_choice","59","92095","0.0-59.0","""event"",""trial"",""time""
""fullscreenenter"",""0"",""5783""
","
","
","""event"",""trial"",""time""
""fullscreenenter"",""0"",""5783""
","
","null","run_exp/static/images/Set 6_rs/116a.jpg","null","","","","","","learn","SL",""
"","html-keyboard-response","60","92599","0.0-60.0","""event"",""trial"",""time""
""fullscreenenter"",""0"",""5783""
","
","
","""event"",""trial"",""time""
""fullscreenenter"",""0"",""5783""
","
","null","<p></p>","null","","","","","","","",""
"","image","61","93573","0.0-61.0","""event"",""trial"",""time""
""fullscreenenter"",""0"",""5783""
","
","
","""event"",""trial"",""time""
""fullscreenenter"",""0"",""5783""
","
","972.9000000953674","run_exp/static/images/Set 6_rs/076a.jpg","78","","","","","","learn","SR",""
"","show_choice","62","94611","0.0-62.0","""event"",""trial"",""time""
""fullscreenenter"",""0"",""5783""
","
","
","""event"",""trial"",""time""
""fullscreenenter"",""0"",""5783""
","
","null","run_exp/static/images/Set 6_rs/076a.jpg","null","","","","","","learn","SR",""
"","html-keyboard-response","63","95134","0.0-63.0","""event"",""trial"",""time""
""fullscreenenter"",""0"",""5783""
","
","
","""event"",""trial"",""time""
""fullscreenenter"",""0"",""5783""
","
","null","<p></p>","null","","","","","","","",""
"","image","64","95959","0.0-64.0","""event"",""trial"",""time""
""fullscreenenter"",""0"",""5783""
","
","
","""event"",""trial"",""time""
""fullscreenenter"",""0"",""5783""
","
","823.7999999523163","run_exp/static/images/Set 6_rs/074a.jpg","78","","","","","","learn","SL",""
"","show_choice","65","97144","0.0-65.0","""event"",""trial"",""time""
""fullscreenenter"",""0"",""5783""
","
","
","""event"",""trial"",""time""
""fullscreenenter"",""0"",""5783""
","
","null","run_exp/static/images/Set 6_rs/074a.jpg","null","","","","","","learn","SL",""
"","html-keyboard-response","66","97661","0.0-66.0","""event"",""trial"",""time""
""fullscreenenter"",""0"",""5783""
","
","
","""event"",""trial"",""time""
""fullscreenenter"",""0"",""5783""
","
","null","<p></p>","null","","","","","","","",""
"","image","67","98317","0.0-67.0","""event"",""trial"",""time""
""fullscreenenter"",""0"",""5783""
","
","
","""event"",""trial"",""time""
""fullscreenenter"",""0"",""5783""
","
","654.7000000476837","run_exp/static/images/Set 6_rs/152a.jpg","86","","","","","","learn","SR",""
"","show_choice","68","99667","0.0-68.0","""event"",""trial"",""time""
""fullscreenenter"",""0"",""5783""
","
","
","""event"",""trial"",""time""
""fullscreenenter"",""0"",""5783""
","
","null","run_exp/static/images/Set 6_rs/152a.jpg","null","","","","","","learn","SR",""
"","html-keyboard-response","69","100169","0.0-69.0","""event"",""trial"",""time""
""fullscreenenter"",""0"",""5783""
","
","
","""event"",""trial"",""time""
""fullscreenenter"",""0"",""5783""
","
","null","<p></p>","null","","","","","","","",""
"","image","70","101055","0.0-70.0","""event"",""trial"",""time""
""fullscreenenter"",""0"",""5783""
","
","
","""event"",""trial"",""time""
""fullscreenenter"",""0"",""5783""
","
","884.8999999761581","run_exp/static/images/Set 6_rs/132a.jpg","78","","","","","","learn","SR",""
"","show_choice","71","102173","0.0-71.0","""event"",""trial"",""time""
""fullscreenenter"",""0"",""5783""
","
","
","""event"",""trial"",""time""
""fullscreenenter"",""0"",""5783""
","
","null","run_exp/static/images/Set 6_rs/132a.jpg","null","","","","","","learn","SR",""
"","html-keyboard-response","72","102687","0.0-72.0","""event"",""trial"",""time""
""fullscreenenter"",""0"",""5783""
","
","
","""event"",""trial"",""time""
""fullscreenenter"",""0"",""5783""
","
","null","<p></p>","null","","","","","","","",""
"","image","73","103496","0.0-73.0","""event"",""trial"",""time""
""fullscreenenter"",""0"",""5783""
","
","
","""event"",""trial"",""time""
""fullscreenenter"",""0"",""5783""
","
","808","run_exp/static/images/Set 6_rs/095a.jpg","86","","","","","","learn","SL",""
"","show_choice","74","104692","0.0-74.0","""event"",""trial"",""time""
""fullscreenenter"",""0"",""5783""
","
","
","""event"",""trial"",""time""
""fullscreenenter"",""0"",""5783""
","
","null","run_exp/static/images/Set 6_rs/095a.jpg","null","","","","","","learn","SL",""
"","html-keyboard-response","75","105192","0.0-75.0","""event"",""trial"",""time""
""fullscreenenter"",""0"",""5783""
","
","
","""event"",""trial"",""time""
""fullscreenenter"",""0"",""5783""
","
","null","<p></p>","null","","","","","","","",""
"","image","76","106201","0.0-76.0","""event"",""trial"",""time""
""fullscreenenter"",""0"",""5783""
","
","
","""event"",""trial"",""time""
""fullscreenenter"",""0"",""5783""
","
","1007.3999999761581","run_exp/static/images/Set 6_rs/123a.jpg","78","","","","","","learn","SL",""
"","show_choice","77","107209","0.0-77.0","""event"",""trial"",""time""
""fullscreenenter"",""0"",""5783""
","
","
","""event"",""trial"",""time""
""fullscreenenter"",""0"",""5783""
","
","null","run_exp/static/images/Set 6_rs/123a.jpg","null","","","","","","learn","SL",""
"","html-keyboard-response","78","107716","0.0-78.0","""event"",""trial"",""time""
""fullscreenenter"",""0"",""5783""
","
","
","""event"",""trial"",""time""
""fullscreenenter"",""0"",""5783""
","
","null","<p></p>","null","","","","","","","",""
"","image","79","109166","0.0-79.0","""event"",""trial"",""time""
""fullscreenenter"",""0"",""5783""
","
","
","""event"",""trial"",""time""
""fullscreenenter"",""0"",""5783""
","
","1446.4000000953674","run_exp/static/images/Set 6_rs/010a.jpg","86","","","","","","learn","SR",""
"","show_choice","80","109731","0.0-80.0","""event"",""trial"",""time""
""fullscreenenter"",""0"",""5783""
","
","
","""event"",""trial"",""time""
""fullscreenenter"",""0"",""5783""
","
","null","run_exp/static/images/Set 6_rs/010a.jpg","null","","","","","","learn","SR",""
"","html-keyboard-response","81","110245","0.0-81.0","""event"",""trial"",""time""
""fullscreenenter"",""0"",""5783""
","
","
","""event"",""trial"",""time""
""fullscreenenter"",""0"",""5783""
","
","null","<p></p>","null","","","","","","","",""
"","image","82","111356","0.0-82.0","""event"",""trial"",""time""
""fullscreenenter"",""0"",""5783""
","
","
","""event"",""trial"",""time""
""fullscreenenter"",""0"",""5783""
","
","1109.2000000476837","run_exp/static/images/Set 6_rs/144a.jpg","86","","","","","","learn","SL",""
"","show_choice","83","112257","0.0-83.0","""event"",""trial"",""time""
""fullscreenenter"",""0"",""5783""
","
","
","""event"",""trial"",""time""
""fullscreenenter"",""0"",""5783""
","
","null","run_exp/static/images/Set 6_rs/144a.jpg","null","","","","","","learn","SL",""
"","html-keyboard-response","84","112771","0.0-84.0","""event"",""trial"",""time""
""fullscreenenter"",""0"",""5783""
","
","
","""event"",""trial"",""time""
""fullscreenenter"",""0"",""5783""
","
","null","<p></p>","null","","","","","","","",""
"","image","85","113541","0.0-85.0","""event"",""trial"",""time""
""fullscreenenter"",""0"",""5783""
","
","
","""event"",""trial"",""time""
""fullscreenenter"",""0"",""5783""
","
","768.2999999523163","run_exp/static/images/Set 6_rs/141a.jpg","78","","","","","","learn","SR",""
"","show_choice","86","114778","0.0-86.0","""event"",""trial"",""time""
""fullscreenenter"",""0"",""5783""
","
","
","""event"",""trial"",""time""
""fullscreenenter"",""0"",""5783""
","
","null","run_exp/static/images/Set 6_rs/141a.jpg","null","","","","","","learn","SR",""
"","html-keyboard-response","87","115282","0.0-87.0","""event"",""trial"",""time""
""fullscreenenter"",""0"",""5783""
","
","
","""event"",""trial"",""time""
""fullscreenenter"",""0"",""5783""
","
","null","<p></p>","null","","","","","","","",""
"","image","88","116034","0.0-88.0","""event"",""trial"",""time""
""fullscreenenter"",""0"",""5783""
","
","
","""event"",""trial"",""time""
""fullscreenenter"",""0"",""5783""
","
","749.9000000953674","run_exp/static/images/Set 6_rs/014a.jpg","86","","","","","","learn","SL",""
"","show_choice","89","117292","0.0-89.0","""event"",""trial"",""time""
""fullscreenenter"",""0"",""5783""
","
","
","""event"",""trial"",""time""
""fullscreenenter"",""0"",""5783""
","
","null","run_exp/static/images/Set 6_rs/014a.jpg","null","","","","","","learn","SL",""
"","html-keyboard-response","90","117798","0.0-90.0","""event"",""trial"",""time""
""fullscreenenter"",""0"",""5783""
","
","
","""event"",""trial"",""time""
""fullscreenenter"",""0"",""5783""
","
","null","<p></p>","null","","","","","","","",""
"","image","91","118663","0.0-91.0","""event"",""trial"",""time""
""fullscreenenter"",""0"",""5783""
","
","
","""event"",""trial"",""time""
""fullscreenenter"",""0"",""5783""
","
","861.6000000238419","run_exp/static/images/Set 6_rs/187a.jpg","86","","","","","","learn","SR",""
"","show_choice","92","119808","0.0-92.0","""event"",""trial"",""time""
""fullscreenenter"",""0"",""5783""
","
","
","""event"",""trial"",""time""
""fullscreenenter"",""0"",""5783""
","
","null","run_exp/static/images/Set 6_rs/187a.jpg","null","","","","","","learn","SR",""
"","html-keyboard-response","93","120314","0.0-93.0","""event"",""trial"",""time""
""fullscreenenter"",""0"",""5783""
","
","
","""event"",""trial"",""time""
""fullscreenenter"",""0"",""5783""
","
","null","<p></p>","null","","","","","","","",""
"","image","94","121615","0.0-94.0","""event"",""trial"",""time""
""fullscreenenter"",""0"",""5783""
","
","
","""event"",""trial"",""time""
""fullscreenenter"",""0"",""5783""
","
","1298.8999999761581","run_exp/static/images/Set 6_rs/091a.jpg","86","","","","","","learn","SL",""
"","show_choice","95","122336","0.0-95.0","""event"",""trial"",""time""
""fullscreenenter"",""0"",""5783""
","
","
","""event"",""trial"",""time""
""fullscreenenter"",""0"",""5783""
","
","null","run_exp/static/images/Set 6_rs/091a.jpg","null","","","","","","learn","SL",""
"","html-keyboard-response","96","122848","0.0-96.0","""event"",""trial"",""time""
""fullscreenenter"",""0"",""5783""
","
","
","""event"",""trial"",""time""
""fullscreenenter"",""0"",""5783""
","
","null","<p></p>","null","","","","","","","",""
"","image","97","123702","0.0-97.0","""event"",""trial"",""time""
""fullscreenenter"",""0"",""5783""
","
","
","""event"",""trial"",""time""
""fullscreenenter"",""0"",""5783""
","
","851.2000000476837","run_exp/static/images/Set 6_rs/016a.jpg","86","","","","","","learn","SL",""
"","show_choice","98","124855","0.0-98.0","""event"",""trial"",""time""
""fullscreenenter"",""0"",""5783""
","
","
","""event"",""trial"",""time""
""fullscreenenter"",""0"",""5783""
","
","null","run_exp/static/images/Set 6_rs/016a.jpg","null","","","","","","learn","SL",""
"","html-keyboard-response","99","125359","0.0-99.0","""event"",""trial"",""time""
""fullscreenenter"",""0"",""5783""
","
","
","""event"",""trial"",""time""
""fullscreenenter"",""0"",""5783""
","
","null","<p></p>","null","","","","","","","",""
"","image","100","126337","0.0-100.0","""event"",""trial"",""time""
""fullscreenenter"",""0"",""5783""
","
","
","""event"",""trial"",""time""
""fullscreenenter"",""0"",""5783""
","
","971.8999999761581","run_exp/static/images/Set 6_rs/085a.jpg","78","","","","","","learn","SL",""
"","show_choice","101","127368","0.0-101.0","""event"",""trial"",""time""
""fullscreenenter"",""0"",""5783""
","
","
","""event"",""trial"",""time""
""fullscreenenter"",""0"",""5783""
","
","null","run_exp/static/images/Set 6_rs/085a.jpg","null","","","","","","learn","SL",""
"","html-keyboard-response","102","127892","0.0-102.0","""event"",""trial"",""time""
""fullscreenenter"",""0"",""5783""
","
","
","""event"",""trial"",""time""
""fullscreenenter"",""0"",""5783""
","
","null","<p></p>","null","","","","","","","",""
"","image","103","129419","0.0-103.0","""event"",""trial"",""time""
""fullscreenenter"",""0"",""5783""
","
","
","""event"",""trial"",""time""
""fullscreenenter"",""0"",""5783""
","
","1523.5","run_exp/static/images/Set 6_rs/024a.jpg","86","","","","","","learn","SR",""
"","show_choice","104","129899","0.0-104.0","""event"",""trial"",""time""
""fullscreenenter"",""0"",""5783""
","
","
","""event"",""trial"",""time""
""fullscreenenter"",""0"",""5783""
","
","null","run_exp/static/images/Set 6_rs/024a.jpg","null","","","","","","learn","SR",""
"","html-keyboard-response","105","130416","0.0-105.0","""event"",""trial"",""time""
""fullscreenenter"",""0"",""5783""
","
","
","""event"",""trial"",""time""
""fullscreenenter"",""0"",""5783""
","
","null","<p></p>","null","","","","","","","",""
"","image","106","132135","0.0-106.0","""event"",""trial"",""time""
""fullscreenenter"",""0"",""5783""
","
","
","""event"",""trial"",""time""
""fullscreenenter"",""0"",""5783""
","
","1715.1000000238419","run_exp/static/images/Set 6_rs/108a.jpg","78","","","","","","learn","SR",""
"","show_choice","107","132423","0.0-107.0","""event"",""trial"",""time""
""fullscreenenter"",""0"",""5783""
","
","
","""event"",""trial"",""time""
""fullscreenenter"",""0"",""5783""
","
","null","run_exp/static/images/Set 6_rs/108a.jpg","null","","","","","","learn","SR",""
"","html-keyboard-response","108","132926","0.0-108.0","""event"",""trial"",""time""
""fullscreenenter"",""0"",""5783""
","
","
","""event"",""trial"",""time""
""fullscreenenter"",""0"",""5783""
","
","null","<p></p>","null","","","","","","","",""
"","image","109","133979","0.0-109.0","""event"",""trial"",""time""
""fullscreenenter"",""0"",""5783""
","
","
","""event"",""trial"",""time""
""fullscreenenter"",""0"",""5783""
","
","1050.8000000715256","run_exp/static/images/Set 6_rs/121a.jpg","86","","","","","","learn","SR",""
"","show_choice","110","134936","0.0-110.0","""event"",""trial"",""time""
""fullscreenenter"",""0"",""5783""
","
","
","""event"",""trial"",""time""
""fullscreenenter"",""0"",""5783""
","
","null","run_exp/static/images/Set 6_rs/121a.jpg","null","","","","","","learn","SR",""
"","html-keyboard-response","111","135456","0.0-111.0","""event"",""trial"",""time""
""fullscreenenter"",""0"",""5783""
","
","
","""event"",""trial"",""time""
""fullscreenenter"",""0"",""5783""
","
","null","<p></p>","null","","","","","","","",""
"","image","112","136618","0.0-112.0","""event"",""trial"",""time""
""fullscreenenter"",""0"",""5783""
","
","
","""event"",""trial"",""time""
""fullscreenenter"",""0"",""5783""
","
","1159.5","run_exp/static/images/Set 6_rs/088a.jpg","86","","","","","","learn","SR",""
"","show_choice","113","137468","0.0-113.0","""event"",""trial"",""time""
""fullscreenenter"",""0"",""5783""
","
","
","""event"",""trial"",""time""
""fullscreenenter"",""0"",""5783""
","
","null","run_exp/static/images/Set 6_rs/088a.jpg","null","","","","","","learn","SR",""
"","html-keyboard-response","114","137973","0.0-114.0","""event"",""trial"",""time""
""fullscreenenter"",""0"",""5783""
","
","
","""event"",""trial"",""time""
""fullscreenenter"",""0"",""5783""
","
","null","<p></p>","null","","","","","","","",""
"","image","115","138698","0.0-115.0","""event"",""trial"",""time""
""fullscreenenter"",""0"",""5783""
","
","
","""event"",""trial"",""time""
""fullscreenenter"",""0"",""5783""
","
","722.1000000238419","run_exp/static/images/Set 6_rs/112a.jpg","86","","","","","","learn","SR",""
"","show_choice","116","139992","0.0-116.0","""event"",""trial"",""time""
""fullscreenenter"",""0"",""5783""
","
","
","""event"",""trial"",""time""
""fullscreenenter"",""0"",""5783""
","
","null","run_exp/static/images/Set 6_rs/112a.jpg","null","","","","","","learn","SR",""
"","html-keyboard-response","117","140508","0.0-117.0","""event"",""trial"",""time""
""fullscreenenter"",""0"",""5783""
","
","
","""event"",""trial"",""time""
""fullscreenenter"",""0"",""5783""
","
","null","<p></p>","null","","","","","","","",""
"","image","118","141360","0.0-118.0","""event"",""trial"",""time""
""fullscreenenter"",""0"",""5783""
","
","
","""event"",""trial"",""time""
""fullscreenenter"",""0"",""5783""
","
","849.6000000238419","run_exp/static/images/Set 6_rs/050a.jpg","86","","","","","","learn","SL",""
"","show_choice","119","142520","0.0-119.0","""event"",""trial"",""time""
""fullscreenenter"",""0"",""5783""
","
","
","""event"",""trial"",""time""
""fullscreenenter"",""0"",""5783""
","
","null","run_exp/static/images/Set 6_rs/050a.jpg","null","","","","","","learn","SL",""
"","html-keyboard-response","120","143032","0.0-120.0","""event"",""trial"",""time""
""fullscreenenter"",""0"",""5783""
","
","
","""event"",""trial"",""time""
""fullscreenenter"",""0"",""5783""
","
","null","<p></p>","null","","","","","","","",""
"","image","121","143602","0.0-121.0","""event"",""trial"",""time""
""fullscreenenter"",""0"",""5783""
","
","
","""event"",""trial"",""time""
""fullscreenenter"",""0"",""5783""
","
","568.1000000238419","run_exp/static/images/Set 6_rs/154a.jpg","78","","","","","","learn","SR",""
"","show_choice","122","145042","0.0-122.0","""event"",""trial"",""time""
""fullscreenenter"",""0"",""5783""
","
","
","""event"",""trial"",""time""
""fullscreenenter"",""0"",""5783""
","
","null","run_exp/static/images/Set 6_rs/154a.jpg","null","","","","","","learn","SR",""
"","html-keyboard-response","123","145560","0.0-123.0","""event"",""trial"",""time""
""fullscreenenter"",""0"",""5783""
","
","
","""event"",""trial"",""time""
""fullscreenenter"",""0"",""5783""
","
","null","<p></p>","null","","","","","","","",""
"","image","124","146665","0.0-124.0","""event"",""trial"",""time""
""fullscreenenter"",""0"",""5783""
","
","
","""event"",""trial"",""time""
""fullscreenenter"",""0"",""5783""
","
","1102.5","run_exp/static/images/Set 6_rs/061a.jpg","78","","","","","","learn","SR",""
"","show_choice","125","147572","0.0-125.0","""event"",""trial"",""time""
""fullscreenenter"",""0"",""5783""
","
","
","""event"",""trial"",""time""
""fullscreenenter"",""0"",""5783""
","
","null","run_exp/static/images/Set 6_rs/061a.jpg","null","","","","","","learn","SR",""
"","html-keyboard-response","126","148089","0.0-126.0","""event"",""trial"",""time""
""fullscreenenter"",""0"",""5783""
","
","
","""event"",""trial"",""time""
""fullscreenenter"",""0"",""5783""
","
","null","<p></p>","null","","","","","","","",""
"","image","127","149319","0.0-127.0","""event"",""trial"",""time""
""fullscreenenter"",""0"",""5783""
","
","
","""event"",""trial"",""time""
""fullscreenenter"",""0"",""5783""
","
","1227.6999999284744","run_exp/static/images/Set 6_rs/131a.jpg","86","","","","","","learn","SR",""
"","show_choice","128","150101","0.0-128.0","""event"",""trial"",""time""
""fullscreenenter"",""0"",""5783""
","
","
","""event"",""trial"",""time""
""fullscreenenter"",""0"",""5783""
","
","null","run_exp/static/images/Set 6_rs/131a.jpg","null","","","","","","learn","SR",""
"","html-keyboard-response","129","150607","0.0-129.0","""event"",""trial"",""time""
""fullscreenenter"",""0"",""5783""
","
","
","""event"",""trial"",""time""
""fullscreenenter"",""0"",""5783""
","
","null","<p></p>","null","","","","","","","",""
"","image","130","151309","0.0-130.0","""event"",""trial"",""time""
""fullscreenenter"",""0"",""5783""
","
","
","""event"",""trial"",""time""
""fullscreenenter"",""0"",""5783""
","
","699.2999999523163","run_exp/static/images/Set 6_rs/166a.jpg","86","","","","","","learn","SR",""
"","show_choice","131","152620","0.0-131.0","""event"",""trial"",""time""
""fullscreenenter"",""0"",""5783""
","
","
","""event"",""trial"",""time""
""fullscreenenter"",""0"",""5783""
","
","null","run_exp/static/images/Set 6_rs/166a.jpg","null","","","","","","learn","SR",""
"","html-keyboard-response","132","153137","0.0-132.0","""event"",""trial"",""time""
""fullscreenenter"",""0"",""5783""
","
","
","""event"",""trial"",""time""
""fullscreenenter"",""0"",""5783""
","
","null","<p></p>","null","","","","","","","",""
"","image","133","153767","0.0-133.0","""event"",""trial"",""time""
""fullscreenenter"",""0"",""5783""
","
","
","""event"",""trial"",""time""
""fullscreenenter"",""0"",""5783""
","
","627.6000000238419","run_exp/static/images/Set 6_rs/019a.jpg","86","","","","","","learn","SL",""
"","show_choice","134","155159","0.0-134.0","""event"",""trial"",""time""
""fullscreenenter"",""0"",""5783""
","
","
","""event"",""trial"",""time""
""fullscreenenter"",""0"",""5783""
","
","null","run_exp/static/images/Set 6_rs/019a.jpg","null","","","","","","learn","SL",""
"","html-keyboard-response","135","155670","0.0-135.0","""event"",""trial"",""time""
""fullscreenenter"",""0"",""5783""
","
","
","""event"",""trial"",""time""
""fullscreenenter"",""0"",""5783""
","
","null","<p></p>","null","","","","","","","",""
"","image","136","156220","0.0-136.0","""event"",""trial"",""time""
""fullscreenenter"",""0"",""5783""
","
","
","""event"",""trial"",""time""
""fullscreenenter"",""0"",""5783""
","
","547","run_exp/static/images/Set 6_rs/057a.jpg","86","","","","","","learn","SL",""
"","show_choice","137","157677","0.0-137.0","""event"",""trial"",""time""
""fullscreenenter"",""0"",""5783""
","
","
","""event"",""trial"",""time""
""fullscreenenter"",""0"",""5783""
","
","null","run_exp/static/images/Set 6_rs/057a.jpg","null","","","","","","learn","SL",""
"","html-keyboard-response","138","158200","0.0-138.0","""event"",""trial"",""time""
""fullscreenenter"",""0"",""5783""
","
","
","""event"",""trial"",""time""
""fullscreenenter"",""0"",""5783""
","
","null","<p></p>","null","","","","","","","",""
"","image","139","158823","0.0-139.0","""event"",""trial"",""time""
""fullscreenenter"",""0"",""5783""
","
","
","""event"",""trial"",""time""
""fullscreenenter"",""0"",""5783""
","
","619.3999999761581","run_exp/static/images/Set 6_rs/111a.jpg","86","","","","","","learn","SL",""
"","show_choice","140","160207","0.0-140.0","""event"",""trial"",""time""
""fullscreenenter"",""0"",""5783""
","
","
","""event"",""trial"",""time""
""fullscreenenter"",""0"",""5783""
","
","null","run_exp/static/images/Set 6_rs/111a.jpg","null","","","","","","learn","SL",""
"","html-keyboard-response","141","160723","0.0-141.0","""event"",""trial"",""time""
""fullscreenenter"",""0"",""5783""
","
","
","""event"",""trial"",""time""
""fullscreenenter"",""0"",""5783""
","
","null","<p></p>","null","","","","","","","",""
"","image","142","161393","0.0-142.0","""event"",""trial"",""time""
""fullscreenenter"",""0"",""5783""
","
","
","""event"",""trial"",""time""
""fullscreenenter"",""0"",""5783""
","
","667.9000000953674","run_exp/static/images/Set 6_rs/023a.jpg","86","","","","","","learn","SR",""
"","show_choice","143","162734","0.0-143.0","""event"",""trial"",""time""
""fullscreenenter"",""0"",""5783""
","
","
","""event"",""trial"",""time""
""fullscreenenter"",""0"",""5783""
","
","null","run_exp/static/images/Set 6_rs/023a.jpg","null","","","","","","learn","SR",""
"","html-keyboard-response","144","163249","0.0-144.0","""event"",""trial"",""time""
""fullscreenenter"",""0"",""5783""
","
","
","""event"",""trial"",""time""
""fullscreenenter"",""0"",""5783""
","
","null","<p></p>","null","","","","","","","",""
"","image","145","163931","0.0-145.0","""event"",""trial"",""time""
""fullscreenenter"",""0"",""5783""
","
","
","""event"",""trial"",""time""
""fullscreenenter"",""0"",""5783""
","
","679.3999999761581","run_exp/static/images/Set 6_rs/075a.jpg","86","","","","","","learn","SR",""
"","show_choice","146","165261","0.0-146.0","""event"",""trial"",""time""
""fullscreenenter"",""0"",""5783""
","
","
","""event"",""trial"",""time""
""fullscreenenter"",""0"",""5783""
","
","null","run_exp/static/images/Set 6_rs/075a.jpg","null","","","","","","learn","SR",""
"","html-keyboard-response","147","165777","0.0-147.0","""event"",""trial"",""time""
""fullscreenenter"",""0"",""5783""
","
","
","""event"",""trial"",""time""
""fullscreenenter"",""0"",""5783""
","
","null","<p></p>","null","","","","","","","",""
"","image","148","166608","0.0-148.0","""event"",""trial"",""time""
""fullscreenenter"",""0"",""5783""
","
","
","""event"",""trial"",""time""
""fullscreenenter"",""0"",""5783""
","
","828.5","run_exp/static/images/Set 6_rs/045a.jpg","86","","","","","","learn","SR",""
"","show_choice","149","167790","0.0-149.0","""event"",""trial"",""time""
""fullscreenenter"",""0"",""5783""
","
","
","""event"",""trial"",""time""
""fullscreenenter"",""0"",""5783""
","
","null","run_exp/static/images/Set 6_rs/045a.jpg","null","","","","","","learn","SR",""
"","html-keyboard-response","150","168294","0.0-150.0","""event"",""trial"",""time""
""fullscreenenter"",""0"",""5783""
","
","
","""event"",""trial"",""time""
""fullscreenenter"",""0"",""5783""
","
","null","<p></p>","null","","","","","","","",""
"","image","151","169445","0.0-151.0","""event"",""trial"",""time""
""fullscreenenter"",""0"",""5783""
","
","
","""event"",""trial"",""time""
""fullscreenenter"",""0"",""5783""
","
","1147.6999999284744","run_exp/static/images/Set 6_rs/012a.jpg","86","","","","","","learn","SR",""
"","show_choice","152","170306","0.0-152.0","""event"",""trial"",""time""
""fullscreenenter"",""0"",""5783""
","
","
","""event"",""trial"",""time""
""fullscreenenter"",""0"",""5783""
","
","null","run_exp/static/images/Set 6_rs/012a.jpg","null","","","","","","learn","SR",""
"","html-keyboard-response","153","170812","0.0-153.0","""event"",""trial"",""time""
""fullscreenenter"",""0"",""5783""
","
","
","""event"",""trial"",""time""
""fullscreenenter"",""0"",""5783""
","
","null","<p></p>","null","","","","","","","",""
"","image","154","171846","0.0-154.0","""event"",""trial"",""time""
""fullscreenenter"",""0"",""5783""
","
","
","""event"",""trial"",""time""
""fullscreenenter"",""0"",""5783""
","
","1031.5999999046326","run_exp/static/images/Set 6_rs/066a.jpg","78","","","","","","learn","SL",""
"","show_choice","155","172828","0.0-155.0","""event"",""trial"",""time""
""fullscreenenter"",""0"",""5783""
","
","
","""event"",""trial"",""time""
""fullscreenenter"",""0"",""5783""
","
","null","run_exp/static/images/Set 6_rs/066a.jpg","null","","","","","","learn","SL",""
"","html-keyboard-response","156","173330","0.0-156.0","""event"",""trial"",""time""
""fullscreenenter"",""0"",""5783""
","
","
","""event"",""trial"",""time""
""fullscreenenter"",""0"",""5783""
","
","null","<p></p>","null","","","","","","","",""
"","image","157","174193","0.0-157.0","""event"",""trial"",""time""
""fullscreenenter"",""0"",""5783""
","
","
","""event"",""trial"",""time""
""fullscreenenter"",""0"",""5783""
","
","858.8999999761581","run_exp/static/images/Set 6_rs/055a.jpg","86","","","","","","learn","SL",""
"","show_choice","158","175343","0.0-158.0","""event"",""trial"",""time""
""fullscreenenter"",""0"",""5783""
","
","
","""event"",""trial"",""time""
""fullscreenenter"",""0"",""5783""
","
","null","run_exp/static/images/Set 6_rs/055a.jpg","null","","","","","","learn","SL",""
"","html-keyboard-response","159","175857","0.0-159.0","""event"",""trial"",""time""
""fullscreenenter"",""0"",""5783""
","
","
","""event"",""trial"",""time""
""fullscreenenter"",""0"",""5783""
","
","null","<p></p>","null","","","","","","","",""
"","image","160","176518","0.0-160.0","""event"",""trial"",""time""
""fullscreenenter"",""0"",""5783""
","
","
","""event"",""trial"",""time""
""fullscreenenter"",""0"",""5783""
","
","658.6999999284744","run_exp/static/images/Set 6_rs/064a.jpg","86","","","","","","learn","SR",""
"","show_choice","161","177869","0.0-161.0","""event"",""trial"",""time""
""fullscreenenter"",""0"",""5783""
","
","
","""event"",""trial"",""time""
""fullscreenenter"",""0"",""5783""
","
","null","run_exp/static/images/Set 6_rs/064a.jpg","null","","","","","","learn","SR",""
"","html-keyboard-response","162","178373","0.0-162.0","""event"",""trial"",""time""
""fullscreenenter"",""0"",""5783""
","
","
","""event"",""trial"",""time""
""fullscreenenter"",""0"",""5783""
","
","null","<p></p>","null","","","","","","","",""
"","image","163","179584","0.0-163.0","""event"",""trial"",""time""
""fullscreenenter"",""0"",""5783""
","
","
","""event"",""trial"",""time""
""fullscreenenter"",""0"",""5783""
","
","1208.1000000238419","run_exp/static/images/Set 6_rs/191a.jpg","86","","","","","","learn","SL",""
"","show_choice","164","180390","0.0-164.0","""event"",""trial"",""time""
""fullscreenenter"",""0"",""5783""
","
","
","""event"",""trial"",""time""
""fullscreenenter"",""0"",""5783""
","
","null","run_exp/static/images/Set 6_rs/191a.jpg","null","","","","","","learn","SL",""
"","html-keyboard-response","165","180898","0.0-165.0","""event"",""trial"",""time""
""fullscreenenter"",""0"",""5783""
","
","
","""event"",""trial"",""time""
""fullscreenenter"",""0"",""5783""
","
","null","<p></p>","null","","","","","","","",""
"","image","166","182350","0.0-166.0","""event"",""trial"",""time""
""fullscreenenter"",""0"",""5783""
","
","
","""event"",""trial"",""time""
""fullscreenenter"",""0"",""5783""
","
","1450","run_exp/static/images/Set 6_rs/138a.jpg","78","","","","","","learn","SL",""
"","show_choice","167","182904","0.0-167.0","""event"",""trial"",""time""
""fullscreenenter"",""0"",""5783""
","
","
","""event"",""trial"",""time""
""fullscreenenter"",""0"",""5783""
","
","null","run_exp/static/images/Set 6_rs/138a.jpg","null","","","","","","learn","SL",""
"","html-keyboard-response","168","183409","0.0-168.0","""event"",""trial"",""time""
""fullscreenenter"",""0"",""5783""
","
","
","""event"",""trial"",""time""
""fullscreenenter"",""0"",""5783""
","
","null","<p></p>","null","","","","","","","",""
"","image","169","184318","0.0-169.0","""event"",""trial"",""time""
""fullscreenenter"",""0"",""5783""
","
","
","""event"",""trial"",""time""
""fullscreenenter"",""0"",""5783""
","
","906.7000000476837","run_exp/static/images/Set 6_rs/134a.jpg","86","","","","","","learn","SR",""
"","show_choice","170","185426","0.0-170.0","""event"",""trial"",""time""
""fullscreenenter"",""0"",""5783""
","
","
","""event"",""trial"",""time""
""fullscreenenter"",""0"",""5783""
","
","null","run_exp/static/images/Set 6_rs/134a.jpg","null","","","","","","learn","SR",""
"","html-keyboard-response","171","185932","0.0-171.0","""event"",""trial"",""time""
""fullscreenenter"",""0"",""5783""
","
","
","""event"",""trial"",""time""
""fullscreenenter"",""0"",""5783""
","
","null","<p></p>","null","","","","","","","",""
"","image","172","186915","0.0-172.0","""event"",""trial"",""time""
""fullscreenenter"",""0"",""5783""
","
","
","""event"",""trial"",""time""
""fullscreenenter"",""0"",""5783""
","
","979.6999999284744","run_exp/static/images/Set 6_rs/181a.jpg","86","","","","","","learn","SL",""
"","show_choice","173","187941","0.0-173.0","""event"",""trial"",""time""
""fullscreenenter"",""0"",""5783""
","
","
","""event"",""trial"",""time""
""fullscreenenter"",""0"",""5783""
","
","null","run_exp/static/images/Set 6_rs/181a.jpg","null","","","","","","learn","SL",""
"","html-keyboard-response","174","188449","0.0-174.0","""event"",""trial"",""time""
""fullscreenenter"",""0"",""5783""
","
","
","""event"",""trial"",""time""
""fullscreenenter"",""0"",""5783""
","
","null","<p></p>","null","","","","","","","",""
"","image","175","189913","0.0-175.0","""event"",""trial"",""time""
""fullscreenenter"",""0"",""5783""
","
","
","""event"",""trial"",""time""
""fullscreenenter"",""0"",""5783""
","
","1461","run_exp/static/images/Set 6_rs/079a.jpg","86","","","","","","learn","SL",""
"","show_choice","176","190468","0.0-176.0","""event"",""trial"",""time""
""fullscreenenter"",""0"",""5783""
","
","
","""event"",""trial"",""time""
""fullscreenenter"",""0"",""5783""
","
","null","run_exp/static/images/Set 6_rs/079a.jpg","null","","","","","","learn","SL",""
"","html-keyboard-response","177","190971","0.0-177.0","""event"",""trial"",""time""
""fullscreenenter"",""0"",""5783""
","
","
","""event"",""trial"",""time""
""fullscreenenter"",""0"",""5783""
","
","null","<p></p>","null","","","","","","","",""
"","image","178","191997","0.0-178.0","""event"",""trial"",""time""
""fullscreenenter"",""0"",""5783""
","
","
","""event"",""trial"",""time""
""fullscreenenter"",""0"",""5783""
","
","1023","run_exp/static/images/Set 6_rs/089a.jpg","78","","","","","","learn","SL",""
"","show_choice","179","192999","0.0-179.0","""event"",""trial"",""time""
""fullscreenenter"",""0"",""5783""
","
","
","""event"",""trial"",""time""
""fullscreenenter"",""0"",""5783""
","
","null","run_exp/static/images/Set 6_rs/089a.jpg","null","","","","","","learn","SL",""
"","html-keyboard-response","180","193504","0.0-180.0","""event"",""trial"",""time""
""fullscreenenter"",""0"",""5783""
","
","
","""event"",""trial"",""time""
""fullscreenenter"",""0"",""5783""
","
","null","<p></p>","null","","","","","","","",""
"","image","181","194703","0.0-181.0","""event"",""trial"",""time""
""fullscreenenter"",""0"",""5783""
","
","
","""event"",""trial"",""time""
""fullscreenenter"",""0"",""5783""
","
","1195.2999999523163","run_exp/static/images/Set 6_rs/177a.jpg","78","","","","","","learn","SR",""
"","show_choice","182","195522","0.0-182.0","""event"",""trial"",""time""
""fullscreenenter"",""0"",""5783""
","
","
","""event"",""trial"",""time""
""fullscreenenter"",""0"",""5783""
","
","null","run_exp/static/images/Set 6_rs/177a.jpg","null","","","","","","learn","SR",""
"","html-keyboard-response","183","196041","0.0-183.0","""event"",""trial"",""time""
""fullscreenenter"",""0"",""5783""
","
","
","""event"",""trial"",""time""
""fullscreenenter"",""0"",""5783""
","
","null","<p></p>","null","","","","","","","",""
"","image","184","197004","0.0-184.0","""event"",""trial"",""time""
""fullscreenenter"",""0"",""5783""
","
","
","""event"",""trial"",""time""
""fullscreenenter"",""0"",""5783""
","
","959.7999999523163","run_exp/static/images/Set 6_rs/117a.jpg","86","","","","","","learn","SL",""
"","show_choice","185","198053","0.0-185.0","""event"",""trial"",""time""
""fullscreenenter"",""0"",""5783""
","
","
","""event"",""trial"",""time""
""fullscreenenter"",""0"",""5783""
","
","null","run_exp/static/images/Set 6_rs/117a.jpg","null","","","","","","learn","SL",""
"","html-keyboard-response","186","198568","0.0-186.0","""event"",""trial"",""time""
""fullscreenenter"",""0"",""5783""
","
","
","""event"",""trial"",""time""
""fullscreenenter"",""0"",""5783""
","
","null","<p></p>","null","","","","","","","",""
"","image","187","199298","0.0-187.0","""event"",""trial"",""time""
""fullscreenenter"",""0"",""5783""
","
","
","""event"",""trial"",""time""
""fullscreenenter"",""0"",""5783""
","
","727.7999999523163","run_exp/static/images/Set 6_rs/036a.jpg","86","","","","","","learn","SL",""
"","show_choice","188","200582","0.0-188.0","""event"",""trial"",""time""
""fullscreenenter"",""0"",""5783""
","
","
","""event"",""trial"",""time""
""fullscreenenter"",""0"",""5783""
","
","null","run_exp/static/images/Set 6_rs/036a.jpg","null","","","","","","learn","SL",""
"","html-keyboard-response","189","201088","0.0-189.0","""event"",""trial"",""time""
""fullscreenenter"",""0"",""5783""
","
","
","""event"",""trial"",""time""
""fullscreenenter"",""0"",""5783""
","
","null","<p></p>","null","","","","","","","",""
"","image","190","201711","0.0-190.0","""event"",""trial"",""time""
""fullscreenenter"",""0"",""5783""
","
","
","""event"",""trial"",""time""
""fullscreenenter"",""0"",""5783""
","
","619.7999999523163","run_exp/static/images/Set 6_rs/006a.jpg","86","","","","","","learn","SL",""
"","show_choice","191","203108","0.0-191.0","""event"",""trial"",""time""
""fullscreenenter"",""0"",""5783""
","
","
","""event"",""trial"",""time""
""fullscreenenter"",""0"",""5783""
","
","null","run_exp/static/images/Set 6_rs/006a.jpg","null","","","","","","learn","SL",""
"","html-keyboard-response","192","203620","0.0-192.0","""event"",""trial"",""time""
""fullscreenenter"",""0"",""5783""
","
","
","""event"",""trial"",""time""
""fullscreenenter"",""0"",""5783""
","
","null","<p></p>","null","","","","","","","",""
"","image","193","204227","0.0-193.0","""event"",""trial"",""time""
""fullscreenenter"",""0"",""5783""
","
","
","""event"",""trial"",""time""
""fullscreenenter"",""0"",""5783""
","
","604.6999999284744","run_exp/static/images/Set 6_rs/186a.jpg","86","","","","","","learn","SR",""
"","show_choice","194","205636","0.0-194.0","""event"",""trial"",""time""
""fullscreenenter"",""0"",""5783""
","
","
","""event"",""trial"",""time""
""fullscreenenter"",""0"",""5783""
","
","null","run_exp/static/images/Set 6_rs/186a.jpg","null","","","","","","learn","SR",""
"","html-keyboard-response","195","206140","0.0-195.0","""event"",""trial"",""time""
""fullscreenenter"",""0"",""5783""
","
","
","""event"",""trial"",""time""
""fullscreenenter"",""0"",""5783""
","
","null","<p></p>","null","","","","","","","",""
"","test_intro","196","243279","0.0-196.0","""event"",""trial"",""time""
""fullscreenenter"",""0"",""5783""
","
","
","""event"",""trial"",""time""
""fullscreenenter"",""0"",""5783""
","
","null","run_exp/static/audio/clip_2_memory.m4a","null","","","","","<div class='center'><p>Now, lets see how much you remember about the items you just saw.  For each item, you need to indicate if it was <b>old</b> by pressing the <b>v</b> key, <b>similar</b> by pressing the <b>b</b> key, or <b>new</b> by pressing the <b>n</b> key.</p><p>Old refers to an item that you saw before in the indoor/outdoor game that you just played, new refers to an item you have <b>not</b> seen before within the indoor/outdoor game, and similar refers to an item that is similar to an item youve seen before but is not exactly the same. </p><p>Before we begin, lets go over some brief demonstrations to make sure you understand.</p></div>","","",""
"","html-keyboard-response","197","244323","0.0-197.0","""event"",""trial"",""time""
""fullscreenenter"",""0"",""5783""
","
","
","""event"",""trial"",""time""
""fullscreenenter"",""0"",""5783""
","
","1040.7999999523163","<div class='center'><p>Now, lets see how much you remember about the items you just saw.  For each item, you need to indicate if it was <b>old</b> by pressing the <b>v</b> key, <b>similar</b> by pressing the <b>b</b> key, or <b>new</b> by pressing the <b>n</b> key.</p><p>Old refers to an item that you saw before in the indoor/outdoor game that you just played, new refers to an item you have <b>not</b> seen before within the indoor/outdoor game, and similar refers to an item that is similar to an item youve seen before but is not exactly the same. </p><p>Before we begin, lets go over some brief demonstrations to make sure you understand.</p><div><p><b>[Press the space bar to continue]</b></p></div>","32","","","","","","","",""
"","items","198","251841","0.0-198.0","""event"",""trial"",""time""
""fullscreenenter"",""0"",""5783""
","
","
","""event"",""trial"",""time""
""fullscreenenter"",""0"",""5783""
","
","null","run_exp/static/audio/clip_3_items.m4a","null","","","","","","","",""
"","mop","199","256364","0.0-199.0","""event"",""trial"",""time""
""fullscreenenter"",""0"",""5783""
","
","
","""event"",""trial"",""time""
""fullscreenenter"",""0"",""5783""
","
","null","run_exp/static/audio/clip_4_mop.m4a","null","","","","","","","",""
"","baseball","200","259879","0.0-200.0","""event"",""trial"",""time""
""fullscreenenter"",""0"",""5783""
","
","
","""event"",""trial"",""time""
""fullscreenenter"",""0"",""5783""
","
","null","run_exp/static/audio/clip_5_baseball.m4a","null","","","","","","","",""
"","trumpet","201","263403","0.0-201.0","""event"",""trial"",""time""
""fullscreenenter"",""0"",""5783""
","
","
","""event"",""trial"",""time""
""fullscreenenter"",""0"",""5783""
","
","null","run_exp/static/audio/clip_6_trumpet.m4a","null","","","","","","","",""
"","gummies","202","266915","0.0-202.0","""event"",""trial"",""time""
""fullscreenenter"",""0"",""5783""
","
","
","""event"",""trial"",""time""
""fullscreenenter"",""0"",""5783""
","
","null","run_exp/static/audio/clip_7_gummies.m4a","null","","","","","","","",""
"","osn","203","271447","0.0-203.0","""event"",""trial"",""time""
""fullscreenenter"",""0"",""5783""
","
","
","""event"",""trial"",""time""
""fullscreenenter"",""0"",""5783""
","
","null","run_exp/static/audio/clip_8_osn.m4a","null","","","","","","","",""
"","old_1","204","277953","0.0-204.0","""event"",""trial"",""time""
""fullscreenenter"",""0"",""5783""
","
","
","""event"",""trial"",""time""
""fullscreenenter"",""0"",""5783""
","
","null","run_exp/static/audio/clip_9_old_trumpet.m4a","null","","","","","","","",""
"","new_1","205","285468","0.0-205.0","""event"",""trial"",""time""
""fullscreenenter"",""0"",""5783""
","
","
","""event"",""trial"",""time""
""fullscreenenter"",""0"",""5783""
","
","null","run_exp/static/audio/clip_10_new_balloon.m4a","null","","","","","","","",""
"","similar_1a","206","289986","0.0-206.0","""event"",""trial"",""time""
""fullscreenenter"",""0"",""5783""
","
","
","""event"",""trial"",""time""
""fullscreenenter"",""0"",""5783""
","
","null","run_exp/static/audio/clip_11a_similar_mop.m4a","null","","","","","","","",""
"","similar_1b","207","296514","0.0-207.0","""event"",""trial"",""time""
""fullscreenenter"",""0"",""5783""
","
","
","""event"",""trial"",""time""
""fullscreenenter"",""0"",""5783""
","
","null","run_exp/static/audio/clip_11b_similar_mop.m4a","null","","","","","","","",""
"","new_2","208","300033","0.0-208.0","""event"",""trial"",""time""
""fullscreenenter"",""0"",""5783""
","
","
","""event"",""trial"",""time""
""fullscreenenter"",""0"",""5783""
","
","null","run_exp/static/audio/clip_12_new_stoplight.m4a","null","","","","","","","",""
"","old_2","209","303549","0.0-209.0","""event"",""trial"",""time""
""fullscreenenter"",""0"",""5783""
","
","
","""event"",""trial"",""time""
""fullscreenenter"",""0"",""5783""
","
","null","run_exp/static/audio/clip_13_old_baseball.m4a","null","","","","","","","",""
"","similar_2a","210","307094","0.0-210.0","""event"",""trial"",""time""
""fullscreenenter"",""0"",""5783""
","
","
","""event"",""trial"",""time""
""fullscreenenter"",""0"",""5783""
","
","null","run_exp/static/audio/clip_14a_similar_gummies.m4a","null","","","","","","","",""
"","similar_2b","211","314605","0.0-211.0","""event"",""trial"",""time""
""fullscreenenter"",""0"",""5783""
","
","
","""event"",""trial"",""time""
""fullscreenenter"",""0"",""5783""
","
","null","run_exp/static/audio/clip_14b_similar_gummies.m4a","null","","","","","","","",""
"","practice","212","356791","0.0-212.0","""event"",""trial"",""time""
""fullscreenenter"",""0"",""5783""
","
","
","""event"",""trial"",""time""
""fullscreenenter"",""0"",""5783""
","
","null","run_exp/static/audio/clip_15_practice.m4a","null","","","","","<div class='center'><p>Lets practice a little to make sure you understand the difference between new, similar, and old. Lets say you saw these three items in the indoor/outdoor game.</p><p> Try your best to remember these images because youll soon be tested on them in a practice game. In the practice game, youll be shown images and youll have to say if they are old (one of the three images belows), similar (similar to one of the images below but not exactly the same), or new (are not one of the images below nor similar to them).</p><p>Once you press the space bar youll be shown these images again but one at time. Then youll begin the practice game.</p><p><img src='run_exp/static/images/tutorial/test/three_indoor_outdoor.png' height='300'></p></div>","","",""
"","html-keyboard-response","213","357549","0.0-213.0","""event"",""trial"",""time""
""fullscreenenter"",""0"",""5783""
","
","
","""event"",""trial"",""time""
""fullscreenenter"",""0"",""5783""
","
","756.2999999523163","<div class='center'><p>Lets practice a little to make sure you understand the difference between new, similar, and old. Lets say you saw these three items in the indoor/outdoor game.</p><p> Try your best to remember these images because youll soon be tested on them in a practice game. In the practice game, youll be shown images and youll have to say if they are old (one of the three images belows), similar (similar to one of the images below but not exactly the same), or new (are not one of the images below nor similar to them).</p><p>Once you press the space bar youll be shown these images again but one at time. Then youll begin the practice game.</p><p><img src='run_exp/static/images/tutorial/test/three_indoor_outdoor.png' height='300'></p><div><p><b>[Press the space bar to continue]</b></p></div>","32","","","","","","","",""
"","planet","214","359552","0.0-214.0","""event"",""trial"",""time""
""fullscreenenter"",""0"",""5783""
","
","
","""event"",""trial"",""time""
""fullscreenenter"",""0"",""5783""
","
","null","run_exp/static/images/tutorial/test/008a.jpg","null","","","","","","","",""
"","boot","215","361571","0.0-215.0","""event"",""trial"",""time""
""fullscreenenter"",""0"",""5783""
","
","
","""event"",""trial"",""time""
""fullscreenenter"",""0"",""5783""
","
","null","run_exp/static/images/tutorial/test/011a.jpg","null","","","","","","","",""
"","lemon","216","363581","0.0-216.0","""event"",""trial"",""time""
""fullscreenenter"",""0"",""5783""
","
","
","""event"",""trial"",""time""
""fullscreenenter"",""0"",""5783""
","
","null","run_exp/static/images/tutorial/test/018a.jpg","null","","","","","","","",""
"","practice_q1","217","368525","0.0-217.0","""event"",""trial"",""time""
""fullscreenenter"",""0"",""5783""
","
","
","""event"",""trial"",""time""
""fullscreenenter"",""0"",""5783""
","
","4933.899999976158","run_exp/static/audio/clip_16_practice_question.m4a","78","","","","","","","",""
"","correct","218","370445","0.0-218.0-0.0","""event"",""trial"",""time""
""fullscreenenter"",""0"",""5783""
","
","
","""event"",""trial"",""time""
""fullscreenenter"",""0"",""5783""
","
","null","run_exp/static/audio/clip_17_correct.m4a","null","","","","","<div class='center'><p>That's correct!</p></div>","","",""
"","html-keyboard-response","219","371443","0.0-218.0-1.0","""event"",""trial"",""time""
""fullscreenenter"",""0"",""5783""
","
","
","""event"",""trial"",""time""
""fullscreenenter"",""0"",""5783""
","
","994.5","<div class='center'><p>That's correct!</p><div><p><b>[Press the space bar to continue]</b></p></div>","32","","","","","","","",""
"","practice_q2","220","372937","0.0-218.0-2.0","""event"",""trial"",""time""
""fullscreenenter"",""0"",""5783""
","
","
","""event"",""trial"",""time""
""fullscreenenter"",""0"",""5783""
","
","1490.2999999523163","run_exp/static/audio/clip_16_practice_question.m4a","86","","","","","","","",""
"","correct","221","374840","0.0-219.0-0.0","""event"",""trial"",""time""
""fullscreenenter"",""0"",""5783""
","
","
","""event"",""trial"",""time""
""fullscreenenter"",""0"",""5783""
","
","null","run_exp/static/audio/clip_17_correct.m4a","null","","","","","<div class='center'><p>That's correct!</p></div>","","",""
"","html-keyboard-response","222","375323","0.0-219.0-1.0","""event"",""trial"",""time""
""fullscreenenter"",""0"",""5783""
","
","
","""event"",""trial"",""time""
""fullscreenenter"",""0"",""5783""
","
","480.89999997615814","<div class='center'><p>That's correct!</p><div><p><b>[Press the space bar to continue]</b></p></div>","32","","","","","","","",""
"","practice_q3","223","376519","0.0-219.0-2.0","""event"",""trial"",""time""
""fullscreenenter"",""0"",""5783""
","
","
","""event"",""trial"",""time""
""fullscreenenter"",""0"",""5783""
","
","1192.7999999523163","run_exp/static/audio/clip_16_practice_question.m4a","66","","","","","","","",""
"","correct","224","378637","0.0-220.0-0.0","""event"",""trial"",""time""
""fullscreenenter"",""0"",""5783""
","
","
","""event"",""trial"",""time""
""fullscreenenter"",""0"",""5783""
","
","null","run_exp/static/audio/clip_17_correct.m4a","null","","","","","<div class='center'><p>That's correct!</p></div>","","",""
"","html-keyboard-response","225","379151","0.0-220.0-1.0","""event"",""trial"",""time""
""fullscreenenter"",""0"",""5783""
","
","
","""event"",""trial"",""time""
""fullscreenenter"",""0"",""5783""
","
","511.2999999523163","<div class='center'><p>That's correct!</p><div><p><b>[Press the space bar to continue]</b></p></div>","32","","","","","","","",""
"","begin_text","226","397646","0.0-221.0-0.0","""event"",""trial"",""time""
""fullscreenenter"",""0"",""5783""
","
","
","""event"",""trial"",""time""
""fullscreenenter"",""0"",""5783""
","
","null","run_exp/static/audio/clip_22_begin_test.m4a","null","","","","","<div class='center'><p>On to the real game where well test your memory of items from the indoor/outdoor game. For each item, you need to indicate if the item is <b>old</b> by pressing the <b>v</b> key, <b>similar</b> by pressing the <b>b</b> key, or <b>new</b> by pressing the <b>n</b> key. </p></div>","","",""
"","html-keyboard-response","227","398090","0.0-221.0-1.0","""event"",""trial"",""time""
""fullscreenenter"",""0"",""5783""
","
","
","""event"",""trial"",""time""
""fullscreenenter"",""0"",""5783""
","
","440","<div class='center'><p>On to the real game where well test your memory of items from the indoor/outdoor game. For each item, you need to indicate if the item is <b>old</b> by pressing the <b>v</b> key, <b>similar</b> by pressing the <b>b</b> key, or <b>new</b> by pressing the <b>n</b> key. </p><div><p><b>[Press the space bar to continue]</b></p></div>","32","","","","","","","",""
"","image","228","399947","0.0-222.0-0.0","""event"",""trial"",""time""
""fullscreenenter"",""0"",""5783""
","
","
","""event"",""trial"",""time""
""fullscreenenter"",""0"",""5783""
","
","1853","run_exp/static/images/Set 6_rs/048a.jpg","78","","","","","","test","TF","4"
"","show_choice","229","400461","0.0-222.0-1.0","""event"",""trial"",""time""
""fullscreenenter"",""0"",""5783""
","
","
","""event"",""trial"",""time""
""fullscreenenter"",""0"",""5783""
","
","null","run_exp/static/images/Set 6_rs/048a.jpg","null","","","","","","test","TF",""
"","html-keyboard-response","230","400983","0.0-222.0-2.0","""event"",""trial"",""time""
""fullscreenenter"",""0"",""5783""
","
","
","""event"",""trial"",""time""
""fullscreenenter"",""0"",""5783""
","
","null","<p></p>","null","","","","","","","",""
"","image","231","402338","0.0-223.0-0.0","""event"",""trial"",""time""
""fullscreenenter"",""0"",""5783""
","
","
","""event"",""trial"",""time""
""fullscreenenter"",""0"",""5783""
","
","1352.8999999761581","run_exp/static/images/Set 6_rs/062b.jpg","86","","","","","","test","TL","1"
"","show_choice","232","402849","0.0-223.0-1.0","""event"",""trial"",""time""
""fullscreenenter"",""0"",""5783""
","
","
","""event"",""trial"",""time""
""fullscreenenter"",""0"",""5783""
","
","null","run_exp/static/images/Set 6_rs/062b.jpg","null","","","","","","test","TL",""
"","html-keyboard-response","233","403374","0.0-223.0-2.0","""event"",""trial"",""time""
""fullscreenenter"",""0"",""5783""
","
","
","""event"",""trial"",""time""
""fullscreenenter"",""0"",""5783""
","
","null","<p></p>","null","","","","","","","",""
"","image","234","404623","0.0-224.0-0.0","""event"",""trial"",""time""
""fullscreenenter"",""0"",""5783""
","
","
","""event"",""trial"",""time""
""fullscreenenter"",""0"",""5783""
","
","1246.6000000238419","run_exp/static/images/Set 6_rs/167b.jpg","66","","","","","","test","TL","2"
"","show_choice","235","405135","0.0-224.0-1.0","""event"",""trial"",""time""
""fullscreenenter"",""0"",""5783""
","
","
","""event"",""trial"",""time""
""fullscreenenter"",""0"",""5783""
","
","null","run_exp/static/images/Set 6_rs/167b.jpg","null","","","","","","test","TL",""
"","html-keyboard-response","236","405656","0.0-224.0-2.0","""event"",""trial"",""time""
""fullscreenenter"",""0"",""5783""
","
","
","""event"",""trial"",""time""
""fullscreenenter"",""0"",""5783""
","
","null","<p></p>","null","","","","","","","",""
"","image","237","406870","0.0-225.0-0.0","""event"",""trial"",""time""
""fullscreenenter"",""0"",""5783""
","
","
","""event"",""trial"",""time""
""fullscreenenter"",""0"",""5783""
","
","1212","run_exp/static/images/Set 6_rs/008b.jpg","86","","","","","","test","TL","2"
"","show_choice","238","407384","0.0-225.0-1.0","""event"",""trial"",""time""
""fullscreenenter"",""0"",""5783""
","
","
","""event"",""trial"",""time""
""fullscreenenter"",""0"",""5783""
","
","null","run_exp/static/images/Set 6_rs/008b.jpg","null","","","","","","test","TL",""
"","html-keyboard-response","239","407890","0.0-225.0-2.0","""event"",""trial"",""time""
""fullscreenenter"",""0"",""5783""
","
","
","""event"",""trial"",""time""
""fullscreenenter"",""0"",""5783""
","
","null","<p></p>","null","","","","","","","",""
"","image","240","408997","0.0-226.0-0.0","""event"",""trial"",""time""
""fullscreenenter"",""0"",""5783""
","
","
","""event"",""trial"",""time""
""fullscreenenter"",""0"",""5783""
","
","1105.1000000238419","run_exp/static/images/Set 6_rs/178a.jpg","86","","","","","","test","TR","3"
"","show_choice","241","409505","0.0-226.0-1.0","""event"",""trial"",""time""
""fullscreenenter"",""0"",""5783""
","
","
","""event"",""trial"",""time""
""fullscreenenter"",""0"",""5783""
","
","null","run_exp/static/images/Set 6_rs/178a.jpg","null","","","","","","test","TR",""
"","html-keyboard-response","242","410010","0.0-226.0-2.0","""event"",""trial"",""time""
""fullscreenenter"",""0"",""5783""
","
","
","""event"",""trial"",""time""
""fullscreenenter"",""0"",""5783""
","
","null","<p></p>","null","","","","","","","",""
"","image","243","411214","0.0-227.0-0.0","""event"",""trial"",""time""
""fullscreenenter"",""0"",""5783""
","
","
","""event"",""trial"",""time""
""fullscreenenter"",""0"",""5783""
","
","1202.7999999523163","run_exp/static/images/Set 6_rs/118a.jpg","78","","","","","","test","TF","5"
"","show_choice","244","411718","0.0-227.0-1.0","""event"",""trial"",""time""
""fullscreenenter"",""0"",""5783""
","
","
","""event"",""trial"",""time""
""fullscreenenter"",""0"",""5783""
","
","null","run_exp/static/images/Set 6_rs/118a.jpg","null","","","","","","test","TF",""
"","html-keyboard-response","245","412234","0.0-227.0-2.0","""event"",""trial"",""time""
""fullscreenenter"",""0"",""5783""
","
","
","""event"",""trial"",""time""
""fullscreenenter"",""0"",""5783""
","
","null","<p></p>","null","","","","","","","",""
"","image","246","413765","0.0-228.0-0.0","""event"",""trial"",""time""
""fullscreenenter"",""0"",""5783""
","
","
","""event"",""trial"",""time""
""fullscreenenter"",""0"",""5783""
","
","1529.8999999761581","run_exp/static/images/Set 6_rs/073b.jpg","66","","","","","","test","TL","3"
"","show_choice","247","414277","0.0-228.0-1.0","""event"",""trial"",""time""
""fullscreenenter"",""0"",""5783""
","
","
","""event"",""trial"",""time""
""fullscreenenter"",""0"",""5783""
","
","null","run_exp/static/images/Set 6_rs/073b.jpg","null","","","","","","test","TL",""
"","html-keyboard-response","248","414795","0.0-228.0-2.0","""event"",""trial"",""time""
""fullscreenenter"",""0"",""5783""
","
","
","""event"",""trial"",""time""
""fullscreenenter"",""0"",""5783""
","
","null","<p></p>","null","","","","","","","",""
"","image","249","416216","0.0-229.0-0.0","""event"",""trial"",""time""
""fullscreenenter"",""0"",""5783""
","
","
","""event"",""trial"",""time""
""fullscreenenter"",""0"",""5783""
","
","1419.2999999523163","run_exp/static/images/Set 6_rs/121a.jpg","86","","","","","","test","TR","4"
"","show_choice","250","416730","0.0-229.0-1.0","""event"",""trial"",""time""
""fullscreenenter"",""0"",""5783""
","
","
","""event"",""trial"",""time""
""fullscreenenter"",""0"",""5783""
","
","null","run_exp/static/images/Set 6_rs/121a.jpg","null","","","","","","test","TR",""
"","html-keyboard-response","251","417236","0.0-229.0-2.0","""event"",""trial"",""time""
""fullscreenenter"",""0"",""5783""
","
","
","""event"",""trial"",""time""
""fullscreenenter"",""0"",""5783""
","
","null","<p></p>","null","","","","","","","",""
"","image","252","418598","0.0-230.0-0.0","""event"",""trial"",""time""
""fullscreenenter"",""0"",""5783""
","
","
","""event"",""trial"",""time""
""fullscreenenter"",""0"",""5783""
","
","1358.6000000238419","run_exp/static/images/Set 6_rs/025b.jpg","66","","","","","","test","TL","5"
"","show_choice","253","419116","0.0-230.0-1.0","""event"",""trial"",""time""
""fullscreenenter"",""0"",""5783""
","
","
","""event"",""trial"",""time""
""fullscreenenter"",""0"",""5783""
","
","null","run_exp/static/images/Set 6_rs/025b.jpg","null","","","","","","test","TL",""
"","html-keyboard-response","254","419633","0.0-230.0-2.0","""event"",""trial"",""time""
""fullscreenenter"",""0"",""5783""
","
","
","""event"",""trial"",""time""
""fullscreenenter"",""0"",""5783""
","
","null","<p></p>","null","","","","","","","",""
"","image","255","420982","0.0-231.0-0.0","""event"",""trial"",""time""
""fullscreenenter"",""0"",""5783""
","
","
","""event"",""trial"",""time""
""fullscreenenter"",""0"",""5783""
","
","1345.3999999761581","run_exp/static/images/Set 6_rs/011a.jpg","78","","","","","","test","TF","3"
"","show_choice","256","421485","0.0-231.0-1.0","""event"",""trial"",""time""
""fullscreenenter"",""0"",""5783""
","
","
","""event"",""trial"",""time""
""fullscreenenter"",""0"",""5783""
","
","null","run_exp/static/images/Set 6_rs/011a.jpg","null","","","","","","test","TF",""
"","html-keyboard-response","257","422002","0.0-231.0-2.0","""event"",""trial"",""time""
""fullscreenenter"",""0"",""5783""
","
","
","""event"",""trial"",""time""
""fullscreenenter"",""0"",""5783""
","
","null","<p></p>","null","","","","","","","",""
"","image","258","423219","0.0-232.0-0.0","""event"",""trial"",""time""
""fullscreenenter"",""0"",""5783""
","
","
","""event"",""trial"",""time""
""fullscreenenter"",""0"",""5783""
","
","1215.3999999761581","run_exp/static/images/Set 6_rs/055b.jpg","86","","","","","","test","TL","4"
"","show_choice","259","423727","0.0-232.0-1.0","""event"",""trial"",""time""
""fullscreenenter"",""0"",""5783""
","
","
","""event"",""trial"",""time""
""fullscreenenter"",""0"",""5783""
","
","null","run_exp/static/images/Set 6_rs/055b.jpg","null","","","","","","test","TL",""
"","html-keyboard-response","260","424246","0.0-232.0-2.0","""event"",""trial"",""time""
""fullscreenenter"",""0"",""5783""
","
","
","""event"",""trial"",""time""
""fullscreenenter"",""0"",""5783""
","
","null","<p></p>","null","","","","","","","",""
"","image","261","425647","0.0-233.0-0.0","""event"",""trial"",""time""
""fullscreenenter"",""0"",""5783""
","
","
","""event"",""trial"",""time""
""fullscreenenter"",""0"",""5783""
","
","1398","run_exp/static/images/Set 6_rs/170a.jpg","78","","","","","","test","TF","2"
"","show_choice","262","426161","0.0-233.0-1.0","""event"",""trial"",""time""
""fullscreenenter"",""0"",""5783""
","
","
","""event"",""trial"",""time""
""fullscreenenter"",""0"",""5783""
","
","null","run_exp/static/images/Set 6_rs/170a.jpg","null","","","","","","test","TF",""
"","html-keyboard-response","263","426669","0.0-233.0-2.0","""event"",""trial"",""time""
""fullscreenenter"",""0"",""5783""
","
","
","""event"",""trial"",""time""
""fullscreenenter"",""0"",""5783""
","
","null","<p></p>","null","","","","","","","",""
"","image","264","427915","0.0-234.0-0.0","""event"",""trial"",""time""
""fullscreenenter"",""0"",""5783""
","
","
","""event"",""trial"",""time""
""fullscreenenter"",""0"",""5783""
","
","1242.8999999761581","run_exp/static/images/Set 6_rs/078a.jpg","78","","","","","","test","TF","1"
"","show_choice","265","428428","0.0-234.0-1.0","""event"",""trial"",""time""
""fullscreenenter"",""0"",""5783""
","
","
","""event"",""trial"",""time""
""fullscreenenter"",""0"",""5783""
","
","null","run_exp/static/images/Set 6_rs/078a.jpg","null","","","","","","test","TF",""
"","html-keyboard-response","266","428951","0.0-234.0-2.0","""event"",""trial"",""time""
""fullscreenenter"",""0"",""5783""
","
","
","""event"",""trial"",""time""
""fullscreenenter"",""0"",""5783""
","
","null","<p></p>","null","","","","","","","",""
"","image","267","430054","0.0-235.0-0.0","""event"",""trial"",""time""
""fullscreenenter"",""0"",""5783""
","
","
","""event"",""trial"",""time""
""fullscreenenter"",""0"",""5783""
","
","1100.1000000238419","run_exp/static/images/Set 6_rs/023a.jpg","86","","","","","","test","TR","3"
"","show_choice","268","430559","0.0-235.0-1.0","""event"",""trial"",""time""
""fullscreenenter"",""0"",""5783""
","
","
","""event"",""trial"",""time""
""fullscreenenter"",""0"",""5783""
","
","null","run_exp/static/images/Set 6_rs/023a.jpg","null","","","","","","test","TR",""
"","html-keyboard-response","269","431076","0.0-235.0-2.0","""event"",""trial"",""time""
""fullscreenenter"",""0"",""5783""
","
","
","""event"",""trial"",""time""
""fullscreenenter"",""0"",""5783""
","
","null","<p></p>","null","","","","","","","",""
"","image","270","432297","0.0-236.0-0.0","""event"",""trial"",""time""
""fullscreenenter"",""0"",""5783""
","
","
","""event"",""trial"",""time""
""fullscreenenter"",""0"",""5783""
","
","1217.3999999761581","run_exp/static/images/Set 6_rs/021a.jpg","66","","","","","","test","TF","2"
"","show_choice","271","432803","0.0-236.0-1.0","""event"",""trial"",""time""
""fullscreenenter"",""0"",""5783""
","
","
","""event"",""trial"",""time""
""fullscreenenter"",""0"",""5783""
","
","null","run_exp/static/images/Set 6_rs/021a.jpg","null","","","","","","test","TF",""
"","html-keyboard-response","272","433310","0.0-236.0-2.0","""event"",""trial"",""time""
""fullscreenenter"",""0"",""5783""
","
","
","""event"",""trial"",""time""
""fullscreenenter"",""0"",""5783""
","
","null","<p></p>","null","","","","","","","",""
"","image","273","434623","0.0-237.0-0.0","""event"",""trial"",""time""
""fullscreenenter"",""0"",""5783""
","
","
","""event"",""trial"",""time""
""fullscreenenter"",""0"",""5783""
","
","1310","run_exp/static/images/Set 6_rs/129b.jpg","86","","","","","","test","TL","1"
"","show_choice","274","435126","0.0-237.0-1.0","""event"",""trial"",""time""
""fullscreenenter"",""0"",""5783""
","
","
","""event"",""trial"",""time""
""fullscreenenter"",""0"",""5783""
","
","null","run_exp/static/images/Set 6_rs/129b.jpg","null","","","","","","test","TL",""
"","html-keyboard-response","275","435631","0.0-237.0-2.0","""event"",""trial"",""time""
""fullscreenenter"",""0"",""5783""
","
","
","""event"",""trial"",""time""
""fullscreenenter"",""0"",""5783""
","
","null","<p></p>","null","","","","","","","",""
"","image","276","436462","0.0-238.0-0.0","""event"",""trial"",""time""
""fullscreenenter"",""0"",""5783""
","
","
","""event"",""trial"",""time""
""fullscreenenter"",""0"",""5783""
","
","828.5","run_exp/static/images/Set 6_rs/126a.jpg","86","","","","","","test","TR","2"
"","show_choice","277","436975","0.0-238.0-1.0","""event"",""trial"",""time""
""fullscreenenter"",""0"",""5783""
","
","
","""event"",""trial"",""time""
""fullscreenenter"",""0"",""5783""
","
","null","run_exp/static/images/Set 6_rs/126a.jpg","null","","","","","","test","TR",""
"","html-keyboard-response","278","437493","0.0-238.0-2.0","""event"",""trial"",""time""
""fullscreenenter"",""0"",""5783""
","
","
","""event"",""trial"",""time""
""fullscreenenter"",""0"",""5783""
","
","null","<p></p>","null","","","","","","","",""
"","image","279","438899","0.0-239.0-0.0","""event"",""trial"",""time""
""fullscreenenter"",""0"",""5783""
","
","
","""event"",""trial"",""time""
""fullscreenenter"",""0"",""5783""
","
","1403.9000000953674","run_exp/static/images/Set 6_rs/064a.jpg","78","","","","","","test","TR","5"
"","show_choice","280","439415","0.0-239.0-1.0","""event"",""trial"",""time""
""fullscreenenter"",""0"",""5783""
","
","
","""event"",""trial"",""time""
""fullscreenenter"",""0"",""5783""
","
","null","run_exp/static/images/Set 6_rs/064a.jpg","null","","","","","","test","TR",""
"","html-keyboard-response","281","439918","0.0-239.0-2.0","""event"",""trial"",""time""
""fullscreenenter"",""0"",""5783""
","
","
","""event"",""trial"",""time""
""fullscreenenter"",""0"",""5783""
","
","null","<p></p>","null","","","","","","","",""
"","image","282","441187","0.0-240.0-0.0","""event"",""trial"",""time""
""fullscreenenter"",""0"",""5783""
","
","
","""event"",""trial"",""time""
""fullscreenenter"",""0"",""5783""
","
","1266.3000000715256","run_exp/static/images/Set 6_rs/061a.jpg","86","","","","","","test","TR","5"
"","show_choice","283","441690","0.0-240.0-1.0","""event"",""trial"",""time""
""fullscreenenter"",""0"",""5783""
","
","
","""event"",""trial"",""time""
""fullscreenenter"",""0"",""5783""
","
","null","run_exp/static/images/Set 6_rs/061a.jpg","null","","","","","","test","TR",""
"","html-keyboard-response","284","442193","0.0-240.0-2.0","""event"",""trial"",""time""
""fullscreenenter"",""0"",""5783""
","
","
","""event"",""trial"",""time""
""fullscreenenter"",""0"",""5783""
","
","null","<p></p>","null","","","","","","","",""
"","image","285","443876","0.0-241.0-0.0","""event"",""trial"",""time""
""fullscreenenter"",""0"",""5783""
","
","
","""event"",""trial"",""time""
""fullscreenenter"",""0"",""5783""
","
","1679.3999999761581","run_exp/static/images/Set 6_rs/001a.jpg","78","","","","","","test","TF","1"
"","show_choice","286","444389","0.0-241.0-1.0","""event"",""trial"",""time""
""fullscreenenter"",""0"",""5783""
","
","
","""event"",""trial"",""time""
""fullscreenenter"",""0"",""5783""
","
","null","run_exp/static/images/Set 6_rs/001a.jpg","null","","","","","","test","TF",""
"","html-keyboard-response","287","444907","0.0-241.0-2.0","""event"",""trial"",""time""
""fullscreenenter"",""0"",""5783""
","
","
","""event"",""trial"",""time""
""fullscreenenter"",""0"",""5783""
","
","null","<p></p>","null","","","","","","","",""
"","image","288","445807","0.0-242.0-0.0","""event"",""trial"",""time""
""fullscreenenter"",""0"",""5783""
","
","
","""event"",""trial"",""time""
""fullscreenenter"",""0"",""5783""
","
","896.8000000715256","run_exp/static/images/Set 6_rs/063a.jpg","86","","","","","","test","TR","2"
"","show_choice","289","446310","0.0-242.0-1.0","""event"",""trial"",""time""
""fullscreenenter"",""0"",""5783""
","
","
","""event"",""trial"",""time""
""fullscreenenter"",""0"",""5783""
","
","null","run_exp/static/images/Set 6_rs/063a.jpg","null","","","","","","test","TR",""
"","html-keyboard-response","290","446819","0.0-242.0-2.0","""event"",""trial"",""time""
""fullscreenenter"",""0"",""5783""
","
","
","""event"",""trial"",""time""
""fullscreenenter"",""0"",""5783""
","
","null","<p></p>","null","","","","","","","",""
"","image","291","448091","0.0-243.0-0.0","""event"",""trial"",""time""
""fullscreenenter"",""0"",""5783""
","
","
","""event"",""trial"",""time""
""fullscreenenter"",""0"",""5783""
","
","1269.0999999046326","run_exp/static/images/Set 6_rs/074b.jpg","86","","","","","","test","TL","4"
"","show_choice","292","448595","0.0-243.0-1.0","""event"",""trial"",""time""
""fullscreenenter"",""0"",""5783""
","
","
","""event"",""trial"",""time""
""fullscreenenter"",""0"",""5783""
","
","null","run_exp/static/images/Set 6_rs/074b.jpg","null","","","","","","test","TL",""
"","html-keyboard-response","293","449121","0.0-243.0-2.0","""event"",""trial"",""time""
""fullscreenenter"",""0"",""5783""
","
","
","""event"",""trial"",""time""
""fullscreenenter"",""0"",""5783""
","
","null","<p></p>","null","","","","","","","",""
"","image","294","450620","0.0-244.0-0.0","""event"",""trial"",""time""
""fullscreenenter"",""0"",""5783""
","
","
","""event"",""trial"",""time""
""fullscreenenter"",""0"",""5783""
","
","1496.5","run_exp/static/images/Set 6_rs/190a.jpg","78","","","","","","test","TF","3"
"","show_choice","295","451126","0.0-244.0-1.0","""event"",""trial"",""time""
""fullscreenenter"",""0"",""5783""
","
","
","""event"",""trial"",""time""
""fullscreenenter"",""0"",""5783""
","
","null","run_exp/static/images/Set 6_rs/190a.jpg","null","","","","","","test","TF",""
"","html-keyboard-response","296","451628","0.0-244.0-2.0","""event"",""trial"",""time""
""fullscreenenter"",""0"",""5783""
","
","
","""event"",""trial"",""time""
""fullscreenenter"",""0"",""5783""
","
","null","<p></p>","null","","","","","","","",""
"","image","297","452859","0.0-245.0-0.0","""event"",""trial"",""time""
""fullscreenenter"",""0"",""5783""
","
","
","""event"",""trial"",""time""
""fullscreenenter"",""0"",""5783""
","
","1228.5","run_exp/static/images/Set 6_rs/140a.jpg","66","","","","","","test","TF","1"
"","show_choice","298","453371","0.0-245.0-1.0","""event"",""trial"",""time""
""fullscreenenter"",""0"",""5783""
","
","
","""event"",""trial"",""time""
""fullscreenenter"",""0"",""5783""
","
","null","run_exp/static/images/Set 6_rs/140a.jpg","null","","","","","","test","TF",""
"","html-keyboard-response","299","453896","0.0-245.0-2.0","""event"",""trial"",""time""
""fullscreenenter"",""0"",""5783""
","
","
","""event"",""trial"",""time""
""fullscreenenter"",""0"",""5783""
","
","null","<p></p>","null","","","","","","","",""
"","image","300","455141","0.0-246.0-0.0","""event"",""trial"",""time""
""fullscreenenter"",""0"",""5783""
","
","
","""event"",""trial"",""time""
""fullscreenenter"",""0"",""5783""
","
","1241.7999999523163","run_exp/static/images/Set 6_rs/172a.jpg","86","","","","","","test","TR","1"
"","show_choice","301","455655","0.0-246.0-1.0","""event"",""trial"",""time""
""fullscreenenter"",""0"",""5783""
","
","
","""event"",""trial"",""time""
""fullscreenenter"",""0"",""5783""
","
","null","run_exp/static/images/Set 6_rs/172a.jpg","null","","","","","","test","TR",""
"","html-keyboard-response","302","456162","0.0-246.0-2.0","""event"",""trial"",""time""
""fullscreenenter"",""0"",""5783""
","
","
","""event"",""trial"",""time""
""fullscreenenter"",""0"",""5783""
","
","null","<p></p>","null","","","","","","","",""
"","image","303","457199","0.0-247.0-0.0","""event"",""trial"",""time""
""fullscreenenter"",""0"",""5783""
","
","
","""event"",""trial"",""time""
""fullscreenenter"",""0"",""5783""
","
","1034","run_exp/static/images/Set 6_rs/122a.jpg","86","","","","","","test","TR","5"
"","show_choice","304","457702","0.0-247.0-1.0","""event"",""trial"",""time""
""fullscreenenter"",""0"",""5783""
","
","
","""event"",""trial"",""time""
""fullscreenenter"",""0"",""5783""
","
","null","run_exp/static/images/Set 6_rs/122a.jpg","null","","","","","","test","TR",""
"","html-keyboard-response","305","458226","0.0-247.0-2.0","""event"",""trial"",""time""
""fullscreenenter"",""0"",""5783""
","
","
","""event"",""trial"",""time""
""fullscreenenter"",""0"",""5783""
","
","null","<p></p>","null","","","","","","","",""
"","image","306","459358","0.0-248.0-0.0","""event"",""trial"",""time""
""fullscreenenter"",""0"",""5783""
","
","
","""event"",""trial"",""time""
""fullscreenenter"",""0"",""5783""
","
","1129.1999999284744","run_exp/static/images/Set 6_rs/108a.jpg","86","","","","","","test","TR","5"
"","show_choice","307","459865","0.0-248.0-1.0","""event"",""trial"",""time""
""fullscreenenter"",""0"",""5783""
","
","
","""event"",""trial"",""time""
""fullscreenenter"",""0"",""5783""
","
","null","run_exp/static/images/Set 6_rs/108a.jpg","null","","","","","","test","TR",""
"","html-keyboard-response","308","460372","0.0-248.0-2.0","""event"",""trial"",""time""
""fullscreenenter"",""0"",""5783""
","
","
","""event"",""trial"",""time""
""fullscreenenter"",""0"",""5783""
","
","null","<p></p>","null","","","","","","","",""
"","image","309","461738","0.0-249.0-0.0","""event"",""trial"",""time""
""fullscreenenter"",""0"",""5783""
","
","
","""event"",""trial"",""time""
""fullscreenenter"",""0"",""5783""
","
","1363.3999999761581","run_exp/static/images/Set 6_rs/005a.jpg","78","","","","","","test","TF","5"
"","show_choice","310","462245","0.0-249.0-1.0","""event"",""trial"",""time""
""fullscreenenter"",""0"",""5783""
","
","
","""event"",""trial"",""time""
""fullscreenenter"",""0"",""5783""
","
","null","run_exp/static/images/Set 6_rs/005a.jpg","null","","","","","","test","TF",""
"","html-keyboard-response","311","462750","0.0-249.0-2.0","""event"",""trial"",""time""
""fullscreenenter"",""0"",""5783""
","
","
","""event"",""trial"",""time""
""fullscreenenter"",""0"",""5783""
","
","null","<p></p>","null","","","","","","","",""
"","image","312","464072","0.0-250.0-0.0","""event"",""trial"",""time""
""fullscreenenter"",""0"",""5783""
","
","
","""event"",""trial"",""time""
""fullscreenenter"",""0"",""5783""
","
","1318.3999999761581","run_exp/static/images/Set 6_rs/014b.jpg","86","","","","","","test","TL","5"
"","show_choice","313","464587","0.0-250.0-1.0","""event"",""trial"",""time""
""fullscreenenter"",""0"",""5783""
","
","
","""event"",""trial"",""time""
""fullscreenenter"",""0"",""5783""
","
","null","run_exp/static/images/Set 6_rs/014b.jpg","null","","","","","","test","TL",""
"","html-keyboard-response","314","465105","0.0-250.0-2.0","""event"",""trial"",""time""
""fullscreenenter"",""0"",""5783""
","
","
","""event"",""trial"",""time""
""fullscreenenter"",""0"",""5783""
","
","null","<p></p>","null","","","","","","","",""
"","image","315","466275","0.0-251.0-0.0","""event"",""trial"",""time""
""fullscreenenter"",""0"",""5783""
","
","
","""event"",""trial"",""time""
""fullscreenenter"",""0"",""5783""
","
","1167.8999999761581","run_exp/static/images/Set 6_rs/132a.jpg","86","","","","","","test","TR","5"
"","show_choice","316","466785","0.0-251.0-1.0","""event"",""trial"",""time""
""fullscreenenter"",""0"",""5783""
","
","
","""event"",""trial"",""time""
""fullscreenenter"",""0"",""5783""
","
","null","run_exp/static/images/Set 6_rs/132a.jpg","null","","","","","","test","TR",""
"","html-keyboard-response","317","467311","0.0-251.0-2.0","""event"",""trial"",""time""
""fullscreenenter"",""0"",""5783""
","
","
","""event"",""trial"",""time""
""fullscreenenter"",""0"",""5783""
","
","null","<p></p>","null","","","","","","","",""
"","image","318","468633","0.0-252.0-0.0","""event"",""trial"",""time""
""fullscreenenter"",""0"",""5783""
","
","
","""event"",""trial"",""time""
""fullscreenenter"",""0"",""5783""
","
","1318.3999999761581","run_exp/static/images/Set 6_rs/168b.jpg","66","","","","","","test","TL","3"
"","show_choice","319","469146","0.0-252.0-1.0","""event"",""trial"",""time""
""fullscreenenter"",""0"",""5783""
","
","
","""event"",""trial"",""time""
""fullscreenenter"",""0"",""5783""
","
","null","run_exp/static/images/Set 6_rs/168b.jpg","null","","","","","","test","TL",""
"","html-keyboard-response","320","469663","0.0-252.0-2.0","""event"",""trial"",""time""
""fullscreenenter"",""0"",""5783""
","
","
","""event"",""trial"",""time""
""fullscreenenter"",""0"",""5783""
","
","null","<p></p>","null","","","","","","","",""
"","image","321","470869","0.0-253.0-0.0","""event"",""trial"",""time""
""fullscreenenter"",""0"",""5783""
","
","
","""event"",""trial"",""time""
""fullscreenenter"",""0"",""5783""
","
","1203.1999999284744","run_exp/static/images/Set 6_rs/065a.jpg","78","","","","","","test","TF","3"
"","show_choice","322","471390","0.0-253.0-1.0","""event"",""trial"",""time""
""fullscreenenter"",""0"",""5783""
","
","
","""event"",""trial"",""time""
""fullscreenenter"",""0"",""5783""
","
","null","run_exp/static/images/Set 6_rs/065a.jpg","null","","","","","","test","TF",""
"","html-keyboard-response","323","471908","0.0-253.0-2.0","""event"",""trial"",""time""
""fullscreenenter"",""0"",""5783""
","
","
","""event"",""trial"",""time""
""fullscreenenter"",""0"",""5783""
","
","null","<p></p>","null","","","","","","","",""
"","image","324","472994","0.0-254.0-0.0","""event"",""trial"",""time""
""fullscreenenter"",""0"",""5783""
","
","
","""event"",""trial"",""time""
""fullscreenenter"",""0"",""5783""
","
","1083.3000000715256","run_exp/static/images/Set 6_rs/111b.jpg","86","","","","","","test","TL","3"
"","show_choice","325","473518","0.0-254.0-1.0","""event"",""trial"",""time""
""fullscreenenter"",""0"",""5783""
","
","
","""event"",""trial"",""time""
""fullscreenenter"",""0"",""5783""
","
","null","run_exp/static/images/Set 6_rs/111b.jpg","null","","","","","","test","TL",""
"","html-keyboard-response","326","474036","0.0-254.0-2.0","""event"",""trial"",""time""
""fullscreenenter"",""0"",""5783""
","
","
","""event"",""trial"",""time""
""fullscreenenter"",""0"",""5783""
","
","null","<p></p>","null","","","","","","","",""
"","image","327","475165","0.0-255.0-0.0","""event"",""trial"",""time""
""fullscreenenter"",""0"",""5783""
","
","
","""event"",""trial"",""time""
""fullscreenenter"",""0"",""5783""
","
","1125.6000000238419","run_exp/static/images/Set 6_rs/154a.jpg","86","","","","","","test","TR","3"
"","show_choice","328","475677","0.0-255.0-1.0","""event"",""trial"",""time""
""fullscreenenter"",""0"",""5783""
","
","
","""event"",""trial"",""time""
""fullscreenenter"",""0"",""5783""
","
","null","run_exp/static/images/Set 6_rs/154a.jpg","null","","","","","","test","TR",""
"","html-keyboard-response","329","476194","0.0-255.0-2.0","""event"",""trial"",""time""
""fullscreenenter"",""0"",""5783""
","
","
","""event"",""trial"",""time""
""fullscreenenter"",""0"",""5783""
","
","null","<p></p>","null","","","","","","","",""
"","image","330","477289","0.0-256.0-0.0","""event"",""trial"",""time""
""fullscreenenter"",""0"",""5783""
","
","
","""event"",""trial"",""time""
""fullscreenenter"",""0"",""5783""
","
","1092.4000000953674","run_exp/static/images/Set 6_rs/070a.jpg","66","","","","","","test","TR","2"
"","show_choice","331","477795","0.0-256.0-1.0","""event"",""trial"",""time""
""fullscreenenter"",""0"",""5783""
","
","
","""event"",""trial"",""time""
""fullscreenenter"",""0"",""5783""
","
","null","run_exp/static/images/Set 6_rs/070a.jpg","null","","","","","","test","TR",""
"","html-keyboard-response","332","478313","0.0-256.0-2.0","""event"",""trial"",""time""
""fullscreenenter"",""0"",""5783""
","
","
","""event"",""trial"",""time""
""fullscreenenter"",""0"",""5783""
","
","null","<p></p>","null","","","","","","","",""
"","image","333","479246","0.0-257.0-0.0","""event"",""trial"",""time""
""fullscreenenter"",""0"",""5783""
","
","
","""event"",""trial"",""time""
""fullscreenenter"",""0"",""5783""
","
","930.3999999761581","run_exp/static/images/Set 6_rs/186a.jpg","86","","","","","","test","TR","5"
"","show_choice","334","479758","0.0-257.0-1.0","""event"",""trial"",""time""
""fullscreenenter"",""0"",""5783""
","
","
","""event"",""trial"",""time""
""fullscreenenter"",""0"",""5783""
","
","null","run_exp/static/images/Set 6_rs/186a.jpg","null","","","","","","test","TR",""
"","html-keyboard-response","335","480278","0.0-257.0-2.0","""event"",""trial"",""time""
""fullscreenenter"",""0"",""5783""
","
","
","""event"",""trial"",""time""
""fullscreenenter"",""0"",""5783""
","
","null","<p></p>","null","","","","","","","",""
"","image","336","481999","0.0-258.0-0.0","""event"",""trial"",""time""
""fullscreenenter"",""0"",""5783""
","
","
","""event"",""trial"",""time""
""fullscreenenter"",""0"",""5783""
","
","1717.7000000476837","run_exp/static/images/Set 6_rs/155a.jpg","78","","","","","","test","TF","4"
"","show_choice","337","482504","0.0-258.0-1.0","""event"",""trial"",""time""
""fullscreenenter"",""0"",""5783""
","
","
","""event"",""trial"",""time""
""fullscreenenter"",""0"",""5783""
","
","null","run_exp/static/images/Set 6_rs/155a.jpg","null","","","","","","test","TF",""
"","html-keyboard-response","338","483006","0.0-258.0-2.0","""event"",""trial"",""time""
""fullscreenenter"",""0"",""5783""
","
","
","""event"",""trial"",""time""
""fullscreenenter"",""0"",""5783""
","
","null","<p></p>","null","","","","","","","",""
"","image","339","484212","0.0-259.0-0.0","""event"",""trial"",""time""
""fullscreenenter"",""0"",""5783""
","
","
","""event"",""trial"",""time""
""fullscreenenter"",""0"",""5783""
","
","1202.3999999761581","run_exp/static/images/Set 6_rs/071b.jpg","66","","","","","","test","TL","4"
"","show_choice","340","484719","0.0-259.0-1.0","""event"",""trial"",""time""
""fullscreenenter"",""0"",""5783""
","
","
","""event"",""trial"",""time""
""fullscreenenter"",""0"",""5783""
","
","null","run_exp/static/images/Set 6_rs/071b.jpg","null","","","","","","test","TL",""
"","html-keyboard-response","341","485238","0.0-259.0-2.0","""event"",""trial"",""time""
