"success","trial_type","trial_index","time_elapsed","internal_node_id","interactions","blur_events","focus_events","fullscreenenter_events","fullscreenexit_events","rt","stimulus","key_press","subject_id","participant_id","age","gender","prompt","phase","condition","lure_bin"
"true","fullscreen","0","2237","0.0-0.0","""event"",""trial"",""time""
""fullscreenenter"",""0"",""1274""
","
","
","""event"",""trial"",""time""
""fullscreenenter"",""0"",""1274""
","
","","","","","","","","","","",""
"","pavlovia","1","2240","0.0-1.0","""event"",""trial"",""time""
""fullscreenenter"",""0"",""1274""
","
","
","""event"",""trial"",""time""
""fullscreenenter"",""0"",""1274""
","
","","","","","","","","","","",""
"","welcome","2","37049","0.0-2.0","""event"",""trial"",""time""
""fullscreenenter"",""0"",""1274""
","
","
","""event"",""trial"",""time""
""fullscreenenter"",""0"",""1274""
","
","null","run_exp/static/audio/clip_1_welcome.m4a","null","587","844","12","Male","<div class='center'><p>Welcome to the third part of the study! First, you'll be shown pictures of items one at a time. For each picture, you have to decide if the item is typically found indoors or outdoors.</p><p>If you think it's usually found indoors, then press <b>v</b> key on your keyboard. If you think it's usually found outdoors, then press the <b>n</b> key.There will be reminders on the screen to help you remember which keys to press. </p><p>If you're not sure whether the item is an indoor item or an outdoor item, go ahead and take a guess but try your best not to skip that choice. </p></div>","","",""
"","html-keyboard-response","3","37925","0.0-3.0","""event"",""trial"",""time""
""fullscreenenter"",""0"",""1274""
","
","
","""event"",""trial"",""time""
""fullscreenenter"",""0"",""1274""
","
","872.5","<div class='center'><p>Welcome to the third part of the study! First, you'll be shown pictures of items one at a time. For each picture, you have to decide if the item is typically found indoors or outdoors.</p><p>If you think it's usually found indoors, then press <b>v</b> key on your keyboard. If you think it's usually found outdoors, then press the <b>n</b> key.There will be reminders on the screen to help you remember which keys to press. </p><p>If you're not sure whether the item is an indoor item or an outdoor item, go ahead and take a guess but try your best not to skip that choice. </p><div><p><b>[Press the space bar to continue]</b></p></div>","32","","","","","","","",""
"","image","4","39510","0.0-4.0","""event"",""trial"",""time""
""fullscreenenter"",""0"",""1274""
","
","
","""event"",""trial"",""time""
""fullscreenenter"",""0"",""1274""
","
","1581.2999999523163","run_exp/static/images/Set 6_rs/191a.jpg","86","","","","","","learn","SL",""
"","show_choice","5","39936","0.0-5.0","""event"",""trial"",""time""
""fullscreenenter"",""0"",""1274""
","
","
","""event"",""trial"",""time""
""fullscreenenter"",""0"",""1274""
","
","null","run_exp/static/images/Set 6_rs/191a.jpg","null","","","","","","learn","SL",""
"","html-keyboard-response","6","40456","0.0-6.0","""event"",""trial"",""time""
""fullscreenenter"",""0"",""1274""
","
","
","""event"",""trial"",""time""
""fullscreenenter"",""0"",""1274""
","
","null","<p></p>","null","","","","","","","",""
"","image","7","42475","0.0-7.0","""event"",""trial"",""time""
""fullscreenenter"",""0"",""1274""
","
","
","""event"",""trial"",""time""
""fullscreenenter"",""0"",""1274""
","
","null","run_exp/static/images/Set 6_rs/112a.jpg","null","","","","","","learn","SR",""
"","show_choice","8","44496","0.0-8.0","""event"",""trial"",""time""
""fullscreenenter"",""0"",""1274""
","
","
","""event"",""trial"",""time""
""fullscreenenter"",""0"",""1274""
","
","null","run_exp/static/images/blank.png","null","","","","","","learn","SR",""
"","html-keyboard-response","9","44998","0.0-9.0","""event"",""trial"",""time""
""fullscreenenter"",""0"",""1274""
","
","
","""event"",""trial"",""time""
""fullscreenenter"",""0"",""1274""
","
","null","<p></p>","null","","","","","","","",""
"","image","10","46109","0.0-10.0","""event"",""trial"",""time""
""fullscreenenter"",""0"",""1274""
","
","
","""event"",""trial"",""time""
""fullscreenenter"",""0"",""1274""
","
","1108.5","run_exp/static/images/Set 6_rs/075a.jpg","86","","","","","","learn","SR",""
"","show_choice","11","47016","0.0-11.0","""event"",""trial"",""time""
""fullscreenenter"",""0"",""1274""
","
","
","""event"",""trial"",""time""
""fullscreenenter"",""0"",""1274""
","
","null","run_exp/static/images/Set 6_rs/075a.jpg","null","","","","","","learn","SR",""
"","html-keyboard-response","12","47526","0.0-12.0","""event"",""trial"",""time""
""fullscreenenter"",""0"",""1274""
","
","
","""event"",""trial"",""time""
""fullscreenenter"",""0"",""1274""
","
","null","<p></p>","null","","","","","","","",""
"","image","13","48733","0.0-13.0","""event"",""trial"",""time""
""fullscreenenter"",""0"",""1274""
","
","
","""event"",""trial"",""time""
""fullscreenenter"",""0"",""1274""
","
","1205.2999999523163","run_exp/static/images/Set 6_rs/016a.jpg","86","","","","","","learn","SL",""
"","show_choice","14","49531","0.0-14.0","""event"",""trial"",""time""
""fullscreenenter"",""0"",""1274""
","
","
","""event"",""trial"",""time""
""fullscreenenter"",""0"",""1274""
","
","null","run_exp/static/images/Set 6_rs/016a.jpg","null","","","","","","learn","SL",""
"","html-keyboard-response","15","50043","0.0-15.0","""event"",""trial"",""time""
""fullscreenenter"",""0"",""1274""
","
","
","""event"",""trial"",""time""
""fullscreenenter"",""0"",""1274""
","
","null","<p></p>","null","","","","","","","",""
"","image","16","51084","0.0-16.0","""event"",""trial"",""time""
""fullscreenenter"",""0"",""1274""
","
","
","""event"",""trial"",""time""
""fullscreenenter"",""0"",""1274""
","
","1040.3999998569489","run_exp/static/images/Set 6_rs/144a.jpg","86","","","","","","learn","SL",""
"","show_choice","17","52051","0.0-17.0","""event"",""trial"",""time""
""fullscreenenter"",""0"",""1274""
","
","
","""event"",""trial"",""time""
""fullscreenenter"",""0"",""1274""
","
","null","run_exp/static/images/Set 6_rs/144a.jpg","null","","","","","","learn","SL",""
"","html-keyboard-response","18","52557","0.0-18.0","""event"",""trial"",""time""
""fullscreenenter"",""0"",""1274""
","
","
","""event"",""trial"",""time""
""fullscreenenter"",""0"",""1274""
","
","null","<p></p>","null","","","","","","","",""
"","image","19","53764","0.0-19.0","""event"",""trial"",""time""
""fullscreenenter"",""0"",""1274""
","
","
","""event"",""trial"",""time""
""fullscreenenter"",""0"",""1274""
","
","1206.2000000476837","run_exp/static/images/Set 6_rs/187a.jpg","78","","","","","","learn","SR",""
"","show_choice","20","54570","0.0-20.0","""event"",""trial"",""time""
""fullscreenenter"",""0"",""1274""
","
","
","""event"",""trial"",""time""
""fullscreenenter"",""0"",""1274""
","
","null","run_exp/static/images/Set 6_rs/187a.jpg","null","","","","","","learn","SR",""
"","html-keyboard-response","21","55075","0.0-21.0","""event"",""trial"",""time""
""fullscreenenter"",""0"",""1274""
","
","
","""event"",""trial"",""time""
""fullscreenenter"",""0"",""1274""
","
","null","<p></p>","null","","","","","","","",""
"","image","22","56829","0.0-22.0","""event"",""trial"",""time""
""fullscreenenter"",""0"",""1274""
","
","
","""event"",""trial"",""time""
""fullscreenenter"",""0"",""1274""
","
","1751.9000000953674","run_exp/static/images/Set 6_rs/066a.jpg","78","","","","","","learn","SL",""
"","show_choice","23","57089","0.0-23.0","""event"",""trial"",""time""
""fullscreenenter"",""0"",""1274""
","
","
","""event"",""trial"",""time""
""fullscreenenter"",""0"",""1274""
","
","null","run_exp/static/images/Set 6_rs/066a.jpg","null","","","","","","learn","SL",""
"","html-keyboard-response","24","57592","0.0-24.0","""event"",""trial"",""time""
""fullscreenenter"",""0"",""1274""
","
","
","""event"",""trial"",""time""
""fullscreenenter"",""0"",""1274""
","
","null","<p></p>","null","","","","","","","",""
"","image","25","59045","0.0-25.0","""event"",""trial"",""time""
""fullscreenenter"",""0"",""1274""
","
","
","""event"",""trial"",""time""
""fullscreenenter"",""0"",""1274""
","
","1451.0999999046326","run_exp/static/images/Set 6_rs/108a.jpg","78","","","","","","learn","SR",""
"","show_choice","26","59607","0.0-26.0","""event"",""trial"",""time""
""fullscreenenter"",""0"",""1274""
","
","
","""event"",""trial"",""time""
""fullscreenenter"",""0"",""1274""
","
","null","run_exp/static/images/Set 6_rs/108a.jpg","null","","","","","","learn","SR",""
"","html-keyboard-response","27","60123","0.0-27.0","""event"",""trial"",""time""
""fullscreenenter"",""0"",""1274""
","
","
","""event"",""trial"",""time""
""fullscreenenter"",""0"",""1274""
","
","null","<p></p>","null","","","","","","","",""
"","image","28","61580","0.0-28.0","""event"",""trial"",""time""
""fullscreenenter"",""0"",""1274""
","
","
","""event"",""trial"",""time""
""fullscreenenter"",""0"",""1274""
","
","1456.2999999523163","run_exp/static/images/Set 6_rs/116a.jpg","78","","","","","","learn","SL",""
"","show_choice","29","62137","0.0-29.0","""event"",""trial"",""time""
""fullscreenenter"",""0"",""1274""
","
","
","""event"",""trial"",""time""
""fullscreenenter"",""0"",""1274""
","
","null","run_exp/static/images/Set 6_rs/116a.jpg","null","","","","","","learn","SL",""
"","html-keyboard-response","30","62644","0.0-30.0","""event"",""trial"",""time""
""fullscreenenter"",""0"",""1274""
","
","
","""event"",""trial"",""time""
""fullscreenenter"",""0"",""1274""
","
","null","<p></p>","null","","","","","","","",""
"","image","31","63493","0.0-31.0","""event"",""trial"",""time""
""fullscreenenter"",""0"",""1274""
","
","
","""event"",""trial"",""time""
""fullscreenenter"",""0"",""1274""
","
","847.2000000476837","run_exp/static/images/Set 6_rs/055a.jpg","86","","","","","","learn","SL",""
"","show_choice","32","64648","0.0-32.0","""event"",""trial"",""time""
""fullscreenenter"",""0"",""1274""
","
","
","""event"",""trial"",""time""
""fullscreenenter"",""0"",""1274""
","
","null","run_exp/static/images/Set 6_rs/055a.jpg","null","","","","","","learn","SL",""
"","html-keyboard-response","33","65156","0.0-33.0","""event"",""trial"",""time""
""fullscreenenter"",""0"",""1274""
","
","
","""event"",""trial"",""time""
""fullscreenenter"",""0"",""1274""
","
","null","<p></p>","null","","","","","","","",""
"","image","34","66029","0.0-34.0","""event"",""trial"",""time""
""fullscreenenter"",""0"",""1274""
","
","
","""event"",""trial"",""time""
""fullscreenenter"",""0"",""1274""
","
","871.2999999523163","run_exp/static/images/Set 6_rs/024a.jpg","86","","","","","","learn","SR",""
"","show_choice","35","67165","0.0-35.0","""event"",""trial"",""time""
""fullscreenenter"",""0"",""1274""
","
","
","""event"",""trial"",""time""
""fullscreenenter"",""0"",""1274""
","
","null","run_exp/static/images/Set 6_rs/024a.jpg","null","","","","","","learn","SR",""
"","html-keyboard-response","36","67672","0.0-36.0","""event"",""trial"",""time""
""fullscreenenter"",""0"",""1274""
","
","
","""event"",""trial"",""time""
""fullscreenenter"",""0"",""1274""
","
","null","<p></p>","null","","","","","","","",""
"","image","37","69125","0.0-37.0","""event"",""trial"",""time""
""fullscreenenter"",""0"",""1274""
","
","
","""event"",""trial"",""time""
""fullscreenenter"",""0"",""1274""
","
","1450.7000000476837","run_exp/static/images/Set 6_rs/126a.jpg","78","","","","","","learn","SR",""
"","show_choice","38","69680","0.0-38.0","""event"",""trial"",""time""
""fullscreenenter"",""0"",""1274""
","
","
","""event"",""trial"",""time""
""fullscreenenter"",""0"",""1274""
","
","null","run_exp/static/images/Set 6_rs/126a.jpg","null","","","","","","learn","SR",""
"","html-keyboard-response","39","70190","0.0-39.0","""event"",""trial"",""time""
""fullscreenenter"",""0"",""1274""
","
","
","""event"",""trial"",""time""
""fullscreenenter"",""0"",""1274""
","
","null","<p></p>","null","","","","","","","",""
"","image","40","71008","0.0-40.0","""event"",""trial"",""time""
""fullscreenenter"",""0"",""1274""
","
","
","""event"",""trial"",""time""
""fullscreenenter"",""0"",""1274""
","
","815.6000001430511","run_exp/static/images/Set 6_rs/079a.jpg","78","","","","","","learn","SL",""
"","show_choice","41","72198","0.0-41.0","""event"",""trial"",""time""
""fullscreenenter"",""0"",""1274""
","
","
","""event"",""trial"",""time""
""fullscreenenter"",""0"",""1274""
","
","null","run_exp/static/images/Set 6_rs/079a.jpg","null","","","","","","learn","SL",""
"","html-keyboard-response","42","72706","0.0-42.0","""event"",""trial"",""time""
""fullscreenenter"",""0"",""1274""
","
","
","""event"",""trial"",""time""
""fullscreenenter"",""0"",""1274""
","
","null","<p></p>","null","","","","","","","",""
"","image","43","73965","0.0-43.0","""event"",""trial"",""time""
""fullscreenenter"",""0"",""1274""
","
","
","""event"",""trial"",""time""
""fullscreenenter"",""0"",""1274""
","
","1257.7999999523163","run_exp/static/images/Set 6_rs/111a.jpg","86","","","","","","learn","SL",""
"","show_choice","44","74722","0.0-44.0","""event"",""trial"",""time""
""fullscreenenter"",""0"",""1274""
","
","
","""event"",""trial"",""time""
""fullscreenenter"",""0"",""1274""
","
","null","run_exp/static/images/Set 6_rs/111a.jpg","null","","","","","","learn","SL",""
"","html-keyboard-response","45","75224","0.0-45.0","""event"",""trial"",""time""
""fullscreenenter"",""0"",""1274""
","
","
","""event"",""trial"",""time""
""fullscreenenter"",""0"",""1274""
","
","null","<p></p>","null","","","","","","","",""
"","image","46","76012","0.0-46.0","""event"",""trial"",""time""
""fullscreenenter"",""0"",""1274""
","
","
","""event"",""trial"",""time""
""fullscreenenter"",""0"",""1274""
","
","786","run_exp/static/images/Set 6_rs/012a.jpg","86","","","","","","learn","SR",""
"","show_choice","47","77241","0.0-47.0","""event"",""trial"",""time""
""fullscreenenter"",""0"",""1274""
","
","
","""event"",""trial"",""time""
""fullscreenenter"",""0"",""1274""
","
","null","run_exp/static/images/Set 6_rs/012a.jpg","null","","","","","","learn","SR",""
"","html-keyboard-response","48","77756","0.0-48.0","""event"",""trial"",""time""
""fullscreenenter"",""0"",""1274""
","
","
","""event"",""trial"",""time""
""fullscreenenter"",""0"",""1274""
","
","null","<p></p>","null","","","","","","","",""
"","image","49","78325","0.0-49.0","""event"",""trial"",""time""
""fullscreenenter"",""0"",""1274""
","
","
","""event"",""trial"",""time""
""fullscreenenter"",""0"",""1274""
","
","566.5999999046326","run_exp/static/images/Set 6_rs/154a.jpg","86","","","","","","learn","SR",""
"","show_choice","50","79763","0.0-50.0","""event"",""trial"",""time""
""fullscreenenter"",""0"",""1274""
","
","
","""event"",""trial"",""time""
""fullscreenenter"",""0"",""1274""
","
","null","run_exp/static/images/Set 6_rs/154a.jpg","null","","","","","","learn","SR",""
"","html-keyboard-response","51","80268","0.0-51.0","""event"",""trial"",""time""
""fullscreenenter"",""0"",""1274""
","
","
","""event"",""trial"",""time""
""fullscreenenter"",""0"",""1274""
","
","null","<p></p>","null","","","","","","","",""
"","image","52","81099","0.0-52.0","""event"",""trial"",""time""
""fullscreenenter"",""0"",""1274""
","
","
","""event"",""trial"",""time""
""fullscreenenter"",""0"",""1274""
","
","829.5","run_exp/static/images/Set 6_rs/167a.jpg","86","","","","","","learn","SL",""
"","show_choice","53","82275","0.0-53.0","""event"",""trial"",""time""
""fullscreenenter"",""0"",""1274""
","
","
","""event"",""trial"",""time""
""fullscreenenter"",""0"",""1274""
","
","null","run_exp/static/images/Set 6_rs/167a.jpg","null","","","","","","learn","SL",""
"","html-keyboard-response","54","82781","0.0-54.0","""event"",""trial"",""time""
""fullscreenenter"",""0"",""1274""
","
","
","""event"",""trial"",""time""
""fullscreenenter"",""0"",""1274""
","
","null","<p></p>","null","","","","","","","",""
"","image","55","83510","0.0-55.0","""event"",""trial"",""time""
""fullscreenenter"",""0"",""1274""
","
","
","""event"",""trial"",""time""
""fullscreenenter"",""0"",""1274""
","
","728.7000000476837","run_exp/static/images/Set 6_rs/036a.jpg","86","","","","","","learn","SL",""
"","show_choice","56","84798","0.0-56.0","""event"",""trial"",""time""
""fullscreenenter"",""0"",""1274""
","
","
","""event"",""trial"",""time""
""fullscreenenter"",""0"",""1274""
","
","null","run_exp/static/images/Set 6_rs/036a.jpg","null","","","","","","learn","SL",""
"","html-keyboard-response","57","85305","0.0-57.0","""event"",""trial"",""time""
""fullscreenenter"",""0"",""1274""
","
","
","""event"",""trial"",""time""
""fullscreenenter"",""0"",""1274""
","
","null","<p></p>","null","","","","","","","",""
"","image","58","85949","0.0-58.0","""event"",""trial"",""time""
""fullscreenenter"",""0"",""1274""
","
","
","""event"",""trial"",""time""
""fullscreenenter"",""0"",""1274""
","
","641.6999998092651","run_exp/static/images/Set 6_rs/017a.jpg","86","","","","","","learn","SL",""
"","show_choice","59","87317","0.0-59.0","""event"",""trial"",""time""
""fullscreenenter"",""0"",""1274""
","
","
","""event"",""trial"",""time""
""fullscreenenter"",""0"",""1274""
","
","null","run_exp/static/images/Set 6_rs/017a.jpg","null","","","","","","learn","SL",""
"","html-keyboard-response","60","87823","0.0-60.0","""event"",""trial"",""time""
""fullscreenenter"",""0"",""1274""
","
","
","""event"",""trial"",""time""
""fullscreenenter"",""0"",""1274""
","
","null","<p></p>","null","","","","","","","",""
"","image","61","88373","0.0-61.0","""event"",""trial"",""time""
""fullscreenenter"",""0"",""1274""
","
","
","""event"",""trial"",""time""
""fullscreenenter"",""0"",""1274""
","
","547.5","run_exp/static/images/Set 6_rs/169a.jpg","86","","","","","","learn","SR",""
"","show_choice","62","89840","0.0-62.0","""event"",""trial"",""time""
""fullscreenenter"",""0"",""1274""
","
","
","""event"",""trial"",""time""
""fullscreenenter"",""0"",""1274""
","
","null","run_exp/static/images/Set 6_rs/169a.jpg","null","","","","","","learn","SR",""
"","html-keyboard-response","63","90345","0.0-63.0","""event"",""trial"",""time""
""fullscreenenter"",""0"",""1274""
","
","
","""event"",""trial"",""time""
""fullscreenenter"",""0"",""1274""
","
","null","<p></p>","null","","","","","","","",""
"","image","64","91892","0.0-64.0","""event"",""trial"",""time""
""fullscreenenter"",""0"",""1274""
","
","
","""event"",""trial"",""time""
""fullscreenenter"",""0"",""1274""
","
","1546","run_exp/static/images/Set 6_rs/025a.jpg","78","","","","","","learn","SL",""
"","show_choice","65","92361","0.0-65.0","""event"",""trial"",""time""
""fullscreenenter"",""0"",""1274""
","
","
","""event"",""trial"",""time""
""fullscreenenter"",""0"",""1274""
","
","null","run_exp/static/images/Set 6_rs/025a.jpg","null","","","","","","learn","SL",""
"","html-keyboard-response","66","92865","0.0-66.0","""event"",""trial"",""time""
""fullscreenenter"",""0"",""1274""
","
","
","""event"",""trial"",""time""
""fullscreenenter"",""0"",""1274""
","
","null","<p></p>","null","","","","","","","",""
"","image","67","93877","0.0-67.0","""event"",""trial"",""time""
""fullscreenenter"",""0"",""1274""
","
","
","""event"",""trial"",""time""
""fullscreenenter"",""0"",""1274""
","
","1010.7000000476837","run_exp/static/images/Set 6_rs/134a.jpg","78","","","","","","learn","SR",""
"","show_choice","68","94877","0.0-68.0","""event"",""trial"",""time""
""fullscreenenter"",""0"",""1274""
","
","
","""event"",""trial"",""time""
""fullscreenenter"",""0"",""1274""
","
","null","run_exp/static/images/Set 6_rs/134a.jpg","null","","","","","","learn","SR",""
"","html-keyboard-response","69","95392","0.0-69.0","""event"",""trial"",""time""
""fullscreenenter"",""0"",""1274""
","
","
","""event"",""trial"",""time""
""fullscreenenter"",""0"",""1274""
","
","null","<p></p>","null","","","","","","","",""
"","image","70","96069","0.0-70.0","""event"",""trial"",""time""
""fullscreenenter"",""0"",""1274""
","
","
","""event"",""trial"",""time""
""fullscreenenter"",""0"",""1274""
","
","675.2000000476837","run_exp/static/images/Set 6_rs/070a.jpg","86","","","","","","learn","SR",""
"","show_choice","71","97404","0.0-71.0","""event"",""trial"",""time""
""fullscreenenter"",""0"",""1274""
","
","
","""event"",""trial"",""time""
""fullscreenenter"",""0"",""1274""
","
","null","run_exp/static/images/Set 6_rs/070a.jpg","null","","","","","","learn","SR",""
"","html-keyboard-response","72","97906","0.0-72.0","""event"",""trial"",""time""
""fullscreenenter"",""0"",""1274""
","
","
","""event"",""trial"",""time""
""fullscreenenter"",""0"",""1274""
","
","null","<p></p>","null","","","","","","","",""
"","image","73","98869","0.0-73.0","""event"",""trial"",""time""
""fullscreenenter"",""0"",""1274""
","
","
","""event"",""trial"",""time""
""fullscreenenter"",""0"",""1274""
","
","961","run_exp/static/images/Set 6_rs/178a.jpg","78","","","","","","learn","SR",""
"","show_choice","74","99909","0.0-74.0","""event"",""trial"",""time""
""fullscreenenter"",""0"",""1274""
","
","
","""event"",""trial"",""time""
""fullscreenenter"",""0"",""1274""
","
","null","run_exp/static/images/Set 6_rs/178a.jpg","null","","","","","","learn","SR",""
"","html-keyboard-response","75","100422","0.0-75.0","""event"",""trial"",""time""
""fullscreenenter"",""0"",""1274""
","
","
","""event"",""trial"",""time""
""fullscreenenter"",""0"",""1274""
","
","null","<p></p>","null","","","","","","","",""
"","image","76","101811","0.0-76.0","""event"",""trial"",""time""
""fullscreenenter"",""0"",""1274""
","
","
","""event"",""trial"",""time""
""fullscreenenter"",""0"",""1274""
","
","1388.1999998092651","run_exp/static/images/Set 6_rs/150a.jpg","86","","","","","","learn","SR",""
"","show_choice","77","102427","0.0-77.0","""event"",""trial"",""time""
""fullscreenenter"",""0"",""1274""
","
","
","""event"",""trial"",""time""
""fullscreenenter"",""0"",""1274""
","
","null","run_exp/static/images/Set 6_rs/150a.jpg","null","","","","","","learn","SR",""
"","html-keyboard-response","78","102933","0.0-78.0","""event"",""trial"",""time""
""fullscreenenter"",""0"",""1274""
","
","
","""event"",""trial"",""time""
""fullscreenenter"",""0"",""1274""
","
","null","<p></p>","null","","","","","","","",""
"","image","79","104375","0.0-79.0","""event"",""trial"",""time""
""fullscreenenter"",""0"",""1274""
","
","
","""event"",""trial"",""time""
""fullscreenenter"",""0"",""1274""
","
","1440.7000000476837","run_exp/static/images/Set 6_rs/141a.jpg","86","","","","","","learn","SR",""
"","show_choice","80","104936","0.0-80.0","""event"",""trial"",""time""
""fullscreenenter"",""0"",""1274""
","
","
","""event"",""trial"",""time""
""fullscreenenter"",""0"",""1274""
","
","null","run_exp/static/images/Set 6_rs/141a.jpg","null","","","","","","learn","SR",""
"","html-keyboard-response","81","105446","0.0-81.0","""event"",""trial"",""time""
""fullscreenenter"",""0"",""1274""
","
","
","""event"",""trial"",""time""
""fullscreenenter"",""0"",""1274""
","
","null","<p></p>","null","","","","","","","",""
"","image","82","106516","0.0-82.0","""event"",""trial"",""time""
""fullscreenenter"",""0"",""1274""
","
","
","""event"",""trial"",""time""
""fullscreenenter"",""0"",""1274""
","
","1067.5999999046326","run_exp/static/images/Set 6_rs/008a.jpg","86","","","","","","learn","SL",""
"","show_choice","83","107462","0.0-83.0","""event"",""trial"",""time""
""fullscreenenter"",""0"",""1274""
","
","
","""event"",""trial"",""time""
""fullscreenenter"",""0"",""1274""
","
","null","run_exp/static/images/Set 6_rs/008a.jpg","null","","","","","","learn","SL",""
"","html-keyboard-response","84","107972","0.0-84.0","""event"",""trial"",""time""
""fullscreenenter"",""0"",""1274""
","
","
","""event"",""trial"",""time""
""fullscreenenter"",""0"",""1274""
","
","null","<p></p>","null","","","","","","","",""
"","image","85","108836","0.0-85.0","""event"",""trial"",""time""
""fullscreenenter"",""0"",""1274""
","
","
","""event"",""trial"",""time""
""fullscreenenter"",""0"",""1274""
","
","861.9000000953674","run_exp/static/images/Set 6_rs/152a.jpg","78","","","","","","learn","SR",""
"","show_choice","86","109990","0.0-86.0","""event"",""trial"",""time""
""fullscreenenter"",""0"",""1274""
","
","
","""event"",""trial"",""time""
""fullscreenenter"",""0"",""1274""
","
","null","run_exp/static/images/Set 6_rs/152a.jpg","null","","","","","","learn","SR",""
"","html-keyboard-response","87","110502","0.0-87.0","""event"",""trial"",""time""
""fullscreenenter"",""0"",""1274""
","
","
","""event"",""trial"",""time""
""fullscreenenter"",""0"",""1274""
","
","null","<p></p>","null","","","","","","","",""
"","image","88","111499","0.0-88.0","""event"",""trial"",""time""
""fullscreenenter"",""0"",""1274""
","
","
","""event"",""trial"",""time""
""fullscreenenter"",""0"",""1274""
","
","995.3999998569489","run_exp/static/images/Set 6_rs/062a.jpg","86","","","","","","learn","SL",""
"","show_choice","89","112507","0.0-89.0","""event"",""trial"",""time""
""fullscreenenter"",""0"",""1274""
","
","
","""event"",""trial"",""time""
""fullscreenenter"",""0"",""1274""
","
","null","run_exp/static/images/Set 6_rs/062a.jpg","null","","","","","","learn","SL",""
"","html-keyboard-response","90","113017","0.0-90.0","""event"",""trial"",""time""
""fullscreenenter"",""0"",""1274""
","
","
","""event"",""trial"",""time""
""fullscreenenter"",""0"",""1274""
","
","null","<p></p>","null","","","","","","","",""
"","image","91","114527","0.0-91.0","""event"",""trial"",""time""
""fullscreenenter"",""0"",""1274""
","
","
","""event"",""trial"",""time""
""fullscreenenter"",""0"",""1274""
","
","1506.7999999523163","run_exp/static/images/Set 6_rs/186a.jpg","86","","","","","","learn","SR",""
"","show_choice","92","115023","0.0-92.0","""event"",""trial"",""time""
""fullscreenenter"",""0"",""1274""
","
","
","""event"",""trial"",""time""
""fullscreenenter"",""0"",""1274""
","
","null","run_exp/static/images/Set 6_rs/186a.jpg","null","","","","","","learn","SR",""
"","html-keyboard-response","93","115539","0.0-93.0","""event"",""trial"",""time""
""fullscreenenter"",""0"",""1274""
","
","
","""event"",""trial"",""time""
""fullscreenenter"",""0"",""1274""
","
","null","<p></p>","null","","","","","","","",""
"","image","94","116996","0.0-94.0","""event"",""trial"",""time""
""fullscreenenter"",""0"",""1274""
","
","
","""event"",""trial"",""time""
""fullscreenenter"",""0"",""1274""
","
","1454.7999999523163","run_exp/static/images/Set 6_rs/132a.jpg","86","","","","","","learn","SR",""
"","show_choice","95","117542","0.0-95.0","""event"",""trial"",""time""
""fullscreenenter"",""0"",""1274""
","
","
","""event"",""trial"",""time""
""fullscreenenter"",""0"",""1274""
","
","null","run_exp/static/images/Set 6_rs/132a.jpg","null","","","","","","learn","SR",""
"","html-keyboard-response","96","118056","0.0-96.0","""event"",""trial"",""time""
""fullscreenenter"",""0"",""1274""
","
","
","""event"",""trial"",""time""
""fullscreenenter"",""0"",""1274""
","
","null","<p></p>","null","","","","","","","",""
"","image","97","119568","0.0-97.0","""event"",""trial"",""time""
""fullscreenenter"",""0"",""1274""
","
","
","""event"",""trial"",""time""
""fullscreenenter"",""0"",""1274""
","
","1510.6000001430511","run_exp/static/images/Set 6_rs/123a.jpg","86","","","","","","learn","SL",""
"","show_choice","98","120074","0.0-98.0","""event"",""trial"",""time""
""fullscreenenter"",""0"",""1274""
","
","
","""event"",""trial"",""time""
""fullscreenenter"",""0"",""1274""
","
","null","run_exp/static/images/Set 6_rs/123a.jpg","null","","","","","","learn","SL",""
"","html-keyboard-response","99","120590","0.0-99.0","""event"",""trial"",""time""
""fullscreenenter"",""0"",""1274""
","
","
","""event"",""trial"",""time""
""fullscreenenter"",""0"",""1274""
","
","null","<p></p>","null","","","","","","","",""
"","image","100","122204","0.0-100.0","""event"",""trial"",""time""
""fullscreenenter"",""0"",""1274""
","
","
","""event"",""trial"",""time""
""fullscreenenter"",""0"",""1274""
","
","1613.3999998569489","run_exp/static/images/Set 6_rs/172a.jpg","78","","","","","","learn","SR",""
"","show_choice","101","122591","0.0-101.0","""event"",""trial"",""time""
""fullscreenenter"",""0"",""1274""
","
","
","""event"",""trial"",""time""
""fullscreenenter"",""0"",""1274""
","
","null","run_exp/static/images/Set 6_rs/172a.jpg","null","","","","","","learn","SR",""
"","html-keyboard-response","102","123101","0.0-102.0","""event"",""trial"",""time""
""fullscreenenter"",""0"",""1274""
","
","
","""event"",""trial"",""time""
""fullscreenenter"",""0"",""1274""
","
","null","<p></p>","null","","","","","","","",""
"","image","103","125113","0.0-103.0","""event"",""trial"",""time""
""fullscreenenter"",""0"",""1274""
","
","
","""event"",""trial"",""time""
""fullscreenenter"",""0"",""1274""
","
","null","run_exp/static/images/Set 6_rs/085a.jpg","null","","","","","","learn","SL",""
"","show_choice","104","127123","0.0-104.0","""event"",""trial"",""time""
""fullscreenenter"",""0"",""1274""
","
","
","""event"",""trial"",""time""
""fullscreenenter"",""0"",""1274""
","
","null","run_exp/static/images/blank.png","null","","","","","","learn","SL",""
"","html-keyboard-response","105","127639","0.0-105.0","""event"",""trial"",""time""
""fullscreenenter"",""0"",""1274""
","
","
","""event"",""trial"",""time""
""fullscreenenter"",""0"",""1274""
","
","null","<p></p>","null","","","","","","","",""
"","image","106","128815","0.0-106.0","""event"",""trial"",""time""
""fullscreenenter"",""0"",""1274""
","
","
","""event"",""trial"",""time""
""fullscreenenter"",""0"",""1274""
","
","1173.0999999046326","run_exp/static/images/Set 6_rs/088a.jpg","86","","","","","","learn","SR",""
"","show_choice","107","129645","0.0-107.0","""event"",""trial"",""time""
""fullscreenenter"",""0"",""1274""
","
","
","""event"",""trial"",""time""
""fullscreenenter"",""0"",""1274""
","
","null","run_exp/static/images/Set 6_rs/088a.jpg","null","","","","","","learn","SR",""
"","html-keyboard-response","108","130156","0.0-108.0","""event"",""trial"",""time""
""fullscreenenter"",""0"",""1274""
","
","
","""event"",""trial"",""time""
""fullscreenenter"",""0"",""1274""
","
","null","<p></p>","null","","","","","","","",""
"","image","109","131147","0.0-109.0","""event"",""trial"",""time""
""fullscreenenter"",""0"",""1274""
","
","
","""event"",""trial"",""time""
""fullscreenenter"",""0"",""1274""
","
","988.2999999523163","run_exp/static/images/Set 6_rs/076a.jpg","78","","","","","","learn","SR",""
"","show_choice","110","132175","0.0-110.0","""event"",""trial"",""time""
""fullscreenenter"",""0"",""1274""
","
","
","""event"",""trial"",""time""
""fullscreenenter"",""0"",""1274""
","
","null","run_exp/static/images/Set 6_rs/076a.jpg","null","","","","","","learn","SR",""
"","html-keyboard-response","111","132689","0.0-111.0","""event"",""trial"",""time""
""fullscreenenter"",""0"",""1274""
","
","
","""event"",""trial"",""time""
""fullscreenenter"",""0"",""1274""
","
","null","<p></p>","null","","","","","","","",""
"","image","112","133627","0.0-112.0","""event"",""trial"",""time""
""fullscreenenter"",""0"",""1274""
","
","
","""event"",""trial"",""time""
""fullscreenenter"",""0"",""1274""
","
","937","run_exp/static/images/Set 6_rs/074a.jpg","78","","","","","","learn","SL",""
"","show_choice","113","134703","0.0-113.0","""event"",""trial"",""time""
""fullscreenenter"",""0"",""1274""
","
","
","""event"",""trial"",""time""
""fullscreenenter"",""0"",""1274""
","
","null","run_exp/static/images/Set 6_rs/074a.jpg","null","","","","","","learn","SL",""
"","html-keyboard-response","114","135209","0.0-114.0","""event"",""trial"",""time""
""fullscreenenter"",""0"",""1274""
","
","
","""event"",""trial"",""time""
""fullscreenenter"",""0"",""1274""
","
","null","<p></p>","null","","","","","","","",""
"","image","115","136260","0.0-115.0","""event"",""trial"",""time""
""fullscreenenter"",""0"",""1274""
","
","
","""event"",""trial"",""time""
""fullscreenenter"",""0"",""1274""
","
","1048.5","run_exp/static/images/Set 6_rs/089a.jpg","78","","","","","","learn","SL",""
"","show_choice","116","137225","0.0-116.0","""event"",""trial"",""time""
""fullscreenenter"",""0"",""1274""
","
","
","""event"",""trial"",""time""
""fullscreenenter"",""0"",""1274""
","
","null","run_exp/static/images/Set 6_rs/089a.jpg","null","","","","","","learn","SL",""
"","html-keyboard-response","117","137741","0.0-117.0","""event"",""trial"",""time""
""fullscreenenter"",""0"",""1274""
","
","
","""event"",""trial"",""time""
""fullscreenenter"",""0"",""1274""
","
","null","<p></p>","null","","","","","","","",""
"","image","118","138564","0.0-118.0","""event"",""trial"",""time""
""fullscreenenter"",""0"",""1274""
","
","
","""event"",""trial"",""time""
""fullscreenenter"",""0"",""1274""
","
","821.4000000953674","run_exp/static/images/Set 6_rs/061a.jpg","86","","","","","","learn","SR",""
"","show_choice","119","139753","0.0-119.0","""event"",""trial"",""time""
""fullscreenenter"",""0"",""1274""
","
","
","""event"",""trial"",""time""
""fullscreenenter"",""0"",""1274""
","
","null","run_exp/static/images/Set 6_rs/061a.jpg","null","","","","","","learn","SR",""
"","html-keyboard-response","120","140256","0.0-120.0","""event"",""trial"",""time""
""fullscreenenter"",""0"",""1274""
","
","
","""event"",""trial"",""time""
""fullscreenenter"",""0"",""1274""
","
","null","<p></p>","null","","","","","","","",""
"","image","121","141247","0.0-121.0","""event"",""trial"",""time""
""fullscreenenter"",""0"",""1274""
","
","
","""event"",""trial"",""time""
""fullscreenenter"",""0"",""1274""
","
","988.2000000476837","run_exp/static/images/Set 6_rs/138a.jpg","86","","","","","","learn","SL",""
"","show_choice","122","142271","0.0-122.0","""event"",""trial"",""time""
""fullscreenenter"",""0"",""1274""
","
","
","""event"",""trial"",""time""
""fullscreenenter"",""0"",""1274""
","
","null","run_exp/static/images/Set 6_rs/138a.jpg","null","","","","","","learn","SL",""
"","html-keyboard-response","123","142786","0.0-123.0","""event"",""trial"",""time""
""fullscreenenter"",""0"",""1274""
","
","
","""event"",""trial"",""time""
""fullscreenenter"",""0"",""1274""
","
","null","<p></p>","null","","","","","","","",""
"","image","124","144092","0.0-124.0","""event"",""trial"",""time""
""fullscreenenter"",""0"",""1274""
","
","
","""event"",""trial"",""time""
""fullscreenenter"",""0"",""1274""
","
","1304.2000000476837","run_exp/static/images/Set 6_rs/006a.jpg","86","","","","","","learn","SL",""
"","show_choice","125","144803","0.0-125.0","""event"",""trial"",""time""
""fullscreenenter"",""0"",""1274""
","
","
","""event"",""trial"",""time""
""fullscreenenter"",""0"",""1274""
","
","null","run_exp/static/images/Set 6_rs/006a.jpg","null","","","","","","learn","SL",""
"","html-keyboard-response","126","145308","0.0-126.0","""event"",""trial"",""time""
""fullscreenenter"",""0"",""1274""
","
","
","""event"",""trial"",""time""
""fullscreenenter"",""0"",""1274""
","
","null","<p></p>","null","","","","","","","",""
"","image","127","146243","0.0-127.0","""event"",""trial"",""time""
""fullscreenenter"",""0"",""1274""
","
","
","""event"",""trial"",""time""
""fullscreenenter"",""0"",""1274""
","
","933.8999998569489","run_exp/static/images/Set 6_rs/050a.jpg","86","","","","","","learn","SL",""
"","show_choice","128","147322","0.0-128.0","""event"",""trial"",""time""
""fullscreenenter"",""0"",""1274""
","
","
","""event"",""trial"",""time""
""fullscreenenter"",""0"",""1274""
","
","null","run_exp/static/images/Set 6_rs/050a.jpg","null","","","","","","learn","SL",""
"","html-keyboard-response","129","147823","0.0-129.0","""event"",""trial"",""time""
""fullscreenenter"",""0"",""1274""
","
","
","""event"",""trial"",""time""
""fullscreenenter"",""0"",""1274""
","
","null","<p></p>","null","","","","","","","",""
"","image","130","148629","0.0-130.0","""event"",""trial"",""time""
""fullscreenenter"",""0"",""1274""
","
","
","""event"",""trial"",""time""
""fullscreenenter"",""0"",""1274""
","
","805.4000000953674","run_exp/static/images/Set 6_rs/023a.jpg","86","","","","","","learn","SR",""
"","show_choice","131","149832","0.0-131.0","""event"",""trial"",""time""
""fullscreenenter"",""0"",""1274""
","
","
","""event"",""trial"",""time""
""fullscreenenter"",""0"",""1274""
","
","null","run_exp/static/images/Set 6_rs/023a.jpg","null","","","","","","learn","SR",""
"","html-keyboard-response","132","150338","0.0-132.0","""event"",""trial"",""time""
""fullscreenenter"",""0"",""1274""
","
","
","""event"",""trial"",""time""
""fullscreenenter"",""0"",""1274""
","
","null","<p></p>","null","","","","","","","",""
"","image","133","151271","0.0-133.0","""event"",""trial"",""time""
""fullscreenenter"",""0"",""1274""
","
","
","""event"",""trial"",""time""
""fullscreenenter"",""0"",""1274""
","
","930.6000001430511","run_exp/static/images/Set 6_rs/181a.jpg","78","","","","","","learn","SL",""
"","show_choice","134","152351","0.0-134.0","""event"",""trial"",""time""
""fullscreenenter"",""0"",""1274""
","
","
","""event"",""trial"",""time""
""fullscreenenter"",""0"",""1274""
","
","null","run_exp/static/images/Set 6_rs/181a.jpg","null","","","","","","learn","SL",""
"","html-keyboard-response","135","152857","0.0-135.0","""event"",""trial"",""time""
""fullscreenenter"",""0"",""1274""
","
","
","""event"",""trial"",""time""
""fullscreenenter"",""0"",""1274""
","
","null","<p></p>","null","","","","","","","",""
"","image","136","153772","0.0-136.0","""event"",""trial"",""time""
""fullscreenenter"",""0"",""1274""
","
","
","""event"",""trial"",""time""
""fullscreenenter"",""0"",""1274""
","
","912.5999999046326","run_exp/static/images/Set 6_rs/121a.jpg","86","","","","","","learn","SR",""
"","show_choice","137","154869","0.0-137.0","""event"",""trial"",""time""
""fullscreenenter"",""0"",""1274""
","
","
","""event"",""trial"",""time""
""fullscreenenter"",""0"",""1274""
","
","null","run_exp/static/images/Set 6_rs/121a.jpg","null","","","","","","learn","SR",""
"","html-keyboard-response","138","155374","0.0-138.0","""event"",""trial"",""time""
""fullscreenenter"",""0"",""1274""
","
","
","""event"",""trial"",""time""
""fullscreenenter"",""0"",""1274""
","
","null","<p></p>","null","","","","","","","",""
"","image","139","156252","0.0-139.0","""event"",""trial"",""time""
""fullscreenenter"",""0"",""1274""
","
","
","""event"",""trial"",""time""
""fullscreenenter"",""0"",""1274""
","
","876.9000000953674","run_exp/static/images/Set 6_rs/045a.jpg","86","","","","","","learn","SR",""
"","show_choice","140","157379","0.0-140.0","""event"",""trial"",""time""
""fullscreenenter"",""0"",""1274""
","
","
","""event"",""trial"",""time""
""fullscreenenter"",""0"",""1274""
","
","null","run_exp/static/images/Set 6_rs/045a.jpg","null","","","","","","learn","SR",""
"","html-keyboard-response","141","157886","0.0-141.0","""event"",""trial"",""time""
""fullscreenenter"",""0"",""1274""
","
","
","""event"",""trial"",""time""
""fullscreenenter"",""0"",""1274""
","
","null","<p></p>","null","","","","","","","",""
"","image","142","158811","0.0-142.0","""event"",""trial"",""time""
""fullscreenenter"",""0"",""1274""
","
","
","""event"",""trial"",""time""
""fullscreenenter"",""0"",""1274""
","
","924.1999998092651","run_exp/static/images/Set 6_rs/129a.jpg","86","","","","","","learn","SL",""
"","show_choice","143","159901","0.0-143.0","""event"",""trial"",""time""
""fullscreenenter"",""0"",""1274""
","
","
","""event"",""trial"",""time""
""fullscreenenter"",""0"",""1274""
","
","null","run_exp/static/images/Set 6_rs/129a.jpg","null","","","","","","learn","SL",""
"","html-keyboard-response","144","160405","0.0-144.0","""event"",""trial"",""time""
""fullscreenenter"",""0"",""1274""
","
","
","""event"",""trial"",""time""
""fullscreenenter"",""0"",""1274""
","
","null","<p></p>","null","","","","","","","",""
"","image","145","161227","0.0-145.0","""event"",""trial"",""time""
""fullscreenenter"",""0"",""1274""
","
","
","""event"",""trial"",""time""
""fullscreenenter"",""0"",""1274""
","
","820.3000001907349","run_exp/static/images/Set 6_rs/071a.jpg","86","","","","","","learn","SL",""
"","show_choice","146","162412","0.0-146.0","""event"",""trial"",""time""
""fullscreenenter"",""0"",""1274""
","
","
","""event"",""trial"",""time""
""fullscreenenter"",""0"",""1274""
","
","null","run_exp/static/images/Set 6_rs/071a.jpg","null","","","","","","learn","SL",""
"","html-keyboard-response","147","162924","0.0-147.0","""event"",""trial"",""time""
""fullscreenenter"",""0"",""1274""
","
","
","""event"",""trial"",""time""
""fullscreenenter"",""0"",""1274""
","
","null","<p></p>","null","","","","","","","",""
"","image","148","164476","0.0-148.0","""event"",""trial"",""time""
""fullscreenenter"",""0"",""1274""
","
","
","""event"",""trial"",""time""
""fullscreenenter"",""0"",""1274""
","
","1550.7000000476837","run_exp/static/images/Set 6_rs/091a.jpg","78","","","","","","learn","SL",""
"","show_choice","149","164926","0.0-149.0","""event"",""trial"",""time""
""fullscreenenter"",""0"",""1274""
","
","
","""event"",""trial"",""time""
""fullscreenenter"",""0"",""1274""
","
","null","run_exp/static/images/Set 6_rs/091a.jpg","null","","","","","","learn","SL",""
"","html-keyboard-response","150","165439","0.0-150.0","""event"",""trial"",""time""
""fullscreenenter"",""0"",""1274""
","
","
","""event"",""trial"",""time""
""fullscreenenter"",""0"",""1274""
","
","null","<p></p>","null","","","","","","","",""
"","image","151","166635","0.0-151.0","""event"",""trial"",""time""
""fullscreenenter"",""0"",""1274""
","
","
","""event"",""trial"",""time""
""fullscreenenter"",""0"",""1274""
","
","1195.2999999523163","run_exp/static/images/Set 6_rs/166a.jpg","78","","","","","","learn","SR",""
"","show_choice","152","167451","0.0-152.0","""event"",""trial"",""time""
""fullscreenenter"",""0"",""1274""
","
","
","""event"",""trial"",""time""
""fullscreenenter"",""0"",""1274""
","
","null","run_exp/static/images/Set 6_rs/166a.jpg","null","","","","","","learn","SR",""
"","html-keyboard-response","153","167963","0.0-153.0","""event"",""trial"",""time""
""fullscreenenter"",""0"",""1274""
","
","
","""event"",""trial"",""time""
""fullscreenenter"",""0"",""1274""
","
","null","<p></p>","null","","","","","","","",""
"","image","154","169164","0.0-154.0","""event"",""trial"",""time""
""fullscreenenter"",""0"",""1274""
","
","
","""event"",""trial"",""time""
""fullscreenenter"",""0"",""1274""
","
","1198.5999999046326","run_exp/static/images/Set 6_rs/014a.jpg","86","","","","","","learn","SL",""
"","show_choice","155","169969","0.0-155.0","""event"",""trial"",""time""
""fullscreenenter"",""0"",""1274""
","
","
","""event"",""trial"",""time""
""fullscreenenter"",""0"",""1274""
","
","null","run_exp/static/images/Set 6_rs/014a.jpg","null","","","","","","learn","SL",""
"","html-keyboard-response","156","170474","0.0-156.0","""event"",""trial"",""time""
""fullscreenenter"",""0"",""1274""
","
","
","""event"",""trial"",""time""
""fullscreenenter"",""0"",""1274""
","
","null","<p></p>","null","","","","","","","",""
"","image","157","171572","0.0-157.0","""event"",""trial"",""time""
""fullscreenenter"",""0"",""1274""
","
","
","""event"",""trial"",""time""
""fullscreenenter"",""0"",""1274""
","
","1096.4000000953674","run_exp/static/images/Set 6_rs/177a.jpg","78","","","","","","learn","SR",""
"","show_choice","158","172480","0.0-158.0","""event"",""trial"",""time""
""fullscreenenter"",""0"",""1274""
","
","
","""event"",""trial"",""time""
""fullscreenenter"",""0"",""1274""
","
","null","run_exp/static/images/Set 6_rs/177a.jpg","null","","","","","","learn","SR",""
"","html-keyboard-response","159","172990","0.0-159.0","""event"",""trial"",""time""
""fullscreenenter"",""0"",""1274""
","
","
","""event"",""trial"",""time""
""fullscreenenter"",""0"",""1274""
","
","null","<p></p>","null","","","","","","","",""
"","image","160","174005","0.0-160.0","""event"",""trial"",""time""
""fullscreenenter"",""0"",""1274""
","
","
","""event"",""trial"",""time""
""fullscreenenter"",""0"",""1274""
","
","1011.2999999523163","run_exp/static/images/Set 6_rs/010a.jpg","86","","","","","","learn","SR",""
"","show_choice","161","175006","0.0-161.0","""event"",""trial"",""time""
""fullscreenenter"",""0"",""1274""
","
","
","""event"",""trial"",""time""
""fullscreenenter"",""0"",""1274""
","
","null","run_exp/static/images/Set 6_rs/010a.jpg","null","","","","","","learn","SR",""
"","html-keyboard-response","162","175516","0.0-162.0","""event"",""trial"",""time""
""fullscreenenter"",""0"",""1274""
","
","
","""event"",""trial"",""time""
""fullscreenenter"",""0"",""1274""
","
","null","<p></p>","null","","","","","","","",""
"","image","163","176644","0.0-163.0","""event"",""trial"",""time""
""fullscreenenter"",""0"",""1274""
","
","
","""event"",""trial"",""time""
""fullscreenenter"",""0"",""1274""
","
","1127.2000000476837","run_exp/static/images/Set 6_rs/095a.jpg","86","","","","","","learn","SL",""
"","show_choice","164","177522","0.0-164.0","""event"",""trial"",""time""
""fullscreenenter"",""0"",""1274""
","
","
","""event"",""trial"",""time""
""fullscreenenter"",""0"",""1274""
","
","null","run_exp/static/images/Set 6_rs/095a.jpg","null","","","","","","learn","SL",""
"","html-keyboard-response","165","178039","0.0-165.0","""event"",""trial"",""time""
""fullscreenenter"",""0"",""1274""
","
","
","""event"",""trial"",""time""
""fullscreenenter"",""0"",""1274""
","
","null","<p></p>","null","","","","","","","",""
"","image","166","179363","0.0-166.0","""event"",""trial"",""time""
""fullscreenenter"",""0"",""1274""
","
","
","""event"",""trial"",""time""
""fullscreenenter"",""0"",""1274""
","
","1322.6999998092651","run_exp/static/images/Set 6_rs/064a.jpg","78","","","","","","learn","SR",""
"","show_choice","167","180048","0.0-167.0","""event"",""trial"",""time""
""fullscreenenter"",""0"",""1274""
","
","
","""event"",""trial"",""time""
""fullscreenenter"",""0"",""1274""
","
","null","run_exp/static/images/Set 6_rs/064a.jpg","null","","","","","","learn","SR",""
"","html-keyboard-response","168","180556","0.0-168.0","""event"",""trial"",""time""
""fullscreenenter"",""0"",""1274""
","
","
","""event"",""trial"",""time""
""fullscreenenter"",""0"",""1274""
","
","null","<p></p>","null","","","","","","","",""
"","image","169","181668","0.0-169.0","""event"",""trial"",""time""
""fullscreenenter"",""0"",""1274""
","
","
","""event"",""trial"",""time""
""fullscreenenter"",""0"",""1274""
","
","1109.9000000953674","run_exp/static/images/Set 6_rs/007a.jpg","86","","","","","","learn","SR",""
"","show_choice","170","182567","0.0-170.0","""event"",""trial"",""time""
""fullscreenenter"",""0"",""1274""
","
","
","""event"",""trial"",""time""
""fullscreenenter"",""0"",""1274""
","
","null","run_exp/static/images/Set 6_rs/007a.jpg","null","","","","","","learn","SR",""
"","html-keyboard-response","171","183074","0.0-171.0","""event"",""trial"",""time""
""fullscreenenter"",""0"",""1274""
","
","
","""event"",""trial"",""time""
""fullscreenenter"",""0"",""1274""
","
","null","<p></p>","null","","","","","","","",""
"","image","172","184428","0.0-172.0","""event"",""trial"",""time""
""fullscreenenter"",""0"",""1274""
","
","
","""event"",""trial"",""time""
""fullscreenenter"",""0"",""1274""
","
","1352.1999998092651","run_exp/static/images/Set 6_rs/117a.jpg","78","","","","","","learn","SL",""
"","show_choice","173","185080","0.0-173.0","""event"",""trial"",""time""
""fullscreenenter"",""0"",""1274""
","
","
","""event"",""trial"",""time""
""fullscreenenter"",""0"",""1274""
","
","null","run_exp/static/images/Set 6_rs/117a.jpg","null","","","","","","learn","SL",""
"","html-keyboard-response","174","185588","0.0-174.0","""event"",""trial"",""time""
""fullscreenenter"",""0"",""1274""
","
","
","""event"",""trial"",""time""
""fullscreenenter"",""0"",""1274""
","
","null","<p></p>","null","","","","","","","",""
"","image","175","186887","0.0-175.0","""event"",""trial"",""time""
""fullscreenenter"",""0"",""1274""
","
","
","""event"",""trial"",""time""
""fullscreenenter"",""0"",""1274""
","
","1295.7999999523163","run_exp/static/images/Set 6_rs/168a.jpg","86","","","","","","learn","SL",""
"","show_choice","176","187594","0.0-176.0","""event"",""trial"",""time""
""fullscreenenter"",""0"",""1274""
","
","
","""event"",""trial"",""time""
""fullscreenenter"",""0"",""1274""
","
","null","run_exp/static/images/Set 6_rs/168a.jpg","null","","","","","","learn","SL",""
"","html-keyboard-response","177","188107","0.0-177.0","""event"",""trial"",""time""
""fullscreenenter"",""0"",""1274""
","
","
","""event"",""trial"",""time""
""fullscreenenter"",""0"",""1274""
","
","null","<p></p>","null","","","","","","","",""
"","image","178","189588","0.0-178.0","""event"",""trial"",""time""
""fullscreenenter"",""0"",""1274""
","
","
","""event"",""trial"",""time""
""fullscreenenter"",""0"",""1274""
","
","1479.6000001430511","run_exp/static/images/Set 6_rs/057a.jpg","86","","","","","","learn","SL",""
"","show_choice","179","190121","0.0-179.0","""event"",""trial"",""time""
""fullscreenenter"",""0"",""1274""
","
","
","""event"",""trial"",""time""
""fullscreenenter"",""0"",""1274""
","
","null","run_exp/static/images/Set 6_rs/057a.jpg","null","","","","","","learn","SL",""
"","html-keyboard-response","180","190625","0.0-180.0","""event"",""trial"",""time""
""fullscreenenter"",""0"",""1274""
","
","
","""event"",""trial"",""time""
""fullscreenenter"",""0"",""1274""
","
","null","<p></p>","null","","","","","","","",""
"","image","181","192068","0.0-181.0","""event"",""trial"",""time""
""fullscreenenter"",""0"",""1274""
","
","
","""event"",""trial"",""time""
""fullscreenenter"",""0"",""1274""
","
","1441.5","run_exp/static/images/Set 6_rs/063a.jpg","86","","","","","","learn","SR",""
"","show_choice","182","192637","0.0-182.0","""event"",""trial"",""time""
""fullscreenenter"",""0"",""1274""
","
","
","""event"",""trial"",""time""
""fullscreenenter"",""0"",""1274""
","
","null","run_exp/static/images/Set 6_rs/063a.jpg","null","","","","","","learn","SR",""
"","html-keyboard-response","183","193141","0.0-183.0","""event"",""trial"",""time""
""fullscreenenter"",""0"",""1274""
","
","
","""event"",""trial"",""time""
""fullscreenenter"",""0"",""1274""
","
","null","<p></p>","null","","","","","","","",""
"","image","184","193820","0.0-184.0","""event"",""trial"",""time""
""fullscreenenter"",""0"",""1274""
","
","
","""event"",""trial"",""time""
""fullscreenenter"",""0"",""1274""
","
","676.9000000953674","run_exp/static/images/Set 6_rs/122a.jpg","86","","","","","","learn","SR",""
"","show_choice","185","195146","0.0-185.0","""event"",""trial"",""time""
""fullscreenenter"",""0"",""1274""
","
","
","""event"",""trial"",""time""
""fullscreenenter"",""0"",""1274""
","
","null","run_exp/static/images/Set 6_rs/122a.jpg","null","","","","","","learn","SR",""
"","html-keyboard-response","186","195659","0.0-186.0","""event"",""trial"",""time""
""fullscreenenter"",""0"",""1274""
","
","
","""event"",""trial"",""time""
""fullscreenenter"",""0"",""1274""
","
","null","<p></p>","null","","","","","","","",""
"","image","187","196540","0.0-187.0","""event"",""trial"",""time""
""fullscreenenter"",""0"",""1274""
","
","
","""event"",""trial"",""time""
""fullscreenenter"",""0"",""1274""
","
","878.5","run_exp/static/images/Set 6_rs/073a.jpg","86","","","","","","learn","SL",""
"","show_choice","188","197666","0.0-188.0","""event"",""trial"",""time""
""fullscreenenter"",""0"",""1274""
","
","
","""event"",""trial"",""time""
""fullscreenenter"",""0"",""1274""
","
","null","run_exp/static/images/Set 6_rs/073a.jpg","null","","","","","","learn","SL",""
"","html-keyboard-response","189","198172","0.0-189.0","""event"",""trial"",""time""
""fullscreenenter"",""0"",""1274""
","
","
","""event"",""trial"",""time""
""fullscreenenter"",""0"",""1274""
","
","null","<p></p>","null","","","","","","","",""
"","image","190","198888","0.0-190.0","""event"",""trial"",""time""
""fullscreenenter"",""0"",""1274""
","
","
","""event"",""trial"",""time""
""fullscreenenter"",""0"",""1274""
","
","713.2000000476837","run_exp/static/images/Set 6_rs/131a.jpg","86","","","","","","learn","SR",""
"","show_choice","191","200179","0.0-191.0","""event"",""trial"",""time""
""fullscreenenter"",""0"",""1274""
","
","
","""event"",""trial"",""time""
""fullscreenenter"",""0"",""1274""
","
","null","run_exp/static/images/Set 6_rs/131a.jpg","null","","","","","","learn","SR",""
"","html-keyboard-response","192","200689","0.0-192.0","""event"",""trial"",""time""
""fullscreenenter"",""0"",""1274""
","
","
","""event"",""trial"",""time""
""fullscreenenter"",""0"",""1274""
","
","null","<p></p>","null","","","","","","","",""
"","image","193","201524","0.0-193.0","""event"",""trial"",""time""
""fullscreenenter"",""0"",""1274""
","
","
","""event"",""trial"",""time""
""fullscreenenter"",""0"",""1274""
","
","833.0999999046326","run_exp/static/images/Set 6_rs/019a.jpg","86","","","","","","learn","SL",""
"","show_choice","194","202696","0.0-194.0","""event"",""trial"",""time""
""fullscreenenter"",""0"",""1274""
","
","
","""event"",""trial"",""time""
""fullscreenenter"",""0"",""1274""
","
","null","run_exp/static/images/Set 6_rs/019a.jpg","null","","","","","","learn","SL",""
"","html-keyboard-response","195","203206","0.0-195.0","""event"",""trial"",""time""
""fullscreenenter"",""0"",""1274""
","
","
","""event"",""trial"",""time""
""fullscreenenter"",""0"",""1274""
","
","null","<p></p>","null","","","","","","","",""
"","test_intro","196","240292","0.0-196.0","""event"",""trial"",""time""
""fullscreenenter"",""0"",""1274""
","
","
","""event"",""trial"",""time""
""fullscreenenter"",""0"",""1274""
","
","null","run_exp/static/audio/clip_2_memory.m4a","null","","","","","<div class='center'><p>Now, lets see how much you remember about the items you just saw.  For each item, you need to indicate if it was <b>old</b> by pressing the <b>v</b> key, <b>similar</b> by pressing the <b>b</b> key, or <b>new</b> by pressing the <b>n</b> key.</p><p>Old refers to an item that you saw before in the indoor/outdoor game that you just played, new refers to an item you have <b>not</b> seen before within the indoor/outdoor game, and similar refers to an item that is similar to an item youve seen before but is not exactly the same. </p><p>Before we begin, lets go over some brief demonstrations to make sure you understand.</p></div>","","",""
"","html-keyboard-response","197","242236","0.0-197.0","""event"",""trial"",""time""
""fullscreenenter"",""0"",""1274""
","
","
","""event"",""trial"",""time""
""fullscreenenter"",""0"",""1274""
","
","1942.2999999523163","<div class='center'><p>Now, lets see how much you remember about the items you just saw.  For each item, you need to indicate if it was <b>old</b> by pressing the <b>v</b> key, <b>similar</b> by pressing the <b>b</b> key, or <b>new</b> by pressing the <b>n</b> key.</p><p>Old refers to an item that you saw before in the indoor/outdoor game that you just played, new refers to an item you have <b>not</b> seen before within the indoor/outdoor game, and similar refers to an item that is similar to an item youve seen before but is not exactly the same. </p><p>Before we begin, lets go over some brief demonstrations to make sure you understand.</p><div><p><b>[Press the space bar to continue]</b></p></div>","32","","","","","","","",""
"","items","198","249740","0.0-198.0","""event"",""trial"",""time""
""fullscreenenter"",""0"",""1274""
","
","
","""event"",""trial"",""time""
""fullscreenenter"",""0"",""1274""
","
","null","run_exp/static/audio/clip_3_items.m4a","null","","","","","","","",""
"","mop","199","254248","0.0-199.0","""event"",""trial"",""time""
""fullscreenenter"",""0"",""1274""
","
","
","""event"",""trial"",""time""
""fullscreenenter"",""0"",""1274""
","
","null","run_exp/static/audio/clip_4_mop.m4a","null","","","","","","","",""
"","baseball","200","257759","0.0-200.0","""event"",""trial"",""time""
""fullscreenenter"",""0"",""1274""
","
","
","""event"",""trial"",""time""
""fullscreenenter"",""0"",""1274""
","
","null","run_exp/static/audio/clip_5_baseball.m4a","null","","","","","","","",""
"","trumpet","201","261280","0.0-201.0","""event"",""trial"",""time""
""fullscreenenter"",""0"",""1274""
","
","
","""event"",""trial"",""time""
""fullscreenenter"",""0"",""1274""
","
","null","run_exp/static/audio/clip_6_trumpet.m4a","null","","","","","","","",""
"","gummies","202","264791","0.0-202.0","""event"",""trial"",""time""
""fullscreenenter"",""0"",""1274""
","
","
","""event"",""trial"",""time""
""fullscreenenter"",""0"",""1274""
","
","null","run_exp/static/audio/clip_7_gummies.m4a","null","","","","","","","",""
"","osn","203","269299","0.0-203.0","""event"",""trial"",""time""
""fullscreenenter"",""0"",""1274""
","
","
","""event"",""trial"",""time""
""fullscreenenter"",""0"",""1274""
","
","null","run_exp/static/audio/clip_8_osn.m4a","null","","","","","","","",""
"","old_1","204","275819","0.0-204.0","""event"",""trial"",""time""
""fullscreenenter"",""0"",""1274""
","
","
","""event"",""trial"",""time""
""fullscreenenter"",""0"",""1274""
","
","null","run_exp/static/audio/clip_9_old_trumpet.m4a","null","","","","","","","",""
"","new_1","205","283330","0.0-205.0","""event"",""trial"",""time""
""fullscreenenter"",""0"",""1274""
","
","
","""event"",""trial"",""time""
""fullscreenenter"",""0"",""1274""
","
","null","run_exp/static/audio/clip_10_new_balloon.m4a","null","","","","","","","",""
"","similar_1a","206","287839","0.0-206.0","""event"",""trial"",""time""
""fullscreenenter"",""0"",""1274""
","
","
","""event"",""trial"",""time""
""fullscreenenter"",""0"",""1274""
","
","null","run_exp/static/audio/clip_11a_similar_mop.m4a","null","","","","","","","",""
"","similar_1b","207","294349","0.0-207.0","""event"",""trial"",""time""
""fullscreenenter"",""0"",""1274""
","
","
","""event"",""trial"",""time""
""fullscreenenter"",""0"",""1274""
","
","null","run_exp/static/audio/clip_11b_similar_mop.m4a","null","","","","","","","",""
"","new_2","208","297859","0.0-208.0","""event"",""trial"",""time""
""fullscreenenter"",""0"",""1274""
","
","
","""event"",""trial"",""time""
""fullscreenenter"",""0"",""1274""
","
","null","run_exp/static/audio/clip_12_new_stoplight.m4a","null","","","","","","","",""
"","old_2","209","301380","0.0-209.0","""event"",""trial"",""time""
""fullscreenenter"",""0"",""1274""
","
","
","""event"",""trial"",""time""
""fullscreenenter"",""0"",""1274""
","
","null","run_exp/static/audio/clip_13_old_baseball.m4a","null","","","","","","","",""
"","similar_2a","210","304889","0.0-210.0","""event"",""trial"",""time""
""fullscreenenter"",""0"",""1274""
","
","
","""event"",""trial"",""time""
""fullscreenenter"",""0"",""1274""
","
","null","run_exp/static/audio/clip_14a_similar_gummies.m4a","null","","","","","","","",""
"","similar_2b","211","312399","0.0-211.0","""event"",""trial"",""time""
""fullscreenenter"",""0"",""1274""
","
","
","""event"",""trial"",""time""
""fullscreenenter"",""0"",""1274""
","
","null","run_exp/static/audio/clip_14b_similar_gummies.m4a","null","","","","","","","",""
"","practice","212","354532","0.0-212.0","""event"",""trial"",""time""
""fullscreenenter"",""0"",""1274""
","
","
","""event"",""trial"",""time""
""fullscreenenter"",""0"",""1274""
","
","null","run_exp/static/audio/clip_15_practice.m4a","null","","","","","<div class='center'><p>Lets practice a little to make sure you understand the difference between new, similar, and old. Lets say you saw these three items in the indoor/outdoor game.</p><p> Try your best to remember these images because youll soon be tested on them in a practice game. In the practice game, youll be shown images and youll have to say if they are old (one of the three images belows), similar (similar to one of the images below but not exactly the same), or new (are not one of the images below nor similar to them).</p><p>Once you press the space bar youll be shown these images again but one at time. Then youll begin the practice game.</p><p><img src='run_exp/static/images/tutorial/test/three_indoor_outdoor.png' height='300'></p></div>","","",""
"","html-keyboard-response","213","355555","0.0-213.0","""event"",""trial"",""time""
""fullscreenenter"",""0"",""1274""
","
","
","""event"",""trial"",""time""
""fullscreenenter"",""0"",""1274""
","
","1020.7000000476837","<div class='center'><p>Lets practice a little to make sure you understand the difference between new, similar, and old. Lets say you saw these three items in the indoor/outdoor game.</p><p> Try your best to remember these images because youll soon be tested on them in a practice game. In the practice game, youll be shown images and youll have to say if they are old (one of the three images belows), similar (similar to one of the images below but not exactly the same), or new (are not one of the images below nor similar to them).</p><p>Once you press the space bar youll be shown these images again but one at time. Then youll begin the practice game.</p><p><img src='run_exp/static/images/tutorial/test/three_indoor_outdoor.png' height='300'></p><div><p><b>[Press the space bar to continue]</b></p></div>","32","","","","","","","",""
"","planet","214","357556","0.0-214.0","""event"",""trial"",""time""
""fullscreenenter"",""0"",""1274""
","
","
","""event"",""trial"",""time""
""fullscreenenter"",""0"",""1274""
","
","null","run_exp/static/images/tutorial/test/008a.jpg","null","","","","","","","",""
"","boot","215","359558","0.0-215.0","""event"",""trial"",""time""
""fullscreenenter"",""0"",""1274""
","
","
","""event"",""trial"",""time""
""fullscreenenter"",""0"",""1274""
","
","null","run_exp/static/images/tutorial/test/011a.jpg","null","","","","","","","",""
"","lemon","216","361580","0.0-216.0","""event"",""trial"",""time""
""fullscreenenter"",""0"",""1274""
","
","
","""event"",""trial"",""time""
""fullscreenenter"",""0"",""1274""
","
","null","run_exp/static/images/tutorial/test/018a.jpg","null","","","","","","","",""
"","practice_q1","217","363334","0.0-217.0","""event"",""trial"",""time""
""fullscreenenter"",""0"",""1274""
","
","
","""event"",""trial"",""time""
""fullscreenenter"",""0"",""1274""
","
","1751","run_exp/static/audio/clip_16_practice_question.m4a","78","","","","","","","",""
"","correct","218","365270","0.0-218.0-0.0","""event"",""trial"",""time""
""fullscreenenter"",""0"",""1274""
","
","
","""event"",""trial"",""time""
""fullscreenenter"",""0"",""1274""
","
","null","run_exp/static/audio/clip_17_correct.m4a","null","","","","","<div class='center'><p>That's correct!</p></div>","","",""
"","html-keyboard-response","219","366515","0.0-218.0-1.0","""event"",""trial"",""time""
""fullscreenenter"",""0"",""1274""
","
","
","""event"",""trial"",""time""
""fullscreenenter"",""0"",""1274""
","
","1243.5999999046326","<div class='center'><p>That's correct!</p><div><p><b>[Press the space bar to continue]</b></p></div>","32","","","","","","","",""
"","practice_q2","220","367635","0.0-218.0-2.0","""event"",""trial"",""time""
""fullscreenenter"",""0"",""1274""
","
","
","""event"",""trial"",""time""
""fullscreenenter"",""0"",""1274""
","
","1118.2999999523163","run_exp/static/audio/clip_16_practice_question.m4a","86","","","","","","","",""
"","correct","221","369532","0.0-219.0-0.0","""event"",""trial"",""time""
""fullscreenenter"",""0"",""1274""
","
","
","""event"",""trial"",""time""
""fullscreenenter"",""0"",""1274""
","
","null","run_exp/static/audio/clip_17_correct.m4a","null","","","","","<div class='center'><p>That's correct!</p></div>","","",""
"","html-keyboard-response","222","370356","0.0-219.0-1.0","""event"",""trial"",""time""
""fullscreenenter"",""0"",""1274""
","
","
","""event"",""trial"",""time""
""fullscreenenter"",""0"",""1274""
","
","821.7999999523163","<div class='center'><p>That's correct!</p><div><p><b>[Press the space bar to continue]</b></p></div>","32","","","","","","","",""
"","practice_q3","223","371196","0.0-219.0-2.0","""event"",""trial"",""time""
""fullscreenenter"",""0"",""1274""
","
","
","""event"",""trial"",""time""
""fullscreenenter"",""0"",""1274""
","
","837","run_exp/static/audio/clip_16_practice_question.m4a","66","","","","","","","",""
"","correct","224","373272","0.0-220.0-0.0","""event"",""trial"",""time""
""fullscreenenter"",""0"",""1274""
","
","
","""event"",""trial"",""time""
""fullscreenenter"",""0"",""1274""
","
","null","run_exp/static/audio/clip_17_correct.m4a","null","","","","","<div class='center'><p>That's correct!</p></div>","","",""
"","html-keyboard-response","225","374284","0.0-220.0-1.0","""event"",""trial"",""time""
""fullscreenenter"",""0"",""1274""
","
","
","""event"",""trial"",""time""
""fullscreenenter"",""0"",""1274""
","
","1010.2000000476837","<div class='center'><p>That's correct!</p><div><p><b>[Press the space bar to continue]</b></p></div>","32","","","","","","","",""
"","begin_text","226","392792","0.0-221.0-0.0","""event"",""trial"",""time""
""fullscreenenter"",""0"",""1274""
","
","
","""event"",""trial"",""time""
""fullscreenenter"",""0"",""1274""
","
","null","run_exp/static/audio/clip_22_begin_test.m4a","null","","","","","<div class='center'><p>On to the real game where well test your memory of items from the indoor/outdoor game. For each item, you need to indicate if the item is <b>old</b> by pressing the <b>v</b> key, <b>similar</b> by pressing the <b>b</b> key, or <b>new</b> by pressing the <b>n</b> key. </p></div>","","",""
"","html-keyboard-response","227","404791","0.0-221.0-1.0","""event"",""trial"",""time""
""fullscreenenter"",""0"",""1274""
","
","
","""event"",""trial"",""time""
""fullscreenenter"",""0"",""1274""
","
","11995.799999952316","<div class='center'><p>On to the real game where well test your memory of items from the indoor/outdoor game. For each item, you need to indicate if the item is <b>old</b> by pressing the <b>v</b> key, <b>similar</b> by pressing the <b>b</b> key, or <b>new</b> by pressing the <b>n</b> key. </p><div><p><b>[Press the space bar to continue]</b></p></div>","32","","","","","","","",""
"","image","228","407324","0.0-222.0-0.0","""event"",""trial"",""time""
""fullscreenenter"",""0"",""1274""
","
","
","""event"",""trial"",""time""
""fullscreenenter"",""0"",""1274""
","
","2531.399999856949","run_exp/static/images/Set 6_rs/152a.jpg","86","","","","","","test","TR","2"
"","show_choice","229","407826","0.0-222.0-1.0","""event"",""trial"",""time""
""fullscreenenter"",""0"",""1274""
","
","
","""event"",""trial"",""time""
""fullscreenenter"",""0"",""1274""
","
","null","run_exp/static/images/Set 6_rs/152a.jpg","null","","","","","","test","TR",""
"","html-keyboard-response","230","408339","0.0-222.0-2.0","""event"",""trial"",""time""
""fullscreenenter"",""0"",""1274""
","
","
","""event"",""trial"",""time""
""fullscreenenter"",""0"",""1274""
","
","null","<p></p>","null","","","","","","","",""
"","image","231","409653","0.0-223.0-0.0","""event"",""trial"",""time""
""fullscreenenter"",""0"",""1274""
","
","
","""event"",""trial"",""time""
""fullscreenenter"",""0"",""1274""
","
","1312.2000000476837","run_exp/static/images/Set 6_rs/188a.jpg","78","","","","","","test","TF","3"
"","show_choice","232","410169","0.0-223.0-1.0","""event"",""trial"",""time""
""fullscreenenter"",""0"",""1274""
","
","
","""event"",""trial"",""time""
""fullscreenenter"",""0"",""1274""
","
","null","run_exp/static/images/Set 6_rs/188a.jpg","null","","","","","","test","TF",""
"","html-keyboard-response","233","410674","0.0-223.0-2.0","""event"",""trial"",""time""
""fullscreenenter"",""0"",""1274""
","
","
","""event"",""trial"",""time""
""fullscreenenter"",""0"",""1274""
","
","null","<p></p>","null","","","","","","","",""
"","image","234","412125","0.0-224.0-0.0","""event"",""trial"",""time""
""fullscreenenter"",""0"",""1274""
","
","
","""event"",""trial"",""time""
""fullscreenenter"",""0"",""1274""
","
","1448.7999999523163","run_exp/static/images/Set 6_rs/097a.jpg","78","","","","","","test","TF","5"
"","show_choice","235","412641","0.0-224.0-1.0","""event"",""trial"",""time""
""fullscreenenter"",""0"",""1274""
","
","
","""event"",""trial"",""time""
""fullscreenenter"",""0"",""1274""
","
","null","run_exp/static/images/Set 6_rs/097a.jpg","null","","","","","","test","TF",""
"","html-keyboard-response","236","413158","0.0-224.0-2.0","""event"",""trial"",""time""
""fullscreenenter"",""0"",""1274""
","
","
","""event"",""trial"",""time""
""fullscreenenter"",""0"",""1274""
","
","null","<p></p>","null","","","","","","","",""
"","image","237","414693","0.0-225.0-0.0","""event"",""trial"",""time""
""fullscreenenter"",""0"",""1274""
","
","
","""event"",""trial"",""time""
""fullscreenenter"",""0"",""1274""
","
","1533.1999998092651","run_exp/static/images/Set 6_rs/138b.jpg","86","","","","","","test","TL","1"
"","show_choice","238","415197","0.0-225.0-1.0","""event"",""trial"",""time""
""fullscreenenter"",""0"",""1274""
","
","
","""event"",""trial"",""time""
""fullscreenenter"",""0"",""1274""
","
","null","run_exp/static/images/Set 6_rs/138b.jpg","null","","","","","","test","TL",""
"","html-keyboard-response","239","415707","0.0-225.0-2.0","""event"",""trial"",""time""
""fullscreenenter"",""0"",""1274""
","
","
","""event"",""trial"",""time""
""fullscreenenter"",""0"",""1274""
","
","null","<p></p>","null","","","","","","","",""
"","image","240","416999","0.0-226.0-0.0","""event"",""trial"",""time""
""fullscreenenter"",""0"",""1274""
","
","
","""event"",""trial"",""time""
""fullscreenenter"",""0"",""1274""
","
","1290.7999999523163","run_exp/static/images/Set 6_rs/035a.jpg","78","","","","","","test","TF","4"
"","show_choice","241","417506","0.0-226.0-1.0","""event"",""trial"",""time""
""fullscreenenter"",""0"",""1274""
","
","
","""event"",""trial"",""time""
""fullscreenenter"",""0"",""1274""
","
","null","run_exp/static/images/Set 6_rs/035a.jpg","null","","","","","","test","TF",""
"","html-keyboard-response","242","418009","0.0-226.0-2.0","""event"",""trial"",""time""
""fullscreenenter"",""0"",""1274""
","
","
","""event"",""trial"",""time""
""fullscreenenter"",""0"",""1274""
","
","null","<p></p>","null","","","","","","","",""
"","image","243","419517","0.0-227.0-0.0","""event"",""trial"",""time""
""fullscreenenter"",""0"",""1274""
","
","
","""event"",""trial"",""time""
""fullscreenenter"",""0"",""1274""
","
","1505.7000000476837","run_exp/static/images/Set 6_rs/168b.jpg","66","","","","","","test","TL","3"
"","show_choice","244","420032","0.0-227.0-1.0","""event"",""trial"",""time""
""fullscreenenter"",""0"",""1274""
","
","
","""event"",""trial"",""time""
""fullscreenenter"",""0"",""1274""
","
","null","run_exp/static/images/Set 6_rs/168b.jpg","null","","","","","","test","TL",""
"","html-keyboard-response","245","420539","0.0-227.0-2.0","""event"",""trial"",""time""
""fullscreenenter"",""0"",""1274""
","
","
","""event"",""trial"",""time""
""fullscreenenter"",""0"",""1274""
","
","null","<p></p>","null","","","","","","","",""
"","image","246","421917","0.0-228.0-0.0","""event"",""trial"",""time""
""fullscreenenter"",""0"",""1274""
","
","
","""event"",""trial"",""time""
""fullscreenenter"",""0"",""1274""
","
","1376","run_exp/static/images/Set 6_rs/105a.jpg","66","","","","","","test","TF","5"
"","show_choice","247","422424","0.0-228.0-1.0","""event"",""trial"",""time""
""fullscreenenter"",""0"",""1274""
","
","
","""event"",""trial"",""time""
""fullscreenenter"",""0"",""1274""
","
","null","run_exp/static/images/Set 6_rs/105a.jpg","null","","","","","","test","TF",""
"","html-keyboard-response","248","422940","0.0-228.0-2.0","""event"",""trial"",""time""
""fullscreenenter"",""0"",""1274""
","
","
","""event"",""trial"",""time""
""fullscreenenter"",""0"",""1274""
","
","null","<p></p>","null","","","","","","","",""
"","image","249","423564","0.0-229.0-0.0","""event"",""trial"",""time""
""fullscreenenter"",""0"",""1274""
","
","
","""event"",""trial"",""time""
""fullscreenenter"",""0"",""1274""
","
","622.2999999523163","run_exp/static/images/Set 6_rs/011a.jpg","78","","","","","","test","TF","3"
"","show_choice","250","424073","0.0-229.0-1.0","""event"",""trial"",""time""
""fullscreenenter"",""0"",""1274""
","
","
","""event"",""trial"",""time""
""fullscreenenter"",""0"",""1274""
","
","null","run_exp/static/images/Set 6_rs/011a.jpg","null","","","","","","test","TF",""
"","html-keyboard-response","251","424590","0.0-229.0-2.0","""event"",""trial"",""time""
""fullscreenenter"",""0"",""1274""
","
","
","""event"",""trial"",""time""
""fullscreenenter"",""0"",""1274""
","
","null","<p></p>","null","","","","","","","",""
"","image","252","425765","0.0-230.0-0.0","""event"",""trial"",""time""
""fullscreenenter"",""0"",""1274""
","
","
","""event"",""trial"",""time""
""fullscreenenter"",""0"",""1274""
","
","1173.1999998092651","run_exp/static/images/Set 6_rs/023a.jpg","86","","","","","","test","TR","3"
"","show_choice","253","426273","0.0-230.0-1.0","""event"",""trial"",""time""
""fullscreenenter"",""0"",""1274""
","
","
","""event"",""trial"",""time""
""fullscreenenter"",""0"",""1274""
","
","null","run_exp/static/images/Set 6_rs/023a.jpg","null","","","","","","test","TR",""
"","html-keyboard-response","254","426790","0.0-230.0-2.0","""event"",""trial"",""time""
""fullscreenenter"",""0"",""1274""
","
","
","""event"",""trial"",""time""
""fullscreenenter"",""0"",""1274""
","
","null","<p></p>","null","","","","","","","",""
"","image","255","428104","0.0-231.0-0.0","""event"",""trial"",""time""
""fullscreenenter"",""0"",""1274""
","
","
","""event"",""trial"",""time""
""fullscreenenter"",""0"",""1274""
","
","1311.2000000476837","run_exp/static/images/Set 6_rs/017b.jpg","66","","","","","","test","TL","3"
"","show_choice","256","428609","0.0-231.0-1.0","""event"",""trial"",""time""
""fullscreenenter"",""0"",""1274""
","
","
","""event"",""trial"",""time""
""fullscreenenter"",""0"",""1274""
","
","null","run_exp/static/images/Set 6_rs/017b.jpg","null","","","","","","test","TL",""
"","html-keyboard-response","257","429124","0.0-231.0-2.0","""event"",""trial"",""time""
""fullscreenenter"",""0"",""1274""
","
","
","""event"",""trial"",""time""
""fullscreenenter"",""0"",""1274""
","
","null","<p></p>","null","","","","","","","",""
"","image","258","430333","0.0-232.0-0.0","""event"",""trial"",""time""
""fullscreenenter"",""0"",""1274""
","
","
","""event"",""trial"",""time""
""fullscreenenter"",""0"",""1274""
","
","1207.1999998092651","run_exp/static/images/Set 6_rs/121a.jpg","86","","","","","","test","TR","4"
"","show_choice","259","430840","0.0-232.0-1.0","""event"",""trial"",""time""
""fullscreenenter"",""0"",""1274""
","
","
","""event"",""trial"",""time""
""fullscreenenter"",""0"",""1274""
","
","null","run_exp/static/images/Set 6_rs/121a.jpg","null","","","","","","test","TR",""
"","html-keyboard-response","260","431342","0.0-232.0-2.0","""event"",""trial"",""time""
""fullscreenenter"",""0"",""1274""
","
","
","""event"",""trial"",""time""
""fullscreenenter"",""0"",""1274""
","
","null","<p></p>","null","","","","","","","",""
"","image","261","432245","0.0-233.0-0.0","""event"",""trial"",""time""
""fullscreenenter"",""0"",""1274""
","
","
","""event"",""trial"",""time""
""fullscreenenter"",""0"",""1274""
","
","901","run_exp/static/images/Set 6_rs/012a.jpg","86","","","","","","test","TR","1"
"","show_choice","262","432756","0.0-233.0-1.0","""event"",""trial"",""time""
""fullscreenenter"",""0"",""1274""
","
","
","""event"",""trial"",""time""
""fullscreenenter"",""0"",""1274""
","
","null","run_exp/static/images/Set 6_rs/012a.jpg","null","","","","","","test","TR",""
"","html-keyboard-response","263","433273","0.0-233.0-2.0","""event"",""trial"",""time""
""fullscreenenter"",""0"",""1274""
","
","
","""event"",""trial"",""time""
""fullscreenenter"",""0"",""1274""
","
","null","<p></p>","null","","","","","","","",""
"","image","264","434645","0.0-234.0-0.0","""event"",""trial"",""time""
""fullscreenenter"",""0"",""1274""
","
","
","""event"",""trial"",""time""
""fullscreenenter"",""0"",""1274""
","
","1369.5999999046326","run_exp/static/images/Set 6_rs/176a.jpg","78","","","","","","test","TF","4"
"","show_choice","265","435151","0.0-234.0-1.0","""event"",""trial"",""time""
""fullscreenenter"",""0"",""1274""
","
","
","""event"",""trial"",""time""
""fullscreenenter"",""0"",""1274""
","
","null","run_exp/static/images/Set 6_rs/176a.jpg","null","","","","","","test","TF",""
"","html-keyboard-response","266","435658","0.0-234.0-2.0","""event"",""trial"",""time""
""fullscreenenter"",""0"",""1274""
","
","
","""event"",""trial"",""time""
""fullscreenenter"",""0"",""1274""
","
","null","<p></p>","null","","","","","","","",""
"","image","267","436949","0.0-235.0-0.0","""event"",""trial"",""time""
""fullscreenenter"",""0"",""1274""
","
","
","""event"",""trial"",""time""
""fullscreenenter"",""0"",""1274""
","
","1289.0999999046326","run_exp/static/images/Set 6_rs/001a.jpg","86","","","","","","test","TF","1"
"","show_choice","268","437458","0.0-235.0-1.0","""event"",""trial"",""time""
""fullscreenenter"",""0"",""1274""
","
","
","""event"",""trial"",""time""
""fullscreenenter"",""0"",""1274""
","
","null","run_exp/static/images/Set 6_rs/001a.jpg","null","","","","","","test","TF",""
"","html-keyboard-response","269","437972","0.0-235.0-2.0","""event"",""trial"",""time""
""fullscreenenter"",""0"",""1274""
","
","
","""event"",""trial"",""time""
""fullscreenenter"",""0"",""1274""
","
","null","<p></p>","null","","","","","","","",""
"","image","270","439175","0.0-236.0-0.0","""event"",""trial"",""time""
""fullscreenenter"",""0"",""1274""
","
","
","""event"",""trial"",""time""
""fullscreenenter"",""0"",""1274""
","
","1201.2999999523163","run_exp/static/images/Set 6_rs/144b.jpg","86","","","","","","test","TL","4"
"","show_choice","271","439678","0.0-236.0-1.0","""event"",""trial"",""time""
""fullscreenenter"",""0"",""1274""
","
","
","""event"",""trial"",""time""
""fullscreenenter"",""0"",""1274""
","
","null","run_exp/static/images/Set 6_rs/144b.jpg","null","","","","","","test","TL",""
"","html-keyboard-response","272","440182","0.0-236.0-2.0","""event"",""trial"",""time""
""fullscreenenter"",""0"",""1274""
","
","
","""event"",""trial"",""time""
""fullscreenenter"",""0"",""1274""
","
","null","<p></p>","null","","","","","","","",""
"","image","273","441341","0.0-237.0-0.0","""event"",""trial"",""time""
""fullscreenenter"",""0"",""1274""
","
","
","""event"",""trial"",""time""
""fullscreenenter"",""0"",""1274""
","
","1156.0999999046326","run_exp/static/images/Set 6_rs/076a.jpg","86","","","","","","test","TR","4"
"","show_choice","274","441858","0.0-237.0-1.0","""event"",""trial"",""time""
""fullscreenenter"",""0"",""1274""
","
","
","""event"",""trial"",""time""
""fullscreenenter"",""0"",""1274""
","
","null","run_exp/static/images/Set 6_rs/076a.jpg","null","","","","","","test","TR",""
"","html-keyboard-response","275","442374","0.0-237.0-2.0","""event"",""trial"",""time""
""fullscreenenter"",""0"",""1274""
","
","
","""event"",""trial"",""time""
""fullscreenenter"",""0"",""1274""
","
","null","<p></p>","null","","","","","","","",""
"","image","276","443028","0.0-238.0-0.0","""event"",""trial"",""time""
""fullscreenenter"",""0"",""1274""
","
","
","""event"",""trial"",""time""
""fullscreenenter"",""0"",""1274""
","
","652.3999998569489","run_exp/static/images/Set 6_rs/010a.jpg","86","","","","","","test","TR","5"
"","show_choice","277","443541","0.0-238.0-1.0","""event"",""trial"",""time""
""fullscreenenter"",""0"",""1274""
","
","
","""event"",""trial"",""time""
""fullscreenenter"",""0"",""1274""
","
","null","run_exp/static/images/Set 6_rs/010a.jpg","null","","","","","","test","TR",""
"","html-keyboard-response","278","444056","0.0-238.0-2.0","""event"",""trial"",""time""
""fullscreenenter"",""0"",""1274""
","
","
","""event"",""trial"",""time""
""fullscreenenter"",""0"",""1274""
","
","null","<p></p>","null","","","","","","","",""
"","image","279","444749","0.0-239.0-0.0","""event"",""trial"",""time""
""fullscreenenter"",""0"",""1274""
","
","
","""event"",""trial"",""time""
""fullscreenenter"",""0"",""1274""
","
","691.2999999523163","run_exp/static/images/Set 6_rs/064a.jpg","86","","","","","","test","TR","5"
"","show_choice","280","445264","0.0-239.0-1.0","""event"",""trial"",""time""
""fullscreenenter"",""0"",""1274""
","
","
","""event"",""trial"",""time""
""fullscreenenter"",""0"",""1274""
","
","null","run_exp/static/images/Set 6_rs/064a.jpg","null","","","","","","test","TR",""
"","html-keyboard-response","281","445772","0.0-239.0-2.0","""event"",""trial"",""time""
""fullscreenenter"",""0"",""1274""
","
","
","""event"",""trial"",""time""
""fullscreenenter"",""0"",""1274""
","
","null","<p></p>","null","","","","","","","",""
"","image","282","447013","0.0-240.0-0.0","""event"",""trial"",""time""
""fullscreenenter"",""0"",""1274""
","
","
","""event"",""trial"",""time""
""fullscreenenter"",""0"",""1274""
","
","1238.7000000476837","run_exp/static/images/Set 6_rs/111b.jpg","66","","","","","","test","TL","3"
"","show_choice","283","447524","0.0-240.0-1.0","""event"",""trial"",""time""
""fullscreenenter"",""0"",""1274""
","
","
","""event"",""trial"",""time""
""fullscreenenter"",""0"",""1274""
","
","null","run_exp/static/images/Set 6_rs/111b.jpg","null","","","","","","test","TL",""
"","html-keyboard-response","284","448046","0.0-240.0-2.0","""event"",""trial"",""time""
""fullscreenenter"",""0"",""1274""
","
","
","""event"",""trial"",""time""
""fullscreenenter"",""0"",""1274""
","
","null","<p></p>","null","","","","","","","",""
"","image","285","449223","0.0-241.0-0.0","""event"",""trial"",""time""
""fullscreenenter"",""0"",""1274""
","
","
","""event"",""trial"",""time""
""fullscreenenter"",""0"",""1274""
","
","1176","run_exp/static/images/Set 6_rs/118a.jpg","78","","","","","","test","TF","5"
"","show_choice","286","449741","0.0-241.0-1.0","""event"",""trial"",""time""
""fullscreenenter"",""0"",""1274""
","
","
","""event"",""trial"",""time""
""fullscreenenter"",""0"",""1274""
","
","null","run_exp/static/images/Set 6_rs/118a.jpg","null","","","","","","test","TF",""
"","html-keyboard-response","287","450249","0.0-241.0-2.0","""event"",""trial"",""time""
""fullscreenenter"",""0"",""1274""
","
","
","""event"",""trial"",""time""
""fullscreenenter"",""0"",""1274""
","
","null","<p></p>","null","","","","","","","",""
"","image","288","451638","0.0-242.0-0.0","""event"",""trial"",""time""
""fullscreenenter"",""0"",""1274""
","
","
","""event"",""trial"",""time""
""fullscreenenter"",""0"",""1274""
","
","1386.3999998569489","run_exp/static/images/Set 6_rs/129b.jpg","66","","","","","","test","TL","1"
"","show_choice","289","452141","0.0-242.0-1.0","""event"",""trial"",""time""
""fullscreenenter"",""0"",""1274""
","
","
","""event"",""trial"",""time""
""fullscreenenter"",""0"",""1274""
","
","null","run_exp/static/images/Set 6_rs/129b.jpg","null","","","","","","test","TL",""
"","html-keyboard-response","290","452656","0.0-242.0-2.0","""event"",""trial"",""time""
""fullscreenenter"",""0"",""1274""
","
","
","""event"",""trial"",""time""
""fullscreenenter"",""0"",""1274""
","
","null","<p></p>","null","","","","","","","",""
"","image","291","453869","0.0-243.0-0.0","""event"",""trial"",""time""
""fullscreenenter"",""0"",""1274""
","
","
","""event"",""trial"",""time""
""fullscreenenter"",""0"",""1274""
","
","1210.5","run_exp/static/images/Set 6_rs/136a.jpg","78","","","","","","test","TF","4"
"","show_choice","292","454375","0.0-243.0-1.0","""event"",""trial"",""time""
""fullscreenenter"",""0"",""1274""
","
","
","""event"",""trial"",""time""
""fullscreenenter"",""0"",""1274""
","
","null","run_exp/static/images/Set 6_rs/136a.jpg","null","","","","","","test","TF",""
"","html-keyboard-response","293","454884","0.0-243.0-2.0","""event"",""trial"",""time""
""fullscreenenter"",""0"",""1274""
","
","
","""event"",""trial"",""time""
""fullscreenenter"",""0"",""1274""
","
","null","<p></p>","null","","","","","","","",""
"","image","294","456261","0.0-244.0-0.0","""event"",""trial"",""time""
""fullscreenenter"",""0"",""1274""
","
","
","""event"",""trial"",""time""
""fullscreenenter"",""0"",""1274""
","
","1375","run_exp/static/images/Set 6_rs/100a.jpg","86","","","","","","test","TF","2"
"","show_choice","295","456774","0.0-244.0-1.0","""event"",""trial"",""time""
""fullscreenenter"",""0"",""1274""
","
","
","""event"",""trial"",""time""
""fullscreenenter"",""0"",""1274""
","
","null","run_exp/static/images/Set 6_rs/100a.jpg","null","","","","","","test","TF",""
"","html-keyboard-response","296","457291","0.0-244.0-2.0","""event"",""trial"",""time""
""fullscreenenter"",""0"",""1274""
","
","
","""event"",""trial"",""time""
""fullscreenenter"",""0"",""1274""
","
","null","<p></p>","null","","","","","","","",""
"","image","297","458909","0.0-245.0-0.0","""event"",""trial"",""time""
""fullscreenenter"",""0"",""1274""
","
","
","""event"",""trial"",""time""
""fullscreenenter"",""0"",""1274""
","
","1617.1000001430511","run_exp/static/images/Set 6_rs/190a.jpg","78","","","","","","test","TF","3"
"","show_choice","298","459421","0.0-245.0-1.0","""event"",""trial"",""time""
""fullscreenenter"",""0"",""1274""
","
","
","""event"",""trial"",""time""
""fullscreenenter"",""0"",""1274""
","
","null","run_exp/static/images/Set 6_rs/190a.jpg","null","","","","","","test","TF",""
"","html-keyboard-response","299","459929","0.0-245.0-2.0","""event"",""trial"",""time""
""fullscreenenter"",""0"",""1274""
","
","
","""event"",""trial"",""time""
""fullscreenenter"",""0"",""1274""
","
","null","<p></p>","null","","","","","","","",""
"","image","300","461464","0.0-246.0-0.0","""event"",""trial"",""time""
""fullscreenenter"",""0"",""1274""
","
","
","""event"",""trial"",""time""
""fullscreenenter"",""0"",""1274""
","
","1532.7000000476837","run_exp/static/images/Set 6_rs/079b.jpg","66","","","","","","test","TL","5"
"","show_choice","301","461973","0.0-246.0-1.0","""event"",""trial"",""time""
""fullscreenenter"",""0"",""1274""
","
","
","""event"",""trial"",""time""
""fullscreenenter"",""0"",""1274""
","
","null","run_exp/static/images/Set 6_rs/079b.jpg","null","","","","","","test","TL",""
"","html-keyboard-response","302","462490","0.0-246.0-2.0","""event"",""trial"",""time""
""fullscreenenter"",""0"",""1274""
","
","
","""event"",""trial"",""time""
""fullscreenenter"",""0"",""1274""
","
","null","<p></p>","null","","","","","","","",""
"","image","303","463701","0.0-247.0-0.0","""event"",""trial"",""time""
""fullscreenenter"",""0"",""1274""
","
","
","""event"",""trial"",""time""
""fullscreenenter"",""0"",""1274""
","
","1209.2000000476837","run_exp/static/images/Set 6_rs/007a.jpg","86","","","","","","test","TR","3"
"","show_choice","304","464208","0.0-247.0-1.0","""event"",""trial"",""time""
""fullscreenenter"",""0"",""1274""
","
","
","""event"",""trial"",""time""
""fullscreenenter"",""0"",""1274""
","
","null","run_exp/static/images/Set 6_rs/007a.jpg","null","","","","","","test","TR",""
"","html-keyboard-response","305","464725","0.0-247.0-2.0","""event"",""trial"",""time""
""fullscreenenter"",""0"",""1274""
","
","
","""event"",""trial"",""time""
""fullscreenenter"",""0"",""1274""
","
","null","<p></p>","null","","","","","","","",""
"","image","306","465829","0.0-248.0-0.0","""event"",""trial"",""time""
""fullscreenenter"",""0"",""1274""
","
","
","""event"",""trial"",""time""
""fullscreenenter"",""0"",""1274""
","
","1102.5","run_exp/static/images/Set 6_rs/085b.jpg","86","","","","","","test","TL","1"
"","show_choice","307","466343","0.0-248.0-1.0","""event"",""trial"",""time""
""fullscreenenter"",""0"",""1274""
","
","
","""event"",""trial"",""time""
""fullscreenenter"",""0"",""1274""
","
","null","run_exp/static/images/Set 6_rs/085b.jpg","null","","","","","","test","TL",""
"","html-keyboard-response","308","466856","0.0-248.0-2.0","""event"",""trial"",""time""
""fullscreenenter"",""0"",""1274""
","
","
","""event"",""trial"",""time""
""fullscreenenter"",""0"",""1274""
","
","null","<p></p>","null","","","","","","","",""
"","image","309","467660","0.0-249.0-0.0","""event"",""trial"",""time""
""fullscreenenter"",""0"",""1274""
","
","
","""event"",""trial"",""time""
""fullscreenenter"",""0"",""1274""
","
","802.8999998569489","run_exp/static/images/Set 6_rs/131a.jpg","86","","","","","","test","TR","5"
"","show_choice","310","468162","0.0-249.0-1.0","""event"",""trial"",""time""
""fullscreenenter"",""0"",""1274""
","
","
","""event"",""trial"",""time""
""fullscreenenter"",""0"",""1274""
","
","null","run_exp/static/images/Set 6_rs/131a.jpg","null","","","","","","test","TR",""
"","html-keyboard-response","311","468678","0.0-249.0-2.0","""event"",""trial"",""time""
""fullscreenenter"",""0"",""1274""
","
","
","""event"",""trial"",""time""
""fullscreenenter"",""0"",""1274""
","
","null","<p></p>","null","","","","","","","",""
"","image","312","469852","0.0-250.0-0.0","""event"",""trial"",""time""
""fullscreenenter"",""0"",""1274""
","
","
","""event"",""trial"",""time""
""fullscreenenter"",""0"",""1274""
","
","1172.5","run_exp/static/images/Set 6_rs/021a.jpg","66","","","","","","test","TF","2"
"","show_choice","313","470366","0.0-250.0-1.0","""event"",""trial"",""time""
""fullscreenenter"",""0"",""1274""
","
","
","""event"",""trial"",""time""
""fullscreenenter"",""0"",""1274""
","
","null","run_exp/static/images/Set 6_rs/021a.jpg","null","","","","","","test","TF",""
"","html-keyboard-response","314","470874","0.0-250.0-2.0","""event"",""trial"",""time""
""fullscreenenter"",""0"",""1274""
","
","
","""event"",""trial"",""time""
""fullscreenenter"",""0"",""1274""
","
","null","<p></p>","null","","","","","","","",""
"","image","315","471904","0.0-251.0-0.0","""event"",""trial"",""time""
""fullscreenenter"",""0"",""1274""
","
","
","""event"",""trial"",""time""
""fullscreenenter"",""0"",""1274""
","
","1027.6000001430511","run_exp/static/images/Set 6_rs/088a.jpg","86","","","","","","test","TR","2"
"","show_choice","316","472409","0.0-251.0-1.0","""event"",""trial"",""time""
""fullscreenenter"",""0"",""1274""
","
","
","""event"",""trial"",""time""
""fullscreenenter"",""0"",""1274""
","
","null","run_exp/static/images/Set 6_rs/088a.jpg","null","","","","","","test","TR",""
"","html-keyboard-response","317","472924","0.0-251.0-2.0","""event"",""trial"",""time""
""fullscreenenter"",""0"",""1274""
","
","
","""event"",""trial"",""time""
""fullscreenenter"",""0"",""1274""
","
","null","<p></p>","null","","","","","","","",""
"","image","318","474061","0.0-252.0-0.0","""event"",""trial"",""time""
""fullscreenenter"",""0"",""1274""
","
","
","""event"",""trial"",""time""
""fullscreenenter"",""0"",""1274""
","
","1134.7000000476837","run_exp/static/images/Set 6_rs/022a.jpg","78","","","","","","test","TF","4"
"","show_choice","319","474574","0.0-252.0-1.0","""event"",""trial"",""time""
""fullscreenenter"",""0"",""1274""
","
","
","""event"",""trial"",""time""
""fullscreenenter"",""0"",""1274""
","
","null","run_exp/static/images/Set 6_rs/022a.jpg","null","","","","","","test","TF",""
"","html-keyboard-response","320","475081","0.0-252.0-2.0","""event"",""trial"",""time""
""fullscreenenter"",""0"",""1274""
","
","
","""event"",""trial"",""time""
""fullscreenenter"",""0"",""1274""
","
","null","<p></p>","null","","","","","","","",""
"","image","321","475916","0.0-253.0-0.0","""event"",""trial"",""time""
""fullscreenenter"",""0"",""1274""
","
","
","""event"",""trial"",""time""
""fullscreenenter"",""0"",""1274""
","
","833.7999999523163","run_exp/static/images/Set 6_rs/066b.jpg","78","","","","","","test","TL","5"
"","show_choice","322","476423","0.0-253.0-1.0","""event"",""trial"",""time""
""fullscreenenter"",""0"",""1274""
","
","
","""event"",""trial"",""time""
""fullscreenenter"",""0"",""1274""
","
","null","run_exp/static/images/Set 6_rs/066b.jpg","null","","","","","","test","TL",""
"","html-keyboard-response","323","476925","0.0-253.0-2.0","""event"",""trial"",""time""
""fullscreenenter"",""0"",""1274""
","
","
","""event"",""trial"",""time""
""fullscreenenter"",""0"",""1274""
","
","null","<p></p>","null","","","","","","","",""
"","image","324","478102","0.0-254.0-0.0","""event"",""trial"",""time""
""fullscreenenter"",""0"",""1274""
","
","
","""event"",""trial"",""time""
""fullscreenenter"",""0"",""1274""
","
","1175.2000000476837","run_exp/static/images/Set 6_rs/036b.jpg","66","","","","","","test","TL","4"
"","show_choice","325","478616","0.0-254.0-1.0","""event"",""trial"",""time""
""fullscreenenter"",""0"",""1274""
","
","
","""event"",""trial"",""time""
""fullscreenenter"",""0"",""1274""
","
","null","run_exp/static/images/Set 6_rs/036b.jpg","null","","","","","","test","TL",""
"","html-keyboard-response","326","479122","0.0-254.0-2.0","""event"",""trial"",""time""
""fullscreenenter"",""0"",""1274""
","
","
","""event"",""trial"",""time""
""fullscreenenter"",""0"",""1274""
","
","null","<p></p>","null","","","","","","","",""
"","image","327","480061","0.0-255.0-0.0","""event"",""trial"",""time""
""fullscreenenter"",""0"",""1274""
","
","
","""event"",""trial"",""time""
""fullscreenenter"",""0"",""1274""
","
","935.0999999046326","run_exp/static/images/Set 6_rs/177a.jpg","86","","","","","","test","TR","5"
"","show_choice","328","480575","0.0-255.0-1.0","""event"",""trial"",""time""
""fullscreenenter"",""0"",""1274""
","
","
","""event"",""trial"",""time""
""fullscreenenter"",""0"",""1274""
","
","null","run_exp/static/images/Set 6_rs/177a.jpg","null","","","","","","test","TR",""
"","html-keyboard-response","329","481080","0.0-255.0-2.0","""event"",""trial"",""time""
""fullscreenenter"",""0"",""1274""
","
","
","""event"",""trial"",""time""
""fullscreenenter"",""0"",""1274""
","
","null","<p></p>","null","","","","","","","",""
"","image","330","481813","0.0-256.0-0.0","""event"",""trial"",""time""
""fullscreenenter"",""0"",""1274""
","
","
","""event"",""trial"",""time""
""fullscreenenter"",""0"",""1274""
","
","730.7000000476837","run_exp/static/images/Set 6_rs/155a.jpg","86","","","","","","test","TF","4"
"","show_choice","331","482323","0.0-256.0-1.0","""event"",""trial"",""time""
""fullscreenenter"",""0"",""1274""
","
","
","""event"",""trial"",""time""
""fullscreenenter"",""0"",""1274""
","
","null","run_exp/static/images/Set 6_rs/155a.jpg","null","","","","","","test","TF",""
"","html-keyboard-response","332","482825","0.0-256.0-2.0","""event"",""trial"",""time""
""fullscreenenter"",""0"",""1274""
","
","
","""event"",""trial"",""time""
""fullscreenenter"",""0"",""1274""
","
","null","<p></p>","null","","","","","","","",""
"","image","333","484029","0.0-257.0-0.0","""event"",""trial"",""time""
""fullscreenenter"",""0"",""1274""
","
","
","""event"",""trial"",""time""
""fullscreenenter"",""0"",""1274""
","
","1202.7999999523163","run_exp/static/images/Set 6_rs/065a.jpg","66","","","","","","test","TF","3"
"","show_choice","334","484540","0.0-257.0-1.0","""event"",""trial"",""time""
""fullscreenenter"",""0"",""1274""
","
","
","""event"",""trial"",""time""
""fullscreenenter"",""0"",""1274""
","
","null","run_exp/static/images/Set 6_rs/065a.jpg","null","","","","","","test","TF",""
"","html-keyboard-response","335","485048","0.0-257.0-2.0","""event"",""trial"",""time""
""fullscreenenter"",""0"",""1274""
","
","
","""event"",""trial"",""time""
""fullscreenenter"",""0"",""1274""
","
","null","<p></p>","null","","","","","","","",""
"","image","336","486157","0.0-258.0-0.0","""event"",""trial"",""time""
""fullscreenenter"",""0"",""1274""
","
","
","""event"",""trial"",""time""
""fullscreenenter"",""0"",""1274""
","
","1106.7000000476837","run_exp/static/images/Set 6_rs/186a.jpg","78","","","","","","test","TR","5"
"","show_choice","337","486674","0.0-258.0-1.0","""event"",""trial"",""time""
""fullscreenenter"",""0"",""1274""
","
","
","""event"",""trial"",""time""
""fullscreenenter"",""0"",""1274""
","
","null","run_exp/static/images/Set 6_rs/186a.jpg","null","","","","","","test","TR",""
"","html-keyboard-response","338","487177","0.0-258.0-2.0","""event"",""trial"",""time""
""fullscreenenter"",""0"",""1274""
","
","
","""event"",""trial"",""time""
""fullscreenenter"",""0"",""1274""
","
","null","<p></p>","null","","","","","","","",""
"","image","339","488333","0.0-259.0-0.0","""event"",""trial"",""time""
""fullscreenenter"",""0"",""1274""
","
","
","""event"",""trial"",""time""
""fullscreenenter"",""0"",""1274""
","
","1154.4000000953674","run_exp/static/images/Set 6_rs/015a.jpg","78","","","","","","test","TF","4"
"","show_choice","340","488842","0.0-259.0-1.0","""event"",""trial"",""time""
""fullscreenenter"",""0"",""1274""
","
","
","""event"",""trial"",""time""
""fullscreenenter"",""0"",""1274""
","
","null","run_exp/static/images/Set 6_rs/015a.jpg","null","","","","","","test","TF",""
