"success","trial_type","trial_index","time_elapsed","internal_node_id","interactions","blur_events","focus_events","fullscreenenter_events","fullscreenexit_events","rt","stimulus","key_press","subject_id","participant_id","age","gender","prompt","phase","condition","lure_bin"
"true","fullscreen","0","4095","0.0-0.0","""event"",""trial"",""time""
""fullscreenenter"",""0"",""3108""
","
","
","""event"",""trial"",""time""
""fullscreenenter"",""0"",""3108""
","
","","","","","","","","","","",""
"","pavlovia","1","4098","0.0-1.0","""event"",""trial"",""time""
""fullscreenenter"",""0"",""3108""
","
","
","""event"",""trial"",""time""
""fullscreenenter"",""0"",""3108""
","
","","","","","","","","","","",""
"","welcome","2","38850","0.0-2.0","""event"",""trial"",""time""
""fullscreenenter"",""0"",""3108""
","
","
","""event"",""trial"",""time""
""fullscreenenter"",""0"",""3108""
","
","null","run_exp/static/audio/clip_1_welcome.m4a","null","2481","1980","14","Male","<div class='center'><p>Welcome to the third part of the study! First, you'll be shown pictures of items one at a time. For each picture, you have to decide if the item is typically found indoors or outdoors.</p><p>If you think it's usually found indoors, then press <b>v</b> key on your keyboard. If you think it's usually found outdoors, then press the <b>n</b> key.There will be reminders on the screen to help you remember which keys to press. </p><p>If you're not sure whether the item is an indoor item or an outdoor item, go ahead and take a guess but try your best not to skip that choice. </p></div>","","",""
"","html-keyboard-response","3","48024","0.0-3.0","""event"",""trial"",""time""
""fullscreenenter"",""0"",""3108""
","
","
","""event"",""trial"",""time""
""fullscreenenter"",""0"",""3108""
","
","9172.900000000023","<div class='center'><p>Welcome to the third part of the study! First, you'll be shown pictures of items one at a time. For each picture, you have to decide if the item is typically found indoors or outdoors.</p><p>If you think it's usually found indoors, then press <b>v</b> key on your keyboard. If you think it's usually found outdoors, then press the <b>n</b> key.There will be reminders on the screen to help you remember which keys to press. </p><p>If you're not sure whether the item is an indoor item or an outdoor item, go ahead and take a guess but try your best not to skip that choice. </p><div><p><b>[Press the space bar to continue]</b></p></div>","32","","","","","","","",""
"","image","4","49249","0.0-4.0","""event"",""trial"",""time""
""fullscreenenter"",""0"",""3108""
","
","
","""event"",""trial"",""time""
""fullscreenenter"",""0"",""3108""
","
","1224","run_exp/static/images/Set 6_rs/088a.jpg","86","","","","","","learn","SR",""
"","show_choice","5","50030","0.0-5.0","""event"",""trial"",""time""
""fullscreenenter"",""0"",""3108""
","
","
","""event"",""trial"",""time""
""fullscreenenter"",""0"",""3108""
","
","null","run_exp/static/images/Set 6_rs/088a.jpg","null","","","","","","learn","SR",""
"","html-keyboard-response","6","50535","0.0-6.0","""event"",""trial"",""time""
""fullscreenenter"",""0"",""3108""
","
","
","""event"",""trial"",""time""
""fullscreenenter"",""0"",""3108""
","
","null","<p></p>","null","","","","","","","",""
"","image","7","52515","0.0-7.0","""event"",""trial"",""time""
""fullscreenenter"",""0"",""3108""
","
","
","""event"",""trial"",""time""
""fullscreenenter"",""0"",""3108""
","
","1979.5999999999767","run_exp/static/images/Set 6_rs/076a.jpg","78","","","","","","learn","SR",""
"","show_choice","8","52537","0.0-8.0","""event"",""trial"",""time""
""fullscreenenter"",""0"",""3108""
","
","
","""event"",""trial"",""time""
""fullscreenenter"",""0"",""3108""
","
","null","run_exp/static/images/Set 6_rs/076a.jpg","null","","","","","","learn","SR",""
"","html-keyboard-response","9","53041","0.0-9.0","""event"",""trial"",""time""
""fullscreenenter"",""0"",""3108""
","
","
","""event"",""trial"",""time""
""fullscreenenter"",""0"",""3108""
","
","null","<p></p>","null","","","","","","","",""
"","image","10","54264","0.0-10.0","""event"",""trial"",""time""
""fullscreenenter"",""0"",""3108""
","
","
","""event"",""trial"",""time""
""fullscreenenter"",""0"",""3108""
","
","1221.5","run_exp/static/images/Set 6_rs/075a.jpg","86","","","","","","learn","SR",""
"","show_choice","11","55045","0.0-11.0","""event"",""trial"",""time""
""fullscreenenter"",""0"",""3108""
","
","
","""event"",""trial"",""time""
""fullscreenenter"",""0"",""3108""
","
","null","run_exp/static/images/Set 6_rs/075a.jpg","null","","","","","","learn","SR",""
"","html-keyboard-response","12","55551","0.0-12.0","""event"",""trial"",""time""
""fullscreenenter"",""0"",""3108""
","
","
","""event"",""trial"",""time""
""fullscreenenter"",""0"",""3108""
","
","null","<p></p>","null","","","","","","","",""
"","image","13","56909","0.0-13.0","""event"",""trial"",""time""
""fullscreenenter"",""0"",""3108""
","
","
","""event"",""trial"",""time""
""fullscreenenter"",""0"",""3108""
","
","1357.2999999999884","run_exp/static/images/Set 6_rs/177a.jpg","78","","","","","","learn","SR",""
"","show_choice","14","57553","0.0-14.0","""event"",""trial"",""time""
""fullscreenenter"",""0"",""3108""
","
","
","""event"",""trial"",""time""
""fullscreenenter"",""0"",""3108""
","
","null","run_exp/static/images/Set 6_rs/177a.jpg","null","","","","","","learn","SR",""
"","html-keyboard-response","15","58058","0.0-15.0","""event"",""trial"",""time""
""fullscreenenter"",""0"",""3108""
","
","
","""event"",""trial"",""time""
""fullscreenenter"",""0"",""3108""
","
","null","<p></p>","null","","","","","","","",""
"","image","16","59059","0.0-16.0","""event"",""trial"",""time""
""fullscreenenter"",""0"",""3108""
","
","
","""event"",""trial"",""time""
""fullscreenenter"",""0"",""3108""
","
","1000.1000000000349","run_exp/static/images/Set 6_rs/123a.jpg","78","","","","","","learn","SL",""
"","show_choice","17","60063","0.0-17.0","""event"",""trial"",""time""
""fullscreenenter"",""0"",""3108""
","
","
","""event"",""trial"",""time""
""fullscreenenter"",""0"",""3108""
","
","null","run_exp/static/images/Set 6_rs/123a.jpg","null","","","","","","learn","SL",""
"","html-keyboard-response","18","60566","0.0-18.0","""event"",""trial"",""time""
""fullscreenenter"",""0"",""3108""
","
","
","""event"",""trial"",""time""
""fullscreenenter"",""0"",""3108""
","
","null","<p></p>","null","","","","","","","",""
"","image","19","61378","0.0-19.0","""event"",""trial"",""time""
""fullscreenenter"",""0"",""3108""
","
","
","""event"",""trial"",""time""
""fullscreenenter"",""0"",""3108""
","
","811","run_exp/static/images/Set 6_rs/150a.jpg","86","","","","","","learn","SR",""
"","show_choice","20","62569","0.0-20.0","""event"",""trial"",""time""
""fullscreenenter"",""0"",""3108""
","
","
","""event"",""trial"",""time""
""fullscreenenter"",""0"",""3108""
","
","null","run_exp/static/images/Set 6_rs/150a.jpg","null","","","","","","learn","SR",""
"","html-keyboard-response","21","63074","0.0-21.0","""event"",""trial"",""time""
""fullscreenenter"",""0"",""3108""
","
","
","""event"",""trial"",""time""
""fullscreenenter"",""0"",""3108""
","
","null","<p></p>","null","","","","","","","",""
"","image","22","63988","0.0-22.0","""event"",""trial"",""time""
""fullscreenenter"",""0"",""3108""
","
","
","""event"",""trial"",""time""
""fullscreenenter"",""0"",""3108""
","
","913","run_exp/static/images/Set 6_rs/089a.jpg","86","","","","","","learn","SL",""
"","show_choice","23","65076","0.0-23.0","""event"",""trial"",""time""
""fullscreenenter"",""0"",""3108""
","
","
","""event"",""trial"",""time""
""fullscreenenter"",""0"",""3108""
","
","null","run_exp/static/images/Set 6_rs/089a.jpg","null","","","","","","learn","SL",""
"","html-keyboard-response","24","65582","0.0-24.0","""event"",""trial"",""time""
""fullscreenenter"",""0"",""3108""
","
","
","""event"",""trial"",""time""
""fullscreenenter"",""0"",""3108""
","
","null","<p></p>","null","","","","","","","",""
"","image","25","66498","0.0-25.0","""event"",""trial"",""time""
""fullscreenenter"",""0"",""3108""
","
","
","""event"",""trial"",""time""
""fullscreenenter"",""0"",""3108""
","
","916.2000000000116","run_exp/static/images/Set 6_rs/074a.jpg","78","","","","","","learn","SL",""
"","show_choice","26","67585","0.0-26.0","""event"",""trial"",""time""
""fullscreenenter"",""0"",""3108""
","
","
","""event"",""trial"",""time""
""fullscreenenter"",""0"",""3108""
","
","null","run_exp/static/images/Set 6_rs/074a.jpg","null","","","","","","learn","SL",""
"","html-keyboard-response","27","68089","0.0-27.0","""event"",""trial"",""time""
""fullscreenenter"",""0"",""3108""
","
","
","""event"",""trial"",""time""
""fullscreenenter"",""0"",""3108""
","
","null","<p></p>","null","","","","","","","",""
"","image","28","69856","0.0-28.0","""event"",""trial"",""time""
""fullscreenenter"",""0"",""3108""
","
","
","""event"",""trial"",""time""
""fullscreenenter"",""0"",""3108""
","
","1765.8000000000466","run_exp/static/images/Set 6_rs/091a.jpg","78","","","","","","learn","SL",""
"","show_choice","29","70092","0.0-29.0","""event"",""trial"",""time""
""fullscreenenter"",""0"",""3108""
","
","
","""event"",""trial"",""time""
""fullscreenenter"",""0"",""3108""
","
","null","run_exp/static/images/Set 6_rs/091a.jpg","null","","","","","","learn","SL",""
"","html-keyboard-response","30","70597","0.0-30.0","""event"",""trial"",""time""
""fullscreenenter"",""0"",""3108""
","
","
","""event"",""trial"",""time""
""fullscreenenter"",""0"",""3108""
","
","null","<p></p>","null","","","","","","","",""
"","image","31","71670","0.0-31.0","""event"",""trial"",""time""
""fullscreenenter"",""0"",""3108""
","
","
","""event"",""trial"",""time""
""fullscreenenter"",""0"",""3108""
","
","1072.2999999999884","run_exp/static/images/Set 6_rs/062a.jpg","86","","","","","","learn","SL",""
"","show_choice","32","72599","0.0-32.0","""event"",""trial"",""time""
""fullscreenenter"",""0"",""3108""
","
","
","""event"",""trial"",""time""
""fullscreenenter"",""0"",""3108""
","
","null","run_exp/static/images/Set 6_rs/062a.jpg","null","","","","","","learn","SL",""
"","html-keyboard-response","33","73103","0.0-33.0","""event"",""trial"",""time""
""fullscreenenter"",""0"",""3108""
","
","
","""event"",""trial"",""time""
""fullscreenenter"",""0"",""3108""
","
","null","<p></p>","null","","","","","","","",""
"","image","34","74329","0.0-34.0","""event"",""trial"",""time""
""fullscreenenter"",""0"",""3108""
","
","
","""event"",""trial"",""time""
""fullscreenenter"",""0"",""3108""
","
","1225.0999999999767","run_exp/static/images/Set 6_rs/071a.jpg","78","","","","","","learn","SL",""
"","show_choice","35","75108","0.0-35.0","""event"",""trial"",""time""
""fullscreenenter"",""0"",""3108""
","
","
","""event"",""trial"",""time""
""fullscreenenter"",""0"",""3108""
","
","null","run_exp/static/images/Set 6_rs/071a.jpg","null","","","","","","learn","SL",""
"","html-keyboard-response","36","75613","0.0-36.0","""event"",""trial"",""time""
""fullscreenenter"",""0"",""3108""
","
","
","""event"",""trial"",""time""
""fullscreenenter"",""0"",""3108""
","
","null","<p></p>","null","","","","","","","",""
"","image","37","76746","0.0-37.0","""event"",""trial"",""time""
""fullscreenenter"",""0"",""3108""
","
","
","""event"",""trial"",""time""
""fullscreenenter"",""0"",""3108""
","
","1131.899999999965","run_exp/static/images/Set 6_rs/008a.jpg","78","","","","","","learn","SL",""
"","show_choice","38","77618","0.0-38.0","""event"",""trial"",""time""
""fullscreenenter"",""0"",""3108""
","
","
","""event"",""trial"",""time""
""fullscreenenter"",""0"",""3108""
","
","null","run_exp/static/images/Set 6_rs/008a.jpg","null","","","","","","learn","SL",""
"","html-keyboard-response","39","78120","0.0-39.0","""event"",""trial"",""time""
""fullscreenenter"",""0"",""3108""
","
","
","""event"",""trial"",""time""
""fullscreenenter"",""0"",""3108""
","
","null","<p></p>","null","","","","","","","",""
"","image","40","79692","0.0-40.0","""event"",""trial"",""time""
""fullscreenenter"",""0"",""3108""
","
","
","""event"",""trial"",""time""
""fullscreenenter"",""0"",""3108""
","
","1570.899999999965","run_exp/static/images/Set 6_rs/066a.jpg","78","","","","","","learn","SL",""
"","show_choice","41","80123","0.0-41.0","""event"",""trial"",""time""
""fullscreenenter"",""0"",""3108""
","
","
","""event"",""trial"",""time""
""fullscreenenter"",""0"",""3108""
","
","null","run_exp/static/images/Set 6_rs/066a.jpg","null","","","","","","learn","SL",""
"","html-keyboard-response","42","80628","0.0-42.0","""event"",""trial"",""time""
""fullscreenenter"",""0"",""3108""
","
","
","""event"",""trial"",""time""
""fullscreenenter"",""0"",""3108""
","
","null","<p></p>","null","","","","","","","",""
"","image","43","81649","0.0-43.0","""event"",""trial"",""time""
""fullscreenenter"",""0"",""3108""
","
","
","""event"",""trial"",""time""
""fullscreenenter"",""0"",""3108""
","
","1020.5999999999767","run_exp/static/images/Set 6_rs/131a.jpg","86","","","","","","learn","SR",""
"","show_choice","44","82631","0.0-44.0","""event"",""trial"",""time""
""fullscreenenter"",""0"",""3108""
","
","
","""event"",""trial"",""time""
""fullscreenenter"",""0"",""3108""
","
","null","run_exp/static/images/Set 6_rs/131a.jpg","null","","","","","","learn","SR",""
"","html-keyboard-response","45","83136","0.0-45.0","""event"",""trial"",""time""
""fullscreenenter"",""0"",""3108""
","
","
","""event"",""trial"",""time""
""fullscreenenter"",""0"",""3108""
","
","null","<p></p>","null","","","","","","","",""
"","image","46","84569","0.0-46.0","""event"",""trial"",""time""
""fullscreenenter"",""0"",""3108""
","
","
","""event"",""trial"",""time""
""fullscreenenter"",""0"",""3108""
","
","1432.4000000000233","run_exp/static/images/Set 6_rs/108a.jpg","86","","","","","","learn","SR",""
"","show_choice","47","85139","0.0-47.0","""event"",""trial"",""time""
""fullscreenenter"",""0"",""3108""
","
","
","""event"",""trial"",""time""
""fullscreenenter"",""0"",""3108""
","
","null","run_exp/static/images/Set 6_rs/108a.jpg","null","","","","","","learn","SR",""
"","html-keyboard-response","48","85644","0.0-48.0","""event"",""trial"",""time""
""fullscreenenter"",""0"",""3108""
","
","
","""event"",""trial"",""time""
""fullscreenenter"",""0"",""3108""
","
","null","<p></p>","null","","","","","","","",""
"","image","49","86337","0.0-49.0","""event"",""trial"",""time""
""fullscreenenter"",""0"",""3108""
","
","
","""event"",""trial"",""time""
""fullscreenenter"",""0"",""3108""
","
","692.5","run_exp/static/images/Set 6_rs/064a.jpg","86","","","","","","learn","SR",""
"","show_choice","50","87647","0.0-50.0","""event"",""trial"",""time""
""fullscreenenter"",""0"",""3108""
","
","
","""event"",""trial"",""time""
""fullscreenenter"",""0"",""3108""
","
","null","run_exp/static/images/Set 6_rs/064a.jpg","null","","","","","","learn","SR",""
"","html-keyboard-response","51","88151","0.0-51.0","""event"",""trial"",""time""
""fullscreenenter"",""0"",""3108""
","
","
","""event"",""trial"",""time""
""fullscreenenter"",""0"",""3108""
","
","null","<p></p>","null","","","","","","","",""
"","image","52","89205","0.0-52.0","""event"",""trial"",""time""
""fullscreenenter"",""0"",""3108""
","
","
","""event"",""trial"",""time""
""fullscreenenter"",""0"",""3108""
","
","1052.600000000035","run_exp/static/images/Set 6_rs/016a.jpg","86","","","","","","learn","SL",""
"","show_choice","53","90154","0.0-53.0","""event"",""trial"",""time""
""fullscreenenter"",""0"",""3108""
","
","
","""event"",""trial"",""time""
""fullscreenenter"",""0"",""3108""
","
","null","run_exp/static/images/Set 6_rs/016a.jpg","null","","","","","","learn","SL",""
"","html-keyboard-response","54","90659","0.0-54.0","""event"",""trial"",""time""
""fullscreenenter"",""0"",""3108""
","
","
","""event"",""trial"",""time""
""fullscreenenter"",""0"",""3108""
","
","null","<p></p>","null","","","","","","","",""
"","image","55","92156","0.0-55.0","""event"",""trial"",""time""
""fullscreenenter"",""0"",""3108""
","
","
","""event"",""trial"",""time""
""fullscreenenter"",""0"",""3108""
","
","1495.7999999999884","run_exp/static/images/Set 6_rs/055a.jpg","78","","","","","","learn","SL",""
"","show_choice","56","92661","0.0-56.0","""event"",""trial"",""time""
""fullscreenenter"",""0"",""3108""
","
","
","""event"",""trial"",""time""
""fullscreenenter"",""0"",""3108""
","
","null","run_exp/static/images/Set 6_rs/055a.jpg","null","","","","","","learn","SL",""
"","html-keyboard-response","57","93162","0.0-57.0","""event"",""trial"",""time""
""fullscreenenter"",""0"",""3108""
","
","
","""event"",""trial"",""time""
""fullscreenenter"",""0"",""3108""
","
","null","<p></p>","null","","","","","","","",""
"","image","58","94688","0.0-58.0","""event"",""trial"",""time""
""fullscreenenter"",""0"",""3108""
","
","
","""event"",""trial"",""time""
""fullscreenenter"",""0"",""3108""
","
","1525.7999999999884","run_exp/static/images/Set 6_rs/045a.jpg","86","","","","","","learn","SR",""
"","show_choice","59","95164","0.0-59.0","""event"",""trial"",""time""
""fullscreenenter"",""0"",""3108""
","
","
","""event"",""trial"",""time""
""fullscreenenter"",""0"",""3108""
","
","null","run_exp/static/images/Set 6_rs/045a.jpg","null","","","","","","learn","SR",""
"","html-keyboard-response","60","95669","0.0-60.0","""event"",""trial"",""time""
""fullscreenenter"",""0"",""3108""
","
","
","""event"",""trial"",""time""
""fullscreenenter"",""0"",""3108""
","
","null","<p></p>","null","","","","","","","",""
"","image","61","96880","0.0-61.0","""event"",""trial"",""time""
""fullscreenenter"",""0"",""3108""
","
","
","""event"",""trial"",""time""
""fullscreenenter"",""0"",""3108""
","
","1210.5","run_exp/static/images/Set 6_rs/063a.jpg","86","","","","","","learn","SR",""
"","show_choice","62","97672","0.0-62.0","""event"",""trial"",""time""
""fullscreenenter"",""0"",""3108""
","
","
","""event"",""trial"",""time""
""fullscreenenter"",""0"",""3108""
","
","null","run_exp/static/images/Set 6_rs/063a.jpg","null","","","","","","learn","SR",""
"","html-keyboard-response","63","98176","0.0-63.0","""event"",""trial"",""time""
""fullscreenenter"",""0"",""3108""
","
","
","""event"",""trial"",""time""
""fullscreenenter"",""0"",""3108""
","
","null","<p></p>","null","","","","","","","",""
"","image","64","98807","0.0-64.0","""event"",""trial"",""time""
""fullscreenenter"",""0"",""3108""
","
","
","""event"",""trial"",""time""
""fullscreenenter"",""0"",""3108""
","
","629.7999999999884","run_exp/static/images/Set 6_rs/187a.jpg","86","","","","","","learn","SR",""
"","show_choice","65","100179","0.0-65.0","""event"",""trial"",""time""
""fullscreenenter"",""0"",""3108""
","
","
","""event"",""trial"",""time""
""fullscreenenter"",""0"",""3108""
","
","null","run_exp/static/images/Set 6_rs/187a.jpg","null","","","","","","learn","SR",""
"","html-keyboard-response","66","100684","0.0-66.0","""event"",""trial"",""time""
""fullscreenenter"",""0"",""3108""
","
","
","""event"",""trial"",""time""
""fullscreenenter"",""0"",""3108""
","
","null","<p></p>","null","","","","","","","",""
"","image","67","101726","0.0-67.0","""event"",""trial"",""time""
""fullscreenenter"",""0"",""3108""
","
","
","""event"",""trial"",""time""
""fullscreenenter"",""0"",""3108""
","
","1040.6999999999534","run_exp/static/images/Set 6_rs/181a.jpg","78","","","","","","learn","SL",""
"","show_choice","68","102687","0.0-68.0","""event"",""trial"",""time""
""fullscreenenter"",""0"",""3108""
","
","
","""event"",""trial"",""time""
""fullscreenenter"",""0"",""3108""
","
","null","run_exp/static/images/Set 6_rs/181a.jpg","null","","","","","","learn","SL",""
"","html-keyboard-response","69","103192","0.0-69.0","""event"",""trial"",""time""
""fullscreenenter"",""0"",""3108""
","
","
","""event"",""trial"",""time""
""fullscreenenter"",""0"",""3108""
","
","null","<p></p>","null","","","","","","","",""
"","image","70","104150","0.0-70.0","""event"",""trial"",""time""
""fullscreenenter"",""0"",""3108""
","
","
","""event"",""trial"",""time""
""fullscreenenter"",""0"",""3108""
","
","956.5","run_exp/static/images/Set 6_rs/036a.jpg","86","","","","","","learn","SL",""
"","show_choice","71","105194","0.0-71.0","""event"",""trial"",""time""
""fullscreenenter"",""0"",""3108""
","
","
","""event"",""trial"",""time""
""fullscreenenter"",""0"",""3108""
","
","null","run_exp/static/images/Set 6_rs/036a.jpg","null","","","","","","learn","SL",""
"","html-keyboard-response","72","105700","0.0-72.0","""event"",""trial"",""time""
""fullscreenenter"",""0"",""3108""
","
","
","""event"",""trial"",""time""
""fullscreenenter"",""0"",""3108""
","
","null","<p></p>","null","","","","","","","",""
"","image","73","106932","0.0-73.0","""event"",""trial"",""time""
""fullscreenenter"",""0"",""3108""
","
","
","""event"",""trial"",""time""
""fullscreenenter"",""0"",""3108""
","
","1230.7000000000116","run_exp/static/images/Set 6_rs/132a.jpg","78","","","","","","learn","SR",""
"","show_choice","74","107703","0.0-74.0","""event"",""trial"",""time""
""fullscreenenter"",""0"",""3108""
","
","
","""event"",""trial"",""time""
""fullscreenenter"",""0"",""3108""
","
","null","run_exp/static/images/Set 6_rs/132a.jpg","null","","","","","","learn","SR",""
"","html-keyboard-response","75","108208","0.0-75.0","""event"",""trial"",""time""
""fullscreenenter"",""0"",""3108""
","
","
","""event"",""trial"",""time""
""fullscreenenter"",""0"",""3108""
","
","null","<p></p>","null","","","","","","","",""
"","image","76","109583","0.0-76.0","""event"",""trial"",""time""
""fullscreenenter"",""0"",""3108""
","
","
","""event"",""trial"",""time""
""fullscreenenter"",""0"",""3108""
","
","1374.5","run_exp/static/images/Set 6_rs/014a.jpg","86","","","","","","learn","SL",""
"","show_choice","77","110211","0.0-77.0","""event"",""trial"",""time""
""fullscreenenter"",""0"",""3108""
","
","
","""event"",""trial"",""time""
""fullscreenenter"",""0"",""3108""
","
","null","run_exp/static/images/Set 6_rs/014a.jpg","null","","","","","","learn","SL",""
"","html-keyboard-response","78","110715","0.0-78.0","""event"",""trial"",""time""
""fullscreenenter"",""0"",""3108""
","
","
","""event"",""trial"",""time""
""fullscreenenter"",""0"",""3108""
","
","null","<p></p>","null","","","","","","","",""
"","image","79","112225","0.0-79.0","""event"",""trial"",""time""
""fullscreenenter"",""0"",""3108""
","
","
","""event"",""trial"",""time""
""fullscreenenter"",""0"",""3108""
","
","1509.7999999999884","run_exp/static/images/Set 6_rs/167a.jpg","86","","","","","","learn","SL",""
"","show_choice","80","112720","0.0-80.0","""event"",""trial"",""time""
""fullscreenenter"",""0"",""3108""
","
","
","""event"",""trial"",""time""
""fullscreenenter"",""0"",""3108""
","
","null","run_exp/static/images/Set 6_rs/167a.jpg","null","","","","","","learn","SL",""
"","html-keyboard-response","81","113223","0.0-81.0","""event"",""trial"",""time""
""fullscreenenter"",""0"",""3108""
","
","
","""event"",""trial"",""time""
""fullscreenenter"",""0"",""3108""
","
","null","<p></p>","null","","","","","","","",""
"","image","82","114460","0.0-82.0","""event"",""trial"",""time""
""fullscreenenter"",""0"",""3108""
","
","
","""event"",""trial"",""time""
""fullscreenenter"",""0"",""3108""
","
","1236.5","run_exp/static/images/Set 6_rs/152a.jpg","78","","","","","","learn","SR",""
"","show_choice","83","115226","0.0-83.0","""event"",""trial"",""time""
""fullscreenenter"",""0"",""3108""
","
","
","""event"",""trial"",""time""
""fullscreenenter"",""0"",""3108""
","
","null","run_exp/static/images/Set 6_rs/152a.jpg","null","","","","","","learn","SR",""
"","html-keyboard-response","84","115731","0.0-84.0","""event"",""trial"",""time""
""fullscreenenter"",""0"",""3108""
","
","
","""event"",""trial"",""time""
""fullscreenenter"",""0"",""3108""
","
","null","<p></p>","null","","","","","","","",""
"","image","85","116828","0.0-85.0","""event"",""trial"",""time""
""fullscreenenter"",""0"",""3108""
","
","
","""event"",""trial"",""time""
""fullscreenenter"",""0"",""3108""
","
","1095.9000000000233","run_exp/static/images/Set 6_rs/116a.jpg","86","","","","","","learn","SL",""
"","show_choice","86","117733","0.0-86.0","""event"",""trial"",""time""
""fullscreenenter"",""0"",""3108""
","
","
","""event"",""trial"",""time""
""fullscreenenter"",""0"",""3108""
","
","null","run_exp/static/images/Set 6_rs/116a.jpg","null","","","","","","learn","SL",""
"","html-keyboard-response","87","118233","0.0-87.0","""event"",""trial"",""time""
""fullscreenenter"",""0"",""3108""
","
","
","""event"",""trial"",""time""
""fullscreenenter"",""0"",""3108""
","
","null","<p></p>","null","","","","","","","",""
"","image","88","119611","0.0-88.0","""event"",""trial"",""time""
""fullscreenenter"",""0"",""3108""
","
","
","""event"",""trial"",""time""
""fullscreenenter"",""0"",""3108""
","
","1376.7999999999884","run_exp/static/images/Set 6_rs/050a.jpg","86","","","","","","learn","SL",""
"","show_choice","89","120235","0.0-89.0","""event"",""trial"",""time""
""fullscreenenter"",""0"",""3108""
","
","
","""event"",""trial"",""time""
""fullscreenenter"",""0"",""3108""
","
","null","run_exp/static/images/Set 6_rs/050a.jpg","null","","","","","","learn","SL",""
"","html-keyboard-response","90","120741","0.0-90.0","""event"",""trial"",""time""
""fullscreenenter"",""0"",""3108""
","
","
","""event"",""trial"",""time""
""fullscreenenter"",""0"",""3108""
","
","null","<p></p>","null","","","","","","","",""
"","image","91","121722","0.0-91.0","""event"",""trial"",""time""
""fullscreenenter"",""0"",""3108""
","
","
","""event"",""trial"",""time""
""fullscreenenter"",""0"",""3108""
","
","980.3999999999651","run_exp/static/images/Set 6_rs/095a.jpg","86","","","","","","learn","SL",""
"","show_choice","92","122743","0.0-92.0","""event"",""trial"",""time""
""fullscreenenter"",""0"",""3108""
","
","
","""event"",""trial"",""time""
""fullscreenenter"",""0"",""3108""
","
","null","run_exp/static/images/Set 6_rs/095a.jpg","null","","","","","","learn","SL",""
"","html-keyboard-response","93","123248","0.0-93.0","""event"",""trial"",""time""
""fullscreenenter"",""0"",""3108""
","
","
","""event"",""trial"",""time""
""fullscreenenter"",""0"",""3108""
","
","null","<p></p>","null","","","","","","","",""
"","image","94","124242","0.0-94.0","""event"",""trial"",""time""
""fullscreenenter"",""0"",""3108""
","
","
","""event"",""trial"",""time""
""fullscreenenter"",""0"",""3108""
","
","993.7999999999884","run_exp/static/images/Set 6_rs/023a.jpg","86","","","","","","learn","SR",""
"","show_choice","95","125251","0.0-95.0","""event"",""trial"",""time""
""fullscreenenter"",""0"",""3108""
","
","
","""event"",""trial"",""time""
""fullscreenenter"",""0"",""3108""
","
","null","run_exp/static/images/Set 6_rs/023a.jpg","null","","","","","","learn","SR",""
"","html-keyboard-response","96","125756","0.0-96.0","""event"",""trial"",""time""
""fullscreenenter"",""0"",""3108""
","
","
","""event"",""trial"",""time""
""fullscreenenter"",""0"",""3108""
","
","null","<p></p>","null","","","","","","","",""
"","image","97","126448","0.0-97.0","""event"",""trial"",""time""
""fullscreenenter"",""0"",""3108""
","
","
","""event"",""trial"",""time""
""fullscreenenter"",""0"",""3108""
","
","691.1999999999534","run_exp/static/images/Set 6_rs/006a.jpg","86","","","","","","learn","SL",""
"","show_choice","98","127759","0.0-98.0","""event"",""trial"",""time""
""fullscreenenter"",""0"",""3108""
","
","
","""event"",""trial"",""time""
""fullscreenenter"",""0"",""3108""
","
","null","run_exp/static/images/Set 6_rs/006a.jpg","null","","","","","","learn","SL",""
"","html-keyboard-response","99","128264","0.0-99.0","""event"",""trial"",""time""
""fullscreenenter"",""0"",""3108""
","
","
","""event"",""trial"",""time""
""fullscreenenter"",""0"",""3108""
","
","null","<p></p>","null","","","","","","","",""
"","image","100","129020","0.0-100.0","""event"",""trial"",""time""
""fullscreenenter"",""0"",""3108""
","
","
","""event"",""trial"",""time""
""fullscreenenter"",""0"",""3108""
","
","754.3999999999651","run_exp/static/images/Set 6_rs/121a.jpg","86","","","","","","learn","SR",""
"","show_choice","101","130266","0.0-101.0","""event"",""trial"",""time""
""fullscreenenter"",""0"",""3108""
","
","
","""event"",""trial"",""time""
""fullscreenenter"",""0"",""3108""
","
","null","run_exp/static/images/Set 6_rs/121a.jpg","null","","","","","","learn","SR",""
"","html-keyboard-response","102","130771","0.0-102.0","""event"",""trial"",""time""
""fullscreenenter"",""0"",""3108""
","
","
","""event"",""trial"",""time""
""fullscreenenter"",""0"",""3108""
","
","null","<p></p>","null","","","","","","","",""
"","image","103","131663","0.0-103.0","""event"",""trial"",""time""
""fullscreenenter"",""0"",""3108""
","
","
","""event"",""trial"",""time""
""fullscreenenter"",""0"",""3108""
","
","890.8000000000466","run_exp/static/images/Set 6_rs/057a.jpg","86","","","","","","learn","SL",""
"","show_choice","104","132774","0.0-104.0","""event"",""trial"",""time""
""fullscreenenter"",""0"",""3108""
","
","
","""event"",""trial"",""time""
""fullscreenenter"",""0"",""3108""
","
","null","run_exp/static/images/Set 6_rs/057a.jpg","null","","","","","","learn","SL",""
"","html-keyboard-response","105","133279","0.0-105.0","""event"",""trial"",""time""
""fullscreenenter"",""0"",""3108""
","
","
","""event"",""trial"",""time""
""fullscreenenter"",""0"",""3108""
","
","null","<p></p>","null","","","","","","","",""
"","image","106","134045","0.0-106.0","""event"",""trial"",""time""
""fullscreenenter"",""0"",""3108""
","
","
","""event"",""trial"",""time""
""fullscreenenter"",""0"",""3108""
","
","764.5","run_exp/static/images/Set 6_rs/079a.jpg","86","","","","","","learn","SL",""
"","show_choice","107","135282","0.0-107.0","""event"",""trial"",""time""
""fullscreenenter"",""0"",""3108""
","
","
","""event"",""trial"",""time""
""fullscreenenter"",""0"",""3108""
","
","null","run_exp/static/images/Set 6_rs/079a.jpg","null","","","","","","learn","SL",""
"","html-keyboard-response","108","135782","0.0-108.0","""event"",""trial"",""time""
""fullscreenenter"",""0"",""3108""
","
","
","""event"",""trial"",""time""
""fullscreenenter"",""0"",""3108""
","
","null","<p></p>","null","","","","","","","",""
"","image","109","136556","0.0-109.0","""event"",""trial"",""time""
""fullscreenenter"",""0"",""3108""
","
","
","""event"",""trial"",""time""
""fullscreenenter"",""0"",""3108""
","
","772.8000000000466","run_exp/static/images/Set 6_rs/024a.jpg","86","","","","","","learn","SR",""
"","show_choice","110","137784","0.0-110.0","""event"",""trial"",""time""
""fullscreenenter"",""0"",""3108""
","
","
","""event"",""trial"",""time""
""fullscreenenter"",""0"",""3108""
","
","null","run_exp/static/images/Set 6_rs/024a.jpg","null","","","","","","learn","SR",""
"","html-keyboard-response","111","138289","0.0-111.0","""event"",""trial"",""time""
""fullscreenenter"",""0"",""3108""
","
","
","""event"",""trial"",""time""
""fullscreenenter"",""0"",""3108""
","
","null","<p></p>","null","","","","","","","",""
"","image","112","139179","0.0-112.0","""event"",""trial"",""time""
""fullscreenenter"",""0"",""3108""
","
","
","""event"",""trial"",""time""
""fullscreenenter"",""0"",""3108""
","
","890.1999999999534","run_exp/static/images/Set 6_rs/172a.jpg","78","","","","","","learn","SR",""
"","show_choice","113","140292","0.0-113.0","""event"",""trial"",""time""
""fullscreenenter"",""0"",""3108""
","
","
","""event"",""trial"",""time""
""fullscreenenter"",""0"",""3108""
","
","null","run_exp/static/images/Set 6_rs/172a.jpg","null","","","","","","learn","SR",""
"","html-keyboard-response","114","140796","0.0-114.0","""event"",""trial"",""time""
""fullscreenenter"",""0"",""3108""
","
","
","""event"",""trial"",""time""
""fullscreenenter"",""0"",""3108""
","
","null","<p></p>","null","","","","","","","",""
"","image","115","142124","0.0-115.0","""event"",""trial"",""time""
""fullscreenenter"",""0"",""3108""
","
","
","""event"",""trial"",""time""
""fullscreenenter"",""0"",""3108""
","
","1327.6999999999534","run_exp/static/images/Set 6_rs/117a.jpg","86","","","","","","learn","SL",""
"","show_choice","116","142799","0.0-116.0","""event"",""trial"",""time""
""fullscreenenter"",""0"",""3108""
","
","
","""event"",""trial"",""time""
""fullscreenenter"",""0"",""3108""
","
","null","run_exp/static/images/Set 6_rs/117a.jpg","null","","","","","","learn","SL",""
"","html-keyboard-response","117","143304","0.0-117.0","""event"",""trial"",""time""
""fullscreenenter"",""0"",""3108""
","
","
","""event"",""trial"",""time""
""fullscreenenter"",""0"",""3108""
","
","null","<p></p>","null","","","","","","","",""
"","image","118","144139","0.0-118.0","""event"",""trial"",""time""
""fullscreenenter"",""0"",""3108""
","
","
","""event"",""trial"",""time""
""fullscreenenter"",""0"",""3108""
","
","833.8999999999651","run_exp/static/images/Set 6_rs/126a.jpg","86","","","","","","learn","SR",""
"","show_choice","119","145307","0.0-119.0","""event"",""trial"",""time""
""fullscreenenter"",""0"",""3108""
","
","
","""event"",""trial"",""time""
""fullscreenenter"",""0"",""3108""
","
","null","run_exp/static/images/Set 6_rs/126a.jpg","null","","","","","","learn","SR",""
"","html-keyboard-response","120","145812","0.0-120.0","""event"",""trial"",""time""
""fullscreenenter"",""0"",""3108""
","
","
","""event"",""trial"",""time""
""fullscreenenter"",""0"",""3108""
","
","null","<p></p>","null","","","","","","","",""
"","image","121","147497","0.0-121.0","""event"",""trial"",""time""
""fullscreenenter"",""0"",""3108""
","
","
","""event"",""trial"",""time""
""fullscreenenter"",""0"",""3108""
","
","1684.6999999999534","run_exp/static/images/Set 6_rs/166a.jpg","86","","","","","","learn","SR",""
"","show_choice","122","147815","0.0-122.0","""event"",""trial"",""time""
""fullscreenenter"",""0"",""3108""
","
","
","""event"",""trial"",""time""
""fullscreenenter"",""0"",""3108""
","
","null","run_exp/static/images/Set 6_rs/166a.jpg","null","","","","","","learn","SR",""
"","html-keyboard-response","123","148320","0.0-123.0","""event"",""trial"",""time""
""fullscreenenter"",""0"",""3108""
","
","
","""event"",""trial"",""time""
""fullscreenenter"",""0"",""3108""
","
","null","<p></p>","null","","","","","","","",""
"","image","124","149192","0.0-124.0","""event"",""trial"",""time""
""fullscreenenter"",""0"",""3108""
","
","
","""event"",""trial"",""time""
""fullscreenenter"",""0"",""3108""
","
","871.7999999999884","run_exp/static/images/Set 6_rs/112a.jpg","86","","","","","","learn","SR",""
"","show_choice","125","150323","0.0-125.0","""event"",""trial"",""time""
""fullscreenenter"",""0"",""3108""
","
","
","""event"",""trial"",""time""
""fullscreenenter"",""0"",""3108""
","
","null","run_exp/static/images/Set 6_rs/112a.jpg","null","","","","","","learn","SR",""
"","html-keyboard-response","126","150827","0.0-126.0","""event"",""trial"",""time""
""fullscreenenter"",""0"",""3108""
","
","
","""event"",""trial"",""time""
""fullscreenenter"",""0"",""3108""
","
","null","<p></p>","null","","","","","","","",""
"","image","127","151966","0.0-127.0","""event"",""trial"",""time""
""fullscreenenter"",""0"",""3108""
","
","
","""event"",""trial"",""time""
""fullscreenenter"",""0"",""3108""
","
","1138.399999999965","run_exp/static/images/Set 6_rs/017a.jpg","86","","","","","","learn","SL",""
"","show_choice","128","152831","0.0-128.0","""event"",""trial"",""time""
""fullscreenenter"",""0"",""3108""
","
","
","""event"",""trial"",""time""
""fullscreenenter"",""0"",""3108""
","
","null","run_exp/static/images/Set 6_rs/017a.jpg","null","","","","","","learn","SL",""
"","html-keyboard-response","129","153335","0.0-129.0","""event"",""trial"",""time""
""fullscreenenter"",""0"",""3108""
","
","
","""event"",""trial"",""time""
""fullscreenenter"",""0"",""3108""
","
","null","<p></p>","null","","","","","","","",""
"","image","130","154636","0.0-130.0","""event"",""trial"",""time""
""fullscreenenter"",""0"",""3108""
","
","
","""event"",""trial"",""time""
""fullscreenenter"",""0"",""3108""
","
","1300.3000000000466","run_exp/static/images/Set 6_rs/134a.jpg","86","","","","","","learn","SR",""
"","show_choice","131","155338","0.0-131.0","""event"",""trial"",""time""
""fullscreenenter"",""0"",""3108""
","
","
","""event"",""trial"",""time""
""fullscreenenter"",""0"",""3108""
","
","null","run_exp/static/images/Set 6_rs/134a.jpg","null","","","","","","learn","SR",""
"","html-keyboard-response","132","155843","0.0-132.0","""event"",""trial"",""time""
""fullscreenenter"",""0"",""3108""
","
","
","""event"",""trial"",""time""
""fullscreenenter"",""0"",""3108""
","
","null","<p></p>","null","","","","","","","",""
"","image","133","156570","0.0-133.0","""event"",""trial"",""time""
""fullscreenenter"",""0"",""3108""
","
","
","""event"",""trial"",""time""
""fullscreenenter"",""0"",""3108""
","
","726","run_exp/static/images/Set 6_rs/019a.jpg","86","","","","","","learn","SL",""
"","show_choice","134","157846","0.0-134.0","""event"",""trial"",""time""
""fullscreenenter"",""0"",""3108""
","
","
","""event"",""trial"",""time""
""fullscreenenter"",""0"",""3108""
","
","null","run_exp/static/images/Set 6_rs/019a.jpg","null","","","","","","learn","SL",""
"","html-keyboard-response","135","158346","0.0-135.0","""event"",""trial"",""time""
""fullscreenenter"",""0"",""3108""
","
","
","""event"",""trial"",""time""
""fullscreenenter"",""0"",""3108""
","
","null","<p></p>","null","","","","","","","",""
"","image","136","159493","0.0-136.0","""event"",""trial"",""time""
""fullscreenenter"",""0"",""3108""
","
","
","""event"",""trial"",""time""
""fullscreenenter"",""0"",""3108""
","
","1146.5","run_exp/static/images/Set 6_rs/061a.jpg","78","","","","","","learn","SR",""
"","show_choice","137","160350","0.0-137.0","""event"",""trial"",""time""
""fullscreenenter"",""0"",""3108""
","
","
","""event"",""trial"",""time""
""fullscreenenter"",""0"",""3108""
","
","null","run_exp/static/images/Set 6_rs/061a.jpg","null","","","","","","learn","SR",""
"","html-keyboard-response","138","160852","0.0-138.0","""event"",""trial"",""time""
""fullscreenenter"",""0"",""3108""
","
","
","""event"",""trial"",""time""
""fullscreenenter"",""0"",""3108""
","
","null","<p></p>","null","","","","","","","",""
"","image","139","161552","0.0-139.0","""event"",""trial"",""time""
""fullscreenenter"",""0"",""3108""
","
","
","""event"",""trial"",""time""
""fullscreenenter"",""0"",""3108""
","
","699.4000000000233","run_exp/static/images/Set 6_rs/186a.jpg","86","","","","","","learn","SR",""
"","show_choice","140","162855","0.0-140.0","""event"",""trial"",""time""
""fullscreenenter"",""0"",""3108""
","
","
","""event"",""trial"",""time""
""fullscreenenter"",""0"",""3108""
","
","null","run_exp/static/images/Set 6_rs/186a.jpg","null","","","","","","learn","SR",""
"","html-keyboard-response","141","163359","0.0-141.0","""event"",""trial"",""time""
""fullscreenenter"",""0"",""3108""
","
","
","""event"",""trial"",""time""
""fullscreenenter"",""0"",""3108""
","
","null","<p></p>","null","","","","","","","",""
"","image","142","163976","0.0-142.0","""event"",""trial"",""time""
""fullscreenenter"",""0"",""3108""
","
","
","""event"",""trial"",""time""
""fullscreenenter"",""0"",""3108""
","
","616.5","run_exp/static/images/Set 6_rs/073a.jpg","86","","","","","","learn","SL",""
"","show_choice","143","165363","0.0-143.0","""event"",""trial"",""time""
""fullscreenenter"",""0"",""3108""
","
","
","""event"",""trial"",""time""
""fullscreenenter"",""0"",""3108""
","
","null","run_exp/static/images/Set 6_rs/073a.jpg","null","","","","","","learn","SL",""
"","html-keyboard-response","144","165868","0.0-144.0","""event"",""trial"",""time""
""fullscreenenter"",""0"",""3108""
","
","
","""event"",""trial"",""time""
""fullscreenenter"",""0"",""3108""
","
","null","<p></p>","null","","","","","","","",""
"","image","145","166544","0.0-145.0","""event"",""trial"",""time""
""fullscreenenter"",""0"",""3108""
","
","
","""event"",""trial"",""time""
""fullscreenenter"",""0"",""3108""
","
","674.5","run_exp/static/images/Set 6_rs/191a.jpg","78","","","","","","learn","SL",""
"","show_choice","146","167871","0.0-146.0","""event"",""trial"",""time""
""fullscreenenter"",""0"",""3108""
","
","
","""event"",""trial"",""time""
""fullscreenenter"",""0"",""3108""
","
","null","run_exp/static/images/Set 6_rs/191a.jpg","null","","","","","","learn","SL",""
"","html-keyboard-response","147","168376","0.0-147.0","""event"",""trial"",""time""
""fullscreenenter"",""0"",""3108""
","
","
","""event"",""trial"",""time""
""fullscreenenter"",""0"",""3108""
","
","null","<p></p>","null","","","","","","","",""
"","image","148","169162","0.0-148.0","""event"",""trial"",""time""
""fullscreenenter"",""0"",""3108""
","
","
","""event"",""trial"",""time""
""fullscreenenter"",""0"",""3108""
","
","785.2000000000116","run_exp/static/images/Set 6_rs/007a.jpg","86","","","","","","learn","SR",""
"","show_choice","149","170379","0.0-149.0","""event"",""trial"",""time""
""fullscreenenter"",""0"",""3108""
","
","
","""event"",""trial"",""time""
""fullscreenenter"",""0"",""3108""
","
","null","run_exp/static/images/Set 6_rs/007a.jpg","null","","","","","","learn","SR",""
"","html-keyboard-response","150","170884","0.0-150.0","""event"",""trial"",""time""
""fullscreenenter"",""0"",""3108""
","
","
","""event"",""trial"",""time""
""fullscreenenter"",""0"",""3108""
","
","null","<p></p>","null","","","","","","","",""
"","image","151","171917","0.0-151.0","""event"",""trial"",""time""
""fullscreenenter"",""0"",""3108""
","
","
","""event"",""trial"",""time""
""fullscreenenter"",""0"",""3108""
","
","1031.7999999999884","run_exp/static/images/Set 6_rs/111a.jpg","86","","","","","","learn","SL",""
"","show_choice","152","172887","0.0-152.0","""event"",""trial"",""time""
""fullscreenenter"",""0"",""3108""
","
","
","""event"",""trial"",""time""
""fullscreenenter"",""0"",""3108""
","
","null","run_exp/static/images/Set 6_rs/111a.jpg","null","","","","","","learn","SL",""
"","html-keyboard-response","153","173392","0.0-153.0","""event"",""trial"",""time""
""fullscreenenter"",""0"",""3108""
","
","
","""event"",""trial"",""time""
""fullscreenenter"",""0"",""3108""
","
","null","<p></p>","null","","","","","","","",""
"","image","154","174541","0.0-154.0","""event"",""trial"",""time""
""fullscreenenter"",""0"",""3108""
","
","
","""event"",""trial"",""time""
""fullscreenenter"",""0"",""3108""
","
","1148.0999999999767","run_exp/static/images/Set 6_rs/144a.jpg","86","","","","","","learn","SL",""
"","show_choice","155","175395","0.0-155.0","""event"",""trial"",""time""
""fullscreenenter"",""0"",""3108""
","
","
","""event"",""trial"",""time""
""fullscreenenter"",""0"",""3108""
","
","null","run_exp/static/images/Set 6_rs/144a.jpg","null","","","","","","learn","SL",""
"","html-keyboard-response","156","175899","0.0-156.0","""event"",""trial"",""time""
""fullscreenenter"",""0"",""3108""
","
","
","""event"",""trial"",""time""
""fullscreenenter"",""0"",""3108""
","
","null","<p></p>","null","","","","","","","",""
"","image","157","177335","0.0-157.0","""event"",""trial"",""time""
""fullscreenenter"",""0"",""3108""
","
","
","""event"",""trial"",""time""
""fullscreenenter"",""0"",""3108""
","
","1434.899999999965","run_exp/static/images/Set 6_rs/012a.jpg","86","","","","","","learn","SR",""
"","show_choice","158","177902","0.0-158.0","""event"",""trial"",""time""
""fullscreenenter"",""0"",""3108""
","
","
","""event"",""trial"",""time""
""fullscreenenter"",""0"",""3108""
","
","null","run_exp/static/images/Set 6_rs/012a.jpg","null","","","","","","learn","SR",""
"","html-keyboard-response","159","178403","0.0-159.0","""event"",""trial"",""time""
""fullscreenenter"",""0"",""3108""
","
","
","""event"",""trial"",""time""
""fullscreenenter"",""0"",""3108""
","
","null","<p></p>","null","","","","","","","",""
"","image","160","179081","0.0-160.0","""event"",""trial"",""time""
""fullscreenenter"",""0"",""3108""
","
","
","""event"",""trial"",""time""
""fullscreenenter"",""0"",""3108""
","
","677.0999999999767","run_exp/static/images/Set 6_rs/070a.jpg","86","","","","","","learn","SR",""
"","show_choice","161","180404","0.0-161.0","""event"",""trial"",""time""
""fullscreenenter"",""0"",""3108""
","
","
","""event"",""trial"",""time""
""fullscreenenter"",""0"",""3108""
","
","null","run_exp/static/images/Set 6_rs/070a.jpg","null","","","","","","learn","SR",""
"","html-keyboard-response","162","180909","0.0-162.0","""event"",""trial"",""time""
""fullscreenenter"",""0"",""3108""
","
","
","""event"",""trial"",""time""
""fullscreenenter"",""0"",""3108""
","
","null","<p></p>","null","","","","","","","",""
"","image","163","181543","0.0-163.0","""event"",""trial"",""time""
""fullscreenenter"",""0"",""3108""
","
","
","""event"",""trial"",""time""
""fullscreenenter"",""0"",""3108""
","
","632.7000000000116","run_exp/static/images/Set 6_rs/141a.jpg","78","","","","","","learn","SR",""
"","show_choice","164","182911","0.0-164.0","""event"",""trial"",""time""
""fullscreenenter"",""0"",""3108""
","
","
","""event"",""trial"",""time""
""fullscreenenter"",""0"",""3108""
","
","null","run_exp/static/images/Set 6_rs/141a.jpg","null","","","","","","learn","SR",""
"","html-keyboard-response","165","183412","0.0-165.0","""event"",""trial"",""time""
""fullscreenenter"",""0"",""3108""
","
","
","""event"",""trial"",""time""
""fullscreenenter"",""0"",""3108""
","
","null","<p></p>","null","","","","","","","",""
"","image","166","184218","0.0-166.0","""event"",""trial"",""time""
""fullscreenenter"",""0"",""3108""
","
","
","""event"",""trial"",""time""
""fullscreenenter"",""0"",""3108""
","
","805.3999999999651","run_exp/static/images/Set 6_rs/085a.jpg","86","","","","","","learn","SL",""
"","show_choice","167","185414","0.0-167.0","""event"",""trial"",""time""
""fullscreenenter"",""0"",""3108""
","
","
","""event"",""trial"",""time""
""fullscreenenter"",""0"",""3108""
","
","null","run_exp/static/images/Set 6_rs/085a.jpg","null","","","","","","learn","SL",""
"","html-keyboard-response","168","185918","0.0-168.0","""event"",""trial"",""time""
""fullscreenenter"",""0"",""3108""
","
","
","""event"",""trial"",""time""
""fullscreenenter"",""0"",""3108""
","
","null","<p></p>","null","","","","","","","",""
"","image","169","187308","0.0-169.0","""event"",""trial"",""time""
""fullscreenenter"",""0"",""3108""
","
","
","""event"",""trial"",""time""
""fullscreenenter"",""0"",""3108""
","
","1389.3000000000466","run_exp/static/images/Set 6_rs/010a.jpg","86","","","","","","learn","SR",""
"","show_choice","170","187921","0.0-170.0","""event"",""trial"",""time""
""fullscreenenter"",""0"",""3108""
","
","
","""event"",""trial"",""time""
""fullscreenenter"",""0"",""3108""
","
","null","run_exp/static/images/Set 6_rs/010a.jpg","null","","","","","","learn","SR",""
"","html-keyboard-response","171","188426","0.0-171.0","""event"",""trial"",""time""
""fullscreenenter"",""0"",""3108""
","
","
","""event"",""trial"",""time""
""fullscreenenter"",""0"",""3108""
","
","null","<p></p>","null","","","","","","","",""
"","image","172","189756","0.0-172.0","""event"",""trial"",""time""
""fullscreenenter"",""0"",""3108""
","
","
","""event"",""trial"",""time""
""fullscreenenter"",""0"",""3108""
","
","1329.7000000000116","run_exp/static/images/Set 6_rs/122a.jpg","86","","","","","","learn","SR",""
"","show_choice","173","190429","0.0-173.0","""event"",""trial"",""time""
""fullscreenenter"",""0"",""3108""
","
","
","""event"",""trial"",""time""
""fullscreenenter"",""0"",""3108""
","
","null","run_exp/static/images/Set 6_rs/122a.jpg","null","","","","","","learn","SR",""
"","html-keyboard-response","174","190929","0.0-174.0","""event"",""trial"",""time""
""fullscreenenter"",""0"",""3108""
","
","
","""event"",""trial"",""time""
""fullscreenenter"",""0"",""3108""
","
","null","<p></p>","null","","","","","","","",""
"","image","175","191889","0.0-175.0","""event"",""trial"",""time""
""fullscreenenter"",""0"",""3108""
","
","
","""event"",""trial"",""time""
""fullscreenenter"",""0"",""3108""
","
","958.7000000000116","run_exp/static/images/Set 6_rs/138a.jpg","78","","","","","","learn","SL",""
"","show_choice","176","192931","0.0-176.0","""event"",""trial"",""time""
""fullscreenenter"",""0"",""3108""
","
","
","""event"",""trial"",""time""
""fullscreenenter"",""0"",""3108""
","
","null","run_exp/static/images/Set 6_rs/138a.jpg","null","","","","","","learn","SL",""
"","html-keyboard-response","177","193436","0.0-177.0","""event"",""trial"",""time""
""fullscreenenter"",""0"",""3108""
","
","
","""event"",""trial"",""time""
""fullscreenenter"",""0"",""3108""
","
","null","<p></p>","null","","","","","","","",""
"","image","178","194131","0.0-178.0","""event"",""trial"",""time""
""fullscreenenter"",""0"",""3108""
","
","
","""event"",""trial"",""time""
""fullscreenenter"",""0"",""3108""
","
","695.0999999999767","run_exp/static/images/Set 6_rs/154a.jpg","86","","","","","","learn","SR",""
"","show_choice","179","195439","0.0-179.0","""event"",""trial"",""time""
""fullscreenenter"",""0"",""3108""
","
","
","""event"",""trial"",""time""
""fullscreenenter"",""0"",""3108""
","
","null","run_exp/static/images/Set 6_rs/154a.jpg","null","","","","","","learn","SR",""
"","html-keyboard-response","180","195944","0.0-180.0","""event"",""trial"",""time""
""fullscreenenter"",""0"",""3108""
","
","
","""event"",""trial"",""time""
""fullscreenenter"",""0"",""3108""
","
","null","<p></p>","null","","","","","","","",""
"","image","181","197113","0.0-181.0","""event"",""trial"",""time""
""fullscreenenter"",""0"",""3108""
","
","
","""event"",""trial"",""time""
""fullscreenenter"",""0"",""3108""
","
","1168.2999999999302","run_exp/static/images/Set 6_rs/169a.jpg","78","","","","","","learn","SR",""
"","show_choice","182","197946","0.0-182.0","""event"",""trial"",""time""
""fullscreenenter"",""0"",""3108""
","
","
","""event"",""trial"",""time""
""fullscreenenter"",""0"",""3108""
","
","null","run_exp/static/images/Set 6_rs/169a.jpg","null","","","","","","learn","SR",""
"","html-keyboard-response","183","198447","0.0-183.0","""event"",""trial"",""time""
""fullscreenenter"",""0"",""3108""
","
","
","""event"",""trial"",""time""
""fullscreenenter"",""0"",""3108""
","
","null","<p></p>","null","","","","","","","",""
"","image","184","199644","0.0-184.0","""event"",""trial"",""time""
""fullscreenenter"",""0"",""3108""
","
","
","""event"",""trial"",""time""
""fullscreenenter"",""0"",""3108""
","
","1196.2999999999302","run_exp/static/images/Set 6_rs/129a.jpg","86","","","","","","learn","SL",""
"","show_choice","185","200448","0.0-185.0","""event"",""trial"",""time""
""fullscreenenter"",""0"",""3108""
","
","
","""event"",""trial"",""time""
""fullscreenenter"",""0"",""3108""
","
","null","run_exp/static/images/Set 6_rs/129a.jpg","null","","","","","","learn","SL",""
"","html-keyboard-response","186","200954","0.0-186.0","""event"",""trial"",""time""
""fullscreenenter"",""0"",""3108""
","
","
","""event"",""trial"",""time""
""fullscreenenter"",""0"",""3108""
","
","null","<p></p>","null","","","","","","","",""
"","image","187","202126","0.0-187.0","""event"",""trial"",""time""
""fullscreenenter"",""0"",""3108""
","
","
","""event"",""trial"",""time""
""fullscreenenter"",""0"",""3108""
","
","1171","run_exp/static/images/Set 6_rs/025a.jpg","78","","","","","","learn","SL",""
"","show_choice","188","202956","0.0-188.0","""event"",""trial"",""time""
""fullscreenenter"",""0"",""3108""
","
","
","""event"",""trial"",""time""
""fullscreenenter"",""0"",""3108""
","
","null","run_exp/static/images/Set 6_rs/025a.jpg","null","","","","","","learn","SL",""
"","html-keyboard-response","189","203462","0.0-189.0","""event"",""trial"",""time""
""fullscreenenter"",""0"",""3108""
","
","
","""event"",""trial"",""time""
""fullscreenenter"",""0"",""3108""
","
","null","<p></p>","null","","","","","","","",""
"","image","190","204307","0.0-190.0","""event"",""trial"",""time""
""fullscreenenter"",""0"",""3108""
","
","
","""event"",""trial"",""time""
""fullscreenenter"",""0"",""3108""
","
","844.4000000000233","run_exp/static/images/Set 6_rs/178a.jpg","78","","","","","","learn","SR",""
"","show_choice","191","205464","0.0-191.0","""event"",""trial"",""time""
""fullscreenenter"",""0"",""3108""
","
","
","""event"",""trial"",""time""
""fullscreenenter"",""0"",""3108""
","
","null","run_exp/static/images/Set 6_rs/178a.jpg","null","","","","","","learn","SR",""
"","html-keyboard-response","192","205970","0.0-192.0","""event"",""trial"",""time""
""fullscreenenter"",""0"",""3108""
","
","
","""event"",""trial"",""time""
""fullscreenenter"",""0"",""3108""
","
","null","<p></p>","null","","","","","","","",""
"","image","193","207973","0.0-193.0","""event"",""trial"",""time""
""fullscreenenter"",""0"",""3108""
","
","
","""event"",""trial"",""time""
""fullscreenenter"",""0"",""3108""
","
","null","run_exp/static/images/Set 6_rs/168a.jpg","null","","","","","","learn","SL",""
"","show_choice","194","209974","0.0-194.0","""event"",""trial"",""time""
""fullscreenenter"",""0"",""3108""
","
","
","""event"",""trial"",""time""
""fullscreenenter"",""0"",""3108""
","
","null","run_exp/static/images/blank.png","null","","","","","","learn","SL",""
"","html-keyboard-response","195","210475","0.0-195.0","""event"",""trial"",""time""
""fullscreenenter"",""0"",""3108""
","
","
","""event"",""trial"",""time""
""fullscreenenter"",""0"",""3108""
","
","null","<p></p>","null","","","","","","","",""
"","test_intro","196","247506","0.0-196.0","""event"",""trial"",""time""
""fullscreenenter"",""0"",""3108""
","
","
","""event"",""trial"",""time""
""fullscreenenter"",""0"",""3108""
","
","null","run_exp/static/audio/clip_2_memory.m4a","null","","","","","<div class='center'><p>Now, lets see how much you remember about the items you just saw.  For each item, you need to indicate if it was <b>old</b> by pressing the <b>v</b> key, <b>similar</b> by pressing the <b>b</b> key, or <b>new</b> by pressing the <b>n</b> key.</p><p>Old refers to an item that you saw before in the indoor/outdoor game that you just played, new refers to an item you have <b>not</b> seen before within the indoor/outdoor game, and similar refers to an item that is similar to an item youve seen before but is not exactly the same. </p><p>Before we begin, lets go over some brief demonstrations to make sure you understand.</p></div>","","",""
"","html-keyboard-response","197","251583","0.0-197.0","""event"",""trial"",""time""
""fullscreenenter"",""0"",""3108""
","
","
","""event"",""trial"",""time""
""fullscreenenter"",""0"",""3108""
","
","4076.0999999999767","<div class='center'><p>Now, lets see how much you remember about the items you just saw.  For each item, you need to indicate if it was <b>old</b> by pressing the <b>v</b> key, <b>similar</b> by pressing the <b>b</b> key, or <b>new</b> by pressing the <b>n</b> key.</p><p>Old refers to an item that you saw before in the indoor/outdoor game that you just played, new refers to an item you have <b>not</b> seen before within the indoor/outdoor game, and similar refers to an item that is similar to an item youve seen before but is not exactly the same. </p><p>Before we begin, lets go over some brief demonstrations to make sure you understand.</p><div><p><b>[Press the space bar to continue]</b></p></div>","32","","","","","","","",""
"","items","198","259085","0.0-198.0","""event"",""trial"",""time""
""fullscreenenter"",""0"",""3108""
","
","
","""event"",""trial"",""time""
""fullscreenenter"",""0"",""3108""
","
","null","run_exp/static/audio/clip_3_items.m4a","null","","","","","","","",""
"","mop","199","263587","0.0-199.0","""event"",""trial"",""time""
""fullscreenenter"",""0"",""3108""
","
","
","""event"",""trial"",""time""
""fullscreenenter"",""0"",""3108""
","
","null","run_exp/static/audio/clip_4_mop.m4a","null","","","","","","","",""
"","baseball","200","267088","0.0-200.0","""event"",""trial"",""time""
""fullscreenenter"",""0"",""3108""
","
","
","""event"",""trial"",""time""
""fullscreenenter"",""0"",""3108""
","
","null","run_exp/static/audio/clip_5_baseball.m4a","null","","","","","","","",""
"","trumpet","201","270591","0.0-201.0","""event"",""trial"",""time""
""fullscreenenter"",""0"",""3108""
","
","
","""event"",""trial"",""time""
""fullscreenenter"",""0"",""3108""
","
","null","run_exp/static/audio/clip_6_trumpet.m4a","null","","","","","","","",""
"","gummies","202","274093","0.0-202.0","""event"",""trial"",""time""
""fullscreenenter"",""0"",""3108""
","
","
","""event"",""trial"",""time""
""fullscreenenter"",""0"",""3108""
","
","null","run_exp/static/audio/clip_7_gummies.m4a","null","","","","","","","",""
"","osn","203","278595","0.0-203.0","""event"",""trial"",""time""
""fullscreenenter"",""0"",""3108""
","
","
","""event"",""trial"",""time""
""fullscreenenter"",""0"",""3108""
","
","null","run_exp/static/audio/clip_8_osn.m4a","null","","","","","","","",""
"","old_1","204","285097","0.0-204.0","""event"",""trial"",""time""
""fullscreenenter"",""0"",""3108""
","
","
","""event"",""trial"",""time""
""fullscreenenter"",""0"",""3108""
","
","null","run_exp/static/audio/clip_9_old_trumpet.m4a","null","","","","","","","",""
"","new_1","205","292599","0.0-205.0","""event"",""trial"",""time""
""fullscreenenter"",""0"",""3108""
","
","
","""event"",""trial"",""time""
""fullscreenenter"",""0"",""3108""
","
","null","run_exp/static/audio/clip_10_new_balloon.m4a","null","","","","","","","",""
"","similar_1a","206","297101","0.0-206.0","""event"",""trial"",""time""
""fullscreenenter"",""0"",""3108""
","
","
","""event"",""trial"",""time""
""fullscreenenter"",""0"",""3108""
","
","null","run_exp/static/audio/clip_11a_similar_mop.m4a","null","","","","","","","",""
"","similar_1b","207","303603","0.0-207.0","""event"",""trial"",""time""
""fullscreenenter"",""0"",""3108""
","
","
","""event"",""trial"",""time""
""fullscreenenter"",""0"",""3108""
","
","null","run_exp/static/audio/clip_11b_similar_mop.m4a","null","","","","","","","",""
"","new_2","208","307105","0.0-208.0","""event"",""trial"",""time""
""fullscreenenter"",""0"",""3108""
","
","
","""event"",""trial"",""time""
""fullscreenenter"",""0"",""3108""
","
","null","run_exp/static/audio/clip_12_new_stoplight.m4a","null","","","","","","","",""
"","old_2","209","310610","0.0-209.0","""event"",""trial"",""time""
""fullscreenenter"",""0"",""3108""
","
","
","""event"",""trial"",""time""
""fullscreenenter"",""0"",""3108""
","
","null","run_exp/static/audio/clip_13_old_baseball.m4a","null","","","","","","","",""
"","similar_2a","210","314115","0.0-210.0","""event"",""trial"",""time""
""fullscreenenter"",""0"",""3108""
","
","
","""event"",""trial"",""time""
""fullscreenenter"",""0"",""3108""
","
","null","run_exp/static/audio/clip_14a_similar_gummies.m4a","null","","","","","","","",""
"","similar_2b","211","321616","0.0-211.0","""event"",""trial"",""time""
""fullscreenenter"",""0"",""3108""
","
","
","""event"",""trial"",""time""
""fullscreenenter"",""0"",""3108""
","
","null","run_exp/static/audio/clip_14b_similar_gummies.m4a","null","","","","","","","",""
"","practice","212","363722","0.0-212.0","""event"",""trial"",""time""
""fullscreenenter"",""0"",""3108""
","
","
","""event"",""trial"",""time""
""fullscreenenter"",""0"",""3108""
","
","null","run_exp/static/audio/clip_15_practice.m4a","null","","","","","<div class='center'><p>Lets practice a little to make sure you understand the difference between new, similar, and old. Lets say you saw these three items in the indoor/outdoor game.</p><p> Try your best to remember these images because youll soon be tested on them in a practice game. In the practice game, youll be shown images and youll have to say if they are old (one of the three images belows), similar (similar to one of the images below but not exactly the same), or new (are not one of the images below nor similar to them).</p><p>Once you press the space bar youll be shown these images again but one at time. Then youll begin the practice game.</p><p><img src='run_exp/static/images/tutorial/test/three_indoor_outdoor.png' height='300'></p></div>","","",""
"","html-keyboard-response","213","369171","0.0-213.0","""event"",""trial"",""time""
""fullscreenenter"",""0"",""3108""
","
","
","""event"",""trial"",""time""
""fullscreenenter"",""0"",""3108""
","
","5447.199999999953","<div class='center'><p>Lets practice a little to make sure you understand the difference between new, similar, and old. Lets say you saw these three items in the indoor/outdoor game.</p><p> Try your best to remember these images because youll soon be tested on them in a practice game. In the practice game, youll be shown images and youll have to say if they are old (one of the three images belows), similar (similar to one of the images below but not exactly the same), or new (are not one of the images below nor similar to them).</p><p>Once you press the space bar youll be shown these images again but one at time. Then youll begin the practice game.</p><p><img src='run_exp/static/images/tutorial/test/three_indoor_outdoor.png' height='300'></p><div><p><b>[Press the space bar to continue]</b></p></div>","32","","","","","","","",""
"","planet","214","371173","0.0-214.0","""event"",""trial"",""time""
""fullscreenenter"",""0"",""3108""
","
","
","""event"",""trial"",""time""
""fullscreenenter"",""0"",""3108""
","
","null","run_exp/static/images/tutorial/test/008a.jpg","null","","","","","","","",""
"","boot","215","373176","0.0-215.0","""event"",""trial"",""time""
""fullscreenenter"",""0"",""3108""
","
","
","""event"",""trial"",""time""
""fullscreenenter"",""0"",""3108""
","
","null","run_exp/static/images/tutorial/test/011a.jpg","null","","","","","","","",""
"","lemon","216","375181","0.0-216.0","""event"",""trial"",""time""
""fullscreenenter"",""0"",""3108""
","
","
","""event"",""trial"",""time""
""fullscreenenter"",""0"",""3108""
","
","null","run_exp/static/images/tutorial/test/018a.jpg","null","","","","","","","",""
"","practice_q1","217","380195","0.0-217.0","""event"",""trial"",""time""
""fullscreenenter"",""0"",""3108""
","
","
","""event"",""trial"",""time""
""fullscreenenter"",""0"",""3108""
","
","5012.699999999953","run_exp/static/audio/clip_16_practice_question.m4a","78","","","","","","","",""
"","correct","218","382075","0.0-218.0-0.0","""event"",""trial"",""time""
""fullscreenenter"",""0"",""3108""
","
","
","""event"",""trial"",""time""
""fullscreenenter"",""0"",""3108""
","
","null","run_exp/static/audio/clip_17_correct.m4a","null","","","","","<div class='center'><p>That's correct!</p></div>","","",""
"","html-keyboard-response","219","383216","0.0-218.0-1.0","""event"",""trial"",""time""
""fullscreenenter"",""0"",""3108""
","
","
","""event"",""trial"",""time""
""fullscreenenter"",""0"",""3108""
","
","1140.0999999999767","<div class='center'><p>That's correct!</p><div><p><b>[Press the space bar to continue]</b></p></div>","32","","","","","","","",""
"","practice_q2","220","385468","0.0-218.0-2.0","""event"",""trial"",""time""
""fullscreenenter"",""0"",""3108""
","
","
","""event"",""trial"",""time""
""fullscreenenter"",""0"",""3108""
","
","2251.5","run_exp/static/audio/clip_16_practice_question.m4a","86","","","","","","","",""
"","correct","221","387346","0.0-219.0-0.0","""event"",""trial"",""time""
""fullscreenenter"",""0"",""3108""
","
","
","""event"",""trial"",""time""
""fullscreenenter"",""0"",""3108""
","
","null","run_exp/static/audio/clip_17_correct.m4a","null","","","","","<div class='center'><p>That's correct!</p></div>","","",""
"","html-keyboard-response","222","387980","0.0-219.0-1.0","""event"",""trial"",""time""
""fullscreenenter"",""0"",""3108""
","
","
","""event"",""trial"",""time""
""fullscreenenter"",""0"",""3108""
","
","633.4000000000233","<div class='center'><p>That's correct!</p><div><p><b>[Press the space bar to continue]</b></p></div>","32","","","","","","","",""
"","practice_q3","223","389076","0.0-219.0-2.0","""event"",""trial"",""time""
""fullscreenenter"",""0"",""3108""
","
","
","""event"",""trial"",""time""
""fullscreenenter"",""0"",""3108""
","
","1095.2000000000698","run_exp/static/audio/clip_16_practice_question.m4a","66","","","","","","","",""
"","correct","224","391084","0.0-220.0-0.0","""event"",""trial"",""time""
""fullscreenenter"",""0"",""3108""
","
","
","""event"",""trial"",""time""
""fullscreenenter"",""0"",""3108""
","
","null","run_exp/static/audio/clip_17_correct.m4a","null","","","","","<div class='center'><p>That's correct!</p></div>","","",""
"","html-keyboard-response","225","391983","0.0-220.0-1.0","""event"",""trial"",""time""
""fullscreenenter"",""0"",""3108""
","
","
","""event"",""trial"",""time""
""fullscreenenter"",""0"",""3108""
","
","897.5","<div class='center'><p>That's correct!</p><div><p><b>[Press the space bar to continue]</b></p></div>","32","","","","","","","",""
"","begin_text","226","410451","0.0-221.0-0.0","""event"",""trial"",""time""
""fullscreenenter"",""0"",""3108""
","
","
","""event"",""trial"",""time""
""fullscreenenter"",""0"",""3108""
","
","null","run_exp/static/audio/clip_22_begin_test.m4a","null","","","","","<div class='center'><p>On to the real game where well test your memory of items from the indoor/outdoor game. For each item, you need to indicate if the item is <b>old</b> by pressing the <b>v</b> key, <b>similar</b> by pressing the <b>b</b> key, or <b>new</b> by pressing the <b>n</b> key. </p></div>","","",""
"","html-keyboard-response","227","411151","0.0-221.0-1.0","""event"",""trial"",""time""
""fullscreenenter"",""0"",""3108""
","
","
","""event"",""trial"",""time""
""fullscreenenter"",""0"",""3108""
","
","699.9000000000233","<div class='center'><p>On to the real game where well test your memory of items from the indoor/outdoor game. For each item, you need to indicate if the item is <b>old</b> by pressing the <b>v</b> key, <b>similar</b> by pressing the <b>b</b> key, or <b>new</b> by pressing the <b>n</b> key. </p><div><p><b>[Press the space bar to continue]</b></p></div>","32","","","","","","","",""
"","image","228","412361","0.0-222.0-0.0","""event"",""trial"",""time""
""fullscreenenter"",""0"",""3108""
","
","
","""event"",""trial"",""time""
""fullscreenenter"",""0"",""3108""
","
","1208.5","run_exp/static/images/Set 6_rs/140a.jpg","86","","","","","","test","TF","1"
"","show_choice","229","412865","0.0-222.0-1.0","""event"",""trial"",""time""
""fullscreenenter"",""0"",""3108""
","
","
","""event"",""trial"",""time""
""fullscreenenter"",""0"",""3108""
","
","null","run_exp/static/images/Set 6_rs/140a.jpg","null","","","","","","test","TF",""
"","html-keyboard-response","230","413370","0.0-222.0-2.0","""event"",""trial"",""time""
""fullscreenenter"",""0"",""3108""
","
","
","""event"",""trial"",""time""
""fullscreenenter"",""0"",""3108""
","
","null","<p></p>","null","","","","","","","",""
"","image","231","414563","0.0-223.0-0.0","""event"",""trial"",""time""
""fullscreenenter"",""0"",""3108""
","
","
","""event"",""trial"",""time""
""fullscreenenter"",""0"",""3108""
","
","1191.2999999999302","run_exp/static/images/Set 6_rs/129b.jpg","66","","","","","","test","TL","1"
"","show_choice","232","415067","0.0-223.0-1.0","""event"",""trial"",""time""
""fullscreenenter"",""0"",""3108""
","
","
","""event"",""trial"",""time""
""fullscreenenter"",""0"",""3108""
","
","null","run_exp/static/images/Set 6_rs/129b.jpg","null","","","","","","test","TL",""
"","html-keyboard-response","233","415569","0.0-223.0-2.0","""event"",""trial"",""time""
""fullscreenenter"",""0"",""3108""
","
","
","""event"",""trial"",""time""
""fullscreenenter"",""0"",""3108""
","
","null","<p></p>","null","","","","","","","",""
"","image","234","417103","0.0-224.0-0.0","""event"",""trial"",""time""
""fullscreenenter"",""0"",""3108""
","
","
","""event"",""trial"",""time""
""fullscreenenter"",""0"",""3108""
","
","1532.5","run_exp/static/images/Set 6_rs/012a.jpg","86","","","","","","test","TR","1"
"","show_choice","235","417608","0.0-224.0-1.0","""event"",""trial"",""time""
""fullscreenenter"",""0"",""3108""
","
","
","""event"",""trial"",""time""
""fullscreenenter"",""0"",""3108""
","
","null","run_exp/static/images/Set 6_rs/012a.jpg","null","","","","","","test","TR",""
"","html-keyboard-response","236","418113","0.0-224.0-2.0","""event"",""trial"",""time""
""fullscreenenter"",""0"",""3108""
","
","
","""event"",""trial"",""time""
""fullscreenenter"",""0"",""3108""
","
","null","<p></p>","null","","","","","","","",""
"","image","237","419028","0.0-225.0-0.0","""event"",""trial"",""time""
""fullscreenenter"",""0"",""3108""
","
","
","""event"",""trial"",""time""
""fullscreenenter"",""0"",""3108""
","
","914","run_exp/static/images/Set 6_rs/007a.jpg","86","","","","","","test","TR","3"
"","show_choice","238","419529","0.0-225.0-1.0","""event"",""trial"",""time""
""fullscreenenter"",""0"",""3108""
","
","
","""event"",""trial"",""time""
""fullscreenenter"",""0"",""3108""
","
","null","run_exp/static/images/Set 6_rs/007a.jpg","null","","","","","","test","TR",""
"","html-keyboard-response","239","420035","0.0-225.0-2.0","""event"",""trial"",""time""
""fullscreenenter"",""0"",""3108""
","
","
","""event"",""trial"",""time""
""fullscreenenter"",""0"",""3108""
","
","null","<p></p>","null","","","","","","","",""
"","image","240","420950","0.0-226.0-0.0","""event"",""trial"",""time""
""fullscreenenter"",""0"",""3108""
","
","
","""event"",""trial"",""time""
""fullscreenenter"",""0"",""3108""
","
","915","run_exp/static/images/Set 6_rs/152a.jpg","86","","","","","","test","TR","2"
"","show_choice","241","421451","0.0-226.0-1.0","""event"",""trial"",""time""
""fullscreenenter"",""0"",""3108""
","
","
","""event"",""trial"",""time""
""fullscreenenter"",""0"",""3108""
","
","null","run_exp/static/images/Set 6_rs/152a.jpg","null","","","","","","test","TR",""
"","html-keyboard-response","242","421956","0.0-226.0-2.0","""event"",""trial"",""time""
""fullscreenenter"",""0"",""3108""
","
","
","""event"",""trial"",""time""
""fullscreenenter"",""0"",""3108""
","
","null","<p></p>","null","","","","","","","",""
"","image","243","422715","0.0-227.0-0.0","""event"",""trial"",""time""
""fullscreenenter"",""0"",""3108""
","
","
","""event"",""trial"",""time""
""fullscreenenter"",""0"",""3108""
","
","758.4000000000233","run_exp/static/images/Set 6_rs/019b.jpg","86","","","","","","test","TL","2"
"","show_choice","244","423216","0.0-227.0-1.0","""event"",""trial"",""time""
""fullscreenenter"",""0"",""3108""
","
","
","""event"",""trial"",""time""
""fullscreenenter"",""0"",""3108""
","
","null","run_exp/static/images/Set 6_rs/019b.jpg","null","","","","","","test","TL",""
"","html-keyboard-response","245","423721","0.0-227.0-2.0","""event"",""trial"",""time""
""fullscreenenter"",""0"",""3108""
","
","
","""event"",""trial"",""time""
""fullscreenenter"",""0"",""3108""
","
","null","<p></p>","null","","","","","","","",""
"","image","246","424795","0.0-228.0-0.0","""event"",""trial"",""time""
""fullscreenenter"",""0"",""3108""
","
","
","""event"",""trial"",""time""
""fullscreenenter"",""0"",""3108""
","
","1073.0999999999767","run_exp/static/images/Set 6_rs/036b.jpg","66","","","","","","test","TL","4"
"","show_choice","247","425299","0.0-228.0-1.0","""event"",""trial"",""time""
""fullscreenenter"",""0"",""3108""
","
","
","""event"",""trial"",""time""
""fullscreenenter"",""0"",""3108""
","
","null","run_exp/static/images/Set 6_rs/036b.jpg","null","","","","","","test","TL",""
"","html-keyboard-response","248","425804","0.0-228.0-2.0","""event"",""trial"",""time""
""fullscreenenter"",""0"",""3108""
","
","
","""event"",""trial"",""time""
""fullscreenenter"",""0"",""3108""
","
","null","<p></p>","null","","","","","","","",""
"","image","249","427228","0.0-229.0-0.0","""event"",""trial"",""time""
""fullscreenenter"",""0"",""3108""
","
","
","""event"",""trial"",""time""
""fullscreenenter"",""0"",""3108""
","
","1423","run_exp/static/images/Set 6_rs/111b.jpg","86","","","","","","test","TL","3"
"","show_choice","250","427731","0.0-229.0-1.0","""event"",""trial"",""time""
""fullscreenenter"",""0"",""3108""
","
","
","""event"",""trial"",""time""
""fullscreenenter"",""0"",""3108""
","
","null","run_exp/static/images/Set 6_rs/111b.jpg","null","","","","","","test","TL",""
"","html-keyboard-response","251","428237","0.0-229.0-2.0","""event"",""trial"",""time""
""fullscreenenter"",""0"",""3108""
","
","
","""event"",""trial"",""time""
""fullscreenenter"",""0"",""3108""
","
","null","<p></p>","null","","","","","","","",""
"","image","252","430144","0.0-230.0-0.0","""event"",""trial"",""time""
""fullscreenenter"",""0"",""3108""
","
","
","""event"",""trial"",""time""
""fullscreenenter"",""0"",""3108""
","
","1906.2999999999302","run_exp/static/images/Set 6_rs/001a.jpg","78","","","","","","test","TF","1"
"","show_choice","253","430646","0.0-230.0-1.0","""event"",""trial"",""time""
""fullscreenenter"",""0"",""3108""
","
","
","""event"",""trial"",""time""
""fullscreenenter"",""0"",""3108""
","
","null","run_exp/static/images/Set 6_rs/001a.jpg","null","","","","","","test","TF",""
"","html-keyboard-response","254","431148","0.0-230.0-2.0","""event"",""trial"",""time""
""fullscreenenter"",""0"",""3108""
","
","
","""event"",""trial"",""time""
""fullscreenenter"",""0"",""3108""
","
","null","<p></p>","null","","","","","","","",""
"","image","255","432421","0.0-231.0-0.0","""event"",""trial"",""time""
""fullscreenenter"",""0"",""3108""
","
","
","""event"",""trial"",""time""
""fullscreenenter"",""0"",""3108""
","
","1272.7000000000698","run_exp/static/images/Set 6_rs/172a.jpg","86","","","","","","test","TR","1"
"","show_choice","256","432921","0.0-231.0-1.0","""event"",""trial"",""time""
""fullscreenenter"",""0"",""3108""
","
","
","""event"",""trial"",""time""
""fullscreenenter"",""0"",""3108""
","
","null","run_exp/static/images/Set 6_rs/172a.jpg","null","","","","","","test","TR",""
"","html-keyboard-response","257","433426","0.0-231.0-2.0","""event"",""trial"",""time""
""fullscreenenter"",""0"",""3108""
","
","
","""event"",""trial"",""time""
""fullscreenenter"",""0"",""3108""
","
","null","<p></p>","null","","","","","","","",""
"","image","258","435390","0.0-232.0-0.0","""event"",""trial"",""time""
""fullscreenenter"",""0"",""3108""
","
","
","""event"",""trial"",""time""
""fullscreenenter"",""0"",""3108""
","
","1963.5","run_exp/static/images/Set 6_rs/123b.jpg","66","","","","","","test","TL","2"
"","show_choice","259","435893","0.0-232.0-1.0","""event"",""trial"",""time""
""fullscreenenter"",""0"",""3108""
","
","
","""event"",""trial"",""time""
""fullscreenenter"",""0"",""3108""
","
","null","run_exp/static/images/Set 6_rs/123b.jpg","null","","","","","","test","TL",""
"","html-keyboard-response","260","436394","0.0-232.0-2.0","""event"",""trial"",""time""
""fullscreenenter"",""0"",""3108""
","
","
","""event"",""trial"",""time""
""fullscreenenter"",""0"",""3108""
","
","null","<p></p>","null","","","","","","","",""
"","image","261","437573","0.0-233.0-0.0","""event"",""trial"",""time""
""fullscreenenter"",""0"",""3108""
","
","
","""event"",""trial"",""time""
""fullscreenenter"",""0"",""3108""
","
","1178.7000000000698","run_exp/static/images/Set 6_rs/095b.jpg","66","","","","","","test","TL","5"
"","show_choice","262","438076","0.0-233.0-1.0","""event"",""trial"",""time""
""fullscreenenter"",""0"",""3108""
","
","
","""event"",""trial"",""time""
""fullscreenenter"",""0"",""3108""
","
","null","run_exp/static/images/Set 6_rs/095b.jpg","null","","","","","","test","TL",""
"","html-keyboard-response","263","438581","0.0-233.0-2.0","""event"",""trial"",""time""
""fullscreenenter"",""0"",""3108""
","
","
","""event"",""trial"",""time""
""fullscreenenter"",""0"",""3108""
","
","null","<p></p>","null","","","","","","","",""
"","image","264","440388","0.0-234.0-0.0","""event"",""trial"",""time""
""fullscreenenter"",""0"",""3108""
","
","
","""event"",""trial"",""time""
""fullscreenenter"",""0"",""3108""
","
","1806.6000000000931","run_exp/static/images/Set 6_rs/065a.jpg","78","","","","","","test","TF","3"
"","show_choice","265","440891","0.0-234.0-1.0","""event"",""trial"",""time""
""fullscreenenter"",""0"",""3108""
","
","
","""event"",""trial"",""time""
""fullscreenenter"",""0"",""3108""
","
","null","run_exp/static/images/Set 6_rs/065a.jpg","null","","","","","","test","TF",""
"","html-keyboard-response","266","441396","0.0-234.0-2.0","""event"",""trial"",""time""
""fullscreenenter"",""0"",""3108""
","
","
","""event"",""trial"",""time""
""fullscreenenter"",""0"",""3108""
","
","null","<p></p>","null","","","","","","","",""
"","image","267","442984","0.0-235.0-0.0","""event"",""trial"",""time""
""fullscreenenter"",""0"",""3108""
","
","
","""event"",""trial"",""time""
""fullscreenenter"",""0"",""3108""
","
","1587.0999999999767","run_exp/static/images/Set 6_rs/133a.jpg","78","","","","","","test","TF","4"
"","show_choice","268","443486","0.0-235.0-1.0","""event"",""trial"",""time""
""fullscreenenter"",""0"",""3108""
","
","
","""event"",""trial"",""time""
""fullscreenenter"",""0"",""3108""
","
","null","run_exp/static/images/Set 6_rs/133a.jpg","null","","","","","","test","TF",""
"","html-keyboard-response","269","443988","0.0-235.0-2.0","""event"",""trial"",""time""
""fullscreenenter"",""0"",""3108""
","
","
","""event"",""trial"",""time""
""fullscreenenter"",""0"",""3108""
","
","null","<p></p>","null","","","","","","","",""
"","image","270","445196","0.0-236.0-0.0","""event"",""trial"",""time""
""fullscreenenter"",""0"",""3108""
","
","
","""event"",""trial"",""time""
""fullscreenenter"",""0"",""3108""
","
","1207.1999999999534","run_exp/static/images/Set 6_rs/015a.jpg","78","","","","","","test","TF","4"
"","show_choice","271","445698","0.0-236.0-1.0","""event"",""trial"",""time""
""fullscreenenter"",""0"",""3108""
","
","
","""event"",""trial"",""time""
""fullscreenenter"",""0"",""3108""
","
","null","run_exp/static/images/Set 6_rs/015a.jpg","null","","","","","","test","TF",""
"","html-keyboard-response","272","446203","0.0-236.0-2.0","""event"",""trial"",""time""
""fullscreenenter"",""0"",""3108""
","
","
","""event"",""trial"",""time""
""fullscreenenter"",""0"",""3108""
","
","null","<p></p>","null","","","","","","","",""
"","image","273","447442","0.0-237.0-0.0","""event"",""trial"",""time""
""fullscreenenter"",""0"",""3108""
","
","
","""event"",""trial"",""time""
""fullscreenenter"",""0"",""3108""
","
","1238.2999999999302","run_exp/static/images/Set 6_rs/134a.jpg","86","","","","","","test","TR","3"
"","show_choice","274","447945","0.0-237.0-1.0","""event"",""trial"",""time""
""fullscreenenter"",""0"",""3108""
","
","
","""event"",""trial"",""time""
""fullscreenenter"",""0"",""3108""
","
","null","run_exp/static/images/Set 6_rs/134a.jpg","null","","","","","","test","TR",""
"","html-keyboard-response","275","448450","0.0-237.0-2.0","""event"",""trial"",""time""
""fullscreenenter"",""0"",""3108""
","
","
","""event"",""trial"",""time""
""fullscreenenter"",""0"",""3108""
","
","null","<p></p>","null","","","","","","","",""
"","image","276","449279","0.0-238.0-0.0","""event"",""trial"",""time""
""fullscreenenter"",""0"",""3108""
","
","
","""event"",""trial"",""time""
""fullscreenenter"",""0"",""3108""
","
","828.9000000000233","run_exp/static/images/Set 6_rs/177a.jpg","86","","","","","","test","TR","5"
"","show_choice","277","449783","0.0-238.0-1.0","""event"",""trial"",""time""
""fullscreenenter"",""0"",""3108""
","
","
","""event"",""trial"",""time""
""fullscreenenter"",""0"",""3108""
","
","null","run_exp/static/images/Set 6_rs/177a.jpg","null","","","","","","test","TR",""
"","html-keyboard-response","278","450284","0.0-238.0-2.0","""event"",""trial"",""time""
""fullscreenenter"",""0"",""3108""
","
","
","""event"",""trial"",""time""
""fullscreenenter"",""0"",""3108""
","
","null","<p></p>","null","","","","","","","",""
"","image","279","452292","0.0-239.0-0.0","""event"",""trial"",""time""
""fullscreenenter"",""0"",""3108""
","
","
","""event"",""trial"",""time""
""fullscreenenter"",""0"",""3108""
","
","2008","run_exp/static/images/Set 6_rs/047a.jpg","78","","","","","","test","TF","3"
"","show_choice","280","452794","0.0-239.0-1.0","""event"",""trial"",""time""
""fullscreenenter"",""0"",""3108""
","
","
","""event"",""trial"",""time""
""fullscreenenter"",""0"",""3108""
","
","null","run_exp/static/images/Set 6_rs/047a.jpg","null","","","","","","test","TF",""
"","html-keyboard-response","281","453297","0.0-239.0-2.0","""event"",""trial"",""time""
""fullscreenenter"",""0"",""3108""
","
","
","""event"",""trial"",""time""
""fullscreenenter"",""0"",""3108""
","
","null","<p></p>","null","","","","","","","",""
"","image","282","454755","0.0-240.0-0.0","""event"",""trial"",""time""
""fullscreenenter"",""0"",""3108""
","
","
","""event"",""trial"",""time""
""fullscreenenter"",""0"",""3108""
","
","1457.1999999999534","run_exp/static/images/Set 6_rs/090a.jpg","66","","","","","","test","TF","5"
"","show_choice","283","455259","0.0-240.0-1.0","""event"",""trial"",""time""
""fullscreenenter"",""0"",""3108""
","
","
","""event"",""trial"",""time""
""fullscreenenter"",""0"",""3108""
","
","null","run_exp/static/images/Set 6_rs/090a.jpg","null","","","","","","test","TF",""
"","html-keyboard-response","284","455764","0.0-240.0-2.0","""event"",""trial"",""time""
""fullscreenenter"",""0"",""3108""
","
","
","""event"",""trial"",""time""
""fullscreenenter"",""0"",""3108""
","
","null","<p></p>","null","","","","","","","",""
"","image","285","456929","0.0-241.0-0.0","""event"",""trial"",""time""
""fullscreenenter"",""0"",""3108""
","
","
","""event"",""trial"",""time""
""fullscreenenter"",""0"",""3108""
","
","1164.5999999999767","run_exp/static/images/Set 6_rs/073b.jpg","66","","","","","","test","TL","3"
"","show_choice","286","457430","0.0-241.0-1.0","""event"",""trial"",""time""
""fullscreenenter"",""0"",""3108""
","
","
","""event"",""trial"",""time""
""fullscreenenter"",""0"",""3108""
","
","null","run_exp/static/images/Set 6_rs/073b.jpg","null","","","","","","test","TL",""
"","html-keyboard-response","287","457934","0.0-241.0-2.0","""event"",""trial"",""time""
""fullscreenenter"",""0"",""3108""
","
","
","""event"",""trial"",""time""
""fullscreenenter"",""0"",""3108""
","
","null","<p></p>","null","","","","","","","",""
"","image","288","459224","0.0-242.0-0.0","""event"",""trial"",""time""
""fullscreenenter"",""0"",""3108""
","
","
","""event"",""trial"",""time""
""fullscreenenter"",""0"",""3108""
","
","1289.4000000000233","run_exp/static/images/Set 6_rs/122a.jpg","86","","","","","","test","TR","5"
"","show_choice","289","459729","0.0-242.0-1.0","""event"",""trial"",""time""
""fullscreenenter"",""0"",""3108""
","
","
","""event"",""trial"",""time""
""fullscreenenter"",""0"",""3108""
","
","null","run_exp/static/images/Set 6_rs/122a.jpg","null","","","","","","test","TR",""
"","html-keyboard-response","290","460234","0.0-242.0-2.0","""event"",""trial"",""time""
""fullscreenenter"",""0"",""3108""
","
","
","""event"",""trial"",""time""
""fullscreenenter"",""0"",""3108""
","
","null","<p></p>","null","","","","","","","",""
"","image","291","461746","0.0-243.0-0.0","""event"",""trial"",""time""
""fullscreenenter"",""0"",""3108""
","
","
","""event"",""trial"",""time""
""fullscreenenter"",""0"",""3108""
","
","1510.5999999999767","run_exp/static/images/Set 6_rs/016b.jpg","86","","","","","","test","TL","1"
"","show_choice","292","462248","0.0-243.0-1.0","""event"",""trial"",""time""
""fullscreenenter"",""0"",""3108""
","
","
","""event"",""trial"",""time""
""fullscreenenter"",""0"",""3108""
","
","null","run_exp/static/images/Set 6_rs/016b.jpg","null","","","","","","test","TL",""
"","html-keyboard-response","293","462751","0.0-243.0-2.0","""event"",""trial"",""time""
""fullscreenenter"",""0"",""3108""
","
","
","""event"",""trial"",""time""
""fullscreenenter"",""0"",""3108""
","
","null","<p></p>","null","","","","","","","",""
"","image","294","464046","0.0-244.0-0.0","""event"",""trial"",""time""
""fullscreenenter"",""0"",""3108""
","
","
","""event"",""trial"",""time""
""fullscreenenter"",""0"",""3108""
","
","1294.1999999999534","run_exp/static/images/Set 6_rs/028a.jpg","66","","","","","","test","TF","1"
"","show_choice","295","464547","0.0-244.0-1.0","""event"",""trial"",""time""
""fullscreenenter"",""0"",""3108""
","
","
","""event"",""trial"",""time""
""fullscreenenter"",""0"",""3108""
","
","null","run_exp/static/images/Set 6_rs/028a.jpg","null","","","","","","test","TF",""
"","html-keyboard-response","296","465052","0.0-244.0-2.0","""event"",""trial"",""time""
""fullscreenenter"",""0"",""3108""
","
","
","""event"",""trial"",""time""
""fullscreenenter"",""0"",""3108""
","
","null","<p></p>","null","","","","","","","",""
"","image","297","466435","0.0-245.0-0.0","""event"",""trial"",""time""
""fullscreenenter"",""0"",""3108""
","
","
","""event"",""trial"",""time""
""fullscreenenter"",""0"",""3108""
","
","1381.8000000000466","run_exp/static/images/Set 6_rs/088a.jpg","86","","","","","","test","TR","2"
"","show_choice","298","466939","0.0-245.0-1.0","""event"",""trial"",""time""
""fullscreenenter"",""0"",""3108""
","
","
","""event"",""trial"",""time""
""fullscreenenter"",""0"",""3108""
","
","null","run_exp/static/images/Set 6_rs/088a.jpg","null","","","","","","test","TR",""
"","html-keyboard-response","299","467444","0.0-245.0-2.0","""event"",""trial"",""time""
""fullscreenenter"",""0"",""3108""
","
","
","""event"",""trial"",""time""
""fullscreenenter"",""0"",""3108""
","
","null","<p></p>","null","","","","","","","",""
"","image","300","469517","0.0-246.0-0.0","""event"",""trial"",""time""
""fullscreenenter"",""0"",""3108""
","
","
","""event"",""trial"",""time""
""fullscreenenter"",""0"",""3108""
","
","2072.399999999907","run_exp/static/images/Set 6_rs/062b.jpg","66","","","","","","test","TL","1"
"","show_choice","301","470021","0.0-246.0-1.0","""event"",""trial"",""time""
""fullscreenenter"",""0"",""3108""
","
","
","""event"",""trial"",""time""
""fullscreenenter"",""0"",""3108""
","
","null","run_exp/static/images/Set 6_rs/062b.jpg","null","","","","","","test","TL",""
"","html-keyboard-response","302","470522","0.0-246.0-2.0","""event"",""trial"",""time""
""fullscreenenter"",""0"",""3108""
","
","
","""event"",""trial"",""time""
""fullscreenenter"",""0"",""3108""
","
","null","<p></p>","null","","","","","","","",""
"","image","303","472001","0.0-247.0-0.0","""event"",""trial"",""time""
""fullscreenenter"",""0"",""3108""
","
","
","""event"",""trial"",""time""
""fullscreenenter"",""0"",""3108""
","
","1478.3000000000466","run_exp/static/images/Set 6_rs/021a.jpg","78","","","","","","test","TF","2"
"","show_choice","304","472506","0.0-247.0-1.0","""event"",""trial"",""time""
""fullscreenenter"",""0"",""3108""
","
","
","""event"",""trial"",""time""
""fullscreenenter"",""0"",""3108""
","
","null","run_exp/static/images/Set 6_rs/021a.jpg","null","","","","","","test","TF",""
"","html-keyboard-response","305","473011","0.0-247.0-2.0","""event"",""trial"",""time""
""fullscreenenter"",""0"",""3108""
","
","
","""event"",""trial"",""time""
""fullscreenenter"",""0"",""3108""
","
","null","<p></p>","null","","","","","","","",""
"","image","306","474394","0.0-248.0-0.0","""event"",""trial"",""time""
""fullscreenenter"",""0"",""3108""
","
","
","""event"",""trial"",""time""
""fullscreenenter"",""0"",""3108""
","
","1382.0999999999767","run_exp/static/images/Set 6_rs/005a.jpg","86","","","","","","test","TF","5"
"","show_choice","307","474897","0.0-248.0-1.0","""event"",""trial"",""time""
""fullscreenenter"",""0"",""3108""
","
","
","""event"",""trial"",""time""
""fullscreenenter"",""0"",""3108""
","
","null","run_exp/static/images/Set 6_rs/005a.jpg","null","","","","","","test","TF",""
"","html-keyboard-response","308","475402","0.0-248.0-2.0","""event"",""trial"",""time""
""fullscreenenter"",""0"",""3108""
","
","
","""event"",""trial"",""time""
""fullscreenenter"",""0"",""3108""
","
","null","<p></p>","null","","","","","","","",""
"","image","309","476790","0.0-249.0-0.0","""event"",""trial"",""time""
""fullscreenenter"",""0"",""3108""
","
","
","""event"",""trial"",""time""
""fullscreenenter"",""0"",""3108""
","
","1386.5","run_exp/static/images/Set 6_rs/131a.jpg","86","","","","","","test","TR","5"
"","show_choice","310","477295","0.0-249.0-1.0","""event"",""trial"",""time""
""fullscreenenter"",""0"",""3108""
","
","
","""event"",""trial"",""time""
""fullscreenenter"",""0"",""3108""
","
","null","run_exp/static/images/Set 6_rs/131a.jpg","null","","","","","","test","TR",""
"","html-keyboard-response","311","477796","0.0-249.0-2.0","""event"",""trial"",""time""
""fullscreenenter"",""0"",""3108""
","
","
","""event"",""trial"",""time""
""fullscreenenter"",""0"",""3108""
","
","null","<p></p>","null","","","","","","","",""
"","image","312","479651","0.0-250.0-0.0","""event"",""trial"",""time""
""fullscreenenter"",""0"",""3108""
","
","
","""event"",""trial"",""time""
""fullscreenenter"",""0"",""3108""
","
","1854.1000000000931","run_exp/static/images/Set 6_rs/171a.jpg","78","","","","","","test","TF","1"
"","show_choice","313","480152","0.0-250.0-1.0","""event"",""trial"",""time""
""fullscreenenter"",""0"",""3108""
","
","
","""event"",""trial"",""time""
""fullscreenenter"",""0"",""3108""
","
","null","run_exp/static/images/Set 6_rs/171a.jpg","null","","","","","","test","TF",""
"","html-keyboard-response","314","480656","0.0-250.0-2.0","""event"",""trial"",""time""
""fullscreenenter"",""0"",""3108""
","
","
","""event"",""trial"",""time""
""fullscreenenter"",""0"",""3108""
","
","null","<p></p>","null","","","","","","","",""
"","image","315","481813","0.0-251.0-0.0","""event"",""trial"",""time""
""fullscreenenter"",""0"",""3108""
","
","
","""event"",""trial"",""time""
""fullscreenenter"",""0"",""3108""
","
","1156.2000000000698","run_exp/static/images/Set 6_rs/048a.jpg","86","","","","","","test","TF","4"
"","show_choice","316","482316","0.0-251.0-1.0","""event"",""trial"",""time""
""fullscreenenter"",""0"",""3108""
","
","
","""event"",""trial"",""time""
""fullscreenenter"",""0"",""3108""
","
","null","run_exp/static/images/Set 6_rs/048a.jpg","null","","","","","","test","TF",""
"","html-keyboard-response","317","482817","0.0-251.0-2.0","""event"",""trial"",""time""
""fullscreenenter"",""0"",""3108""
","
","
","""event"",""trial"",""time""
""fullscreenenter"",""0"",""3108""
","
","null","<p></p>","null","","","","","","","",""
"","image","318","483683","0.0-252.0-0.0","""event"",""trial"",""time""
""fullscreenenter"",""0"",""3108""
","
","
","""event"",""trial"",""time""
""fullscreenenter"",""0"",""3108""
","
","864.6999999999534","run_exp/static/images/Set 6_rs/121a.jpg","86","","","","","","test","TR","4"
"","show_choice","319","484185","0.0-252.0-1.0","""event"",""trial"",""time""
""fullscreenenter"",""0"",""3108""
","
","
","""event"",""trial"",""time""
""fullscreenenter"",""0"",""3108""
","
","null","run_exp/static/images/Set 6_rs/121a.jpg","null","","","","","","test","TR",""
"","html-keyboard-response","320","484690","0.0-252.0-2.0","""event"",""trial"",""time""
""fullscreenenter"",""0"",""3108""
","
","
","""event"",""trial"",""time""
""fullscreenenter"",""0"",""3108""
","
","null","<p></p>","null","","","","","","","",""
"","image","321","485576","0.0-253.0-0.0","""event"",""trial"",""time""
""fullscreenenter"",""0"",""3108""
","
","
","""event"",""trial"",""time""
""fullscreenenter"",""0"",""3108""
","
","884.3999999999069","run_exp/static/images/Set 6_rs/141a.jpg","86","","","","","","test","TR","2"
"","show_choice","322","486077","0.0-253.0-1.0","""event"",""trial"",""time""
""fullscreenenter"",""0"",""3108""
","
","
","""event"",""trial"",""time""
""fullscreenenter"",""0"",""3108""
","
","null","run_exp/static/images/Set 6_rs/141a.jpg","null","","","","","","test","TR",""
"","html-keyboard-response","323","486583","0.0-253.0-2.0","""event"",""trial"",""time""
""fullscreenenter"",""0"",""3108""
","
","
","""event"",""trial"",""time""
""fullscreenenter"",""0"",""3108""
","
","null","<p></p>","null","","","","","","","",""
"","image","324","487789","0.0-254.0-0.0","""event"",""trial"",""time""
""fullscreenenter"",""0"",""3108""
","
","
","""event"",""trial"",""time""
""fullscreenenter"",""0"",""3108""
","
","1204.7999999999302","run_exp/static/images/Set 6_rs/190a.jpg","78","","","","","","test","TF","3"
"","show_choice","325","488290","0.0-254.0-1.0","""event"",""trial"",""time""
""fullscreenenter"",""0"",""3108""
","
","
","""event"",""trial"",""time""
""fullscreenenter"",""0"",""3108""
","
","null","run_exp/static/images/Set 6_rs/190a.jpg","null","","","","","","test","TF",""
"","html-keyboard-response","326","488795","0.0-254.0-2.0","""event"",""trial"",""time""
""fullscreenenter"",""0"",""3108""
","
","
","""event"",""trial"",""time""
""fullscreenenter"",""0"",""3108""
","
","null","<p></p>","null","","","","","","","",""
"","image","327","489635","0.0-255.0-0.0","""event"",""trial"",""time""
""fullscreenenter"",""0"",""3108""
","
","
","""event"",""trial"",""time""
""fullscreenenter"",""0"",""3108""
","
","839","run_exp/static/images/Set 6_rs/186a.jpg","86","","","","","","test","TR","5"
"","show_choice","328","490136","0.0-255.0-1.0","""event"",""trial"",""time""
""fullscreenenter"",""0"",""3108""
","
","
","""event"",""trial"",""time""
""fullscreenenter"",""0"",""3108""
","
","null","run_exp/static/images/Set 6_rs/186a.jpg","null","","","","","","test","TR",""
"","html-keyboard-response","329","490641","0.0-255.0-2.0","""event"",""trial"",""time""
""fullscreenenter"",""0"",""3108""
","
","
","""event"",""trial"",""time""
""fullscreenenter"",""0"",""3108""
","
","null","<p></p>","null","","","","","","","",""
"","image","330","491645","0.0-256.0-0.0","""event"",""trial"",""time""
""fullscreenenter"",""0"",""3108""
","
","
","""event"",""trial"",""time""
""fullscreenenter"",""0"",""3108""
","
","1003.1999999999534","run_exp/static/images/Set 6_rs/144b.jpg","86","","","","","","test","TL","4"
"","show_choice","331","492150","0.0-256.0-1.0","""event"",""trial"",""time""
""fullscreenenter"",""0"",""3108""
","
","
","""event"",""trial"",""time""
""fullscreenenter"",""0"",""3108""
","
","null","run_exp/static/images/Set 6_rs/144b.jpg","null","","","","","","test","TL",""
"","html-keyboard-response","332","492655","0.0-256.0-2.0","""event"",""trial"",""time""
""fullscreenenter"",""0"",""3108""
","
","
","""event"",""trial"",""time""
""fullscreenenter"",""0"",""3108""
","
","null","<p></p>","null","","","","","","","",""
"","image","333","493926","0.0-257.0-0.0","""event"",""trial"",""time""
""fullscreenenter"",""0"",""3108""
","
","
","""event"",""trial"",""time""
""fullscreenenter"",""0"",""3108""
","
","1269.8999999999069","run_exp/static/images/Set 6_rs/035a.jpg","66","","","","","","test","TF","4"
"","show_choice","334","494431","0.0-257.0-1.0","""event"",""trial"",""time""
""fullscreenenter"",""0"",""3108""
","
","
","""event"",""trial"",""time""
""fullscreenenter"",""0"",""3108""
","
","null","run_exp/static/images/Set 6_rs/035a.jpg","null","","","","","","test","TF",""
"","html-keyboard-response","335","494932","0.0-257.0-2.0","""event"",""trial"",""time""
""fullscreenenter"",""0"",""3108""
","
","
","""event"",""trial"",""time""
""fullscreenenter"",""0"",""3108""
","
","null","<p></p>","null","","","","","","","",""
"","image","336","495892","0.0-258.0-0.0","""event"",""trial"",""time""
""fullscreenenter"",""0"",""3108""
","
","
","""event"",""trial"",""time""
""fullscreenenter"",""0"",""3108""
","
","959","run_exp/static/images/Set 6_rs/024a.jpg","86","","","","","","test","TR","5"
"","show_choice","337","496393","0.0-258.0-1.0","""event"",""trial"",""time""
""fullscreenenter"",""0"",""3108""
","
","
","""event"",""trial"",""time""
""fullscreenenter"",""0"",""3108""
","
","null","run_exp/static/images/Set 6_rs/024a.jpg","null","","","","","","test","TR",""
"","html-keyboard-response","338","496898","0.0-258.0-2.0","""event"",""trial"",""time""
""fullscreenenter"",""0"",""3108""
","
","
","""event"",""trial"",""time""
""fullscreenenter"",""0"",""3108""
","
","null","<p></p>","null","","","","","","","",""
"","image","339","497989","0.0-259.0-0.0","""event"",""trial"",""time""
""fullscreenenter"",""0"",""3108""
","
","
","""event"",""trial"",""time""
""fullscreenenter"",""0"",""3108""
","
","1090.0999999999767","run_exp/static/images/Set 6_rs/166a.jpg","86","","","","","","test","TR","1"
"","show_choice","340","498495","0.0-259.0-1.0","""event"",""trial"",""time""
""fullscreenenter"",""0"",""3108""
","
","
","""event"",""trial"",""time""
""fullscreenenter"",""0"",""3108""
","
","null","run_exp/static/images/Set 6_rs/166a.jpg","null","","","","","","test","TR",""
"","html-keyboard-response","341","498996","0.0-259.0-2.0","""event"",""trial"",""time""
