"success","trial_type","trial_index","time_elapsed","internal_node_id","interactions","blur_events","focus_events","fullscreenenter_events","fullscreenexit_events","rt","stimulus","key_press","subject_id","participant_id","age","gender","prompt","phase","condition","lure_bin"
"true","fullscreen","0","144358","0.0-0.0","""event"",""trial"",""time""
""blur"",""0"",""0""
""focus"",""0"",""0""
""blur"",""0"",""9076""
""focus"",""0"",""141917""
""fullscreenenter"",""0"",""143394""
","""event"",""trial"",""time""
""blur"",""0"",""0""
""blur"",""0"",""9076""
","""event"",""trial"",""time""
""focus"",""0"",""0""
""focus"",""0"",""141917""
","""event"",""trial"",""time""
""fullscreenenter"",""0"",""143394""
","
","","","","","","","","","","",""
"","pavlovia","1","144363","0.0-1.0","""event"",""trial"",""time""
""blur"",""0"",""0""
""focus"",""0"",""0""
""blur"",""0"",""9076""
""focus"",""0"",""141917""
""fullscreenenter"",""0"",""143394""
","""event"",""trial"",""time""
""blur"",""0"",""0""
""blur"",""0"",""9076""
","""event"",""trial"",""time""
""focus"",""0"",""0""
""focus"",""0"",""141917""
","""event"",""trial"",""time""
""fullscreenenter"",""0"",""143394""
","
","","","","","","","","","","",""
"","welcome","2","179208","0.0-2.0","""event"",""trial"",""time""
""blur"",""0"",""0""
""focus"",""0"",""0""
""blur"",""0"",""9076""
""focus"",""0"",""141917""
""fullscreenenter"",""0"",""143394""
","""event"",""trial"",""time""
""blur"",""0"",""0""
""blur"",""0"",""9076""
","""event"",""trial"",""time""
""focus"",""0"",""0""
""focus"",""0"",""141917""
","""event"",""trial"",""time""
""fullscreenenter"",""0"",""143394""
","
","null","run_exp/static/audio/clip_1_welcome.m4a","null","570","918","22","Male","<div class='center'><p>Welcome to the third part of the study! First, you'll be shown pictures of items one at a time. For each picture, you have to decide if the item is typically found indoors or outdoors.</p><p>If you think it's usually found indoors, then press <b>v</b> key on your keyboard. If you think it's usually found outdoors, then press the <b>n</b> key.There will be reminders on the screen to help you remember which keys to press. </p><p>If you're not sure whether the item is an indoor item or an outdoor item, go ahead and take a guess but try your best not to skip that choice. </p></div>","","",""
"","html-keyboard-response","3","180156","0.0-3.0","""event"",""trial"",""time""
""blur"",""0"",""0""
""focus"",""0"",""0""
""blur"",""0"",""9076""
""focus"",""0"",""141917""
""fullscreenenter"",""0"",""143394""
","""event"",""trial"",""time""
""blur"",""0"",""0""
""blur"",""0"",""9076""
","""event"",""trial"",""time""
""focus"",""0"",""0""
""focus"",""0"",""141917""
","""event"",""trial"",""time""
""fullscreenenter"",""0"",""143394""
","
","946","<div class='center'><p>Welcome to the third part of the study! First, you'll be shown pictures of items one at a time. For each picture, you have to decide if the item is typically found indoors or outdoors.</p><p>If you think it's usually found indoors, then press <b>v</b> key on your keyboard. If you think it's usually found outdoors, then press the <b>n</b> key.There will be reminders on the screen to help you remember which keys to press. </p><p>If you're not sure whether the item is an indoor item or an outdoor item, go ahead and take a guess but try your best not to skip that choice. </p><div><p><b>[Press the space bar to continue]</b></p></div>","32","","","","","","","",""
"","image","4","181847","0.0-4.0","""event"",""trial"",""time""
""blur"",""0"",""0""
""focus"",""0"",""0""
""blur"",""0"",""9076""
""focus"",""0"",""141917""
""fullscreenenter"",""0"",""143394""
","""event"",""trial"",""time""
""blur"",""0"",""0""
""blur"",""0"",""9076""
","""event"",""trial"",""time""
""focus"",""0"",""0""
""focus"",""0"",""141917""
","""event"",""trial"",""time""
""fullscreenenter"",""0"",""143394""
","
","1688.6999999955297","run_exp/static/images/Set 6_rs/012a.jpg","86","","","","","","learn","SR",""
"","show_choice","5","182161","0.0-5.0","""event"",""trial"",""time""
""blur"",""0"",""0""
""focus"",""0"",""0""
""blur"",""0"",""9076""
""focus"",""0"",""141917""
""fullscreenenter"",""0"",""143394""
","""event"",""trial"",""time""
""blur"",""0"",""0""
""blur"",""0"",""9076""
","""event"",""trial"",""time""
""focus"",""0"",""0""
""focus"",""0"",""141917""
","""event"",""trial"",""time""
""fullscreenenter"",""0"",""143394""
","
","null","run_exp/static/images/Set 6_rs/012a.jpg","null","","","","","","learn","SR",""
"","html-keyboard-response","6","182667","0.0-6.0","""event"",""trial"",""time""
""blur"",""0"",""0""
""focus"",""0"",""0""
""blur"",""0"",""9076""
""focus"",""0"",""141917""
""fullscreenenter"",""0"",""143394""
","""event"",""trial"",""time""
""blur"",""0"",""0""
""blur"",""0"",""9076""
","""event"",""trial"",""time""
""focus"",""0"",""0""
""focus"",""0"",""141917""
","""event"",""trial"",""time""
""fullscreenenter"",""0"",""143394""
","
","null","<p></p>","null","","","","","","","",""
"","image","7","183682","0.0-7.0","""event"",""trial"",""time""
""blur"",""0"",""0""
""focus"",""0"",""0""
""blur"",""0"",""9076""
""focus"",""0"",""141917""
""fullscreenenter"",""0"",""143394""
","""event"",""trial"",""time""
""blur"",""0"",""0""
""blur"",""0"",""9076""
","""event"",""trial"",""time""
""focus"",""0"",""0""
""focus"",""0"",""141917""
","""event"",""trial"",""time""
""fullscreenenter"",""0"",""143394""
","
","1014","run_exp/static/images/Set 6_rs/144a.jpg","86","","","","","","learn","SL",""
"","show_choice","8","184670","0.0-8.0","""event"",""trial"",""time""
""blur"",""0"",""0""
""focus"",""0"",""0""
""blur"",""0"",""9076""
""focus"",""0"",""141917""
""fullscreenenter"",""0"",""143394""
","""event"",""trial"",""time""
""blur"",""0"",""0""
""blur"",""0"",""9076""
","""event"",""trial"",""time""
""focus"",""0"",""0""
""focus"",""0"",""141917""
","""event"",""trial"",""time""
""fullscreenenter"",""0"",""143394""
","
","null","run_exp/static/images/Set 6_rs/144a.jpg","null","","","","","","learn","SL",""
"","html-keyboard-response","9","185175","0.0-9.0","""event"",""trial"",""time""
""blur"",""0"",""0""
""focus"",""0"",""0""
""blur"",""0"",""9076""
""focus"",""0"",""141917""
""fullscreenenter"",""0"",""143394""
","""event"",""trial"",""time""
""blur"",""0"",""0""
""blur"",""0"",""9076""
","""event"",""trial"",""time""
""focus"",""0"",""0""
""focus"",""0"",""141917""
","""event"",""trial"",""time""
""fullscreenenter"",""0"",""143394""
","
","null","<p></p>","null","","","","","","","",""
"","image","10","186596","0.0-10.0","""event"",""trial"",""time""
""blur"",""0"",""0""
""focus"",""0"",""0""
""blur"",""0"",""9076""
""focus"",""0"",""141917""
""fullscreenenter"",""0"",""143394""
","""event"",""trial"",""time""
""blur"",""0"",""0""
""blur"",""0"",""9076""
","""event"",""trial"",""time""
""focus"",""0"",""0""
""focus"",""0"",""141917""
","""event"",""trial"",""time""
""fullscreenenter"",""0"",""143394""
","
","1420","run_exp/static/images/Set 6_rs/167a.jpg","86","","","","","","learn","SL",""
"","show_choice","11","187182","0.0-11.0","""event"",""trial"",""time""
""blur"",""0"",""0""
""focus"",""0"",""0""
""blur"",""0"",""9076""
""focus"",""0"",""141917""
""fullscreenenter"",""0"",""143394""
","""event"",""trial"",""time""
""blur"",""0"",""0""
""blur"",""0"",""9076""
","""event"",""trial"",""time""
""focus"",""0"",""0""
""focus"",""0"",""141917""
","""event"",""trial"",""time""
""fullscreenenter"",""0"",""143394""
","
","null","run_exp/static/images/Set 6_rs/167a.jpg","null","","","","","","learn","SL",""
"","html-keyboard-response","12","187687","0.0-12.0","""event"",""trial"",""time""
""blur"",""0"",""0""
""focus"",""0"",""0""
""blur"",""0"",""9076""
""focus"",""0"",""141917""
""fullscreenenter"",""0"",""143394""
","""event"",""trial"",""time""
""blur"",""0"",""0""
""blur"",""0"",""9076""
","""event"",""trial"",""time""
""focus"",""0"",""0""
""focus"",""0"",""141917""
","""event"",""trial"",""time""
""fullscreenenter"",""0"",""143394""
","
","null","<p></p>","null","","","","","","","",""
"","image","13","188535","0.0-13.0","""event"",""trial"",""time""
""blur"",""0"",""0""
""focus"",""0"",""0""
""blur"",""0"",""9076""
""focus"",""0"",""141917""
""fullscreenenter"",""0"",""143394""
","""event"",""trial"",""time""
""blur"",""0"",""0""
""blur"",""0"",""9076""
","""event"",""trial"",""time""
""focus"",""0"",""0""
""focus"",""0"",""141917""
","""event"",""trial"",""time""
""fullscreenenter"",""0"",""143394""
","
","846.2000000029802","run_exp/static/images/Set 6_rs/186a.jpg","86","","","","","","learn","SR",""
"","show_choice","14","189693","0.0-14.0","""event"",""trial"",""time""
""blur"",""0"",""0""
""focus"",""0"",""0""
""blur"",""0"",""9076""
""focus"",""0"",""141917""
""fullscreenenter"",""0"",""143394""
","""event"",""trial"",""time""
""blur"",""0"",""0""
""blur"",""0"",""9076""
","""event"",""trial"",""time""
""focus"",""0"",""0""
""focus"",""0"",""141917""
","""event"",""trial"",""time""
""fullscreenenter"",""0"",""143394""
","
","null","run_exp/static/images/Set 6_rs/186a.jpg","null","","","","","","learn","SR",""
"","html-keyboard-response","15","190197","0.0-15.0","""event"",""trial"",""time""
""blur"",""0"",""0""
""focus"",""0"",""0""
""blur"",""0"",""9076""
""focus"",""0"",""141917""
""fullscreenenter"",""0"",""143394""
","""event"",""trial"",""time""
""blur"",""0"",""0""
""blur"",""0"",""9076""
","""event"",""trial"",""time""
""focus"",""0"",""0""
""focus"",""0"",""141917""
","""event"",""trial"",""time""
""fullscreenenter"",""0"",""143394""
","
","null","<p></p>","null","","","","","","","",""
"","image","16","191501","0.0-16.0","""event"",""trial"",""time""
""blur"",""0"",""0""
""focus"",""0"",""0""
""blur"",""0"",""9076""
""focus"",""0"",""141917""
""fullscreenenter"",""0"",""143394""
","""event"",""trial"",""time""
""blur"",""0"",""0""
""blur"",""0"",""9076""
","""event"",""trial"",""time""
""focus"",""0"",""0""
""focus"",""0"",""141917""
","""event"",""trial"",""time""
""fullscreenenter"",""0"",""143394""
","
","1302.5","run_exp/static/images/Set 6_rs/132a.jpg","78","","","","","","learn","SR",""
"","show_choice","17","192203","0.0-17.0","""event"",""trial"",""time""
""blur"",""0"",""0""
""focus"",""0"",""0""
""blur"",""0"",""9076""
""focus"",""0"",""141917""
""fullscreenenter"",""0"",""143394""
","""event"",""trial"",""time""
""blur"",""0"",""0""
""blur"",""0"",""9076""
","""event"",""trial"",""time""
""focus"",""0"",""0""
""focus"",""0"",""141917""
","""event"",""trial"",""time""
""fullscreenenter"",""0"",""143394""
","
","null","run_exp/static/images/Set 6_rs/132a.jpg","null","","","","","","learn","SR",""
"","html-keyboard-response","18","192710","0.0-18.0","""event"",""trial"",""time""
""blur"",""0"",""0""
""focus"",""0"",""0""
""blur"",""0"",""9076""
""focus"",""0"",""141917""
""fullscreenenter"",""0"",""143394""
","""event"",""trial"",""time""
""blur"",""0"",""0""
""blur"",""0"",""9076""
","""event"",""trial"",""time""
""focus"",""0"",""0""
""focus"",""0"",""141917""
","""event"",""trial"",""time""
""fullscreenenter"",""0"",""143394""
","
","null","<p></p>","null","","","","","","","",""
"","image","19","193769","0.0-19.0","""event"",""trial"",""time""
""blur"",""0"",""0""
""focus"",""0"",""0""
""blur"",""0"",""9076""
""focus"",""0"",""141917""
""fullscreenenter"",""0"",""143394""
","""event"",""trial"",""time""
""blur"",""0"",""0""
""blur"",""0"",""9076""
","""event"",""trial"",""time""
""focus"",""0"",""0""
""focus"",""0"",""141917""
","""event"",""trial"",""time""
""fullscreenenter"",""0"",""143394""
","
","1057.1000000014901","run_exp/static/images/Set 6_rs/154a.jpg","86","","","","","","learn","SR",""
"","show_choice","20","194717","0.0-20.0","""event"",""trial"",""time""
""blur"",""0"",""0""
""focus"",""0"",""0""
""blur"",""0"",""9076""
""focus"",""0"",""141917""
""fullscreenenter"",""0"",""143394""
","""event"",""trial"",""time""
""blur"",""0"",""0""
""blur"",""0"",""9076""
","""event"",""trial"",""time""
""focus"",""0"",""0""
""focus"",""0"",""141917""
","""event"",""trial"",""time""
""fullscreenenter"",""0"",""143394""
","
","null","run_exp/static/images/Set 6_rs/154a.jpg","null","","","","","","learn","SR",""
"","html-keyboard-response","21","195219","0.0-21.0","""event"",""trial"",""time""
""blur"",""0"",""0""
""focus"",""0"",""0""
""blur"",""0"",""9076""
""focus"",""0"",""141917""
""fullscreenenter"",""0"",""143394""
","""event"",""trial"",""time""
""blur"",""0"",""0""
""blur"",""0"",""9076""
","""event"",""trial"",""time""
""focus"",""0"",""0""
""focus"",""0"",""141917""
","""event"",""trial"",""time""
""fullscreenenter"",""0"",""143394""
","
","null","<p></p>","null","","","","","","","",""
"","image","22","196714","0.0-22.0","""event"",""trial"",""time""
""blur"",""0"",""0""
""focus"",""0"",""0""
""blur"",""0"",""9076""
""focus"",""0"",""141917""
""fullscreenenter"",""0"",""143394""
","""event"",""trial"",""time""
""blur"",""0"",""0""
""blur"",""0"",""9076""
","""event"",""trial"",""time""
""focus"",""0"",""0""
""focus"",""0"",""141917""
","""event"",""trial"",""time""
""fullscreenenter"",""0"",""143394""
","
","1493.4000000059605","run_exp/static/images/Set 6_rs/089a.jpg","86","","","","","","learn","SL",""
"","show_choice","23","197222","0.0-23.0","""event"",""trial"",""time""
""blur"",""0"",""0""
""focus"",""0"",""0""
""blur"",""0"",""9076""
""focus"",""0"",""141917""
""fullscreenenter"",""0"",""143394""
","""event"",""trial"",""time""
""blur"",""0"",""0""
""blur"",""0"",""9076""
","""event"",""trial"",""time""
""focus"",""0"",""0""
""focus"",""0"",""141917""
","""event"",""trial"",""time""
""fullscreenenter"",""0"",""143394""
","
","null","run_exp/static/images/Set 6_rs/089a.jpg","null","","","","","","learn","SL",""
"","html-keyboard-response","24","197728","0.0-24.0","""event"",""trial"",""time""
""blur"",""0"",""0""
""focus"",""0"",""0""
""blur"",""0"",""9076""
""focus"",""0"",""141917""
""fullscreenenter"",""0"",""143394""
","""event"",""trial"",""time""
""blur"",""0"",""0""
""blur"",""0"",""9076""
","""event"",""trial"",""time""
""focus"",""0"",""0""
""focus"",""0"",""141917""
","""event"",""trial"",""time""
""fullscreenenter"",""0"",""143394""
","
","null","<p></p>","null","","","","","","","",""
"","image","25","198749","0.0-25.0","""event"",""trial"",""time""
""blur"",""0"",""0""
""focus"",""0"",""0""
""blur"",""0"",""9076""
""focus"",""0"",""141917""
""fullscreenenter"",""0"",""143394""
","""event"",""trial"",""time""
""blur"",""0"",""0""
""blur"",""0"",""9076""
","""event"",""trial"",""time""
""focus"",""0"",""0""
""focus"",""0"",""141917""
","""event"",""trial"",""time""
""fullscreenenter"",""0"",""143394""
","
","1018.5","run_exp/static/images/Set 6_rs/019a.jpg","86","","","","","","learn","SL",""
"","show_choice","26","199731","0.0-26.0","""event"",""trial"",""time""
""blur"",""0"",""0""
""focus"",""0"",""0""
""blur"",""0"",""9076""
""focus"",""0"",""141917""
""fullscreenenter"",""0"",""143394""
","""event"",""trial"",""time""
""blur"",""0"",""0""
""blur"",""0"",""9076""
","""event"",""trial"",""time""
""focus"",""0"",""0""
""focus"",""0"",""141917""
","""event"",""trial"",""time""
""fullscreenenter"",""0"",""143394""
","
","null","run_exp/static/images/Set 6_rs/019a.jpg","null","","","","","","learn","SL",""
"","html-keyboard-response","27","200237","0.0-27.0","""event"",""trial"",""time""
""blur"",""0"",""0""
""focus"",""0"",""0""
""blur"",""0"",""9076""
""focus"",""0"",""141917""
""fullscreenenter"",""0"",""143394""
","""event"",""trial"",""time""
""blur"",""0"",""0""
""blur"",""0"",""9076""
","""event"",""trial"",""time""
""focus"",""0"",""0""
""focus"",""0"",""141917""
","""event"",""trial"",""time""
""fullscreenenter"",""0"",""143394""
","
","null","<p></p>","null","","","","","","","",""
"","image","28","201018","0.0-28.0","""event"",""trial"",""time""
""blur"",""0"",""0""
""focus"",""0"",""0""
""blur"",""0"",""9076""
""focus"",""0"",""141917""
""fullscreenenter"",""0"",""143394""
","""event"",""trial"",""time""
""blur"",""0"",""0""
""blur"",""0"",""9076""
","""event"",""trial"",""time""
""focus"",""0"",""0""
""focus"",""0"",""141917""
","""event"",""trial"",""time""
""fullscreenenter"",""0"",""143394""
","
","779.6000000014901","run_exp/static/images/Set 6_rs/014a.jpg","86","","","","","","learn","SL",""
"","show_choice","29","202242","0.0-29.0","""event"",""trial"",""time""
""blur"",""0"",""0""
""focus"",""0"",""0""
""blur"",""0"",""9076""
""focus"",""0"",""141917""
""fullscreenenter"",""0"",""143394""
","""event"",""trial"",""time""
""blur"",""0"",""0""
""blur"",""0"",""9076""
","""event"",""trial"",""time""
""focus"",""0"",""0""
""focus"",""0"",""141917""
","""event"",""trial"",""time""
""fullscreenenter"",""0"",""143394""
","
","null","run_exp/static/images/Set 6_rs/014a.jpg","null","","","","","","learn","SL",""
"","html-keyboard-response","30","202745","0.0-30.0","""event"",""trial"",""time""
""blur"",""0"",""0""
""focus"",""0"",""0""
""blur"",""0"",""9076""
""focus"",""0"",""141917""
""fullscreenenter"",""0"",""143394""
","""event"",""trial"",""time""
""blur"",""0"",""0""
""blur"",""0"",""9076""
","""event"",""trial"",""time""
""focus"",""0"",""0""
""focus"",""0"",""141917""
","""event"",""trial"",""time""
""fullscreenenter"",""0"",""143394""
","
","null","<p></p>","null","","","","","","","",""
"","image","31","204147","0.0-31.0","""event"",""trial"",""time""
""blur"",""0"",""0""
""focus"",""0"",""0""
""blur"",""0"",""9076""
""focus"",""0"",""141917""
""fullscreenenter"",""0"",""143394""
","""event"",""trial"",""time""
""blur"",""0"",""0""
""blur"",""0"",""9076""
","""event"",""trial"",""time""
""focus"",""0"",""0""
""focus"",""0"",""141917""
","""event"",""trial"",""time""
""fullscreenenter"",""0"",""143394""
","
","1400.5","run_exp/static/images/Set 6_rs/150a.jpg","86","","","","","","learn","SR",""
"","show_choice","32","204752","0.0-32.0","""event"",""trial"",""time""
""blur"",""0"",""0""
""focus"",""0"",""0""
""blur"",""0"",""9076""
""focus"",""0"",""141917""
""fullscreenenter"",""0"",""143394""
","""event"",""trial"",""time""
""blur"",""0"",""0""
""blur"",""0"",""9076""
","""event"",""trial"",""time""
""focus"",""0"",""0""
""focus"",""0"",""141917""
","""event"",""trial"",""time""
""fullscreenenter"",""0"",""143394""
","
","null","run_exp/static/images/Set 6_rs/150a.jpg","null","","","","","","learn","SR",""
"","html-keyboard-response","33","205258","0.0-33.0","""event"",""trial"",""time""
""blur"",""0"",""0""
""focus"",""0"",""0""
""blur"",""0"",""9076""
""focus"",""0"",""141917""
""fullscreenenter"",""0"",""143394""
","""event"",""trial"",""time""
""blur"",""0"",""0""
""blur"",""0"",""9076""
","""event"",""trial"",""time""
""focus"",""0"",""0""
""focus"",""0"",""141917""
","""event"",""trial"",""time""
""fullscreenenter"",""0"",""143394""
","
","null","<p></p>","null","","","","","","","",""
"","image","34","206476","0.0-34.0","""event"",""trial"",""time""
""blur"",""0"",""0""
""focus"",""0"",""0""
""blur"",""0"",""9076""
""focus"",""0"",""141917""
""fullscreenenter"",""0"",""143394""
","""event"",""trial"",""time""
""blur"",""0"",""0""
""blur"",""0"",""9076""
","""event"",""trial"",""time""
""focus"",""0"",""0""
""focus"",""0"",""141917""
","""event"",""trial"",""time""
""fullscreenenter"",""0"",""143394""
","
","1216.5","run_exp/static/images/Set 6_rs/063a.jpg","86","","","","","","learn","SR",""
"","show_choice","35","207265","0.0-35.0","""event"",""trial"",""time""
""blur"",""0"",""0""
""focus"",""0"",""0""
""blur"",""0"",""9076""
""focus"",""0"",""141917""
""fullscreenenter"",""0"",""143394""
","""event"",""trial"",""time""
""blur"",""0"",""0""
""blur"",""0"",""9076""
","""event"",""trial"",""time""
""focus"",""0"",""0""
""focus"",""0"",""141917""
","""event"",""trial"",""time""
""fullscreenenter"",""0"",""143394""
","
","null","run_exp/static/images/Set 6_rs/063a.jpg","null","","","","","","learn","SR",""
"","html-keyboard-response","36","207768","0.0-36.0","""event"",""trial"",""time""
""blur"",""0"",""0""
""focus"",""0"",""0""
""blur"",""0"",""9076""
""focus"",""0"",""141917""
""fullscreenenter"",""0"",""143394""
","""event"",""trial"",""time""
""blur"",""0"",""0""
""blur"",""0"",""9076""
","""event"",""trial"",""time""
""focus"",""0"",""0""
""focus"",""0"",""141917""
","""event"",""trial"",""time""
""fullscreenenter"",""0"",""143394""
","
","null","<p></p>","null","","","","","","","",""
"","image","37","208726","0.0-37.0","""event"",""trial"",""time""
""blur"",""0"",""0""
""focus"",""0"",""0""
""blur"",""0"",""9076""
""focus"",""0"",""141917""
""fullscreenenter"",""0"",""143394""
","""event"",""trial"",""time""
""blur"",""0"",""0""
""blur"",""0"",""9076""
","""event"",""trial"",""time""
""focus"",""0"",""0""
""focus"",""0"",""141917""
","""event"",""trial"",""time""
""fullscreenenter"",""0"",""143394""
","
","956.8999999985099","run_exp/static/images/Set 6_rs/061a.jpg","78","","","","","","learn","SR",""
"","show_choice","38","209771","0.0-38.0","""event"",""trial"",""time""
""blur"",""0"",""0""
""focus"",""0"",""0""
""blur"",""0"",""9076""
""focus"",""0"",""141917""
""fullscreenenter"",""0"",""143394""
","""event"",""trial"",""time""
""blur"",""0"",""0""
""blur"",""0"",""9076""
","""event"",""trial"",""time""
""focus"",""0"",""0""
""focus"",""0"",""141917""
","""event"",""trial"",""time""
""fullscreenenter"",""0"",""143394""
","
","null","run_exp/static/images/Set 6_rs/061a.jpg","null","","","","","","learn","SR",""
"","html-keyboard-response","39","210278","0.0-39.0","""event"",""trial"",""time""
""blur"",""0"",""0""
""focus"",""0"",""0""
""blur"",""0"",""9076""
""focus"",""0"",""141917""
""fullscreenenter"",""0"",""143394""
","""event"",""trial"",""time""
""blur"",""0"",""0""
""blur"",""0"",""9076""
","""event"",""trial"",""time""
""focus"",""0"",""0""
""focus"",""0"",""141917""
","""event"",""trial"",""time""
""fullscreenenter"",""0"",""143394""
","
","null","<p></p>","null","","","","","","","",""
"","image","40","211657","0.0-40.0","""event"",""trial"",""time""
""blur"",""0"",""0""
""focus"",""0"",""0""
""blur"",""0"",""9076""
""focus"",""0"",""141917""
""fullscreenenter"",""0"",""143394""
","""event"",""trial"",""time""
""blur"",""0"",""0""
""blur"",""0"",""9076""
","""event"",""trial"",""time""
""focus"",""0"",""0""
""focus"",""0"",""141917""
","""event"",""trial"",""time""
""fullscreenenter"",""0"",""143394""
","
","1378.1000000014901","run_exp/static/images/Set 6_rs/062a.jpg","86","","","","","","learn","SL",""
"","show_choice","41","212284","0.0-41.0","""event"",""trial"",""time""
""blur"",""0"",""0""
""focus"",""0"",""0""
""blur"",""0"",""9076""
""focus"",""0"",""141917""
""fullscreenenter"",""0"",""143394""
","""event"",""trial"",""time""
""blur"",""0"",""0""
""blur"",""0"",""9076""
","""event"",""trial"",""time""
""focus"",""0"",""0""
""focus"",""0"",""141917""
","""event"",""trial"",""time""
""fullscreenenter"",""0"",""143394""
","
","null","run_exp/static/images/Set 6_rs/062a.jpg","null","","","","","","learn","SL",""
"","html-keyboard-response","42","212791","0.0-42.0","""event"",""trial"",""time""
""blur"",""0"",""0""
""focus"",""0"",""0""
""blur"",""0"",""9076""
""focus"",""0"",""141917""
""fullscreenenter"",""0"",""143394""
","""event"",""trial"",""time""
""blur"",""0"",""0""
""blur"",""0"",""9076""
","""event"",""trial"",""time""
""focus"",""0"",""0""
""focus"",""0"",""141917""
","""event"",""trial"",""time""
""fullscreenenter"",""0"",""143394""
","
","null","<p></p>","null","","","","","","","",""
"","image","43","213915","0.0-43.0","""event"",""trial"",""time""
""blur"",""0"",""0""
""focus"",""0"",""0""
""blur"",""0"",""9076""
""focus"",""0"",""141917""
""fullscreenenter"",""0"",""143394""
","""event"",""trial"",""time""
""blur"",""0"",""0""
""blur"",""0"",""9076""
","""event"",""trial"",""time""
""focus"",""0"",""0""
""focus"",""0"",""141917""
","""event"",""trial"",""time""
""fullscreenenter"",""0"",""143394""
","
","1122.9000000059605","run_exp/static/images/Set 6_rs/187a.jpg","78","","","","","","learn","SR",""
"","show_choice","44","214797","0.0-44.0","""event"",""trial"",""time""
""blur"",""0"",""0""
""focus"",""0"",""0""
""blur"",""0"",""9076""
""focus"",""0"",""141917""
""fullscreenenter"",""0"",""143394""
","""event"",""trial"",""time""
""blur"",""0"",""0""
""blur"",""0"",""9076""
","""event"",""trial"",""time""
""focus"",""0"",""0""
""focus"",""0"",""141917""
","""event"",""trial"",""time""
""fullscreenenter"",""0"",""143394""
","
","null","run_exp/static/images/Set 6_rs/187a.jpg","null","","","","","","learn","SR",""
"","html-keyboard-response","45","215304","0.0-45.0","""event"",""trial"",""time""
""blur"",""0"",""0""
""focus"",""0"",""0""
""blur"",""0"",""9076""
""focus"",""0"",""141917""
""fullscreenenter"",""0"",""143394""
","""event"",""trial"",""time""
""blur"",""0"",""0""
""blur"",""0"",""9076""
","""event"",""trial"",""time""
""focus"",""0"",""0""
""focus"",""0"",""141917""
","""event"",""trial"",""time""
""fullscreenenter"",""0"",""143394""
","
","null","<p></p>","null","","","","","","","",""
"","image","46","216175","0.0-46.0","""event"",""trial"",""time""
""blur"",""0"",""0""
""focus"",""0"",""0""
""blur"",""0"",""9076""
""focus"",""0"",""141917""
""fullscreenenter"",""0"",""143394""
","""event"",""trial"",""time""
""blur"",""0"",""0""
""blur"",""0"",""9076""
","""event"",""trial"",""time""
""focus"",""0"",""0""
""focus"",""0"",""141917""
","""event"",""trial"",""time""
""fullscreenenter"",""0"",""143394""
","
","869.3999999985099","run_exp/static/images/Set 6_rs/172a.jpg","78","","","","","","learn","SR",""
"","show_choice","47","217310","0.0-47.0","""event"",""trial"",""time""
""blur"",""0"",""0""
""focus"",""0"",""0""
""blur"",""0"",""9076""
""focus"",""0"",""141917""
""fullscreenenter"",""0"",""143394""
","""event"",""trial"",""time""
""blur"",""0"",""0""
""blur"",""0"",""9076""
","""event"",""trial"",""time""
""focus"",""0"",""0""
""focus"",""0"",""141917""
","""event"",""trial"",""time""
""fullscreenenter"",""0"",""143394""
","
","null","run_exp/static/images/Set 6_rs/172a.jpg","null","","","","","","learn","SR",""
"","html-keyboard-response","48","217813","0.0-48.0","""event"",""trial"",""time""
""blur"",""0"",""0""
""focus"",""0"",""0""
""blur"",""0"",""9076""
""focus"",""0"",""141917""
""fullscreenenter"",""0"",""143394""
","""event"",""trial"",""time""
""blur"",""0"",""0""
""blur"",""0"",""9076""
","""event"",""trial"",""time""
""focus"",""0"",""0""
""focus"",""0"",""141917""
","""event"",""trial"",""time""
""fullscreenenter"",""0"",""143394""
","
","null","<p></p>","null","","","","","","","",""
"","image","49","218697","0.0-49.0","""event"",""trial"",""time""
""blur"",""0"",""0""
""focus"",""0"",""0""
""blur"",""0"",""9076""
""focus"",""0"",""141917""
""fullscreenenter"",""0"",""143394""
","""event"",""trial"",""time""
""blur"",""0"",""0""
""blur"",""0"",""9076""
","""event"",""trial"",""time""
""focus"",""0"",""0""
""focus"",""0"",""141917""
","""event"",""trial"",""time""
""fullscreenenter"",""0"",""143394""
","
","882.6999999955297","run_exp/static/images/Set 6_rs/126a.jpg","78","","","","","","learn","SR",""
"","show_choice","50","219815","0.0-50.0","""event"",""trial"",""time""
""blur"",""0"",""0""
""focus"",""0"",""0""
""blur"",""0"",""9076""
""focus"",""0"",""141917""
""fullscreenenter"",""0"",""143394""
","""event"",""trial"",""time""
""blur"",""0"",""0""
""blur"",""0"",""9076""
","""event"",""trial"",""time""
""focus"",""0"",""0""
""focus"",""0"",""141917""
","""event"",""trial"",""time""
""fullscreenenter"",""0"",""143394""
","
","null","run_exp/static/images/Set 6_rs/126a.jpg","null","","","","","","learn","SR",""
"","html-keyboard-response","51","220320","0.0-51.0","""event"",""trial"",""time""
""blur"",""0"",""0""
""focus"",""0"",""0""
""blur"",""0"",""9076""
""focus"",""0"",""141917""
""fullscreenenter"",""0"",""143394""
","""event"",""trial"",""time""
""blur"",""0"",""0""
""blur"",""0"",""9076""
","""event"",""trial"",""time""
""focus"",""0"",""0""
""focus"",""0"",""141917""
","""event"",""trial"",""time""
""fullscreenenter"",""0"",""143394""
","
","null","<p></p>","null","","","","","","","",""
"","image","52","221399","0.0-52.0","""event"",""trial"",""time""
""blur"",""0"",""0""
""focus"",""0"",""0""
""blur"",""0"",""9076""
""focus"",""0"",""141917""
""fullscreenenter"",""0"",""143394""
","""event"",""trial"",""time""
""blur"",""0"",""0""
""blur"",""0"",""9076""
","""event"",""trial"",""time""
""focus"",""0"",""0""
""focus"",""0"",""141917""
","""event"",""trial"",""time""
""fullscreenenter"",""0"",""143394""
","
","1076.6999999955297","run_exp/static/images/Set 6_rs/152a.jpg","78","","","","","","learn","SR",""
"","show_choice","53","222323","0.0-53.0","""event"",""trial"",""time""
""blur"",""0"",""0""
""focus"",""0"",""0""
""blur"",""0"",""9076""
""focus"",""0"",""141917""
""fullscreenenter"",""0"",""143394""
","""event"",""trial"",""time""
""blur"",""0"",""0""
""blur"",""0"",""9076""
","""event"",""trial"",""time""
""focus"",""0"",""0""
""focus"",""0"",""141917""
","""event"",""trial"",""time""
""fullscreenenter"",""0"",""143394""
","
","null","run_exp/static/images/Set 6_rs/152a.jpg","null","","","","","","learn","SR",""
"","html-keyboard-response","54","222824","0.0-54.0","""event"",""trial"",""time""
""blur"",""0"",""0""
""focus"",""0"",""0""
""blur"",""0"",""9076""
""focus"",""0"",""141917""
""fullscreenenter"",""0"",""143394""
","""event"",""trial"",""time""
""blur"",""0"",""0""
""blur"",""0"",""9076""
","""event"",""trial"",""time""
""focus"",""0"",""0""
""focus"",""0"",""141917""
","""event"",""trial"",""time""
""fullscreenenter"",""0"",""143394""
","
","null","<p></p>","null","","","","","","","",""
"","image","55","223661","0.0-55.0","""event"",""trial"",""time""
""blur"",""0"",""0""
""focus"",""0"",""0""
""blur"",""0"",""9076""
""focus"",""0"",""141917""
""fullscreenenter"",""0"",""143394""
","""event"",""trial"",""time""
""blur"",""0"",""0""
""blur"",""0"",""9076""
","""event"",""trial"",""time""
""focus"",""0"",""0""
""focus"",""0"",""141917""
","""event"",""trial"",""time""
""fullscreenenter"",""0"",""143394""
","
","835.3000000044703","run_exp/static/images/Set 6_rs/111a.jpg","86","","","","","","learn","SL",""
"","show_choice","56","224829","0.0-56.0","""event"",""trial"",""time""
""blur"",""0"",""0""
""focus"",""0"",""0""
""blur"",""0"",""9076""
""focus"",""0"",""141917""
""fullscreenenter"",""0"",""143394""
","""event"",""trial"",""time""
""blur"",""0"",""0""
""blur"",""0"",""9076""
","""event"",""trial"",""time""
""focus"",""0"",""0""
""focus"",""0"",""141917""
","""event"",""trial"",""time""
""fullscreenenter"",""0"",""143394""
","
","null","run_exp/static/images/Set 6_rs/111a.jpg","null","","","","","","learn","SL",""
"","html-keyboard-response","57","225330","0.0-57.0","""event"",""trial"",""time""
""blur"",""0"",""0""
""focus"",""0"",""0""
""blur"",""0"",""9076""
""focus"",""0"",""141917""
""fullscreenenter"",""0"",""143394""
","""event"",""trial"",""time""
""blur"",""0"",""0""
""blur"",""0"",""9076""
","""event"",""trial"",""time""
""focus"",""0"",""0""
""focus"",""0"",""141917""
","""event"",""trial"",""time""
""fullscreenenter"",""0"",""143394""
","
","null","<p></p>","null","","","","","","","",""
"","image","58","226038","0.0-58.0","""event"",""trial"",""time""
""blur"",""0"",""0""
""focus"",""0"",""0""
""blur"",""0"",""9076""
""focus"",""0"",""141917""
""fullscreenenter"",""0"",""143394""
","""event"",""trial"",""time""
""blur"",""0"",""0""
""blur"",""0"",""9076""
","""event"",""trial"",""time""
""focus"",""0"",""0""
""focus"",""0"",""141917""
","""event"",""trial"",""time""
""fullscreenenter"",""0"",""143394""
","
","706.0999999940395","run_exp/static/images/Set 6_rs/181a.jpg","78","","","","","","learn","SL",""
"","show_choice","59","227337","0.0-59.0","""event"",""trial"",""time""
""blur"",""0"",""0""
""focus"",""0"",""0""
""blur"",""0"",""9076""
""focus"",""0"",""141917""
""fullscreenenter"",""0"",""143394""
","""event"",""trial"",""time""
""blur"",""0"",""0""
""blur"",""0"",""9076""
","""event"",""trial"",""time""
""focus"",""0"",""0""
""focus"",""0"",""141917""
","""event"",""trial"",""time""
""fullscreenenter"",""0"",""143394""
","
","null","run_exp/static/images/Set 6_rs/181a.jpg","null","","","","","","learn","SL",""
"","html-keyboard-response","60","227843","0.0-60.0","""event"",""trial"",""time""
""blur"",""0"",""0""
""focus"",""0"",""0""
""blur"",""0"",""9076""
""focus"",""0"",""141917""
""fullscreenenter"",""0"",""143394""
","""event"",""trial"",""time""
""blur"",""0"",""0""
""blur"",""0"",""9076""
","""event"",""trial"",""time""
""focus"",""0"",""0""
""focus"",""0"",""141917""
","""event"",""trial"",""time""
""fullscreenenter"",""0"",""143394""
","
","null","<p></p>","null","","","","","","","",""
"","image","61","229042","0.0-61.0","""event"",""trial"",""time""
""blur"",""0"",""0""
""focus"",""0"",""0""
""blur"",""0"",""9076""
""focus"",""0"",""141917""
""fullscreenenter"",""0"",""143394""
","""event"",""trial"",""time""
""blur"",""0"",""0""
""blur"",""0"",""9076""
","""event"",""trial"",""time""
""focus"",""0"",""0""
""focus"",""0"",""141917""
","""event"",""trial"",""time""
""fullscreenenter"",""0"",""143394""
","
","1198","run_exp/static/images/Set 6_rs/121a.jpg","86","","","","","","learn","SR",""
"","show_choice","62","229847","0.0-62.0","""event"",""trial"",""time""
""blur"",""0"",""0""
""focus"",""0"",""0""
""blur"",""0"",""9076""
""focus"",""0"",""141917""
""fullscreenenter"",""0"",""143394""
","""event"",""trial"",""time""
""blur"",""0"",""0""
""blur"",""0"",""9076""
","""event"",""trial"",""time""
""focus"",""0"",""0""
""focus"",""0"",""141917""
","""event"",""trial"",""time""
""fullscreenenter"",""0"",""143394""
","
","null","run_exp/static/images/Set 6_rs/121a.jpg","null","","","","","","learn","SR",""
"","html-keyboard-response","63","230350","0.0-63.0","""event"",""trial"",""time""
""blur"",""0"",""0""
""focus"",""0"",""0""
""blur"",""0"",""9076""
""focus"",""0"",""141917""
""fullscreenenter"",""0"",""143394""
","""event"",""trial"",""time""
""blur"",""0"",""0""
""blur"",""0"",""9076""
","""event"",""trial"",""time""
""focus"",""0"",""0""
""focus"",""0"",""141917""
","""event"",""trial"",""time""
""fullscreenenter"",""0"",""143394""
","
","null","<p></p>","null","","","","","","","",""
"","image","64","231143","0.0-64.0","""event"",""trial"",""time""
""blur"",""0"",""0""
""focus"",""0"",""0""
""blur"",""0"",""9076""
""focus"",""0"",""141917""
""fullscreenenter"",""0"",""143394""
","""event"",""trial"",""time""
""blur"",""0"",""0""
""blur"",""0"",""9076""
","""event"",""trial"",""time""
""focus"",""0"",""0""
""focus"",""0"",""141917""
","""event"",""trial"",""time""
""fullscreenenter"",""0"",""143394""
","
","790.7999999970198","run_exp/static/images/Set 6_rs/177a.jpg","78","","","","","","learn","SR",""
"","show_choice","65","232357","0.0-65.0","""event"",""trial"",""time""
""blur"",""0"",""0""
""focus"",""0"",""0""
""blur"",""0"",""9076""
""focus"",""0"",""141917""
""fullscreenenter"",""0"",""143394""
","""event"",""trial"",""time""
""blur"",""0"",""0""
""blur"",""0"",""9076""
","""event"",""trial"",""time""
""focus"",""0"",""0""
""focus"",""0"",""141917""
","""event"",""trial"",""time""
""fullscreenenter"",""0"",""143394""
","
","null","run_exp/static/images/Set 6_rs/177a.jpg","null","","","","","","learn","SR",""
"","html-keyboard-response","66","232863","0.0-66.0","""event"",""trial"",""time""
""blur"",""0"",""0""
""focus"",""0"",""0""
""blur"",""0"",""9076""
""focus"",""0"",""141917""
""fullscreenenter"",""0"",""143394""
","""event"",""trial"",""time""
""blur"",""0"",""0""
""blur"",""0"",""9076""
","""event"",""trial"",""time""
""focus"",""0"",""0""
""focus"",""0"",""141917""
","""event"",""trial"",""time""
""fullscreenenter"",""0"",""143394""
","
","null","<p></p>","null","","","","","","","",""
"","image","67","233557","0.0-67.0","""event"",""trial"",""time""
""blur"",""0"",""0""
""focus"",""0"",""0""
""blur"",""0"",""9076""
""focus"",""0"",""141917""
""fullscreenenter"",""0"",""143394""
","""event"",""trial"",""time""
""blur"",""0"",""0""
""blur"",""0"",""9076""
","""event"",""trial"",""time""
""focus"",""0"",""0""
""focus"",""0"",""141917""
","""event"",""trial"",""time""
""fullscreenenter"",""0"",""143394""
","
","692.8999999985099","run_exp/static/images/Set 6_rs/169a.jpg","78","","","","","","learn","SR",""
"","show_choice","68","234870","0.0-68.0","""event"",""trial"",""time""
""blur"",""0"",""0""
""focus"",""0"",""0""
""blur"",""0"",""9076""
""focus"",""0"",""141917""
""fullscreenenter"",""0"",""143394""
","""event"",""trial"",""time""
""blur"",""0"",""0""
""blur"",""0"",""9076""
","""event"",""trial"",""time""
""focus"",""0"",""0""
""focus"",""0"",""141917""
","""event"",""trial"",""time""
""fullscreenenter"",""0"",""143394""
","
","null","run_exp/static/images/Set 6_rs/169a.jpg","null","","","","","","learn","SR",""
"","html-keyboard-response","69","235376","0.0-69.0","""event"",""trial"",""time""
""blur"",""0"",""0""
""focus"",""0"",""0""
""blur"",""0"",""9076""
""focus"",""0"",""141917""
""fullscreenenter"",""0"",""143394""
","""event"",""trial"",""time""
""blur"",""0"",""0""
""blur"",""0"",""9076""
","""event"",""trial"",""time""
""focus"",""0"",""0""
""focus"",""0"",""141917""
","""event"",""trial"",""time""
""fullscreenenter"",""0"",""143394""
","
","null","<p></p>","null","","","","","","","",""
"","image","70","236196","0.0-70.0","""event"",""trial"",""time""
""blur"",""0"",""0""
""focus"",""0"",""0""
""blur"",""0"",""9076""
""focus"",""0"",""141917""
""fullscreenenter"",""0"",""143394""
","""event"",""trial"",""time""
""blur"",""0"",""0""
""blur"",""0"",""9076""
","""event"",""trial"",""time""
""focus"",""0"",""0""
""focus"",""0"",""141917""
","""event"",""trial"",""time""
""fullscreenenter"",""0"",""143394""
","
","818.1000000014901","run_exp/static/images/Set 6_rs/064a.jpg","78","","","","","","learn","SR",""
"","show_choice","71","237379","0.0-71.0","""event"",""trial"",""time""
""blur"",""0"",""0""
""focus"",""0"",""0""
""blur"",""0"",""9076""
""focus"",""0"",""141917""
""fullscreenenter"",""0"",""143394""
","""event"",""trial"",""time""
""blur"",""0"",""0""
""blur"",""0"",""9076""
","""event"",""trial"",""time""
""focus"",""0"",""0""
""focus"",""0"",""141917""
","""event"",""trial"",""time""
""fullscreenenter"",""0"",""143394""
","
","null","run_exp/static/images/Set 6_rs/064a.jpg","null","","","","","","learn","SR",""
"","html-keyboard-response","72","237885","0.0-72.0","""event"",""trial"",""time""
""blur"",""0"",""0""
""focus"",""0"",""0""
""blur"",""0"",""9076""
""focus"",""0"",""141917""
""fullscreenenter"",""0"",""143394""
","""event"",""trial"",""time""
""blur"",""0"",""0""
""blur"",""0"",""9076""
","""event"",""trial"",""time""
""focus"",""0"",""0""
""focus"",""0"",""141917""
","""event"",""trial"",""time""
""fullscreenenter"",""0"",""143394""
","
","null","<p></p>","null","","","","","","","",""
"","image","73","239135","0.0-73.0","""event"",""trial"",""time""
""blur"",""0"",""0""
""focus"",""0"",""0""
""blur"",""0"",""9076""
""focus"",""0"",""141917""
""fullscreenenter"",""0"",""143394""
","""event"",""trial"",""time""
""blur"",""0"",""0""
""blur"",""0"",""9076""
","""event"",""trial"",""time""
""focus"",""0"",""0""
""focus"",""0"",""141917""
","""event"",""trial"",""time""
""fullscreenenter"",""0"",""143394""
","
","1248.5","run_exp/static/images/Set 6_rs/129a.jpg","86","","","","","","learn","SL",""
"","show_choice","74","239891","0.0-74.0","""event"",""trial"",""time""
""blur"",""0"",""0""
""focus"",""0"",""0""
""blur"",""0"",""9076""
""focus"",""0"",""141917""
""fullscreenenter"",""0"",""143394""
","""event"",""trial"",""time""
""blur"",""0"",""0""
""blur"",""0"",""9076""
","""event"",""trial"",""time""
""focus"",""0"",""0""
""focus"",""0"",""141917""
","""event"",""trial"",""time""
""fullscreenenter"",""0"",""143394""
","
","null","run_exp/static/images/Set 6_rs/129a.jpg","null","","","","","","learn","SL",""
"","html-keyboard-response","75","240397","0.0-75.0","""event"",""trial"",""time""
""blur"",""0"",""0""
""focus"",""0"",""0""
""blur"",""0"",""9076""
""focus"",""0"",""141917""
""fullscreenenter"",""0"",""143394""
","""event"",""trial"",""time""
""blur"",""0"",""0""
""blur"",""0"",""9076""
","""event"",""trial"",""time""
""focus"",""0"",""0""
""focus"",""0"",""141917""
","""event"",""trial"",""time""
""fullscreenenter"",""0"",""143394""
","
","null","<p></p>","null","","","","","","","",""
"","image","76","241246","0.0-76.0","""event"",""trial"",""time""
""blur"",""0"",""0""
""focus"",""0"",""0""
""blur"",""0"",""9076""
""focus"",""0"",""141917""
""fullscreenenter"",""0"",""143394""
","""event"",""trial"",""time""
""blur"",""0"",""0""
""blur"",""0"",""9076""
","""event"",""trial"",""time""
""focus"",""0"",""0""
""focus"",""0"",""141917""
","""event"",""trial"",""time""
""fullscreenenter"",""0"",""143394""
","
","846.7999999970198","run_exp/static/images/Set 6_rs/055a.jpg","86","","","","","","learn","SL",""
"","show_choice","77","242401","0.0-77.0","""event"",""trial"",""time""
""blur"",""0"",""0""
""focus"",""0"",""0""
""blur"",""0"",""9076""
""focus"",""0"",""141917""
""fullscreenenter"",""0"",""143394""
","""event"",""trial"",""time""
""blur"",""0"",""0""
""blur"",""0"",""9076""
","""event"",""trial"",""time""
""focus"",""0"",""0""
""focus"",""0"",""141917""
","""event"",""trial"",""time""
""fullscreenenter"",""0"",""143394""
","
","null","run_exp/static/images/Set 6_rs/055a.jpg","null","","","","","","learn","SL",""
"","html-keyboard-response","78","242902","0.0-78.0","""event"",""trial"",""time""
""blur"",""0"",""0""
""focus"",""0"",""0""
""blur"",""0"",""9076""
""focus"",""0"",""141917""
""fullscreenenter"",""0"",""143394""
","""event"",""trial"",""time""
""blur"",""0"",""0""
""blur"",""0"",""9076""
","""event"",""trial"",""time""
""focus"",""0"",""0""
""focus"",""0"",""141917""
","""event"",""trial"",""time""
""fullscreenenter"",""0"",""143394""
","
","null","<p></p>","null","","","","","","","",""
"","image","79","243963","0.0-79.0","""event"",""trial"",""time""
""blur"",""0"",""0""
""focus"",""0"",""0""
""blur"",""0"",""9076""
""focus"",""0"",""141917""
""fullscreenenter"",""0"",""143394""
","""event"",""trial"",""time""
""blur"",""0"",""0""
""blur"",""0"",""9076""
","""event"",""trial"",""time""
""focus"",""0"",""0""
""focus"",""0"",""141917""
","""event"",""trial"",""time""
""fullscreenenter"",""0"",""143394""
","
","1060","run_exp/static/images/Set 6_rs/116a.jpg","78","","","","","","learn","SL",""
"","show_choice","80","244908","0.0-80.0","""event"",""trial"",""time""
""blur"",""0"",""0""
""focus"",""0"",""0""
""blur"",""0"",""9076""
""focus"",""0"",""141917""
""fullscreenenter"",""0"",""143394""
","""event"",""trial"",""time""
""blur"",""0"",""0""
""blur"",""0"",""9076""
","""event"",""trial"",""time""
""focus"",""0"",""0""
""focus"",""0"",""141917""
","""event"",""trial"",""time""
""fullscreenenter"",""0"",""143394""
","
","null","run_exp/static/images/Set 6_rs/116a.jpg","null","","","","","","learn","SL",""
"","html-keyboard-response","81","245411","0.0-81.0","""event"",""trial"",""time""
""blur"",""0"",""0""
""focus"",""0"",""0""
""blur"",""0"",""9076""
""focus"",""0"",""141917""
""fullscreenenter"",""0"",""143394""
","""event"",""trial"",""time""
""blur"",""0"",""0""
""blur"",""0"",""9076""
","""event"",""trial"",""time""
""focus"",""0"",""0""
""focus"",""0"",""141917""
","""event"",""trial"",""time""
""fullscreenenter"",""0"",""143394""
","
","null","<p></p>","null","","","","","","","",""
"","image","82","246232","0.0-82.0","""event"",""trial"",""time""
""blur"",""0"",""0""
""focus"",""0"",""0""
""blur"",""0"",""9076""
""focus"",""0"",""141917""
""fullscreenenter"",""0"",""143394""
","""event"",""trial"",""time""
""blur"",""0"",""0""
""blur"",""0"",""9076""
","""event"",""trial"",""time""
""focus"",""0"",""0""
""focus"",""0"",""141917""
","""event"",""trial"",""time""
""fullscreenenter"",""0"",""143394""
","
","820.2999999970198","run_exp/static/images/Set 6_rs/073a.jpg","86","","","","","","learn","SL",""
"","show_choice","83","247413","0.0-83.0","""event"",""trial"",""time""
""blur"",""0"",""0""
""focus"",""0"",""0""
""blur"",""0"",""9076""
""focus"",""0"",""141917""
""fullscreenenter"",""0"",""143394""
","""event"",""trial"",""time""
""blur"",""0"",""0""
""blur"",""0"",""9076""
","""event"",""trial"",""time""
""focus"",""0"",""0""
""focus"",""0"",""141917""
","""event"",""trial"",""time""
""fullscreenenter"",""0"",""143394""
","
","null","run_exp/static/images/Set 6_rs/073a.jpg","null","","","","","","learn","SL",""
"","html-keyboard-response","84","247919","0.0-84.0","""event"",""trial"",""time""
""blur"",""0"",""0""
""focus"",""0"",""0""
""blur"",""0"",""9076""
""focus"",""0"",""141917""
""fullscreenenter"",""0"",""143394""
","""event"",""trial"",""time""
""blur"",""0"",""0""
""blur"",""0"",""9076""
","""event"",""trial"",""time""
""focus"",""0"",""0""
""focus"",""0"",""141917""
","""event"",""trial"",""time""
""fullscreenenter"",""0"",""143394""
","
","null","<p></p>","null","","","","","","","",""
"","image","85","249925","0.0-85.0","""event"",""trial"",""time""
""blur"",""0"",""0""
""focus"",""0"",""0""
""blur"",""0"",""9076""
""focus"",""0"",""141917""
""fullscreenenter"",""0"",""143394""
","""event"",""trial"",""time""
""blur"",""0"",""0""
""blur"",""0"",""9076""
","""event"",""trial"",""time""
""focus"",""0"",""0""
""focus"",""0"",""141917""
","""event"",""trial"",""time""
""fullscreenenter"",""0"",""143394""
","
","null","run_exp/static/images/Set 6_rs/024a.jpg","null","","","","","","learn","SR",""
"","show_choice","86","251931","0.0-86.0","""event"",""trial"",""time""
""blur"",""0"",""0""
""focus"",""0"",""0""
""blur"",""0"",""9076""
""focus"",""0"",""141917""
""fullscreenenter"",""0"",""143394""
","""event"",""trial"",""time""
""blur"",""0"",""0""
""blur"",""0"",""9076""
","""event"",""trial"",""time""
""focus"",""0"",""0""
""focus"",""0"",""141917""
","""event"",""trial"",""time""
""fullscreenenter"",""0"",""143394""
","
","null","run_exp/static/images/blank.png","null","","","","","","learn","SR",""
"","html-keyboard-response","87","252434","0.0-87.0","""event"",""trial"",""time""
""blur"",""0"",""0""
""focus"",""0"",""0""
""blur"",""0"",""9076""
""focus"",""0"",""141917""
""fullscreenenter"",""0"",""143394""
","""event"",""trial"",""time""
""blur"",""0"",""0""
""blur"",""0"",""9076""
","""event"",""trial"",""time""
""focus"",""0"",""0""
""focus"",""0"",""141917""
","""event"",""trial"",""time""
""fullscreenenter"",""0"",""143394""
","
","null","<p></p>","null","","","","","","","",""
"","image","88","253545","0.0-88.0","""event"",""trial"",""time""
""blur"",""0"",""0""
""focus"",""0"",""0""
""blur"",""0"",""9076""
""focus"",""0"",""141917""
""fullscreenenter"",""0"",""143394""
","""event"",""trial"",""time""
""blur"",""0"",""0""
""blur"",""0"",""9076""
","""event"",""trial"",""time""
""focus"",""0"",""0""
""focus"",""0"",""141917""
","""event"",""trial"",""time""
""fullscreenenter"",""0"",""143394""
","
","1110.1000000014901","run_exp/static/images/Set 6_rs/168a.jpg","78","","","","","","learn","SL",""
"","show_choice","89","254438","0.0-89.0","""event"",""trial"",""time""
""blur"",""0"",""0""
""focus"",""0"",""0""
""blur"",""0"",""9076""
""focus"",""0"",""141917""
""fullscreenenter"",""0"",""143394""
","""event"",""trial"",""time""
""blur"",""0"",""0""
""blur"",""0"",""9076""
","""event"",""trial"",""time""
""focus"",""0"",""0""
""focus"",""0"",""141917""
","""event"",""trial"",""time""
""fullscreenenter"",""0"",""143394""
","
","null","run_exp/static/images/Set 6_rs/168a.jpg","null","","","","","","learn","SL",""
"","html-keyboard-response","90","254939","0.0-90.0","""event"",""trial"",""time""
""blur"",""0"",""0""
""focus"",""0"",""0""
""blur"",""0"",""9076""
""focus"",""0"",""141917""
""fullscreenenter"",""0"",""143394""
","""event"",""trial"",""time""
""blur"",""0"",""0""
""blur"",""0"",""9076""
","""event"",""trial"",""time""
""focus"",""0"",""0""
""focus"",""0"",""141917""
","""event"",""trial"",""time""
""fullscreenenter"",""0"",""143394""
","
","null","<p></p>","null","","","","","","","",""
"","image","91","256056","0.0-91.0","""event"",""trial"",""time""
""blur"",""0"",""0""
""focus"",""0"",""0""
""blur"",""0"",""9076""
""focus"",""0"",""141917""
""fullscreenenter"",""0"",""143394""
","""event"",""trial"",""time""
""blur"",""0"",""0""
""blur"",""0"",""9076""
","""event"",""trial"",""time""
""focus"",""0"",""0""
""focus"",""0"",""141917""
","""event"",""trial"",""time""
""fullscreenenter"",""0"",""143394""
","
","1115.3000000044703","run_exp/static/images/Set 6_rs/191a.jpg","78","","","","","","learn","SL",""
"","show_choice","92","256944","0.0-92.0","""event"",""trial"",""time""
""blur"",""0"",""0""
""focus"",""0"",""0""
""blur"",""0"",""9076""
""focus"",""0"",""141917""
""fullscreenenter"",""0"",""143394""
","""event"",""trial"",""time""
""blur"",""0"",""0""
""blur"",""0"",""9076""
","""event"",""trial"",""time""
""focus"",""0"",""0""
""focus"",""0"",""141917""
","""event"",""trial"",""time""
""fullscreenenter"",""0"",""143394""
","
","null","run_exp/static/images/Set 6_rs/191a.jpg","null","","","","","","learn","SL",""
"","html-keyboard-response","93","257445","0.0-93.0","""event"",""trial"",""time""
""blur"",""0"",""0""
""focus"",""0"",""0""
""blur"",""0"",""9076""
""focus"",""0"",""141917""
""fullscreenenter"",""0"",""143394""
","""event"",""trial"",""time""
""blur"",""0"",""0""
""blur"",""0"",""9076""
","""event"",""trial"",""time""
""focus"",""0"",""0""
""focus"",""0"",""141917""
","""event"",""trial"",""time""
""fullscreenenter"",""0"",""143394""
","
","null","<p></p>","null","","","","","","","",""
"","image","94","258619","0.0-94.0","""event"",""trial"",""time""
""blur"",""0"",""0""
""focus"",""0"",""0""
""blur"",""0"",""9076""
""focus"",""0"",""141917""
""fullscreenenter"",""0"",""143394""
","""event"",""trial"",""time""
""blur"",""0"",""0""
""blur"",""0"",""9076""
","""event"",""trial"",""time""
""focus"",""0"",""0""
""focus"",""0"",""141917""
","""event"",""trial"",""time""
""fullscreenenter"",""0"",""143394""
","
","1172.5","run_exp/static/images/Set 6_rs/122a.jpg","78","","","","","","learn","SR",""
"","show_choice","95","259450","0.0-95.0","""event"",""trial"",""time""
""blur"",""0"",""0""
""focus"",""0"",""0""
""blur"",""0"",""9076""
""focus"",""0"",""141917""
""fullscreenenter"",""0"",""143394""
","""event"",""trial"",""time""
""blur"",""0"",""0""
""blur"",""0"",""9076""
","""event"",""trial"",""time""
""focus"",""0"",""0""
""focus"",""0"",""141917""
","""event"",""trial"",""time""
""fullscreenenter"",""0"",""143394""
","
","null","run_exp/static/images/Set 6_rs/122a.jpg","null","","","","","","learn","SR",""
"","html-keyboard-response","96","259951","0.0-96.0","""event"",""trial"",""time""
""blur"",""0"",""0""
""focus"",""0"",""0""
""blur"",""0"",""9076""
""focus"",""0"",""141917""
""fullscreenenter"",""0"",""143394""
","""event"",""trial"",""time""
""blur"",""0"",""0""
""blur"",""0"",""9076""
","""event"",""trial"",""time""
""focus"",""0"",""0""
""focus"",""0"",""141917""
","""event"",""trial"",""time""
""fullscreenenter"",""0"",""143394""
","
","null","<p></p>","null","","","","","","","",""
"","image","97","260638","0.0-97.0","""event"",""trial"",""time""
""blur"",""0"",""0""
""focus"",""0"",""0""
""blur"",""0"",""9076""
""focus"",""0"",""141917""
""fullscreenenter"",""0"",""143394""
","""event"",""trial"",""time""
""blur"",""0"",""0""
""blur"",""0"",""9076""
","""event"",""trial"",""time""
""focus"",""0"",""0""
""focus"",""0"",""141917""
","""event"",""trial"",""time""
""fullscreenenter"",""0"",""143394""
","
","685.6000000014901","run_exp/static/images/Set 6_rs/070a.jpg","86","","","","","","learn","SR",""
"","show_choice","98","261956","0.0-98.0","""event"",""trial"",""time""
""blur"",""0"",""0""
""focus"",""0"",""0""
""blur"",""0"",""9076""
""focus"",""0"",""141917""
""fullscreenenter"",""0"",""143394""
","""event"",""trial"",""time""
""blur"",""0"",""0""
""blur"",""0"",""9076""
","""event"",""trial"",""time""
""focus"",""0"",""0""
""focus"",""0"",""141917""
","""event"",""trial"",""time""
""fullscreenenter"",""0"",""143394""
","
","null","run_exp/static/images/Set 6_rs/070a.jpg","null","","","","","","learn","SR",""
"","html-keyboard-response","99","262458","0.0-99.0","""event"",""trial"",""time""
""blur"",""0"",""0""
""focus"",""0"",""0""
""blur"",""0"",""9076""
""focus"",""0"",""141917""
""fullscreenenter"",""0"",""143394""
","""event"",""trial"",""time""
""blur"",""0"",""0""
""blur"",""0"",""9076""
","""event"",""trial"",""time""
""focus"",""0"",""0""
""focus"",""0"",""141917""
","""event"",""trial"",""time""
""fullscreenenter"",""0"",""143394""
","
","null","<p></p>","null","","","","","","","",""
"","image","100","263256","0.0-100.0","""event"",""trial"",""time""
""blur"",""0"",""0""
""focus"",""0"",""0""
""blur"",""0"",""9076""
""focus"",""0"",""141917""
""fullscreenenter"",""0"",""143394""
","""event"",""trial"",""time""
""blur"",""0"",""0""
""blur"",""0"",""9076""
","""event"",""trial"",""time""
""focus"",""0"",""0""
""focus"",""0"",""141917""
","""event"",""trial"",""time""
""fullscreenenter"",""0"",""143394""
","
","796.8999999985099","run_exp/static/images/Set 6_rs/134a.jpg","86","","","","","","learn","SR",""
"","show_choice","101","264463","0.0-101.0","""event"",""trial"",""time""
""blur"",""0"",""0""
""focus"",""0"",""0""
""blur"",""0"",""9076""
""focus"",""0"",""141917""
""fullscreenenter"",""0"",""143394""
","""event"",""trial"",""time""
""blur"",""0"",""0""
""blur"",""0"",""9076""
","""event"",""trial"",""time""
""focus"",""0"",""0""
""focus"",""0"",""141917""
","""event"",""trial"",""time""
""fullscreenenter"",""0"",""143394""
","
","null","run_exp/static/images/Set 6_rs/134a.jpg","null","","","","","","learn","SR",""
"","html-keyboard-response","102","264964","0.0-102.0","""event"",""trial"",""time""
""blur"",""0"",""0""
""focus"",""0"",""0""
""blur"",""0"",""9076""
""focus"",""0"",""141917""
""fullscreenenter"",""0"",""143394""
","""event"",""trial"",""time""
""blur"",""0"",""0""
""blur"",""0"",""9076""
","""event"",""trial"",""time""
""focus"",""0"",""0""
""focus"",""0"",""141917""
","""event"",""trial"",""time""
""fullscreenenter"",""0"",""143394""
","
","null","<p></p>","null","","","","","","","",""
"","image","103","265806","0.0-103.0","""event"",""trial"",""time""
""blur"",""0"",""0""
""focus"",""0"",""0""
""blur"",""0"",""9076""
""focus"",""0"",""141917""
""fullscreenenter"",""0"",""143394""
","""event"",""trial"",""time""
""blur"",""0"",""0""
""blur"",""0"",""9076""
","""event"",""trial"",""time""
""focus"",""0"",""0""
""focus"",""0"",""141917""
","""event"",""trial"",""time""
""fullscreenenter"",""0"",""143394""
","
","840.3999999985099","run_exp/static/images/Set 6_rs/138a.jpg","78","","","","","","learn","SL",""
"","show_choice","104","266969","0.0-104.0","""event"",""trial"",""time""
""blur"",""0"",""0""
""focus"",""0"",""0""
""blur"",""0"",""9076""
""focus"",""0"",""141917""
""fullscreenenter"",""0"",""143394""
","""event"",""trial"",""time""
""blur"",""0"",""0""
""blur"",""0"",""9076""
","""event"",""trial"",""time""
""focus"",""0"",""0""
""focus"",""0"",""141917""
","""event"",""trial"",""time""
""fullscreenenter"",""0"",""143394""
","
","null","run_exp/static/images/Set 6_rs/138a.jpg","null","","","","","","learn","SL",""
"","html-keyboard-response","105","267470","0.0-105.0","""event"",""trial"",""time""
""blur"",""0"",""0""
""focus"",""0"",""0""
""blur"",""0"",""9076""
""focus"",""0"",""141917""
""fullscreenenter"",""0"",""143394""
","""event"",""trial"",""time""
""blur"",""0"",""0""
""blur"",""0"",""9076""
","""event"",""trial"",""time""
""focus"",""0"",""0""
""focus"",""0"",""141917""
","""event"",""trial"",""time""
""fullscreenenter"",""0"",""143394""
","
","null","<p></p>","null","","","","","","","",""
"","image","106","268332","0.0-106.0","""event"",""trial"",""time""
""blur"",""0"",""0""
""focus"",""0"",""0""
""blur"",""0"",""9076""
""focus"",""0"",""141917""
""fullscreenenter"",""0"",""143394""
","""event"",""trial"",""time""
""blur"",""0"",""0""
""blur"",""0"",""9076""
","""event"",""trial"",""time""
""focus"",""0"",""0""
""focus"",""0"",""141917""
","""event"",""trial"",""time""
""fullscreenenter"",""0"",""143394""
","
","860.6999999955297","run_exp/static/images/Set 6_rs/108a.jpg","86","","","","","","learn","SR",""
"","show_choice","107","269475","0.0-107.0","""event"",""trial"",""time""
""blur"",""0"",""0""
""focus"",""0"",""0""
""blur"",""0"",""9076""
""focus"",""0"",""141917""
""fullscreenenter"",""0"",""143394""
","""event"",""trial"",""time""
""blur"",""0"",""0""
""blur"",""0"",""9076""
","""event"",""trial"",""time""
""focus"",""0"",""0""
""focus"",""0"",""141917""
","""event"",""trial"",""time""
""fullscreenenter"",""0"",""143394""
","
","null","run_exp/static/images/Set 6_rs/108a.jpg","null","","","","","","learn","SR",""
"","html-keyboard-response","108","269976","0.0-108.0","""event"",""trial"",""time""
""blur"",""0"",""0""
""focus"",""0"",""0""
""blur"",""0"",""9076""
""focus"",""0"",""141917""
""fullscreenenter"",""0"",""143394""
","""event"",""trial"",""time""
""blur"",""0"",""0""
""blur"",""0"",""9076""
","""event"",""trial"",""time""
""focus"",""0"",""0""
""focus"",""0"",""141917""
","""event"",""trial"",""time""
""fullscreenenter"",""0"",""143394""
","
","null","<p></p>","null","","","","","","","",""
"","image","109","271044","0.0-109.0","""event"",""trial"",""time""
""blur"",""0"",""0""
""focus"",""0"",""0""
""blur"",""0"",""9076""
""focus"",""0"",""141917""
""fullscreenenter"",""0"",""143394""
","""event"",""trial"",""time""
""blur"",""0"",""0""
""blur"",""0"",""9076""
","""event"",""trial"",""time""
""focus"",""0"",""0""
""focus"",""0"",""141917""
","""event"",""trial"",""time""
""fullscreenenter"",""0"",""143394""
","
","1066.5","run_exp/static/images/Set 6_rs/008a.jpg","86","","","","","","learn","SL",""
"","show_choice","110","271982","0.0-110.0","""event"",""trial"",""time""
""blur"",""0"",""0""
""focus"",""0"",""0""
""blur"",""0"",""9076""
""focus"",""0"",""141917""
""fullscreenenter"",""0"",""143394""
","""event"",""trial"",""time""
""blur"",""0"",""0""
""blur"",""0"",""9076""
","""event"",""trial"",""time""
""focus"",""0"",""0""
""focus"",""0"",""141917""
","""event"",""trial"",""time""
""fullscreenenter"",""0"",""143394""
","
","null","run_exp/static/images/Set 6_rs/008a.jpg","null","","","","","","learn","SL",""
"","html-keyboard-response","111","272488","0.0-111.0","""event"",""trial"",""time""
""blur"",""0"",""0""
""focus"",""0"",""0""
""blur"",""0"",""9076""
""focus"",""0"",""141917""
""fullscreenenter"",""0"",""143394""
","""event"",""trial"",""time""
""blur"",""0"",""0""
""blur"",""0"",""9076""
","""event"",""trial"",""time""
""focus"",""0"",""0""
""focus"",""0"",""141917""
","""event"",""trial"",""time""
""fullscreenenter"",""0"",""143394""
","
","null","<p></p>","null","","","","","","","",""
"","image","112","273376","0.0-112.0","""event"",""trial"",""time""
""blur"",""0"",""0""
""focus"",""0"",""0""
""blur"",""0"",""9076""
""focus"",""0"",""141917""
""fullscreenenter"",""0"",""143394""
","""event"",""trial"",""time""
""blur"",""0"",""0""
""blur"",""0"",""9076""
","""event"",""trial"",""time""
""focus"",""0"",""0""
""focus"",""0"",""141917""
","""event"",""trial"",""time""
""fullscreenenter"",""0"",""143394""
","
","886.8000000044703","run_exp/static/images/Set 6_rs/076a.jpg","78","","","","","","learn","SR",""
"","show_choice","113","274494","0.0-113.0","""event"",""trial"",""time""
""blur"",""0"",""0""
""focus"",""0"",""0""
""blur"",""0"",""9076""
""focus"",""0"",""141917""
""fullscreenenter"",""0"",""143394""
","""event"",""trial"",""time""
""blur"",""0"",""0""
""blur"",""0"",""9076""
","""event"",""trial"",""time""
""focus"",""0"",""0""
""focus"",""0"",""141917""
","""event"",""trial"",""time""
""fullscreenenter"",""0"",""143394""
","
","null","run_exp/static/images/Set 6_rs/076a.jpg","null","","","","","","learn","SR",""
"","html-keyboard-response","114","275000","0.0-114.0","""event"",""trial"",""time""
""blur"",""0"",""0""
""focus"",""0"",""0""
""blur"",""0"",""9076""
""focus"",""0"",""141917""
""fullscreenenter"",""0"",""143394""
","""event"",""trial"",""time""
""blur"",""0"",""0""
""blur"",""0"",""9076""
","""event"",""trial"",""time""
""focus"",""0"",""0""
""focus"",""0"",""141917""
","""event"",""trial"",""time""
""fullscreenenter"",""0"",""143394""
","
","null","<p></p>","null","","","","","","","",""
"","image","115","276005","0.0-115.0","""event"",""trial"",""time""
""blur"",""0"",""0""
""focus"",""0"",""0""
""blur"",""0"",""9076""
""focus"",""0"",""141917""
""fullscreenenter"",""0"",""143394""
","""event"",""trial"",""time""
""blur"",""0"",""0""
""blur"",""0"",""9076""
","""event"",""trial"",""time""
""focus"",""0"",""0""
""focus"",""0"",""141917""
","""event"",""trial"",""time""
""fullscreenenter"",""0"",""143394""
","
","1003.6999999955297","run_exp/static/images/Set 6_rs/066a.jpg","86","","","","","","learn","SL",""
"","show_choice","116","277005","0.0-116.0","""event"",""trial"",""time""
""blur"",""0"",""0""
""focus"",""0"",""0""
""blur"",""0"",""9076""
""focus"",""0"",""141917""
""fullscreenenter"",""0"",""143394""
","""event"",""trial"",""time""
""blur"",""0"",""0""
""blur"",""0"",""9076""
","""event"",""trial"",""time""
""focus"",""0"",""0""
""focus"",""0"",""141917""
","""event"",""trial"",""time""
""fullscreenenter"",""0"",""143394""
","
","null","run_exp/static/images/Set 6_rs/066a.jpg","null","","","","","","learn","SL",""
"","html-keyboard-response","117","277511","0.0-117.0","""event"",""trial"",""time""
""blur"",""0"",""0""
""focus"",""0"",""0""
""blur"",""0"",""9076""
""focus"",""0"",""141917""
""fullscreenenter"",""0"",""143394""
","""event"",""trial"",""time""
""blur"",""0"",""0""
""blur"",""0"",""9076""
","""event"",""trial"",""time""
""focus"",""0"",""0""
""focus"",""0"",""141917""
","""event"",""trial"",""time""
""fullscreenenter"",""0"",""143394""
","
","null","<p></p>","null","","","","","","","",""
"","image","118","278239","0.0-118.0","""event"",""trial"",""time""
""blur"",""0"",""0""
""focus"",""0"",""0""
""blur"",""0"",""9076""
""focus"",""0"",""141917""
""fullscreenenter"",""0"",""143394""
","""event"",""trial"",""time""
""blur"",""0"",""0""
""blur"",""0"",""9076""
","""event"",""trial"",""time""
""focus"",""0"",""0""
""focus"",""0"",""141917""
","""event"",""trial"",""time""
""fullscreenenter"",""0"",""143394""
","
","726.8999999985099","run_exp/static/images/Set 6_rs/085a.jpg","78","","","","","","learn","SL",""
"","show_choice","119","279514","0.0-119.0","""event"",""trial"",""time""
""blur"",""0"",""0""
""focus"",""0"",""0""
""blur"",""0"",""9076""
""focus"",""0"",""141917""
""fullscreenenter"",""0"",""143394""
","""event"",""trial"",""time""
""blur"",""0"",""0""
""blur"",""0"",""9076""
","""event"",""trial"",""time""
""focus"",""0"",""0""
""focus"",""0"",""141917""
","""event"",""trial"",""time""
""fullscreenenter"",""0"",""143394""
","
","null","run_exp/static/images/Set 6_rs/085a.jpg","null","","","","","","learn","SL",""
"","html-keyboard-response","120","280015","0.0-120.0","""event"",""trial"",""time""
""blur"",""0"",""0""
""focus"",""0"",""0""
""blur"",""0"",""9076""
""focus"",""0"",""141917""
""fullscreenenter"",""0"",""143394""
","""event"",""trial"",""time""
""blur"",""0"",""0""
""blur"",""0"",""9076""
","""event"",""trial"",""time""
""focus"",""0"",""0""
""focus"",""0"",""141917""
","""event"",""trial"",""time""
""fullscreenenter"",""0"",""143394""
","
","null","<p></p>","null","","","","","","","",""
"","image","121","280648","0.0-121.0","""event"",""trial"",""time""
""blur"",""0"",""0""
""focus"",""0"",""0""
""blur"",""0"",""9076""
""focus"",""0"",""141917""
""fullscreenenter"",""0"",""143394""
","""event"",""trial"",""time""
""blur"",""0"",""0""
""blur"",""0"",""9076""
","""event"",""trial"",""time""
""focus"",""0"",""0""
""focus"",""0"",""141917""
","""event"",""trial"",""time""
""fullscreenenter"",""0"",""143394""
","
","632","run_exp/static/images/Set 6_rs/007a.jpg","86","","","","","","learn","SR",""
"","show_choice","122","282021","0.0-122.0","""event"",""trial"",""time""
""blur"",""0"",""0""
""focus"",""0"",""0""
""blur"",""0"",""9076""
""focus"",""0"",""141917""
""fullscreenenter"",""0"",""143394""
","""event"",""trial"",""time""
""blur"",""0"",""0""
""blur"",""0"",""9076""
","""event"",""trial"",""time""
""focus"",""0"",""0""
""focus"",""0"",""141917""
","""event"",""trial"",""time""
""fullscreenenter"",""0"",""143394""
","
","null","run_exp/static/images/Set 6_rs/007a.jpg","null","","","","","","learn","SR",""
"","html-keyboard-response","123","282527","0.0-123.0","""event"",""trial"",""time""
""blur"",""0"",""0""
""focus"",""0"",""0""
""blur"",""0"",""9076""
""focus"",""0"",""141917""
""fullscreenenter"",""0"",""143394""
","""event"",""trial"",""time""
""blur"",""0"",""0""
""blur"",""0"",""9076""
","""event"",""trial"",""time""
""focus"",""0"",""0""
""focus"",""0"",""141917""
","""event"",""trial"",""time""
""fullscreenenter"",""0"",""143394""
","
","null","<p></p>","null","","","","","","","",""
"","image","124","283269","0.0-124.0","""event"",""trial"",""time""
""blur"",""0"",""0""
""focus"",""0"",""0""
""blur"",""0"",""9076""
""focus"",""0"",""141917""
""fullscreenenter"",""0"",""143394""
","""event"",""trial"",""time""
""blur"",""0"",""0""
""blur"",""0"",""9076""
","""event"",""trial"",""time""
""focus"",""0"",""0""
""focus"",""0"",""141917""
","""event"",""trial"",""time""
""fullscreenenter"",""0"",""143394""
","
","740.5","run_exp/static/images/Set 6_rs/074a.jpg","78","","","","","","learn","SL",""
"","show_choice","125","284533","0.0-125.0","""event"",""trial"",""time""
""blur"",""0"",""0""
""focus"",""0"",""0""
""blur"",""0"",""9076""
""focus"",""0"",""141917""
""fullscreenenter"",""0"",""143394""
","""event"",""trial"",""time""
""blur"",""0"",""0""
""blur"",""0"",""9076""
","""event"",""trial"",""time""
""focus"",""0"",""0""
""focus"",""0"",""141917""
","""event"",""trial"",""time""
""fullscreenenter"",""0"",""143394""
","
","null","run_exp/static/images/Set 6_rs/074a.jpg","null","","","","","","learn","SL",""
"","html-keyboard-response","126","285039","0.0-126.0","""event"",""trial"",""time""
""blur"",""0"",""0""
""focus"",""0"",""0""
""blur"",""0"",""9076""
""focus"",""0"",""141917""
""fullscreenenter"",""0"",""143394""
","""event"",""trial"",""time""
""blur"",""0"",""0""
""blur"",""0"",""9076""
","""event"",""trial"",""time""
""focus"",""0"",""0""
""focus"",""0"",""141917""
","""event"",""trial"",""time""
""fullscreenenter"",""0"",""143394""
","
","null","<p></p>","null","","","","","","","",""
"","image","127","285715","0.0-127.0","""event"",""trial"",""time""
""blur"",""0"",""0""
""focus"",""0"",""0""
""blur"",""0"",""9076""
""focus"",""0"",""141917""
""fullscreenenter"",""0"",""143394""
","""event"",""trial"",""time""
""blur"",""0"",""0""
""blur"",""0"",""9076""
","""event"",""trial"",""time""
""focus"",""0"",""0""
""focus"",""0"",""141917""
","""event"",""trial"",""time""
""fullscreenenter"",""0"",""143394""
","
","674.1000000014901","run_exp/static/images/Set 6_rs/141a.jpg","78","","","","","","learn","SR",""
"","show_choice","128","287041","0.0-128.0","""event"",""trial"",""time""
""blur"",""0"",""0""
""focus"",""0"",""0""
""blur"",""0"",""9076""
""focus"",""0"",""141917""
""fullscreenenter"",""0"",""143394""
","""event"",""trial"",""time""
""blur"",""0"",""0""
""blur"",""0"",""9076""
","""event"",""trial"",""time""
""focus"",""0"",""0""
""focus"",""0"",""141917""
","""event"",""trial"",""time""
""fullscreenenter"",""0"",""143394""
","
","null","run_exp/static/images/Set 6_rs/141a.jpg","null","","","","","","learn","SR",""
"","html-keyboard-response","129","287545","0.0-129.0","""event"",""trial"",""time""
""blur"",""0"",""0""
""focus"",""0"",""0""
""blur"",""0"",""9076""
""focus"",""0"",""141917""
""fullscreenenter"",""0"",""143394""
","""event"",""trial"",""time""
""blur"",""0"",""0""
""blur"",""0"",""9076""
","""event"",""trial"",""time""
""focus"",""0"",""0""
""focus"",""0"",""141917""
","""event"",""trial"",""time""
""fullscreenenter"",""0"",""143394""
","
","null","<p></p>","null","","","","","","","",""
"","image","130","288286","0.0-130.0","""event"",""trial"",""time""
""blur"",""0"",""0""
""focus"",""0"",""0""
""blur"",""0"",""9076""
""focus"",""0"",""141917""
""fullscreenenter"",""0"",""143394""
","""event"",""trial"",""time""
""blur"",""0"",""0""
""blur"",""0"",""9076""
","""event"",""trial"",""time""
""focus"",""0"",""0""
""focus"",""0"",""141917""
","""event"",""trial"",""time""
""fullscreenenter"",""0"",""143394""
","
","739.3999999985099","run_exp/static/images/Set 6_rs/079a.jpg","86","","","","","","learn","SL",""
"","show_choice","131","289552","0.0-131.0","""event"",""trial"",""time""
""blur"",""0"",""0""
""focus"",""0"",""0""
""blur"",""0"",""9076""
""focus"",""0"",""141917""
""fullscreenenter"",""0"",""143394""
","""event"",""trial"",""time""
""blur"",""0"",""0""
""blur"",""0"",""9076""
","""event"",""trial"",""time""
""focus"",""0"",""0""
""focus"",""0"",""141917""
","""event"",""trial"",""time""
""fullscreenenter"",""0"",""143394""
","
","null","run_exp/static/images/Set 6_rs/079a.jpg","null","","","","","","learn","SL",""
"","html-keyboard-response","132","290058","0.0-132.0","""event"",""trial"",""time""
""blur"",""0"",""0""
""focus"",""0"",""0""
""blur"",""0"",""9076""
""focus"",""0"",""141917""
""fullscreenenter"",""0"",""143394""
","""event"",""trial"",""time""
""blur"",""0"",""0""
""blur"",""0"",""9076""
","""event"",""trial"",""time""
""focus"",""0"",""0""
""focus"",""0"",""141917""
","""event"",""trial"",""time""
""fullscreenenter"",""0"",""143394""
","
","null","<p></p>","null","","","","","","","",""
"","image","133","290937","0.0-133.0","""event"",""trial"",""time""
""blur"",""0"",""0""
""focus"",""0"",""0""
""blur"",""0"",""9076""
""focus"",""0"",""141917""
""fullscreenenter"",""0"",""143394""
","""event"",""trial"",""time""
""blur"",""0"",""0""
""blur"",""0"",""9076""
","""event"",""trial"",""time""
""focus"",""0"",""0""
""focus"",""0"",""141917""
","""event"",""trial"",""time""
""fullscreenenter"",""0"",""143394""
","
","878.1999999955297","run_exp/static/images/Set 6_rs/123a.jpg","78","","","","","","learn","SL",""
"","show_choice","134","292064","0.0-134.0","""event"",""trial"",""time""
""blur"",""0"",""0""
""focus"",""0"",""0""
""blur"",""0"",""9076""
""focus"",""0"",""141917""
""fullscreenenter"",""0"",""143394""
","""event"",""trial"",""time""
""blur"",""0"",""0""
""blur"",""0"",""9076""
","""event"",""trial"",""time""
""focus"",""0"",""0""
""focus"",""0"",""141917""
","""event"",""trial"",""time""
""fullscreenenter"",""0"",""143394""
","
","null","run_exp/static/images/Set 6_rs/123a.jpg","null","","","","","","learn","SL",""
"","html-keyboard-response","135","292570","0.0-135.0","""event"",""trial"",""time""
""blur"",""0"",""0""
""focus"",""0"",""0""
""blur"",""0"",""9076""
""focus"",""0"",""141917""
""fullscreenenter"",""0"",""143394""
","""event"",""trial"",""time""
""blur"",""0"",""0""
""blur"",""0"",""9076""
","""event"",""trial"",""time""
""focus"",""0"",""0""
""focus"",""0"",""141917""
","""event"",""trial"",""time""
""fullscreenenter"",""0"",""143394""
","
","null","<p></p>","null","","","","","","","",""
"","image","136","293202","0.0-136.0","""event"",""trial"",""time""
""blur"",""0"",""0""
""focus"",""0"",""0""
""blur"",""0"",""9076""
""focus"",""0"",""141917""
""fullscreenenter"",""0"",""143394""
","""event"",""trial"",""time""
""blur"",""0"",""0""
""blur"",""0"",""9076""
","""event"",""trial"",""time""
""focus"",""0"",""0""
""focus"",""0"",""141917""
","""event"",""trial"",""time""
""fullscreenenter"",""0"",""143394""
","
","630.4000000059605","run_exp/static/images/Set 6_rs/095a.jpg","86","","","","","","learn","SL",""
"","show_choice","137","294577","0.0-137.0","""event"",""trial"",""time""
""blur"",""0"",""0""
""focus"",""0"",""0""
""blur"",""0"",""9076""
""focus"",""0"",""141917""
""fullscreenenter"",""0"",""143394""
","""event"",""trial"",""time""
""blur"",""0"",""0""
""blur"",""0"",""9076""
","""event"",""trial"",""time""
""focus"",""0"",""0""
""focus"",""0"",""141917""
","""event"",""trial"",""time""
""fullscreenenter"",""0"",""143394""
","
","null","run_exp/static/images/Set 6_rs/095a.jpg","null","","","","","","learn","SL",""
"","html-keyboard-response","138","295079","0.0-138.0","""event"",""trial"",""time""
""blur"",""0"",""0""
""focus"",""0"",""0""
""blur"",""0"",""9076""
""focus"",""0"",""141917""
""fullscreenenter"",""0"",""143394""
","""event"",""trial"",""time""
""blur"",""0"",""0""
""blur"",""0"",""9076""
","""event"",""trial"",""time""
""focus"",""0"",""0""
""focus"",""0"",""141917""
","""event"",""trial"",""time""
""fullscreenenter"",""0"",""143394""
","
","null","<p></p>","null","","","","","","","",""
"","image","139","296013","0.0-139.0","""event"",""trial"",""time""
""blur"",""0"",""0""
""focus"",""0"",""0""
""blur"",""0"",""9076""
""focus"",""0"",""141917""
""fullscreenenter"",""0"",""143394""
","""event"",""trial"",""time""
""blur"",""0"",""0""
""blur"",""0"",""9076""
","""event"",""trial"",""time""
""focus"",""0"",""0""
""focus"",""0"",""141917""
","""event"",""trial"",""time""
""fullscreenenter"",""0"",""143394""
","
","932.2999999970198","run_exp/static/images/Set 6_rs/091a.jpg","78","","","","","","learn","SL",""
"","show_choice","140","297086","0.0-140.0","""event"",""trial"",""time""
""blur"",""0"",""0""
""focus"",""0"",""0""
""blur"",""0"",""9076""
""focus"",""0"",""141917""
""fullscreenenter"",""0"",""143394""
","""event"",""trial"",""time""
""blur"",""0"",""0""
""blur"",""0"",""9076""
","""event"",""trial"",""time""
""focus"",""0"",""0""
""focus"",""0"",""141917""
","""event"",""trial"",""time""
""fullscreenenter"",""0"",""143394""
","
","null","run_exp/static/images/Set 6_rs/091a.jpg","null","","","","","","learn","SL",""
"","html-keyboard-response","141","297588","0.0-141.0","""event"",""trial"",""time""
""blur"",""0"",""0""
""focus"",""0"",""0""
""blur"",""0"",""9076""
""focus"",""0"",""141917""
""fullscreenenter"",""0"",""143394""
","""event"",""trial"",""time""
""blur"",""0"",""0""
""blur"",""0"",""9076""
","""event"",""trial"",""time""
""focus"",""0"",""0""
""focus"",""0"",""141917""
","""event"",""trial"",""time""
""fullscreenenter"",""0"",""143394""
","
","null","<p></p>","null","","","","","","","",""
"","image","142","298301","0.0-142.0","""event"",""trial"",""time""
""blur"",""0"",""0""
""focus"",""0"",""0""
""blur"",""0"",""9076""
""focus"",""0"",""141917""
""fullscreenenter"",""0"",""143394""
","""event"",""trial"",""time""
""blur"",""0"",""0""
""blur"",""0"",""9076""
","""event"",""trial"",""time""
""focus"",""0"",""0""
""focus"",""0"",""141917""
","""event"",""trial"",""time""
""fullscreenenter"",""0"",""143394""
","
","712.6000000014901","run_exp/static/images/Set 6_rs/006a.jpg","86","","","","","","learn","SL",""
"","show_choice","143","299594","0.0-143.0","""event"",""trial"",""time""
""blur"",""0"",""0""
""focus"",""0"",""0""
""blur"",""0"",""9076""
""focus"",""0"",""141917""
""fullscreenenter"",""0"",""143394""
","""event"",""trial"",""time""
""blur"",""0"",""0""
""blur"",""0"",""9076""
","""event"",""trial"",""time""
""focus"",""0"",""0""
""focus"",""0"",""141917""
","""event"",""trial"",""time""
""fullscreenenter"",""0"",""143394""
","
","null","run_exp/static/images/Set 6_rs/006a.jpg","null","","","","","","learn","SL",""
"","html-keyboard-response","144","300099","0.0-144.0","""event"",""trial"",""time""
""blur"",""0"",""0""
""focus"",""0"",""0""
""blur"",""0"",""9076""
""focus"",""0"",""141917""
""fullscreenenter"",""0"",""143394""
","""event"",""trial"",""time""
""blur"",""0"",""0""
""blur"",""0"",""9076""
","""event"",""trial"",""time""
""focus"",""0"",""0""
""focus"",""0"",""141917""
","""event"",""trial"",""time""
""fullscreenenter"",""0"",""143394""
","
","null","<p></p>","null","","","","","","","",""
"","image","145","300757","0.0-145.0","""event"",""trial"",""time""
""blur"",""0"",""0""
""focus"",""0"",""0""
""blur"",""0"",""9076""
""focus"",""0"",""141917""
""fullscreenenter"",""0"",""143394""
","""event"",""trial"",""time""
""blur"",""0"",""0""
""blur"",""0"",""9076""
","""event"",""trial"",""time""
""focus"",""0"",""0""
""focus"",""0"",""141917""
","""event"",""trial"",""time""
""fullscreenenter"",""0"",""143394""
","
","657.3000000044703","run_exp/static/images/Set 6_rs/166a.jpg","78","","","","","","learn","SR",""
"","show_choice","146","302101","0.0-146.0","""event"",""trial"",""time""
""blur"",""0"",""0""
""focus"",""0"",""0""
""blur"",""0"",""9076""
""focus"",""0"",""141917""
""fullscreenenter"",""0"",""143394""
","""event"",""trial"",""time""
""blur"",""0"",""0""
""blur"",""0"",""9076""
","""event"",""trial"",""time""
""focus"",""0"",""0""
""focus"",""0"",""141917""
","""event"",""trial"",""time""
""fullscreenenter"",""0"",""143394""
","
","null","run_exp/static/images/Set 6_rs/166a.jpg","null","","","","","","learn","SR",""
"","html-keyboard-response","147","302607","0.0-147.0","""event"",""trial"",""time""
""blur"",""0"",""0""
""focus"",""0"",""0""
""blur"",""0"",""9076""
""focus"",""0"",""141917""
""fullscreenenter"",""0"",""143394""
","""event"",""trial"",""time""
""blur"",""0"",""0""
""blur"",""0"",""9076""
","""event"",""trial"",""time""
""focus"",""0"",""0""
""focus"",""0"",""141917""
","""event"",""trial"",""time""
""fullscreenenter"",""0"",""143394""
","
","null","<p></p>","null","","","","","","","",""
"","image","148","303288","0.0-148.0","""event"",""trial"",""time""
""blur"",""0"",""0""
""focus"",""0"",""0""
""blur"",""0"",""9076""
""focus"",""0"",""141917""
""fullscreenenter"",""0"",""143394""
","""event"",""trial"",""time""
""blur"",""0"",""0""
""blur"",""0"",""9076""
","""event"",""trial"",""time""
""focus"",""0"",""0""
""focus"",""0"",""141917""
","""event"",""trial"",""time""
""fullscreenenter"",""0"",""143394""
","
","679.6000000014901","run_exp/static/images/Set 6_rs/088a.jpg","86","","","","","","learn","SR",""
"","show_choice","149","304613","0.0-149.0","""event"",""trial"",""time""
""blur"",""0"",""0""
""focus"",""0"",""0""
""blur"",""0"",""9076""
""focus"",""0"",""141917""
""fullscreenenter"",""0"",""143394""
","""event"",""trial"",""time""
""blur"",""0"",""0""
""blur"",""0"",""9076""
","""event"",""trial"",""time""
""focus"",""0"",""0""
""focus"",""0"",""141917""
","""event"",""trial"",""time""
""fullscreenenter"",""0"",""143394""
","
","null","run_exp/static/images/Set 6_rs/088a.jpg","null","","","","","","learn","SR",""
"","html-keyboard-response","150","305119","0.0-150.0","""event"",""trial"",""time""
""blur"",""0"",""0""
""focus"",""0"",""0""
""blur"",""0"",""9076""
""focus"",""0"",""141917""
""fullscreenenter"",""0"",""143394""
","""event"",""trial"",""time""
""blur"",""0"",""0""
""blur"",""0"",""9076""
","""event"",""trial"",""time""
""focus"",""0"",""0""
""focus"",""0"",""141917""
","""event"",""trial"",""time""
""fullscreenenter"",""0"",""143394""
","
","null","<p></p>","null","","","","","","","",""
"","image","151","305956","0.0-151.0","""event"",""trial"",""time""
""blur"",""0"",""0""
""focus"",""0"",""0""
""blur"",""0"",""9076""
""focus"",""0"",""141917""
""fullscreenenter"",""0"",""143394""
","""event"",""trial"",""time""
""blur"",""0"",""0""
""blur"",""0"",""9076""
","""event"",""trial"",""time""
""focus"",""0"",""0""
""focus"",""0"",""141917""
","""event"",""trial"",""time""
""fullscreenenter"",""0"",""143394""
","
","835.5","run_exp/static/images/Set 6_rs/036a.jpg","78","","","","","","learn","SL",""
"","show_choice","152","307126","0.0-152.0","""event"",""trial"",""time""
""blur"",""0"",""0""
""focus"",""0"",""0""
""blur"",""0"",""9076""
""focus"",""0"",""141917""
""fullscreenenter"",""0"",""143394""
","""event"",""trial"",""time""
""blur"",""0"",""0""
""blur"",""0"",""9076""
","""event"",""trial"",""time""
""focus"",""0"",""0""
""focus"",""0"",""141917""
","""event"",""trial"",""time""
""fullscreenenter"",""0"",""143394""
","
","null","run_exp/static/images/Set 6_rs/036a.jpg","null","","","","","","learn","SL",""
"","html-keyboard-response","153","307632","0.0-153.0","""event"",""trial"",""time""
""blur"",""0"",""0""
""focus"",""0"",""0""
""blur"",""0"",""9076""
""focus"",""0"",""141917""
""fullscreenenter"",""0"",""143394""
","""event"",""trial"",""time""
""blur"",""0"",""0""
""blur"",""0"",""9076""
","""event"",""trial"",""time""
""focus"",""0"",""0""
""focus"",""0"",""141917""
","""event"",""trial"",""time""
""fullscreenenter"",""0"",""143394""
","
","null","<p></p>","null","","","","","","","",""
"","image","154","308425","0.0-154.0","""event"",""trial"",""time""
""blur"",""0"",""0""
""focus"",""0"",""0""
""blur"",""0"",""9076""
""focus"",""0"",""141917""
""fullscreenenter"",""0"",""143394""
","""event"",""trial"",""time""
""blur"",""0"",""0""
""blur"",""0"",""9076""
","""event"",""trial"",""time""
""focus"",""0"",""0""
""focus"",""0"",""141917""
","""event"",""trial"",""time""
""fullscreenenter"",""0"",""143394""
","
","791.3000000044703","run_exp/static/images/Set 6_rs/131a.jpg","86","","","","","","learn","SR",""
"","show_choice","155","309639","0.0-155.0","""event"",""trial"",""time""
""blur"",""0"",""0""
""focus"",""0"",""0""
""blur"",""0"",""9076""
""focus"",""0"",""141917""
""fullscreenenter"",""0"",""143394""
","""event"",""trial"",""time""
""blur"",""0"",""0""
""blur"",""0"",""9076""
","""event"",""trial"",""time""
""focus"",""0"",""0""
""focus"",""0"",""141917""
","""event"",""trial"",""time""
""fullscreenenter"",""0"",""143394""
","
","null","run_exp/static/images/Set 6_rs/131a.jpg","null","","","","","","learn","SR",""
"","html-keyboard-response","156","310145","0.0-156.0","""event"",""trial"",""time""
""blur"",""0"",""0""
""focus"",""0"",""0""
""blur"",""0"",""9076""
""focus"",""0"",""141917""
""fullscreenenter"",""0"",""143394""
","""event"",""trial"",""time""
""blur"",""0"",""0""
""blur"",""0"",""9076""
","""event"",""trial"",""time""
""focus"",""0"",""0""
""focus"",""0"",""141917""
","""event"",""trial"",""time""
""fullscreenenter"",""0"",""143394""
","
","null","<p></p>","null","","","","","","","",""
"","image","157","310871","0.0-157.0","""event"",""trial"",""time""
""blur"",""0"",""0""
""focus"",""0"",""0""
""blur"",""0"",""9076""
""focus"",""0"",""141917""
""fullscreenenter"",""0"",""143394""
","""event"",""trial"",""time""
""blur"",""0"",""0""
""blur"",""0"",""9076""
","""event"",""trial"",""time""
""focus"",""0"",""0""
""focus"",""0"",""141917""
","""event"",""trial"",""time""
""fullscreenenter"",""0"",""143394""
","
","725","run_exp/static/images/Set 6_rs/050a.jpg","86","","","","","","learn","SL",""
"","show_choice","158","312151","0.0-158.0","""event"",""trial"",""time""
""blur"",""0"",""0""
""focus"",""0"",""0""
""blur"",""0"",""9076""
""focus"",""0"",""141917""
""fullscreenenter"",""0"",""143394""
","""event"",""trial"",""time""
""blur"",""0"",""0""
""blur"",""0"",""9076""
","""event"",""trial"",""time""
""focus"",""0"",""0""
""focus"",""0"",""141917""
","""event"",""trial"",""time""
""fullscreenenter"",""0"",""143394""
","
","null","run_exp/static/images/Set 6_rs/050a.jpg","null","","","","","","learn","SL",""
"","html-keyboard-response","159","312653","0.0-159.0","""event"",""trial"",""time""
""blur"",""0"",""0""
""focus"",""0"",""0""
""blur"",""0"",""9076""
""focus"",""0"",""141917""
""fullscreenenter"",""0"",""143394""
","""event"",""trial"",""time""
""blur"",""0"",""0""
""blur"",""0"",""9076""
","""event"",""trial"",""time""
""focus"",""0"",""0""
""focus"",""0"",""141917""
","""event"",""trial"",""time""
""fullscreenenter"",""0"",""143394""
","
","null","<p></p>","null","","","","","","","",""
"","image","160","313819","0.0-160.0","""event"",""trial"",""time""
""blur"",""0"",""0""
""focus"",""0"",""0""
""blur"",""0"",""9076""
""focus"",""0"",""141917""
""fullscreenenter"",""0"",""143394""
","""event"",""trial"",""time""
""blur"",""0"",""0""
""blur"",""0"",""9076""
","""event"",""trial"",""time""
""focus"",""0"",""0""
""focus"",""0"",""141917""
","""event"",""trial"",""time""
""fullscreenenter"",""0"",""143394""
","
","1165.0999999940395","run_exp/static/images/Set 6_rs/117a.jpg","78","","","","","","learn","SL",""
"","show_choice","161","314660","0.0-161.0","""event"",""trial"",""time""
""blur"",""0"",""0""
""focus"",""0"",""0""
""blur"",""0"",""9076""
""focus"",""0"",""141917""
""fullscreenenter"",""0"",""143394""
","""event"",""trial"",""time""
""blur"",""0"",""0""
""blur"",""0"",""9076""
","""event"",""trial"",""time""
""focus"",""0"",""0""
""focus"",""0"",""141917""
","""event"",""trial"",""time""
""fullscreenenter"",""0"",""143394""
","
","null","run_exp/static/images/Set 6_rs/117a.jpg","null","","","","","","learn","SL",""
"","html-keyboard-response","162","315165","0.0-162.0","""event"",""trial"",""time""
""blur"",""0"",""0""
""focus"",""0"",""0""
""blur"",""0"",""9076""
""focus"",""0"",""141917""
""fullscreenenter"",""0"",""143394""
","""event"",""trial"",""time""
""blur"",""0"",""0""
""blur"",""0"",""9076""
","""event"",""trial"",""time""
""focus"",""0"",""0""
""focus"",""0"",""141917""
","""event"",""trial"",""time""
""fullscreenenter"",""0"",""143394""
","
","null","<p></p>","null","","","","","","","",""
"","image","163","316265","0.0-163.0","""event"",""trial"",""time""
""blur"",""0"",""0""
""focus"",""0"",""0""
""blur"",""0"",""9076""
""focus"",""0"",""141917""
""fullscreenenter"",""0"",""143394""
","""event"",""trial"",""time""
""blur"",""0"",""0""
""blur"",""0"",""9076""
","""event"",""trial"",""time""
""focus"",""0"",""0""
""focus"",""0"",""141917""
","""event"",""trial"",""time""
""fullscreenenter"",""0"",""143394""
","
","1099.2000000029802","run_exp/static/images/Set 6_rs/112a.jpg","86","","","","","","learn","SR",""
"","show_choice","164","317171","0.0-164.0","""event"",""trial"",""time""
""blur"",""0"",""0""
""focus"",""0"",""0""
""blur"",""0"",""9076""
""focus"",""0"",""141917""
""fullscreenenter"",""0"",""143394""
","""event"",""trial"",""time""
""blur"",""0"",""0""
""blur"",""0"",""9076""
","""event"",""trial"",""time""
""focus"",""0"",""0""
""focus"",""0"",""141917""
","""event"",""trial"",""time""
""fullscreenenter"",""0"",""143394""
","
","null","run_exp/static/images/Set 6_rs/112a.jpg","null","","","","","","learn","SR",""
"","html-keyboard-response","165","317673","0.0-165.0","""event"",""trial"",""time""
""blur"",""0"",""0""
""focus"",""0"",""0""
""blur"",""0"",""9076""
""focus"",""0"",""141917""
""fullscreenenter"",""0"",""143394""
","""event"",""trial"",""time""
""blur"",""0"",""0""
""blur"",""0"",""9076""
","""event"",""trial"",""time""
""focus"",""0"",""0""
""focus"",""0"",""141917""
","""event"",""trial"",""time""
""fullscreenenter"",""0"",""143394""
","
","null","<p></p>","null","","","","","","","",""
"","image","166","318543","0.0-166.0","""event"",""trial"",""time""
""blur"",""0"",""0""
""focus"",""0"",""0""
""blur"",""0"",""9076""
""focus"",""0"",""141917""
""fullscreenenter"",""0"",""143394""
","""event"",""trial"",""time""
""blur"",""0"",""0""
""blur"",""0"",""9076""
","""event"",""trial"",""time""
""focus"",""0"",""0""
""focus"",""0"",""141917""
","""event"",""trial"",""time""
""fullscreenenter"",""0"",""143394""
","
","868.5999999940395","run_exp/static/images/Set 6_rs/057a.jpg","86","","","","","","learn","SL",""
"","show_choice","167","319680","0.0-167.0","""event"",""trial"",""time""
""blur"",""0"",""0""
""focus"",""0"",""0""
""blur"",""0"",""9076""
""focus"",""0"",""141917""
""fullscreenenter"",""0"",""143394""
","""event"",""trial"",""time""
""blur"",""0"",""0""
""blur"",""0"",""9076""
","""event"",""trial"",""time""
""focus"",""0"",""0""
""focus"",""0"",""141917""
","""event"",""trial"",""time""
""fullscreenenter"",""0"",""143394""
","
","null","run_exp/static/images/Set 6_rs/057a.jpg","null","","","","","","learn","SL",""
"","html-keyboard-response","168","320185","0.0-168.0","""event"",""trial"",""time""
""blur"",""0"",""0""
""focus"",""0"",""0""
""blur"",""0"",""9076""
""focus"",""0"",""141917""
""fullscreenenter"",""0"",""143394""
","""event"",""trial"",""time""
""blur"",""0"",""0""
""blur"",""0"",""9076""
","""event"",""trial"",""time""
""focus"",""0"",""0""
""focus"",""0"",""141917""
","""event"",""trial"",""time""
""fullscreenenter"",""0"",""143394""
","
","null","<p></p>","null","","","","","","","",""
"","image","169","321286","0.0-169.0","""event"",""trial"",""time""
""blur"",""0"",""0""
""focus"",""0"",""0""
""blur"",""0"",""9076""
""focus"",""0"",""141917""
""fullscreenenter"",""0"",""143394""
","""event"",""trial"",""time""
""blur"",""0"",""0""
""blur"",""0"",""9076""
","""event"",""trial"",""time""
""focus"",""0"",""0""
""focus"",""0"",""141917""
","""event"",""trial"",""time""
""fullscreenenter"",""0"",""143394""
","
","1099.2000000029802","run_exp/static/images/Set 6_rs/017a.jpg","86","","","","","","learn","SL",""
"","show_choice","170","322192","0.0-170.0","""event"",""trial"",""time""
""blur"",""0"",""0""
""focus"",""0"",""0""
""blur"",""0"",""9076""
""focus"",""0"",""141917""
""fullscreenenter"",""0"",""143394""
","""event"",""trial"",""time""
""blur"",""0"",""0""
""blur"",""0"",""9076""
","""event"",""trial"",""time""
""focus"",""0"",""0""
""focus"",""0"",""141917""
","""event"",""trial"",""time""
""fullscreenenter"",""0"",""143394""
","
","null","run_exp/static/images/Set 6_rs/017a.jpg","null","","","","","","learn","SL",""
"","html-keyboard-response","171","322698","0.0-171.0","""event"",""trial"",""time""
""blur"",""0"",""0""
""focus"",""0"",""0""
""blur"",""0"",""9076""
""focus"",""0"",""141917""
""fullscreenenter"",""0"",""143394""
","""event"",""trial"",""time""
""blur"",""0"",""0""
""blur"",""0"",""9076""
","""event"",""trial"",""time""
""focus"",""0"",""0""
""focus"",""0"",""141917""
","""event"",""trial"",""time""
""fullscreenenter"",""0"",""143394""
","
","null","<p></p>","null","","","","","","","",""
"","image","172","323380","0.0-172.0","""event"",""trial"",""time""
""blur"",""0"",""0""
""focus"",""0"",""0""
""blur"",""0"",""9076""
""focus"",""0"",""141917""
""fullscreenenter"",""0"",""143394""
","""event"",""trial"",""time""
""blur"",""0"",""0""
""blur"",""0"",""9076""
","""event"",""trial"",""time""
""focus"",""0"",""0""
""focus"",""0"",""141917""
","""event"",""trial"",""time""
""fullscreenenter"",""0"",""143394""
","
","680.3999999985099","run_exp/static/images/Set 6_rs/178a.jpg","78","","","","","","learn","SR",""
"","show_choice","173","324704","0.0-173.0","""event"",""trial"",""time""
""blur"",""0"",""0""
""focus"",""0"",""0""
""blur"",""0"",""9076""
""focus"",""0"",""141917""
""fullscreenenter"",""0"",""143394""
","""event"",""trial"",""time""
""blur"",""0"",""0""
""blur"",""0"",""9076""
","""event"",""trial"",""time""
""focus"",""0"",""0""
""focus"",""0"",""141917""
","""event"",""trial"",""time""
""fullscreenenter"",""0"",""143394""
","
","null","run_exp/static/images/Set 6_rs/178a.jpg","null","","","","","","learn","SR",""
"","html-keyboard-response","174","325210","0.0-174.0","""event"",""trial"",""time""
""blur"",""0"",""0""
""focus"",""0"",""0""
""blur"",""0"",""9076""
""focus"",""0"",""141917""
""fullscreenenter"",""0"",""143394""
","""event"",""trial"",""time""
""blur"",""0"",""0""
""blur"",""0"",""9076""
","""event"",""trial"",""time""
""focus"",""0"",""0""
""focus"",""0"",""141917""
","""event"",""trial"",""time""
""fullscreenenter"",""0"",""143394""
","
","null","<p></p>","null","","","","","","","",""
"","image","175","325849","0.0-175.0","""event"",""trial"",""time""
""blur"",""0"",""0""
""focus"",""0"",""0""
""blur"",""0"",""9076""
""focus"",""0"",""141917""
""fullscreenenter"",""0"",""143394""
","""event"",""trial"",""time""
""blur"",""0"",""0""
""blur"",""0"",""9076""
","""event"",""trial"",""time""
""focus"",""0"",""0""
""focus"",""0"",""141917""
","""event"",""trial"",""time""
""fullscreenenter"",""0"",""143394""
","
","637.3999999985099","run_exp/static/images/Set 6_rs/010a.jpg","86","","","","","","learn","SR",""
"","show_choice","176","327216","0.0-176.0","""event"",""trial"",""time""
""blur"",""0"",""0""
""focus"",""0"",""0""
""blur"",""0"",""9076""
""focus"",""0"",""141917""
""fullscreenenter"",""0"",""143394""
","""event"",""trial"",""time""
""blur"",""0"",""0""
""blur"",""0"",""9076""
","""event"",""trial"",""time""
""focus"",""0"",""0""
""focus"",""0"",""141917""
","""event"",""trial"",""time""
""fullscreenenter"",""0"",""143394""
","
","null","run_exp/static/images/Set 6_rs/010a.jpg","null","","","","","","learn","SR",""
"","html-keyboard-response","177","327721","0.0-177.0","""event"",""trial"",""time""
""blur"",""0"",""0""
""focus"",""0"",""0""
""blur"",""0"",""9076""
""focus"",""0"",""141917""
""fullscreenenter"",""0"",""143394""
","""event"",""trial"",""time""
""blur"",""0"",""0""
""blur"",""0"",""9076""
","""event"",""trial"",""time""
""focus"",""0"",""0""
""focus"",""0"",""141917""
","""event"",""trial"",""time""
""fullscreenenter"",""0"",""143394""
","
","null","<p></p>","null","","","","","","","",""
"","image","178","328541","0.0-178.0","""event"",""trial"",""time""
""blur"",""0"",""0""
""focus"",""0"",""0""
""blur"",""0"",""9076""
""focus"",""0"",""141917""
""fullscreenenter"",""0"",""143394""
","""event"",""trial"",""time""
""blur"",""0"",""0""
""blur"",""0"",""9076""
","""event"",""trial"",""time""
""focus"",""0"",""0""
""focus"",""0"",""141917""
","""event"",""trial"",""time""
""fullscreenenter"",""0"",""143394""
","
","818.5","run_exp/static/images/Set 6_rs/045a.jpg","86","","","","","","learn","SR",""
"","show_choice","179","329728","0.0-179.0","""event"",""trial"",""time""
""blur"",""0"",""0""
""focus"",""0"",""0""
""blur"",""0"",""9076""
""focus"",""0"",""141917""
""fullscreenenter"",""0"",""143394""
","""event"",""trial"",""time""
""blur"",""0"",""0""
""blur"",""0"",""9076""
","""event"",""trial"",""time""
""focus"",""0"",""0""
""focus"",""0"",""141917""
","""event"",""trial"",""time""
""fullscreenenter"",""0"",""143394""
","
","null","run_exp/static/images/Set 6_rs/045a.jpg","null","","","","","","learn","SR",""
"","html-keyboard-response","180","330232","0.0-180.0","""event"",""trial"",""time""
""blur"",""0"",""0""
""focus"",""0"",""0""
""blur"",""0"",""9076""
""focus"",""0"",""141917""
""fullscreenenter"",""0"",""143394""
","""event"",""trial"",""time""
""blur"",""0"",""0""
""blur"",""0"",""9076""
","""event"",""trial"",""time""
""focus"",""0"",""0""
""focus"",""0"",""141917""
","""event"",""trial"",""time""
""fullscreenenter"",""0"",""143394""
","
","null","<p></p>","null","","","","","","","",""
"","image","181","331476","0.0-181.0","""event"",""trial"",""time""
""blur"",""0"",""0""
""focus"",""0"",""0""
""blur"",""0"",""9076""
""focus"",""0"",""141917""
""fullscreenenter"",""0"",""143394""
","""event"",""trial"",""time""
""blur"",""0"",""0""
""blur"",""0"",""9076""
","""event"",""trial"",""time""
""focus"",""0"",""0""
""focus"",""0"",""141917""
","""event"",""trial"",""time""
""fullscreenenter"",""0"",""143394""
","
","1242.7999999970198","run_exp/static/images/Set 6_rs/016a.jpg","86","","","","","","learn","SL",""
"","show_choice","182","332239","0.0-182.0","""event"",""trial"",""time""
""blur"",""0"",""0""
""focus"",""0"",""0""
""blur"",""0"",""9076""
""focus"",""0"",""141917""
""fullscreenenter"",""0"",""143394""
","""event"",""trial"",""time""
""blur"",""0"",""0""
""blur"",""0"",""9076""
","""event"",""trial"",""time""
""focus"",""0"",""0""
""focus"",""0"",""141917""
","""event"",""trial"",""time""
""fullscreenenter"",""0"",""143394""
","
","null","run_exp/static/images/Set 6_rs/016a.jpg","null","","","","","","learn","SL",""
"","html-keyboard-response","183","332742","0.0-183.0","""event"",""trial"",""time""
""blur"",""0"",""0""
""focus"",""0"",""0""
""blur"",""0"",""9076""
""focus"",""0"",""141917""
""fullscreenenter"",""0"",""143394""
","""event"",""trial"",""time""
""blur"",""0"",""0""
""blur"",""0"",""9076""
","""event"",""trial"",""time""
""focus"",""0"",""0""
""focus"",""0"",""141917""
","""event"",""trial"",""time""
""fullscreenenter"",""0"",""143394""
","
","null","<p></p>","null","","","","","","","",""
"","image","184","334099","0.0-184.0","""event"",""trial"",""time""
""blur"",""0"",""0""
""focus"",""0"",""0""
""blur"",""0"",""9076""
""focus"",""0"",""141917""
""fullscreenenter"",""0"",""143394""
","""event"",""trial"",""time""
""blur"",""0"",""0""
""blur"",""0"",""9076""
","""event"",""trial"",""time""
""focus"",""0"",""0""
""focus"",""0"",""141917""
","""event"",""trial"",""time""
""fullscreenenter"",""0"",""143394""
","
","1356.1000000014901","run_exp/static/images/Set 6_rs/023a.jpg","86","","","","","","learn","SR",""
"","show_choice","185","334748","0.0-185.0","""event"",""trial"",""time""
""blur"",""0"",""0""
""focus"",""0"",""0""
""blur"",""0"",""9076""
""focus"",""0"",""141917""
""fullscreenenter"",""0"",""143394""
","""event"",""trial"",""time""
""blur"",""0"",""0""
""blur"",""0"",""9076""
