"success","trial_type","trial_index","time_elapsed","internal_node_id","interactions","blur_events","focus_events","fullscreenenter_events","fullscreenexit_events","rt","stimulus","key_press","subject_id","participant_id","age","gender","prompt","phase","condition","lure_bin"
"true","fullscreen","0","33607","0.0-0.0","""event"",""trial"",""time""
""focus"",""0"",""0""
""fullscreenenter"",""0"",""32632""
","
","""event"",""trial"",""time""
""focus"",""0"",""0""
","""event"",""trial"",""time""
""fullscreenenter"",""0"",""32632""
","
","","","","","","","","","","",""
"","pavlovia","1","33612","0.0-1.0","""event"",""trial"",""time""
""focus"",""0"",""0""
""fullscreenenter"",""0"",""32632""
","
","""event"",""trial"",""time""
""focus"",""0"",""0""
","""event"",""trial"",""time""
""fullscreenenter"",""0"",""32632""
","
","","","","","","","","","","",""
"","welcome","2","68483","0.0-2.0","""event"",""trial"",""time""
""focus"",""0"",""0""
""fullscreenenter"",""0"",""32632""
","
","""event"",""trial"",""time""
""focus"",""0"",""0""
","""event"",""trial"",""time""
""fullscreenenter"",""0"",""32632""
","
","null","run_exp/static/audio/clip_1_welcome.m4a","null","592","717","9","Female","<div class='center'><p>Welcome to the third part of the study! First, you'll be shown pictures of items one at a time. For each picture, you have to decide if the item is typically found indoors or outdoors.</p><p>If you think it's usually found indoors, then press <b>v</b> key on your keyboard. If you think it's usually found outdoors, then press the <b>n</b> key.There will be reminders on the screen to help you remember which keys to press. </p><p>If you're not sure whether the item is an indoor item or an outdoor item, go ahead and take a guess but try your best not to skip that choice. </p></div>","","",""
"","html-keyboard-response","3","68937","0.0-3.0","""event"",""trial"",""time""
""focus"",""0"",""0""
""fullscreenenter"",""0"",""32632""
","
","""event"",""trial"",""time""
""focus"",""0"",""0""
","""event"",""trial"",""time""
""fullscreenenter"",""0"",""32632""
","
","450","<div class='center'><p>Welcome to the third part of the study! First, you'll be shown pictures of items one at a time. For each picture, you have to decide if the item is typically found indoors or outdoors.</p><p>If you think it's usually found indoors, then press <b>v</b> key on your keyboard. If you think it's usually found outdoors, then press the <b>n</b> key.There will be reminders on the screen to help you remember which keys to press. </p><p>If you're not sure whether the item is an indoor item or an outdoor item, go ahead and take a guess but try your best not to skip that choice. </p><div><p><b>[Press the space bar to continue]</b></p></div>","32","","","","","","","",""
"","image","4","70940","0.0-4.0","""event"",""trial"",""time""
""focus"",""0"",""0""
""fullscreenenter"",""0"",""32632""
","
","""event"",""trial"",""time""
""focus"",""0"",""0""
","""event"",""trial"",""time""
""fullscreenenter"",""0"",""32632""
","
","null","run_exp/static/images/Set 6_rs/024a.jpg","null","","","","","","learn","SR",""
"","show_choice","5","72946","0.0-5.0","""event"",""trial"",""time""
""focus"",""0"",""0""
""fullscreenenter"",""0"",""32632""
","
","""event"",""trial"",""time""
""focus"",""0"",""0""
","""event"",""trial"",""time""
""fullscreenenter"",""0"",""32632""
","
","null","run_exp/static/images/blank.png","null","","","","","","learn","SR",""
"","html-keyboard-response","6","73451","0.0-6.0","""event"",""trial"",""time""
""focus"",""0"",""0""
""fullscreenenter"",""0"",""32632""
","
","""event"",""trial"",""time""
""focus"",""0"",""0""
","""event"",""trial"",""time""
""fullscreenenter"",""0"",""32632""
","
","null","<p></p>","null","","","","","","","",""
"","image","7","75454","0.0-7.0","""event"",""trial"",""time""
""focus"",""0"",""0""
""fullscreenenter"",""0"",""32632""
","
","""event"",""trial"",""time""
""focus"",""0"",""0""
","""event"",""trial"",""time""
""fullscreenenter"",""0"",""32632""
","
","null","run_exp/static/images/Set 6_rs/007a.jpg","null","","","","","","learn","SR",""
"","show_choice","8","77460","0.0-8.0","""event"",""trial"",""time""
""focus"",""0"",""0""
""fullscreenenter"",""0"",""32632""
","
","""event"",""trial"",""time""
""focus"",""0"",""0""
","""event"",""trial"",""time""
""fullscreenenter"",""0"",""32632""
","
","null","run_exp/static/images/blank.png","null","","","","","","learn","SR",""
"","html-keyboard-response","9","77966","0.0-9.0","""event"",""trial"",""time""
""focus"",""0"",""0""
""fullscreenenter"",""0"",""32632""
","
","""event"",""trial"",""time""
""focus"",""0"",""0""
","""event"",""trial"",""time""
""fullscreenenter"",""0"",""32632""
","
","null","<p></p>","null","","","","","","","",""
"","image","10","79145","0.0-10.0","""event"",""trial"",""time""
""focus"",""0"",""0""
""fullscreenenter"",""0"",""32632""
","
","""event"",""trial"",""time""
""focus"",""0"",""0""
","""event"",""trial"",""time""
""fullscreenenter"",""0"",""32632""
","
","1176","run_exp/static/images/Set 6_rs/019a.jpg","78","","","","","","learn","SL",""
"","show_choice","11","79976","0.0-11.0","""event"",""trial"",""time""
""focus"",""0"",""0""
""fullscreenenter"",""0"",""32632""
","
","""event"",""trial"",""time""
""focus"",""0"",""0""
","""event"",""trial"",""time""
""fullscreenenter"",""0"",""32632""
","
","null","run_exp/static/images/Set 6_rs/019a.jpg","null","","","","","","learn","SL",""
"","html-keyboard-response","12","80478","0.0-12.0","""event"",""trial"",""time""
""focus"",""0"",""0""
""fullscreenenter"",""0"",""32632""
","
","""event"",""trial"",""time""
""focus"",""0"",""0""
","""event"",""trial"",""time""
""fullscreenenter"",""0"",""32632""
","
","null","<p></p>","null","","","","","","","",""
"","image","13","81608","0.0-13.0","""event"",""trial"",""time""
""focus"",""0"",""0""
""fullscreenenter"",""0"",""32632""
","
","""event"",""trial"",""time""
""focus"",""0"",""0""
","""event"",""trial"",""time""
""fullscreenenter"",""0"",""32632""
","
","1127","run_exp/static/images/Set 6_rs/036a.jpg","86","","","","","","learn","SL",""
"","show_choice","14","82486","0.0-14.0","""event"",""trial"",""time""
""focus"",""0"",""0""
""fullscreenenter"",""0"",""32632""
","
","""event"",""trial"",""time""
""focus"",""0"",""0""
","""event"",""trial"",""time""
""fullscreenenter"",""0"",""32632""
","
","null","run_exp/static/images/Set 6_rs/036a.jpg","null","","","","","","learn","SL",""
"","html-keyboard-response","15","82989","0.0-15.0","""event"",""trial"",""time""
""focus"",""0"",""0""
""fullscreenenter"",""0"",""32632""
","
","""event"",""trial"",""time""
""focus"",""0"",""0""
","""event"",""trial"",""time""
""fullscreenenter"",""0"",""32632""
","
","null","<p></p>","null","","","","","","","",""
"","image","16","84129","0.0-16.0","""event"",""trial"",""time""
""focus"",""0"",""0""
""fullscreenenter"",""0"",""32632""
","
","""event"",""trial"",""time""
""focus"",""0"",""0""
","""event"",""trial"",""time""
""fullscreenenter"",""0"",""32632""
","
","1137","run_exp/static/images/Set 6_rs/123a.jpg","78","","","","","","learn","SL",""
"","show_choice","17","84996","0.0-17.0","""event"",""trial"",""time""
""focus"",""0"",""0""
""fullscreenenter"",""0"",""32632""
","
","""event"",""trial"",""time""
""focus"",""0"",""0""
","""event"",""trial"",""time""
""fullscreenenter"",""0"",""32632""
","
","null","run_exp/static/images/Set 6_rs/123a.jpg","null","","","","","","learn","SL",""
"","html-keyboard-response","18","85501","0.0-18.0","""event"",""trial"",""time""
""focus"",""0"",""0""
""fullscreenenter"",""0"",""32632""
","
","""event"",""trial"",""time""
""focus"",""0"",""0""
","""event"",""trial"",""time""
""fullscreenenter"",""0"",""32632""
","
","null","<p></p>","null","","","","","","","",""
"","image","19","86825","0.0-19.0","""event"",""trial"",""time""
""focus"",""0"",""0""
""fullscreenenter"",""0"",""32632""
","
","""event"",""trial"",""time""
""focus"",""0"",""0""
","""event"",""trial"",""time""
""fullscreenenter"",""0"",""32632""
","
","1322","run_exp/static/images/Set 6_rs/074a.jpg","78","","","","","","learn","SL",""
"","show_choice","20","87505","0.0-20.0","""event"",""trial"",""time""
""focus"",""0"",""0""
""fullscreenenter"",""0"",""32632""
","
","""event"",""trial"",""time""
""focus"",""0"",""0""
","""event"",""trial"",""time""
""fullscreenenter"",""0"",""32632""
","
","null","run_exp/static/images/Set 6_rs/074a.jpg","null","","","","","","learn","SL",""
"","html-keyboard-response","21","88012","0.0-21.0","""event"",""trial"",""time""
""focus"",""0"",""0""
""fullscreenenter"",""0"",""32632""
","
","""event"",""trial"",""time""
""focus"",""0"",""0""
","""event"",""trial"",""time""
""fullscreenenter"",""0"",""32632""
","
","null","<p></p>","null","","","","","","","",""
"","image","22","89129","0.0-22.0","""event"",""trial"",""time""
""focus"",""0"",""0""
""fullscreenenter"",""0"",""32632""
","
","""event"",""trial"",""time""
""focus"",""0"",""0""
","""event"",""trial"",""time""
""fullscreenenter"",""0"",""32632""
","
","1115","run_exp/static/images/Set 6_rs/134a.jpg","86","","","","","","learn","SR",""
"","show_choice","23","90021","0.0-23.0","""event"",""trial"",""time""
""focus"",""0"",""0""
""fullscreenenter"",""0"",""32632""
","
","""event"",""trial"",""time""
""focus"",""0"",""0""
","""event"",""trial"",""time""
""fullscreenenter"",""0"",""32632""
","
","null","run_exp/static/images/Set 6_rs/134a.jpg","null","","","","","","learn","SR",""
"","html-keyboard-response","24","90527","0.0-24.0","""event"",""trial"",""time""
""focus"",""0"",""0""
""fullscreenenter"",""0"",""32632""
","
","""event"",""trial"",""time""
""focus"",""0"",""0""
","""event"",""trial"",""time""
""fullscreenenter"",""0"",""32632""
","
","null","<p></p>","null","","","","","","","",""
"","image","25","92032","0.0-25.0","""event"",""trial"",""time""
""focus"",""0"",""0""
""fullscreenenter"",""0"",""32632""
","
","""event"",""trial"",""time""
""focus"",""0"",""0""
","""event"",""trial"",""time""
""fullscreenenter"",""0"",""32632""
","
","1502","run_exp/static/images/Set 6_rs/168a.jpg","78","","","","","","learn","SL",""
"","show_choice","26","92536","0.0-26.0","""event"",""trial"",""time""
""focus"",""0"",""0""
""fullscreenenter"",""0"",""32632""
","
","""event"",""trial"",""time""
""focus"",""0"",""0""
","""event"",""trial"",""time""
""fullscreenenter"",""0"",""32632""
","
","null","run_exp/static/images/Set 6_rs/168a.jpg","null","","","","","","learn","SL",""
"","html-keyboard-response","27","93040","0.0-27.0","""event"",""trial"",""time""
""focus"",""0"",""0""
""fullscreenenter"",""0"",""32632""
","
","""event"",""trial"",""time""
""focus"",""0"",""0""
","""event"",""trial"",""time""
""fullscreenenter"",""0"",""32632""
","
","null","<p></p>","null","","","","","","","",""
"","image","28","94035","0.0-28.0","""event"",""trial"",""time""
""focus"",""0"",""0""
""fullscreenenter"",""0"",""32632""
","
","""event"",""trial"",""time""
""focus"",""0"",""0""
","""event"",""trial"",""time""
""fullscreenenter"",""0"",""32632""
","
","994","run_exp/static/images/Set 6_rs/150a.jpg","86","","","","","","learn","SR",""
"","show_choice","29","95047","0.0-29.0","""event"",""trial"",""time""
""focus"",""0"",""0""
""fullscreenenter"",""0"",""32632""
","
","""event"",""trial"",""time""
""focus"",""0"",""0""
","""event"",""trial"",""time""
""fullscreenenter"",""0"",""32632""
","
","null","run_exp/static/images/Set 6_rs/150a.jpg","null","","","","","","learn","SR",""
"","html-keyboard-response","30","95551","0.0-30.0","""event"",""trial"",""time""
""focus"",""0"",""0""
""fullscreenenter"",""0"",""32632""
","
","""event"",""trial"",""time""
""focus"",""0"",""0""
","""event"",""trial"",""time""
""fullscreenenter"",""0"",""32632""
","
","null","<p></p>","null","","","","","","","",""
"","image","31","96614","0.0-31.0","""event"",""trial"",""time""
""focus"",""0"",""0""
""fullscreenenter"",""0"",""32632""
","
","""event"",""trial"",""time""
""focus"",""0"",""0""
","""event"",""trial"",""time""
""fullscreenenter"",""0"",""32632""
","
","1063","run_exp/static/images/Set 6_rs/057a.jpg","86","","","","","","learn","SL",""
"","show_choice","32","97557","0.0-32.0","""event"",""trial"",""time""
""focus"",""0"",""0""
""fullscreenenter"",""0"",""32632""
","
","""event"",""trial"",""time""
""focus"",""0"",""0""
","""event"",""trial"",""time""
""fullscreenenter"",""0"",""32632""
","
","null","run_exp/static/images/Set 6_rs/057a.jpg","null","","","","","","learn","SL",""
"","html-keyboard-response","33","98063","0.0-33.0","""event"",""trial"",""time""
""focus"",""0"",""0""
""fullscreenenter"",""0"",""32632""
","
","""event"",""trial"",""time""
""focus"",""0"",""0""
","""event"",""trial"",""time""
""fullscreenenter"",""0"",""32632""
","
","null","<p></p>","null","","","","","","","",""
"","image","34","99754","0.0-34.0","""event"",""trial"",""time""
""focus"",""0"",""0""
""fullscreenenter"",""0"",""32632""
","
","""event"",""trial"",""time""
""focus"",""0"",""0""
","""event"",""trial"",""time""
""fullscreenenter"",""0"",""32632""
","
","1689","run_exp/static/images/Set 6_rs/095a.jpg","86","","","","","","learn","SL",""
"","show_choice","35","100068","0.0-35.0","""event"",""trial"",""time""
""focus"",""0"",""0""
""fullscreenenter"",""0"",""32632""
","
","""event"",""trial"",""time""
""focus"",""0"",""0""
","""event"",""trial"",""time""
""fullscreenenter"",""0"",""32632""
","
","null","run_exp/static/images/Set 6_rs/095a.jpg","null","","","","","","learn","SL",""
"","html-keyboard-response","36","100572","0.0-36.0","""event"",""trial"",""time""
""focus"",""0"",""0""
""fullscreenenter"",""0"",""32632""
","
","""event"",""trial"",""time""
""focus"",""0"",""0""
","""event"",""trial"",""time""
""fullscreenenter"",""0"",""32632""
","
","null","<p></p>","null","","","","","","","",""
"","image","37","101498","0.0-37.0","""event"",""trial"",""time""
""focus"",""0"",""0""
""fullscreenenter"",""0"",""32632""
","
","""event"",""trial"",""time""
""focus"",""0"",""0""
","""event"",""trial"",""time""
""fullscreenenter"",""0"",""32632""
","
","924","run_exp/static/images/Set 6_rs/050a.jpg","86","","","","","","learn","SL",""
"","show_choice","38","102581","0.0-38.0","""event"",""trial"",""time""
""focus"",""0"",""0""
""fullscreenenter"",""0"",""32632""
","
","""event"",""trial"",""time""
""focus"",""0"",""0""
","""event"",""trial"",""time""
""fullscreenenter"",""0"",""32632""
","
","null","run_exp/static/images/Set 6_rs/050a.jpg","null","","","","","","learn","SL",""
"","html-keyboard-response","39","103084","0.0-39.0","""event"",""trial"",""time""
""focus"",""0"",""0""
""fullscreenenter"",""0"",""32632""
","
","""event"",""trial"",""time""
""focus"",""0"",""0""
","""event"",""trial"",""time""
""fullscreenenter"",""0"",""32632""
","
","null","<p></p>","null","","","","","","","",""
"","image","40","104510","0.0-40.0","""event"",""trial"",""time""
""focus"",""0"",""0""
""fullscreenenter"",""0"",""32632""
","
","""event"",""trial"",""time""
""focus"",""0"",""0""
","""event"",""trial"",""time""
""fullscreenenter"",""0"",""32632""
","
","1424","run_exp/static/images/Set 6_rs/017a.jpg","86","","","","","","learn","SL",""
"","show_choice","41","105092","0.0-41.0","""event"",""trial"",""time""
""focus"",""0"",""0""
""fullscreenenter"",""0"",""32632""
","
","""event"",""trial"",""time""
""focus"",""0"",""0""
","""event"",""trial"",""time""
""fullscreenenter"",""0"",""32632""
","
","null","run_exp/static/images/Set 6_rs/017a.jpg","null","","","","","","learn","SL",""
"","html-keyboard-response","42","105593","0.0-42.0","""event"",""trial"",""time""
""focus"",""0"",""0""
""fullscreenenter"",""0"",""32632""
","
","""event"",""trial"",""time""
""focus"",""0"",""0""
","""event"",""trial"",""time""
""fullscreenenter"",""0"",""32632""
","
","null","<p></p>","null","","","","","","","",""
"","image","43","106757","0.0-43.0","""event"",""trial"",""time""
""focus"",""0"",""0""
""fullscreenenter"",""0"",""32632""
","
","""event"",""trial"",""time""
""focus"",""0"",""0""
","""event"",""trial"",""time""
""fullscreenenter"",""0"",""32632""
","
","1163","run_exp/static/images/Set 6_rs/177a.jpg","78","","","","","","learn","SR",""
"","show_choice","44","107594","0.0-44.0","""event"",""trial"",""time""
""focus"",""0"",""0""
""fullscreenenter"",""0"",""32632""
","
","""event"",""trial"",""time""
""focus"",""0"",""0""
","""event"",""trial"",""time""
""fullscreenenter"",""0"",""32632""
","
","null","run_exp/static/images/Set 6_rs/177a.jpg","null","","","","","","learn","SR",""
"","html-keyboard-response","45","108099","0.0-45.0","""event"",""trial"",""time""
""focus"",""0"",""0""
""fullscreenenter"",""0"",""32632""
","
","""event"",""trial"",""time""
""focus"",""0"",""0""
","""event"",""trial"",""time""
""fullscreenenter"",""0"",""32632""
","
","null","<p></p>","null","","","","","","","",""
"","image","46","109247","0.0-46.0","""event"",""trial"",""time""
""focus"",""0"",""0""
""fullscreenenter"",""0"",""32632""
","
","""event"",""trial"",""time""
""focus"",""0"",""0""
","""event"",""trial"",""time""
""fullscreenenter"",""0"",""32632""
","
","1146","run_exp/static/images/Set 6_rs/023a.jpg","86","","","","","","learn","SR",""
"","show_choice","47","110107","0.0-47.0","""event"",""trial"",""time""
""focus"",""0"",""0""
""fullscreenenter"",""0"",""32632""
","
","""event"",""trial"",""time""
""focus"",""0"",""0""
","""event"",""trial"",""time""
""fullscreenenter"",""0"",""32632""
","
","null","run_exp/static/images/Set 6_rs/023a.jpg","null","","","","","","learn","SR",""
"","html-keyboard-response","48","110611","0.0-48.0","""event"",""trial"",""time""
""focus"",""0"",""0""
""fullscreenenter"",""0"",""32632""
","
","""event"",""trial"",""time""
""focus"",""0"",""0""
","""event"",""trial"",""time""
""fullscreenenter"",""0"",""32632""
","
","null","<p></p>","null","","","","","","","",""
"","image","49","111741","0.0-49.0","""event"",""trial"",""time""
""focus"",""0"",""0""
""fullscreenenter"",""0"",""32632""
","
","""event"",""trial"",""time""
""focus"",""0"",""0""
","""event"",""trial"",""time""
""fullscreenenter"",""0"",""32632""
","
","1128","run_exp/static/images/Set 6_rs/166a.jpg","78","","","","","","learn","SR",""
"","show_choice","50","112616","0.0-50.0","""event"",""trial"",""time""
""focus"",""0"",""0""
""fullscreenenter"",""0"",""32632""
","
","""event"",""trial"",""time""
""focus"",""0"",""0""
","""event"",""trial"",""time""
""fullscreenenter"",""0"",""32632""
","
","null","run_exp/static/images/Set 6_rs/166a.jpg","null","","","","","","learn","SR",""
"","html-keyboard-response","51","113118","0.0-51.0","""event"",""trial"",""time""
""focus"",""0"",""0""
""fullscreenenter"",""0"",""32632""
","
","""event"",""trial"",""time""
""focus"",""0"",""0""
","""event"",""trial"",""time""
""fullscreenenter"",""0"",""32632""
","
","null","<p></p>","null","","","","","","","",""
"","image","52","114160","0.0-52.0","""event"",""trial"",""time""
""focus"",""0"",""0""
""fullscreenenter"",""0"",""32632""
","
","""event"",""trial"",""time""
""focus"",""0"",""0""
","""event"",""trial"",""time""
""fullscreenenter"",""0"",""32632""
","
","1039","run_exp/static/images/Set 6_rs/071a.jpg","86","","","","","","learn","SL",""
"","show_choice","53","115123","0.0-53.0","""event"",""trial"",""time""
""focus"",""0"",""0""
""fullscreenenter"",""0"",""32632""
","
","""event"",""trial"",""time""
""focus"",""0"",""0""
","""event"",""trial"",""time""
""fullscreenenter"",""0"",""32632""
","
","null","run_exp/static/images/Set 6_rs/071a.jpg","null","","","","","","learn","SL",""
"","html-keyboard-response","54","115628","0.0-54.0","""event"",""trial"",""time""
""focus"",""0"",""0""
""fullscreenenter"",""0"",""32632""
","
","""event"",""trial"",""time""
""focus"",""0"",""0""
","""event"",""trial"",""time""
""fullscreenenter"",""0"",""32632""
","
","null","<p></p>","null","","","","","","","",""
"","image","55","116868","0.0-55.0","""event"",""trial"",""time""
""focus"",""0"",""0""
""fullscreenenter"",""0"",""32632""
","
","""event"",""trial"",""time""
""focus"",""0"",""0""
","""event"",""trial"",""time""
""fullscreenenter"",""0"",""32632""
","
","1237","run_exp/static/images/Set 6_rs/131a.jpg","86","","","","","","learn","SR",""
"","show_choice","56","117633","0.0-56.0","""event"",""trial"",""time""
""focus"",""0"",""0""
""fullscreenenter"",""0"",""32632""
","
","""event"",""trial"",""time""
""focus"",""0"",""0""
","""event"",""trial"",""time""
""fullscreenenter"",""0"",""32632""
","
","null","run_exp/static/images/Set 6_rs/131a.jpg","null","","","","","","learn","SR",""
"","html-keyboard-response","57","118139","0.0-57.0","""event"",""trial"",""time""
""focus"",""0"",""0""
""fullscreenenter"",""0"",""32632""
","
","""event"",""trial"",""time""
""focus"",""0"",""0""
","""event"",""trial"",""time""
""fullscreenenter"",""0"",""32632""
","
","null","<p></p>","null","","","","","","","",""
"","image","58","119027","0.0-58.0","""event"",""trial"",""time""
""focus"",""0"",""0""
""fullscreenenter"",""0"",""32632""
","
","""event"",""trial"",""time""
""focus"",""0"",""0""
","""event"",""trial"",""time""
""fullscreenenter"",""0"",""32632""
","
","888","run_exp/static/images/Set 6_rs/129a.jpg","86","","","","","","learn","SL",""
"","show_choice","59","120145","0.0-59.0","""event"",""trial"",""time""
""focus"",""0"",""0""
""fullscreenenter"",""0"",""32632""
","
","""event"",""trial"",""time""
""focus"",""0"",""0""
","""event"",""trial"",""time""
""fullscreenenter"",""0"",""32632""
","
","null","run_exp/static/images/Set 6_rs/129a.jpg","null","","","","","","learn","SL",""
"","html-keyboard-response","60","120650","0.0-60.0","""event"",""trial"",""time""
""focus"",""0"",""0""
""fullscreenenter"",""0"",""32632""
","
","""event"",""trial"",""time""
""focus"",""0"",""0""
","""event"",""trial"",""time""
""fullscreenenter"",""0"",""32632""
","
","null","<p></p>","null","","","","","","","",""
"","image","61","121825","0.0-61.0","""event"",""trial"",""time""
""focus"",""0"",""0""
""fullscreenenter"",""0"",""32632""
","
","""event"",""trial"",""time""
""focus"",""0"",""0""
","""event"",""trial"",""time""
""fullscreenenter"",""0"",""32632""
","
","1173","run_exp/static/images/Set 6_rs/006a.jpg","86","","","","","","learn","SL",""
"","show_choice","62","122654","0.0-62.0","""event"",""trial"",""time""
""focus"",""0"",""0""
""fullscreenenter"",""0"",""32632""
","
","""event"",""trial"",""time""
""focus"",""0"",""0""
","""event"",""trial"",""time""
""fullscreenenter"",""0"",""32632""
","
","null","run_exp/static/images/Set 6_rs/006a.jpg","null","","","","","","learn","SL",""
"","html-keyboard-response","63","123158","0.0-63.0","""event"",""trial"",""time""
""focus"",""0"",""0""
""fullscreenenter"",""0"",""32632""
","
","""event"",""trial"",""time""
""focus"",""0"",""0""
","""event"",""trial"",""time""
""fullscreenenter"",""0"",""32632""
","
","null","<p></p>","null","","","","","","","",""
"","image","64","124699","0.0-64.0","""event"",""trial"",""time""
""focus"",""0"",""0""
""fullscreenenter"",""0"",""32632""
","
","""event"",""trial"",""time""
""focus"",""0"",""0""
","""event"",""trial"",""time""
""fullscreenenter"",""0"",""32632""
","
","1541","run_exp/static/images/Set 6_rs/016a.jpg","78","","","","","","learn","SL",""
"","show_choice","65","125165","0.0-65.0","""event"",""trial"",""time""
""focus"",""0"",""0""
""fullscreenenter"",""0"",""32632""
","
","""event"",""trial"",""time""
""focus"",""0"",""0""
","""event"",""trial"",""time""
""fullscreenenter"",""0"",""32632""
","
","null","run_exp/static/images/Set 6_rs/016a.jpg","null","","","","","","learn","SL",""
"","html-keyboard-response","66","125668","0.0-66.0","""event"",""trial"",""time""
""focus"",""0"",""0""
""fullscreenenter"",""0"",""32632""
","
","""event"",""trial"",""time""
""focus"",""0"",""0""
","""event"",""trial"",""time""
""fullscreenenter"",""0"",""32632""
","
","null","<p></p>","null","","","","","","","",""
"","image","67","127008","0.0-67.0","""event"",""trial"",""time""
""focus"",""0"",""0""
""fullscreenenter"",""0"",""32632""
","
","""event"",""trial"",""time""
""focus"",""0"",""0""
","""event"",""trial"",""time""
""fullscreenenter"",""0"",""32632""
","
","1338","run_exp/static/images/Set 6_rs/012a.jpg","86","","","","","","learn","SR",""
"","show_choice","68","127674","0.0-68.0","""event"",""trial"",""time""
""focus"",""0"",""0""
""fullscreenenter"",""0"",""32632""
","
","""event"",""trial"",""time""
""focus"",""0"",""0""
","""event"",""trial"",""time""
""fullscreenenter"",""0"",""32632""
","
","null","run_exp/static/images/Set 6_rs/012a.jpg","null","","","","","","learn","SR",""
"","html-keyboard-response","69","128180","0.0-69.0","""event"",""trial"",""time""
""focus"",""0"",""0""
""fullscreenenter"",""0"",""32632""
","
","""event"",""trial"",""time""
""focus"",""0"",""0""
","""event"",""trial"",""time""
""fullscreenenter"",""0"",""32632""
","
","null","<p></p>","null","","","","","","","",""
"","image","70","129483","0.0-70.0","""event"",""trial"",""time""
""focus"",""0"",""0""
""fullscreenenter"",""0"",""32632""
","
","""event"",""trial"",""time""
""focus"",""0"",""0""
","""event"",""trial"",""time""
""fullscreenenter"",""0"",""32632""
","
","1302","run_exp/static/images/Set 6_rs/116a.jpg","78","","","","","","learn","SL",""
"","show_choice","71","130188","0.0-71.0","""event"",""trial"",""time""
""focus"",""0"",""0""
""fullscreenenter"",""0"",""32632""
","
","""event"",""trial"",""time""
""focus"",""0"",""0""
","""event"",""trial"",""time""
""fullscreenenter"",""0"",""32632""
","
","null","run_exp/static/images/Set 6_rs/116a.jpg","null","","","","","","learn","SL",""
"","html-keyboard-response","72","130693","0.0-72.0","""event"",""trial"",""time""
""focus"",""0"",""0""
""fullscreenenter"",""0"",""32632""
","
","""event"",""trial"",""time""
""focus"",""0"",""0""
","""event"",""trial"",""time""
""fullscreenenter"",""0"",""32632""
","
","null","<p></p>","null","","","","","","","",""
"","image","73","132699","0.0-73.0","""event"",""trial"",""time""
""focus"",""0"",""0""
""fullscreenenter"",""0"",""32632""
","
","""event"",""trial"",""time""
""focus"",""0"",""0""
","""event"",""trial"",""time""
""fullscreenenter"",""0"",""32632""
","
","null","run_exp/static/images/Set 6_rs/117a.jpg","null","","","","","","learn","SL",""
"","show_choice","74","134706","0.0-74.0","""event"",""trial"",""time""
""focus"",""0"",""0""
""fullscreenenter"",""0"",""32632""
","
","""event"",""trial"",""time""
""focus"",""0"",""0""
","""event"",""trial"",""time""
""fullscreenenter"",""0"",""32632""
","
","null","run_exp/static/images/blank.png","null","","","","","","learn","SL",""
"","html-keyboard-response","75","135209","0.0-75.0","""event"",""trial"",""time""
""focus"",""0"",""0""
""fullscreenenter"",""0"",""32632""
","
","""event"",""trial"",""time""
""focus"",""0"",""0""
","""event"",""trial"",""time""
""fullscreenenter"",""0"",""32632""
","
","null","<p></p>","null","","","","","","","",""
"","image","76","136391","0.0-76.0","""event"",""trial"",""time""
""focus"",""0"",""0""
""fullscreenenter"",""0"",""32632""
","
","""event"",""trial"",""time""
""focus"",""0"",""0""
","""event"",""trial"",""time""
""fullscreenenter"",""0"",""32632""
","
","1181","run_exp/static/images/Set 6_rs/138a.jpg","78","","","","","","learn","SL",""
"","show_choice","77","137216","0.0-77.0","""event"",""trial"",""time""
""focus"",""0"",""0""
""fullscreenenter"",""0"",""32632""
","
","""event"",""trial"",""time""
""focus"",""0"",""0""
","""event"",""trial"",""time""
""fullscreenenter"",""0"",""32632""
","
","null","run_exp/static/images/Set 6_rs/138a.jpg","null","","","","","","learn","SL",""
"","html-keyboard-response","78","137719","0.0-78.0","""event"",""trial"",""time""
""focus"",""0"",""0""
""fullscreenenter"",""0"",""32632""
","
","""event"",""trial"",""time""
""focus"",""0"",""0""
","""event"",""trial"",""time""
""fullscreenenter"",""0"",""32632""
","
","null","<p></p>","null","","","","","","","",""
"","image","79","138764","0.0-79.0","""event"",""trial"",""time""
""focus"",""0"",""0""
""fullscreenenter"",""0"",""32632""
","
","""event"",""trial"",""time""
""focus"",""0"",""0""
","""event"",""trial"",""time""
""fullscreenenter"",""0"",""32632""
","
","1042","run_exp/static/images/Set 6_rs/186a.jpg","86","","","","","","learn","SR",""
"","show_choice","80","139724","0.0-80.0","""event"",""trial"",""time""
""focus"",""0"",""0""
""fullscreenenter"",""0"",""32632""
","
","""event"",""trial"",""time""
""focus"",""0"",""0""
","""event"",""trial"",""time""
""fullscreenenter"",""0"",""32632""
","
","null","run_exp/static/images/Set 6_rs/186a.jpg","null","","","","","","learn","SR",""
"","html-keyboard-response","81","140231","0.0-81.0","""event"",""trial"",""time""
""focus"",""0"",""0""
""fullscreenenter"",""0"",""32632""
","
","""event"",""trial"",""time""
""focus"",""0"",""0""
","""event"",""trial"",""time""
""fullscreenenter"",""0"",""32632""
","
","null","<p></p>","null","","","","","","","",""
"","image","82","142234","0.0-82.0","""event"",""trial"",""time""
""focus"",""0"",""0""
""fullscreenenter"",""0"",""32632""
","
","""event"",""trial"",""time""
""focus"",""0"",""0""
","""event"",""trial"",""time""
""fullscreenenter"",""0"",""32632""
","
","null","run_exp/static/images/Set 6_rs/122a.jpg","null","","","","","","learn","SR",""
"","show_choice","83","144240","0.0-83.0","""event"",""trial"",""time""
""focus"",""0"",""0""
""fullscreenenter"",""0"",""32632""
","
","""event"",""trial"",""time""
""focus"",""0"",""0""
","""event"",""trial"",""time""
""fullscreenenter"",""0"",""32632""
","
","null","run_exp/static/images/blank.png","null","","","","","","learn","SR",""
"","html-keyboard-response","84","144741","0.0-84.0","""event"",""trial"",""time""
""focus"",""0"",""0""
""fullscreenenter"",""0"",""32632""
","
","""event"",""trial"",""time""
""focus"",""0"",""0""
","""event"",""trial"",""time""
""fullscreenenter"",""0"",""32632""
","
","null","<p></p>","null","","","","","","","",""
"","image","85","145737","0.0-85.0","""event"",""trial"",""time""
""focus"",""0"",""0""
""fullscreenenter"",""0"",""32632""
","
","""event"",""trial"",""time""
""focus"",""0"",""0""
","""event"",""trial"",""time""
""fullscreenenter"",""0"",""32632""
","
","995","run_exp/static/images/Set 6_rs/172a.jpg","78","","","","","","learn","SR",""
"","show_choice","86","146749","0.0-86.0","""event"",""trial"",""time""
""focus"",""0"",""0""
""fullscreenenter"",""0"",""32632""
","
","""event"",""trial"",""time""
""focus"",""0"",""0""
","""event"",""trial"",""time""
""fullscreenenter"",""0"",""32632""
","
","null","run_exp/static/images/Set 6_rs/172a.jpg","null","","","","","","learn","SR",""
"","html-keyboard-response","87","147253","0.0-87.0","""event"",""trial"",""time""
""focus"",""0"",""0""
""fullscreenenter"",""0"",""32632""
","
","""event"",""trial"",""time""
""focus"",""0"",""0""
","""event"",""trial"",""time""
""fullscreenenter"",""0"",""32632""
","
","null","<p></p>","null","","","","","","","",""
"","image","88","148350","0.0-88.0","""event"",""trial"",""time""
""focus"",""0"",""0""
""fullscreenenter"",""0"",""32632""
","
","""event"",""trial"",""time""
""focus"",""0"",""0""
","""event"",""trial"",""time""
""fullscreenenter"",""0"",""32632""
","
","1095","run_exp/static/images/Set 6_rs/111a.jpg","86","","","","","","learn","SL",""
"","show_choice","89","149258","0.0-89.0","""event"",""trial"",""time""
""focus"",""0"",""0""
""fullscreenenter"",""0"",""32632""
","
","""event"",""trial"",""time""
""focus"",""0"",""0""
","""event"",""trial"",""time""
""fullscreenenter"",""0"",""32632""
","
","null","run_exp/static/images/Set 6_rs/111a.jpg","null","","","","","","learn","SL",""
"","html-keyboard-response","90","149763","0.0-90.0","""event"",""trial"",""time""
""focus"",""0"",""0""
""fullscreenenter"",""0"",""32632""
","
","""event"",""trial"",""time""
""focus"",""0"",""0""
","""event"",""trial"",""time""
""fullscreenenter"",""0"",""32632""
","
","null","<p></p>","null","","","","","","","",""
"","image","91","151063","0.0-91.0","""event"",""trial"",""time""
""focus"",""0"",""0""
""fullscreenenter"",""0"",""32632""
","
","""event"",""trial"",""time""
""focus"",""0"",""0""
","""event"",""trial"",""time""
""fullscreenenter"",""0"",""32632""
","
","1298","run_exp/static/images/Set 6_rs/075a.jpg","86","","","","","","learn","SR",""
"","show_choice","92","151768","0.0-92.0","""event"",""trial"",""time""
""focus"",""0"",""0""
""fullscreenenter"",""0"",""32632""
","
","""event"",""trial"",""time""
""focus"",""0"",""0""
","""event"",""trial"",""time""
""fullscreenenter"",""0"",""32632""
","
","null","run_exp/static/images/Set 6_rs/075a.jpg","null","","","","","","learn","SR",""
"","html-keyboard-response","93","152270","0.0-93.0","""event"",""trial"",""time""
""focus"",""0"",""0""
""fullscreenenter"",""0"",""32632""
","
","""event"",""trial"",""time""
""focus"",""0"",""0""
","""event"",""trial"",""time""
""fullscreenenter"",""0"",""32632""
","
","null","<p></p>","null","","","","","","","",""
"","image","94","153681","0.0-94.0","""event"",""trial"",""time""
""focus"",""0"",""0""
""fullscreenenter"",""0"",""32632""
","
","""event"",""trial"",""time""
""focus"",""0"",""0""
","""event"",""trial"",""time""
""fullscreenenter"",""0"",""32632""
","
","1410","run_exp/static/images/Set 6_rs/126a.jpg","86","","","","","","learn","SR",""
"","show_choice","95","154274","0.0-95.0","""event"",""trial"",""time""
""focus"",""0"",""0""
""fullscreenenter"",""0"",""32632""
","
","""event"",""trial"",""time""
""focus"",""0"",""0""
","""event"",""trial"",""time""
""fullscreenenter"",""0"",""32632""
","
","null","run_exp/static/images/Set 6_rs/126a.jpg","null","","","","","","learn","SR",""
"","html-keyboard-response","96","154776","0.0-96.0","""event"",""trial"",""time""
""focus"",""0"",""0""
""fullscreenenter"",""0"",""32632""
","
","""event"",""trial"",""time""
""focus"",""0"",""0""
","""event"",""trial"",""time""
""fullscreenenter"",""0"",""32632""
","
","null","<p></p>","null","","","","","","","",""
"","image","97","155856","0.0-97.0","""event"",""trial"",""time""
""focus"",""0"",""0""
""fullscreenenter"",""0"",""32632""
","
","""event"",""trial"",""time""
""focus"",""0"",""0""
","""event"",""trial"",""time""
""fullscreenenter"",""0"",""32632""
","
","1078","run_exp/static/images/Set 6_rs/045a.jpg","86","","","","","","learn","SR",""
"","show_choice","98","156781","0.0-98.0","""event"",""trial"",""time""
""focus"",""0"",""0""
""fullscreenenter"",""0"",""32632""
","
","""event"",""trial"",""time""
""focus"",""0"",""0""
","""event"",""trial"",""time""
""fullscreenenter"",""0"",""32632""
","
","null","run_exp/static/images/Set 6_rs/045a.jpg","null","","","","","","learn","SR",""
"","html-keyboard-response","99","157287","0.0-99.0","""event"",""trial"",""time""
""focus"",""0"",""0""
""fullscreenenter"",""0"",""32632""
","
","""event"",""trial"",""time""
""focus"",""0"",""0""
","""event"",""trial"",""time""
""fullscreenenter"",""0"",""32632""
","
","null","<p></p>","null","","","","","","","",""
"","image","100","159072","0.0-100.0","""event"",""trial"",""time""
""focus"",""0"",""0""
""fullscreenenter"",""0"",""32632""
","
","""event"",""trial"",""time""
""focus"",""0"",""0""
","""event"",""trial"",""time""
""fullscreenenter"",""0"",""32632""
","
","1784","run_exp/static/images/Set 6_rs/008a.jpg","78","","","","","","learn","SL",""
"","show_choice","101","159289","0.0-101.0","""event"",""trial"",""time""
""focus"",""0"",""0""
""fullscreenenter"",""0"",""32632""
","
","""event"",""trial"",""time""
""focus"",""0"",""0""
","""event"",""trial"",""time""
""fullscreenenter"",""0"",""32632""
","
","null","run_exp/static/images/Set 6_rs/008a.jpg","null","","","","","","learn","SL",""
"","html-keyboard-response","102","159794","0.0-102.0","""event"",""trial"",""time""
""focus"",""0"",""0""
""fullscreenenter"",""0"",""32632""
","
","""event"",""trial"",""time""
""focus"",""0"",""0""
","""event"",""trial"",""time""
""fullscreenenter"",""0"",""32632""
","
","null","<p></p>","null","","","","","","","",""
"","image","103","160724","0.0-103.0","""event"",""trial"",""time""
""focus"",""0"",""0""
""fullscreenenter"",""0"",""32632""
","
","""event"",""trial"",""time""
""focus"",""0"",""0""
","""event"",""trial"",""time""
""fullscreenenter"",""0"",""32632""
","
","928","run_exp/static/images/Set 6_rs/132a.jpg","86","","","","","","learn","SR",""
"","show_choice","104","161802","0.0-104.0","""event"",""trial"",""time""
""focus"",""0"",""0""
""fullscreenenter"",""0"",""32632""
","
","""event"",""trial"",""time""
""focus"",""0"",""0""
","""event"",""trial"",""time""
""fullscreenenter"",""0"",""32632""
","
","null","run_exp/static/images/Set 6_rs/132a.jpg","null","","","","","","learn","SR",""
"","html-keyboard-response","105","162308","0.0-105.0","""event"",""trial"",""time""
""focus"",""0"",""0""
""fullscreenenter"",""0"",""32632""
","
","""event"",""trial"",""time""
""focus"",""0"",""0""
","""event"",""trial"",""time""
""fullscreenenter"",""0"",""32632""
","
","null","<p></p>","null","","","","","","","",""
"","image","106","163615","0.0-106.0","""event"",""trial"",""time""
""focus"",""0"",""0""
""fullscreenenter"",""0"",""32632""
","
","""event"",""trial"",""time""
""focus"",""0"",""0""
","""event"",""trial"",""time""
""fullscreenenter"",""0"",""32632""
","
","1305","run_exp/static/images/Set 6_rs/167a.jpg","86","","","","","","learn","SL",""
"","show_choice","107","164313","0.0-107.0","""event"",""trial"",""time""
""focus"",""0"",""0""
""fullscreenenter"",""0"",""32632""
","
","""event"",""trial"",""time""
""focus"",""0"",""0""
","""event"",""trial"",""time""
""fullscreenenter"",""0"",""32632""
","
","null","run_exp/static/images/Set 6_rs/167a.jpg","null","","","","","","learn","SL",""
"","html-keyboard-response","108","164815","0.0-108.0","""event"",""trial"",""time""
""focus"",""0"",""0""
""fullscreenenter"",""0"",""32632""
","
","""event"",""trial"",""time""
""focus"",""0"",""0""
","""event"",""trial"",""time""
""fullscreenenter"",""0"",""32632""
","
","null","<p></p>","null","","","","","","","",""
"","image","109","166007","0.0-109.0","""event"",""trial"",""time""
""focus"",""0"",""0""
""fullscreenenter"",""0"",""32632""
","
","""event"",""trial"",""time""
""focus"",""0"",""0""
","""event"",""trial"",""time""
""fullscreenenter"",""0"",""32632""
","
","1191","run_exp/static/images/Set 6_rs/064a.jpg","78","","","","","","learn","SR",""
"","show_choice","110","166823","0.0-110.0","""event"",""trial"",""time""
""focus"",""0"",""0""
""fullscreenenter"",""0"",""32632""
","
","""event"",""trial"",""time""
""focus"",""0"",""0""
","""event"",""trial"",""time""
""fullscreenenter"",""0"",""32632""
","
","null","run_exp/static/images/Set 6_rs/064a.jpg","null","","","","","","learn","SR",""
"","html-keyboard-response","111","167328","0.0-111.0","""event"",""trial"",""time""
""focus"",""0"",""0""
""fullscreenenter"",""0"",""32632""
","
","""event"",""trial"",""time""
""focus"",""0"",""0""
","""event"",""trial"",""time""
""fullscreenenter"",""0"",""32632""
","
","null","<p></p>","null","","","","","","","",""
"","image","112","168176","0.0-112.0","""event"",""trial"",""time""
""focus"",""0"",""0""
""fullscreenenter"",""0"",""32632""
","
","""event"",""trial"",""time""
""focus"",""0"",""0""
","""event"",""trial"",""time""
""fullscreenenter"",""0"",""32632""
","
","846","run_exp/static/images/Set 6_rs/066a.jpg","86","","","","","","learn","SL",""
"","show_choice","113","169332","0.0-113.0","""event"",""trial"",""time""
""focus"",""0"",""0""
""fullscreenenter"",""0"",""32632""
","
","""event"",""trial"",""time""
""focus"",""0"",""0""
","""event"",""trial"",""time""
""fullscreenenter"",""0"",""32632""
","
","null","run_exp/static/images/Set 6_rs/066a.jpg","null","","","","","","learn","SL",""
"","html-keyboard-response","114","169836","0.0-114.0","""event"",""trial"",""time""
""focus"",""0"",""0""
""fullscreenenter"",""0"",""32632""
","
","""event"",""trial"",""time""
""focus"",""0"",""0""
","""event"",""trial"",""time""
""fullscreenenter"",""0"",""32632""
","
","null","<p></p>","null","","","","","","","",""
"","image","115","170777","0.0-115.0","""event"",""trial"",""time""
""focus"",""0"",""0""
""fullscreenenter"",""0"",""32632""
","
","""event"",""trial"",""time""
""focus"",""0"",""0""
","""event"",""trial"",""time""
""fullscreenenter"",""0"",""32632""
","
","940","run_exp/static/images/Set 6_rs/079a.jpg","86","","","","","","learn","SL",""
"","show_choice","116","171843","0.0-116.0","""event"",""trial"",""time""
""focus"",""0"",""0""
""fullscreenenter"",""0"",""32632""
","
","""event"",""trial"",""time""
""focus"",""0"",""0""
","""event"",""trial"",""time""
""fullscreenenter"",""0"",""32632""
","
","null","run_exp/static/images/Set 6_rs/079a.jpg","null","","","","","","learn","SL",""
"","html-keyboard-response","117","172345","0.0-117.0","""event"",""trial"",""time""
""focus"",""0"",""0""
""fullscreenenter"",""0"",""32632""
","
","""event"",""trial"",""time""
""focus"",""0"",""0""
","""event"",""trial"",""time""
""fullscreenenter"",""0"",""32632""
","
","null","<p></p>","null","","","","","","","",""
"","image","118","173153","0.0-118.0","""event"",""trial"",""time""
""focus"",""0"",""0""
""fullscreenenter"",""0"",""32632""
","
","""event"",""trial"",""time""
""focus"",""0"",""0""
","""event"",""trial"",""time""
""fullscreenenter"",""0"",""32632""
","
","806","run_exp/static/images/Set 6_rs/141a.jpg","78","","","","","","learn","SR",""
"","show_choice","119","174350","0.0-119.0","""event"",""trial"",""time""
""focus"",""0"",""0""
""fullscreenenter"",""0"",""32632""
","
","""event"",""trial"",""time""
""focus"",""0"",""0""
","""event"",""trial"",""time""
""fullscreenenter"",""0"",""32632""
","
","null","run_exp/static/images/Set 6_rs/141a.jpg","null","","","","","","learn","SR",""
"","html-keyboard-response","120","174852","0.0-120.0","""event"",""trial"",""time""
""focus"",""0"",""0""
""fullscreenenter"",""0"",""32632""
","
","""event"",""trial"",""time""
""focus"",""0"",""0""
","""event"",""trial"",""time""
""fullscreenenter"",""0"",""32632""
","
","null","<p></p>","null","","","","","","","",""
"","image","121","175712","0.0-121.0","""event"",""trial"",""time""
""focus"",""0"",""0""
""fullscreenenter"",""0"",""32632""
","
","""event"",""trial"",""time""
""focus"",""0"",""0""
","""event"",""trial"",""time""
""fullscreenenter"",""0"",""32632""
","
","858","run_exp/static/images/Set 6_rs/063a.jpg","86","","","","","","learn","SR",""
"","show_choice","122","176856","0.0-122.0","""event"",""trial"",""time""
""focus"",""0"",""0""
""fullscreenenter"",""0"",""32632""
","
","""event"",""trial"",""time""
""focus"",""0"",""0""
","""event"",""trial"",""time""
""fullscreenenter"",""0"",""32632""
","
","null","run_exp/static/images/Set 6_rs/063a.jpg","null","","","","","","learn","SR",""
"","html-keyboard-response","123","177362","0.0-123.0","""event"",""trial"",""time""
""focus"",""0"",""0""
""fullscreenenter"",""0"",""32632""
","
","""event"",""trial"",""time""
""focus"",""0"",""0""
","""event"",""trial"",""time""
""fullscreenenter"",""0"",""32632""
","
","null","<p></p>","null","","","","","","","",""
"","image","124","179364","0.0-124.0","""event"",""trial"",""time""
""focus"",""0"",""0""
""fullscreenenter"",""0"",""32632""
","
","""event"",""trial"",""time""
""focus"",""0"",""0""
","""event"",""trial"",""time""
""fullscreenenter"",""0"",""32632""
","
","null","run_exp/static/images/Set 6_rs/169a.jpg","null","","","","","","learn","SR",""
"","show_choice","125","181368","0.0-125.0","""event"",""trial"",""time""
""focus"",""0"",""0""
""fullscreenenter"",""0"",""32632""
","
","""event"",""trial"",""time""
""focus"",""0"",""0""
","""event"",""trial"",""time""
""fullscreenenter"",""0"",""32632""
","
","null","run_exp/static/images/blank.png","null","","","","","","learn","SR",""
"","html-keyboard-response","126","181871","0.0-126.0","""event"",""trial"",""time""
""focus"",""0"",""0""
""fullscreenenter"",""0"",""32632""
","
","""event"",""trial"",""time""
""focus"",""0"",""0""
","""event"",""trial"",""time""
""fullscreenenter"",""0"",""32632""
","
","null","<p></p>","null","","","","","","","",""
"","image","127","183185","0.0-127.0","""event"",""trial"",""time""
""focus"",""0"",""0""
""fullscreenenter"",""0"",""32632""
","
","""event"",""trial"",""time""
""focus"",""0"",""0""
","""event"",""trial"",""time""
""fullscreenenter"",""0"",""32632""
","
","1313","run_exp/static/images/Set 6_rs/121a.jpg","86","","","","","","learn","SR",""
"","show_choice","128","183879","0.0-128.0","""event"",""trial"",""time""
""focus"",""0"",""0""
""fullscreenenter"",""0"",""32632""
","
","""event"",""trial"",""time""
""focus"",""0"",""0""
","""event"",""trial"",""time""
""fullscreenenter"",""0"",""32632""
","
","null","run_exp/static/images/Set 6_rs/121a.jpg","null","","","","","","learn","SR",""
"","html-keyboard-response","129","184385","0.0-129.0","""event"",""trial"",""time""
""focus"",""0"",""0""
""fullscreenenter"",""0"",""32632""
","
","""event"",""trial"",""time""
""focus"",""0"",""0""
","""event"",""trial"",""time""
""fullscreenenter"",""0"",""32632""
","
","null","<p></p>","null","","","","","","","",""
"","image","130","185537","0.0-130.0","""event"",""trial"",""time""
""focus"",""0"",""0""
""fullscreenenter"",""0"",""32632""
","
","""event"",""trial"",""time""
""focus"",""0"",""0""
","""event"",""trial"",""time""
""fullscreenenter"",""0"",""32632""
","
","1152","run_exp/static/images/Set 6_rs/187a.jpg","86","","","","","","learn","SR",""
"","show_choice","131","186388","0.0-131.0","""event"",""trial"",""time""
""focus"",""0"",""0""
""fullscreenenter"",""0"",""32632""
","
","""event"",""trial"",""time""
""focus"",""0"",""0""
","""event"",""trial"",""time""
""fullscreenenter"",""0"",""32632""
","
","null","run_exp/static/images/Set 6_rs/187a.jpg","null","","","","","","learn","SR",""
"","html-keyboard-response","132","186888","0.0-132.0","""event"",""trial"",""time""
""focus"",""0"",""0""
""fullscreenenter"",""0"",""32632""
","
","""event"",""trial"",""time""
""focus"",""0"",""0""
","""event"",""trial"",""time""
""fullscreenenter"",""0"",""32632""
","
","null","<p></p>","null","","","","","","","",""
"","image","133","187930","0.0-133.0","""event"",""trial"",""time""
""focus"",""0"",""0""
""fullscreenenter"",""0"",""32632""
","
","""event"",""trial"",""time""
""focus"",""0"",""0""
","""event"",""trial"",""time""
""fullscreenenter"",""0"",""32632""
","
","1041","run_exp/static/images/Set 6_rs/144a.jpg","86","","","","","","learn","SL",""
"","show_choice","134","188896","0.0-134.0","""event"",""trial"",""time""
""focus"",""0"",""0""
""fullscreenenter"",""0"",""32632""
","
","""event"",""trial"",""time""
""focus"",""0"",""0""
","""event"",""trial"",""time""
""fullscreenenter"",""0"",""32632""
","
","null","run_exp/static/images/Set 6_rs/144a.jpg","null","","","","","","learn","SL",""
"","html-keyboard-response","135","189402","0.0-135.0","""event"",""trial"",""time""
""focus"",""0"",""0""
""fullscreenenter"",""0"",""32632""
","
","""event"",""trial"",""time""
""focus"",""0"",""0""
","""event"",""trial"",""time""
""fullscreenenter"",""0"",""32632""
","
","null","<p></p>","null","","","","","","","",""
"","image","136","190124","0.0-136.0","""event"",""trial"",""time""
""focus"",""0"",""0""
""fullscreenenter"",""0"",""32632""
","
","""event"",""trial"",""time""
""focus"",""0"",""0""
","""event"",""trial"",""time""
""fullscreenenter"",""0"",""32632""
","
","723","run_exp/static/images/Set 6_rs/070a.jpg","86","","","","","","learn","SR",""
"","show_choice","137","191404","0.0-137.0","""event"",""trial"",""time""
""focus"",""0"",""0""
""fullscreenenter"",""0"",""32632""
","
","""event"",""trial"",""time""
""focus"",""0"",""0""
","""event"",""trial"",""time""
""fullscreenenter"",""0"",""32632""
","
","null","run_exp/static/images/Set 6_rs/070a.jpg","null","","","","","","learn","SR",""
"","html-keyboard-response","138","191905","0.0-138.0","""event"",""trial"",""time""
""focus"",""0"",""0""
""fullscreenenter"",""0"",""32632""
","
","""event"",""trial"",""time""
""focus"",""0"",""0""
","""event"",""trial"",""time""
""fullscreenenter"",""0"",""32632""
","
","null","<p></p>","null","","","","","","","",""
"","image","139","192378","0.0-139.0","""event"",""trial"",""time""
""focus"",""0"",""0""
""fullscreenenter"",""0"",""32632""
","
","""event"",""trial"",""time""
""focus"",""0"",""0""
","""event"",""trial"",""time""
""fullscreenenter"",""0"",""32632""
","
","473","run_exp/static/images/Set 6_rs/025a.jpg","86","","","","","","learn","SL",""
"","show_choice","140","193911","0.0-140.0","""event"",""trial"",""time""
""focus"",""0"",""0""
""fullscreenenter"",""0"",""32632""
","
","""event"",""trial"",""time""
""focus"",""0"",""0""
","""event"",""trial"",""time""
""fullscreenenter"",""0"",""32632""
","
","null","run_exp/static/images/Set 6_rs/025a.jpg","null","","","","","","learn","SL",""
"","html-keyboard-response","141","194417","0.0-141.0","""event"",""trial"",""time""
""focus"",""0"",""0""
""fullscreenenter"",""0"",""32632""
","
","""event"",""trial"",""time""
""focus"",""0"",""0""
","""event"",""trial"",""time""
""fullscreenenter"",""0"",""32632""
","
","null","<p></p>","null","","","","","","","",""
"","image","142","194748","0.0-142.0","""event"",""trial"",""time""
""focus"",""0"",""0""
""fullscreenenter"",""0"",""32632""
","
","""event"",""trial"",""time""
""focus"",""0"",""0""
","""event"",""trial"",""time""
""fullscreenenter"",""0"",""32632""
","
","331","run_exp/static/images/Set 6_rs/154a.jpg","86","","","","","","learn","SR",""
"","show_choice","143","196418","0.0-143.0","""event"",""trial"",""time""
""focus"",""0"",""0""
""fullscreenenter"",""0"",""32632""
","
","""event"",""trial"",""time""
""focus"",""0"",""0""
","""event"",""trial"",""time""
""fullscreenenter"",""0"",""32632""
","
","null","run_exp/static/images/Set 6_rs/154a.jpg","null","","","","","","learn","SR",""
"","html-keyboard-response","144","196921","0.0-144.0","""event"",""trial"",""time""
""focus"",""0"",""0""
""fullscreenenter"",""0"",""32632""
","
","""event"",""trial"",""time""
""focus"",""0"",""0""
","""event"",""trial"",""time""
""fullscreenenter"",""0"",""32632""
","
","null","<p></p>","null","","","","","","","",""
"","image","145","198527","0.0-145.0","""event"",""trial"",""time""
""focus"",""0"",""0""
""fullscreenenter"",""0"",""32632""
","
","""event"",""trial"",""time""
""focus"",""0"",""0""
","""event"",""trial"",""time""
""fullscreenenter"",""0"",""32632""
","
","1606","run_exp/static/images/Set 6_rs/062a.jpg","78","","","","","","learn","SL",""
"","show_choice","146","198927","0.0-146.0","""event"",""trial"",""time""
""focus"",""0"",""0""
""fullscreenenter"",""0"",""32632""
","
","""event"",""trial"",""time""
""focus"",""0"",""0""
","""event"",""trial"",""time""
""fullscreenenter"",""0"",""32632""
","
","null","run_exp/static/images/Set 6_rs/062a.jpg","null","","","","","","learn","SL",""
"","html-keyboard-response","147","199433","0.0-147.0","""event"",""trial"",""time""
""focus"",""0"",""0""
""fullscreenenter"",""0"",""32632""
","
","""event"",""trial"",""time""
""focus"",""0"",""0""
","""event"",""trial"",""time""
""fullscreenenter"",""0"",""32632""
","
","null","<p></p>","null","","","","","","","",""
"","image","148","200621","0.0-148.0","""event"",""trial"",""time""
""focus"",""0"",""0""
""fullscreenenter"",""0"",""32632""
","
","""event"",""trial"",""time""
""focus"",""0"",""0""
","""event"",""trial"",""time""
""fullscreenenter"",""0"",""32632""
","
","1187","run_exp/static/images/Set 6_rs/061a.jpg","78","","","","","","learn","SR",""
"","show_choice","149","201438","0.0-149.0","""event"",""trial"",""time""
""focus"",""0"",""0""
""fullscreenenter"",""0"",""32632""
","
","""event"",""trial"",""time""
""focus"",""0"",""0""
","""event"",""trial"",""time""
""fullscreenenter"",""0"",""32632""
","
","null","run_exp/static/images/Set 6_rs/061a.jpg","null","","","","","","learn","SR",""
"","html-keyboard-response","150","201939","0.0-150.0","""event"",""trial"",""time""
""focus"",""0"",""0""
""fullscreenenter"",""0"",""32632""
","
","""event"",""trial"",""time""
""focus"",""0"",""0""
","""event"",""trial"",""time""
""fullscreenenter"",""0"",""32632""
","
","null","<p></p>","null","","","","","","","",""
"","image","151","202791","0.0-151.0","""event"",""trial"",""time""
""focus"",""0"",""0""
""fullscreenenter"",""0"",""32632""
","
","""event"",""trial"",""time""
""focus"",""0"",""0""
","""event"",""trial"",""time""
""fullscreenenter"",""0"",""32632""
","
","852","run_exp/static/images/Set 6_rs/089a.jpg","86","","","","","","learn","SL",""
"","show_choice","152","203943","0.0-152.0","""event"",""trial"",""time""
""focus"",""0"",""0""
""fullscreenenter"",""0"",""32632""
","
","""event"",""trial"",""time""
""focus"",""0"",""0""
","""event"",""trial"",""time""
""fullscreenenter"",""0"",""32632""
","
","null","run_exp/static/images/Set 6_rs/089a.jpg","null","","","","","","learn","SL",""
"","html-keyboard-response","153","204448","0.0-153.0","""event"",""trial"",""time""
""focus"",""0"",""0""
""fullscreenenter"",""0"",""32632""
","
","""event"",""trial"",""time""
""focus"",""0"",""0""
","""event"",""trial"",""time""
""fullscreenenter"",""0"",""32632""
","
","null","<p></p>","null","","","","","","","",""
"","image","154","205105","0.0-154.0","""event"",""trial"",""time""
""focus"",""0"",""0""
""fullscreenenter"",""0"",""32632""
","
","""event"",""trial"",""time""
""focus"",""0"",""0""
","""event"",""trial"",""time""
""fullscreenenter"",""0"",""32632""
","
","655","run_exp/static/images/Set 6_rs/091a.jpg","86","","","","","","learn","SL",""
"","show_choice","155","206452","0.0-155.0","""event"",""trial"",""time""
""focus"",""0"",""0""
""fullscreenenter"",""0"",""32632""
","
","""event"",""trial"",""time""
""focus"",""0"",""0""
","""event"",""trial"",""time""
""fullscreenenter"",""0"",""32632""
","
","null","run_exp/static/images/Set 6_rs/091a.jpg","null","","","","","","learn","SL",""
"","html-keyboard-response","156","206958","0.0-156.0","""event"",""trial"",""time""
""focus"",""0"",""0""
""fullscreenenter"",""0"",""32632""
","
","""event"",""trial"",""time""
""focus"",""0"",""0""
","""event"",""trial"",""time""
""fullscreenenter"",""0"",""32632""
","
","null","<p></p>","null","","","","","","","",""
"","image","157","208051","0.0-157.0","""event"",""trial"",""time""
""focus"",""0"",""0""
""fullscreenenter"",""0"",""32632""
","
","""event"",""trial"",""time""
""focus"",""0"",""0""
","""event"",""trial"",""time""
""fullscreenenter"",""0"",""32632""
","
","1091","run_exp/static/images/Set 6_rs/178a.jpg","78","","","","","","learn","SR",""
"","show_choice","158","208967","0.0-158.0","""event"",""trial"",""time""
""focus"",""0"",""0""
""fullscreenenter"",""0"",""32632""
","
","""event"",""trial"",""time""
""focus"",""0"",""0""
","""event"",""trial"",""time""
""fullscreenenter"",""0"",""32632""
","
","null","run_exp/static/images/Set 6_rs/178a.jpg","null","","","","","","learn","SR",""
"","html-keyboard-response","159","209471","0.0-159.0","""event"",""trial"",""time""
""focus"",""0"",""0""
""fullscreenenter"",""0"",""32632""
","
","""event"",""trial"",""time""
""focus"",""0"",""0""
","""event"",""trial"",""time""
""fullscreenenter"",""0"",""32632""
","
","null","<p></p>","null","","","","","","","",""
"","image","160","210395","0.0-160.0","""event"",""trial"",""time""
""focus"",""0"",""0""
""fullscreenenter"",""0"",""32632""
","
","""event"",""trial"",""time""
""focus"",""0"",""0""
","""event"",""trial"",""time""
""fullscreenenter"",""0"",""32632""
","
","923","run_exp/static/images/Set 6_rs/055a.jpg","78","","","","","","learn","SL",""
"","show_choice","161","211477","0.0-161.0","""event"",""trial"",""time""
""focus"",""0"",""0""
""fullscreenenter"",""0"",""32632""
","
","""event"",""trial"",""time""
""focus"",""0"",""0""
","""event"",""trial"",""time""
""fullscreenenter"",""0"",""32632""
","
","null","run_exp/static/images/Set 6_rs/055a.jpg","null","","","","","","learn","SL",""
"","html-keyboard-response","162","211979","0.0-162.0","""event"",""trial"",""time""
""focus"",""0"",""0""
""fullscreenenter"",""0"",""32632""
","
","""event"",""trial"",""time""
""focus"",""0"",""0""
","""event"",""trial"",""time""
""fullscreenenter"",""0"",""32632""
","
","null","<p></p>","null","","","","","","","",""
"","image","163","213120","0.0-163.0","""event"",""trial"",""time""
""focus"",""0"",""0""
""fullscreenenter"",""0"",""32632""
","
","""event"",""trial"",""time""
""focus"",""0"",""0""
","""event"",""trial"",""time""
""fullscreenenter"",""0"",""32632""
","
","1140","run_exp/static/images/Set 6_rs/108a.jpg","78","","","","","","learn","SR",""
"","show_choice","164","213986","0.0-164.0","""event"",""trial"",""time""
""focus"",""0"",""0""
""fullscreenenter"",""0"",""32632""
","
","""event"",""trial"",""time""
""focus"",""0"",""0""
","""event"",""trial"",""time""
""fullscreenenter"",""0"",""32632""
","
","null","run_exp/static/images/Set 6_rs/108a.jpg","null","","","","","","learn","SR",""
"","html-keyboard-response","165","214488","0.0-165.0","""event"",""trial"",""time""
""focus"",""0"",""0""
""fullscreenenter"",""0"",""32632""
","
","""event"",""trial"",""time""
""focus"",""0"",""0""
","""event"",""trial"",""time""
""fullscreenenter"",""0"",""32632""
","
","null","<p></p>","null","","","","","","","",""
"","image","166","215338","0.0-166.0","""event"",""trial"",""time""
""focus"",""0"",""0""
""fullscreenenter"",""0"",""32632""
","
","""event"",""trial"",""time""
""focus"",""0"",""0""
","""event"",""trial"",""time""
""fullscreenenter"",""0"",""32632""
","
","849","run_exp/static/images/Set 6_rs/073a.jpg","86","","","","","","learn","SL",""
"","show_choice","167","216491","0.0-167.0","""event"",""trial"",""time""
""focus"",""0"",""0""
""fullscreenenter"",""0"",""32632""
","
","""event"",""trial"",""time""
""focus"",""0"",""0""
","""event"",""trial"",""time""
""fullscreenenter"",""0"",""32632""
","
","null","run_exp/static/images/Set 6_rs/073a.jpg","null","","","","","","learn","SL",""
"","html-keyboard-response","168","216993","0.0-168.0","""event"",""trial"",""time""
""focus"",""0"",""0""
""fullscreenenter"",""0"",""32632""
","
","""event"",""trial"",""time""
""focus"",""0"",""0""
","""event"",""trial"",""time""
""fullscreenenter"",""0"",""32632""
","
","null","<p></p>","null","","","","","","","",""
"","image","169","218063","0.0-169.0","""event"",""trial"",""time""
""focus"",""0"",""0""
""fullscreenenter"",""0"",""32632""
","
","""event"",""trial"",""time""
""focus"",""0"",""0""
","""event"",""trial"",""time""
""fullscreenenter"",""0"",""32632""
","
","1070","run_exp/static/images/Set 6_rs/014a.jpg","78","","","","","","learn","SL",""
"","show_choice","170","218999","0.0-170.0","""event"",""trial"",""time""
""focus"",""0"",""0""
""fullscreenenter"",""0"",""32632""
","
","""event"",""trial"",""time""
""focus"",""0"",""0""
","""event"",""trial"",""time""
""fullscreenenter"",""0"",""32632""
","
","null","run_exp/static/images/Set 6_rs/014a.jpg","null","","","","","","learn","SL",""
"","html-keyboard-response","171","219505","0.0-171.0","""event"",""trial"",""time""
""focus"",""0"",""0""
""fullscreenenter"",""0"",""32632""
","
","""event"",""trial"",""time""
""focus"",""0"",""0""
","""event"",""trial"",""time""
""fullscreenenter"",""0"",""32632""
","
","null","<p></p>","null","","","","","","","",""
"","image","172","220420","0.0-172.0","""event"",""trial"",""time""
""focus"",""0"",""0""
""fullscreenenter"",""0"",""32632""
","
","""event"",""trial"",""time""
""focus"",""0"",""0""
","""event"",""trial"",""time""
""fullscreenenter"",""0"",""32632""
","
","914","run_exp/static/images/Set 6_rs/085a.jpg","86","","","","","","learn","SL",""
"","show_choice","173","221509","0.0-173.0","""event"",""trial"",""time""
""focus"",""0"",""0""
""fullscreenenter"",""0"",""32632""
","
","""event"",""trial"",""time""
""focus"",""0"",""0""
","""event"",""trial"",""time""
""fullscreenenter"",""0"",""32632""
","
","null","run_exp/static/images/Set 6_rs/085a.jpg","null","","","","","","learn","SL",""
"","html-keyboard-response","174","222014","0.0-174.0","""event"",""trial"",""time""
""focus"",""0"",""0""
""fullscreenenter"",""0"",""32632""
","
","""event"",""trial"",""time""
""focus"",""0"",""0""
","""event"",""trial"",""time""
""fullscreenenter"",""0"",""32632""
","
","null","<p></p>","null","","","","","","","",""
"","image","175","222904","0.0-175.0","""event"",""trial"",""time""
""focus"",""0"",""0""
""fullscreenenter"",""0"",""32632""
","
","""event"",""trial"",""time""
""focus"",""0"",""0""
","""event"",""trial"",""time""
""fullscreenenter"",""0"",""32632""
","
","889","run_exp/static/images/Set 6_rs/191a.jpg","78","","","","","","learn","SL",""
"","show_choice","176","224019","0.0-176.0","""event"",""trial"",""time""
""focus"",""0"",""0""
""fullscreenenter"",""0"",""32632""
","
","""event"",""trial"",""time""
""focus"",""0"",""0""
","""event"",""trial"",""time""
""fullscreenenter"",""0"",""32632""
","
","null","run_exp/static/images/Set 6_rs/191a.jpg","null","","","","","","learn","SL",""
"","html-keyboard-response","177","224522","0.0-177.0","""event"",""trial"",""time""
""focus"",""0"",""0""
""fullscreenenter"",""0"",""32632""
","
","""event"",""trial"",""time""
""focus"",""0"",""0""
","""event"",""trial"",""time""
""fullscreenenter"",""0"",""32632""
","
","null","<p></p>","null","","","","","","","",""
"","image","178","225375","0.0-178.0","""event"",""trial"",""time""
""focus"",""0"",""0""
""fullscreenenter"",""0"",""32632""
","
","""event"",""trial"",""time""
""focus"",""0"",""0""
","""event"",""trial"",""time""
""fullscreenenter"",""0"",""32632""
","
","853","run_exp/static/images/Set 6_rs/181a.jpg","78","","","","","","learn","SL",""
"","show_choice","179","226525","0.0-179.0","""event"",""trial"",""time""
""focus"",""0"",""0""
""fullscreenenter"",""0"",""32632""
","
","""event"",""trial"",""time""
""focus"",""0"",""0""
","""event"",""trial"",""time""
""fullscreenenter"",""0"",""32632""
","
","null","run_exp/static/images/Set 6_rs/181a.jpg","null","","","","","","learn","SL",""
"","html-keyboard-response","180","227030","0.0-180.0","""event"",""trial"",""time""
""focus"",""0"",""0""
""fullscreenenter"",""0"",""32632""
","
","""event"",""trial"",""time""
""focus"",""0"",""0""
","""event"",""trial"",""time""
""fullscreenenter"",""0"",""32632""
","
","null","<p></p>","null","","","","","","","",""
"","image","181","228364","0.0-181.0","""event"",""trial"",""time""
""focus"",""0"",""0""
""fullscreenenter"",""0"",""32632""
","
","""event"",""trial"",""time""
""focus"",""0"",""0""
","""event"",""trial"",""time""
""fullscreenenter"",""0"",""32632""
","
","1333","run_exp/static/images/Set 6_rs/088a.jpg","78","","","","","","learn","SR",""
"","show_choice","182","229034","0.0-182.0","""event"",""trial"",""time""
""focus"",""0"",""0""
""fullscreenenter"",""0"",""32632""
","
","""event"",""trial"",""time""
""focus"",""0"",""0""
","""event"",""trial"",""time""
""fullscreenenter"",""0"",""32632""
","
","null","run_exp/static/images/Set 6_rs/088a.jpg","null","","","","","","learn","SR",""
"","html-keyboard-response","183","229539","0.0-183.0","""event"",""trial"",""time""
""focus"",""0"",""0""
""fullscreenenter"",""0"",""32632""
","
","""event"",""trial"",""time""
""focus"",""0"",""0""
","""event"",""trial"",""time""
""fullscreenenter"",""0"",""32632""
","
","null","<p></p>","null","","","","","","","",""
"","image","184","230686","0.0-184.0","""event"",""trial"",""time""
""focus"",""0"",""0""
""fullscreenenter"",""0"",""32632""
","
","""event"",""trial"",""time""
""focus"",""0"",""0""
","""event"",""trial"",""time""
""fullscreenenter"",""0"",""32632""
","
","1147","run_exp/static/images/Set 6_rs/010a.jpg","86","","","","","","learn","SR",""
"","show_choice","185","231540","0.0-185.0","""event"",""trial"",""time""
""focus"",""0"",""0""
""fullscreenenter"",""0"",""32632""
","
","""event"",""trial"",""time""
""focus"",""0"",""0""
","""event"",""trial"",""time""
""fullscreenenter"",""0"",""32632""
","
","null","run_exp/static/images/Set 6_rs/010a.jpg","null","","","","","","learn","SR",""
"","html-keyboard-response","186","232046","0.0-186.0","""event"",""trial"",""time""
""focus"",""0"",""0""
""fullscreenenter"",""0"",""32632""
","
","""event"",""trial"",""time""
""focus"",""0"",""0""
","""event"",""trial"",""time""
""fullscreenenter"",""0"",""32632""
","
","null","<p></p>","null","","","","","","","",""
"","image","187","233094","0.0-187.0","""event"",""trial"",""time""
""focus"",""0"",""0""
""fullscreenenter"",""0"",""32632""
","
","""event"",""trial"",""time""
""focus"",""0"",""0""
","""event"",""trial"",""time""
""fullscreenenter"",""0"",""32632""
","
","1047","run_exp/static/images/Set 6_rs/152a.jpg","78","","","","","","learn","SR",""
"","show_choice","188","234051","0.0-188.0","""event"",""trial"",""time""
""focus"",""0"",""0""
""fullscreenenter"",""0"",""32632""
","
","""event"",""trial"",""time""
""focus"",""0"",""0""
","""event"",""trial"",""time""
""fullscreenenter"",""0"",""32632""
","
","null","run_exp/static/images/Set 6_rs/152a.jpg","null","","","","","","learn","SR",""
"","html-keyboard-response","189","234556","0.0-189.0","""event"",""trial"",""time""
""focus"",""0"",""0""
""fullscreenenter"",""0"",""32632""
","
","""event"",""trial"",""time""
""focus"",""0"",""0""
","""event"",""trial"",""time""
""fullscreenenter"",""0"",""32632""
","
","null","<p></p>","null","","","","","","","",""
"","image","190","235519","0.0-190.0","""event"",""trial"",""time""
""focus"",""0"",""0""
""fullscreenenter"",""0"",""32632""
","
","""event"",""trial"",""time""
""focus"",""0"",""0""
","""event"",""trial"",""time""
""fullscreenenter"",""0"",""32632""
","
","961","run_exp/static/images/Set 6_rs/112a.jpg","86","","","","","","learn","SR",""
"","show_choice","191","236561","0.0-191.0","""event"",""trial"",""time""
""focus"",""0"",""0""
""fullscreenenter"",""0"",""32632""
","
","""event"",""trial"",""time""
""focus"",""0"",""0""
","""event"",""trial"",""time""
""fullscreenenter"",""0"",""32632""
","
","null","run_exp/static/images/Set 6_rs/112a.jpg","null","","","","","","learn","SR",""
"","html-keyboard-response","192","237065","0.0-192.0","""event"",""trial"",""time""
""focus"",""0"",""0""
""fullscreenenter"",""0"",""32632""
","
","""event"",""trial"",""time""
""focus"",""0"",""0""
","""event"",""trial"",""time""
""fullscreenenter"",""0"",""32632""
","
","null","<p></p>","null","","","","","","","",""
"","image","193","239073","0.0-193.0","""event"",""trial"",""time""
""focus"",""0"",""0""
""fullscreenenter"",""0"",""32632""
","
","""event"",""trial"",""time""
""focus"",""0"",""0""
","""event"",""trial"",""time""
""fullscreenenter"",""0"",""32632""
","
","null","run_exp/static/images/Set 6_rs/076a.jpg","null","","","","","","learn","SR",""
"","show_choice","194","241078","0.0-194.0","""event"",""trial"",""time""
""focus"",""0"",""0""
""fullscreenenter"",""0"",""32632""
","
","""event"",""trial"",""time""
""focus"",""0"",""0""
","""event"",""trial"",""time""
""fullscreenenter"",""0"",""32632""
","
","null","run_exp/static/images/blank.png","null","","","","","","learn","SR",""
"","html-keyboard-response","195","241583","0.0-195.0","""event"",""trial"",""time""
""focus"",""0"",""0""
""fullscreenenter"",""0"",""32632""
","
","""event"",""trial"",""time""
""focus"",""0"",""0""
","""event"",""trial"",""time""
""fullscreenenter"",""0"",""32632""
","
","null","<p></p>","null","","","","","","","",""
"","test_intro","196","278397","0.0-196.0","""event"",""trial"",""time""
""focus"",""0"",""0""
""fullscreenenter"",""0"",""32632""
","
","""event"",""trial"",""time""
""focus"",""0"",""0""
","""event"",""trial"",""time""
""fullscreenenter"",""0"",""32632""
","
","null","run_exp/static/audio/clip_2_memory.m4a","null","","","","","<div class='center'><p>Now, lets see how much you remember about the items you just saw.  For each item, you need to indicate if it was <b>old</b> by pressing the <b>v</b> key, <b>similar</b> by pressing the <b>b</b> key, or <b>new</b> by pressing the <b>n</b> key.</p><p>Old refers to an item that you saw before in the indoor/outdoor game that you just played, new refers to an item you have <b>not</b> seen before within the indoor/outdoor game, and similar refers to an item that is similar to an item youve seen before but is not exactly the same. </p><p>Before we begin, lets go over some brief demonstrations to make sure you understand.</p></div>","","",""
"","html-keyboard-response","197","279154","0.0-197.0","""event"",""trial"",""time""
""focus"",""0"",""0""
""fullscreenenter"",""0"",""32632""
","
","""event"",""trial"",""time""
""focus"",""0"",""0""
","""event"",""trial"",""time""
""fullscreenenter"",""0"",""32632""
","
","755","<div class='center'><p>Now, lets see how much you remember about the items you just saw.  For each item, you need to indicate if it was <b>old</b> by pressing the <b>v</b> key, <b>similar</b> by pressing the <b>b</b> key, or <b>new</b> by pressing the <b>n</b> key.</p><p>Old refers to an item that you saw before in the indoor/outdoor game that you just played, new refers to an item you have <b>not</b> seen before within the indoor/outdoor game, and similar refers to an item that is similar to an item youve seen before but is not exactly the same. </p><p>Before we begin, lets go over some brief demonstrations to make sure you understand.</p><div><p><b>[Press the space bar to continue]</b></p></div>","32","","","","","","","",""
"","items","198","286657","0.0-198.0","""event"",""trial"",""time""
""focus"",""0"",""0""
""fullscreenenter"",""0"",""32632""
","
","""event"",""trial"",""time""
""focus"",""0"",""0""
","""event"",""trial"",""time""
""fullscreenenter"",""0"",""32632""
","
","null","run_exp/static/audio/clip_3_items.m4a","null","","","","","","","",""
"","mop","199","291160","0.0-199.0","""event"",""trial"",""time""
""focus"",""0"",""0""
""fullscreenenter"",""0"",""32632""
","
","""event"",""trial"",""time""
""focus"",""0"",""0""
","""event"",""trial"",""time""
""fullscreenenter"",""0"",""32632""
","
","null","run_exp/static/audio/clip_4_mop.m4a","null","","","","","","","",""
"","baseball","200","294666","0.0-200.0","""event"",""trial"",""time""
""focus"",""0"",""0""
""fullscreenenter"",""0"",""32632""
","
","""event"",""trial"",""time""
""focus"",""0"",""0""
","""event"",""trial"",""time""
""fullscreenenter"",""0"",""32632""
","
","null","run_exp/static/audio/clip_5_baseball.m4a","null","","","","","","","",""
"","trumpet","201","298172","0.0-201.0","""event"",""trial"",""time""
""focus"",""0"",""0""
""fullscreenenter"",""0"",""32632""
","
","""event"",""trial"",""time""
""focus"",""0"",""0""
","""event"",""trial"",""time""
""fullscreenenter"",""0"",""32632""
","
","null","run_exp/static/audio/clip_6_trumpet.m4a","null","","","","","","","",""
"","gummies","202","301678","0.0-202.0","""event"",""trial"",""time""
""focus"",""0"",""0""
""fullscreenenter"",""0"",""32632""
","
","""event"",""trial"",""time""
""focus"",""0"",""0""
","""event"",""trial"",""time""
""fullscreenenter"",""0"",""32632""
","
","null","run_exp/static/audio/clip_7_gummies.m4a","null","","","","","","","",""
"","osn","203","306184","0.0-203.0","""event"",""trial"",""time""
""focus"",""0"",""0""
""fullscreenenter"",""0"",""32632""
","
","""event"",""trial"",""time""
""focus"",""0"",""0""
","""event"",""trial"",""time""
""fullscreenenter"",""0"",""32632""
","
","null","run_exp/static/audio/clip_8_osn.m4a","null","","","","","","","",""
"","old_1","204","312685","0.0-204.0","""event"",""trial"",""time""
""focus"",""0"",""0""
""fullscreenenter"",""0"",""32632""
","
","""event"",""trial"",""time""
""focus"",""0"",""0""
","""event"",""trial"",""time""
""fullscreenenter"",""0"",""32632""
","
","null","run_exp/static/audio/clip_9_old_trumpet.m4a","null","","","","","","","",""
"","new_1","205","320192","0.0-205.0","""event"",""trial"",""time""
""focus"",""0"",""0""
""fullscreenenter"",""0"",""32632""
","
","""event"",""trial"",""time""
""focus"",""0"",""0""
","""event"",""trial"",""time""
""fullscreenenter"",""0"",""32632""
","
","null","run_exp/static/audio/clip_10_new_balloon.m4a","null","","","","","","","",""
"","similar_1a","206","324698","0.0-206.0","""event"",""trial"",""time""
""focus"",""0"",""0""
""fullscreenenter"",""0"",""32632""
","
","""event"",""trial"",""time""
""focus"",""0"",""0""
","""event"",""trial"",""time""
""fullscreenenter"",""0"",""32632""
","
","null","run_exp/static/audio/clip_11a_similar_mop.m4a","null","","","","","","","",""
"","similar_1b","207","331204","0.0-207.0","""event"",""trial"",""time""
""focus"",""0"",""0""
""fullscreenenter"",""0"",""32632""
","
","""event"",""trial"",""time""
""focus"",""0"",""0""
","""event"",""trial"",""time""
""fullscreenenter"",""0"",""32632""
","
","null","run_exp/static/audio/clip_11b_similar_mop.m4a","null","","","","","","","",""
"","new_2","208","334710","0.0-208.0","""event"",""trial"",""time""
""focus"",""0"",""0""
""fullscreenenter"",""0"",""32632""
","
","""event"",""trial"",""time""
""focus"",""0"",""0""
","""event"",""trial"",""time""
""fullscreenenter"",""0"",""32632""
","
","null","run_exp/static/audio/clip_12_new_stoplight.m4a","null","","","","","","","",""
"","old_2","209","338216","0.0-209.0","""event"",""trial"",""time""
""focus"",""0"",""0""
""fullscreenenter"",""0"",""32632""
","
","""event"",""trial"",""time""
""focus"",""0"",""0""
","""event"",""trial"",""time""
""fullscreenenter"",""0"",""32632""
","
","null","run_exp/static/audio/clip_13_old_baseball.m4a","null","","","","","","","",""
"","similar_2a","210","341723","0.0-210.0","""event"",""trial"",""time""
""focus"",""0"",""0""
""fullscreenenter"",""0"",""32632""
","
","""event"",""trial"",""time""
""focus"",""0"",""0""
","""event"",""trial"",""time""
""fullscreenenter"",""0"",""32632""
","
","null","run_exp/static/audio/clip_14a_similar_gummies.m4a","null","","","","","","","",""
"","similar_2b","211","349226","0.0-211.0","""event"",""trial"",""time""
""focus"",""0"",""0""
""fullscreenenter"",""0"",""32632""
","
","""event"",""trial"",""time""
""focus"",""0"",""0""
","""event"",""trial"",""time""
""fullscreenenter"",""0"",""32632""
","
","null","run_exp/static/audio/clip_14b_similar_gummies.m4a","null","","","","","","","",""
"","practice","212","391331","0.0-212.0","""event"",""trial"",""time""
""focus"",""0"",""0""
""fullscreenenter"",""0"",""32632""
","
","""event"",""trial"",""time""
""focus"",""0"",""0""
","""event"",""trial"",""time""
""fullscreenenter"",""0"",""32632""
","
","null","run_exp/static/audio/clip_15_practice.m4a","null","","","","","<div class='center'><p>Lets practice a little to make sure you understand the difference between new, similar, and old. Lets say you saw these three items in the indoor/outdoor game.</p><p> Try your best to remember these images because youll soon be tested on them in a practice game. In the practice game, youll be shown images and youll have to say if they are old (one of the three images belows), similar (similar to one of the images below but not exactly the same), or new (are not one of the images below nor similar to them).</p><p>Once you press the space bar youll be shown these images again but one at time. Then youll begin the practice game.</p><p><img src='run_exp/static/images/tutorial/test/three_indoor_outdoor.png' height='300'></p></div>","","",""
"","html-keyboard-response","213","392082","0.0-213.0","""event"",""trial"",""time""
""focus"",""0"",""0""
""fullscreenenter"",""0"",""32632""
","
","""event"",""trial"",""time""
""focus"",""0"",""0""
","""event"",""trial"",""time""
""fullscreenenter"",""0"",""32632""
","
","749","<div class='center'><p>Lets practice a little to make sure you understand the difference between new, similar, and old. Lets say you saw these three items in the indoor/outdoor game.</p><p> Try your best to remember these images because youll soon be tested on them in a practice game. In the practice game, youll be shown images and youll have to say if they are old (one of the three images belows), similar (similar to one of the images below but not exactly the same), or new (are not one of the images below nor similar to them).</p><p>Once you press the space bar youll be shown these images again but one at time. Then youll begin the practice game.</p><p><img src='run_exp/static/images/tutorial/test/three_indoor_outdoor.png' height='300'></p><div><p><b>[Press the space bar to continue]</b></p></div>","32","","","","","","","",""
"","planet","214","394085","0.0-214.0","""event"",""trial"",""time""
""focus"",""0"",""0""
""fullscreenenter"",""0"",""32632""
","
","""event"",""trial"",""time""
""focus"",""0"",""0""
","""event"",""trial"",""time""
""fullscreenenter"",""0"",""32632""
","
","null","run_exp/static/images/tutorial/test/008a.jpg","null","","","","","","","",""
"","boot","215","396091","0.0-215.0","""event"",""trial"",""time""
""focus"",""0"",""0""
""fullscreenenter"",""0"",""32632""
","
","""event"",""trial"",""time""
""focus"",""0"",""0""
","""event"",""trial"",""time""
""fullscreenenter"",""0"",""32632""
","
","null","run_exp/static/images/tutorial/test/011a.jpg","null","","","","","","","",""
"","lemon","216","398097","0.0-216.0","""event"",""trial"",""time""
""focus"",""0"",""0""
""fullscreenenter"",""0"",""32632""
","
","""event"",""trial"",""time""
""focus"",""0"",""0""
","""event"",""trial"",""time""
""fullscreenenter"",""0"",""32632""
","
","null","run_exp/static/images/tutorial/test/018a.jpg","null","","","","","","","",""
"","practice_q1","217","402105","0.0-217.0","""event"",""trial"",""time""
""focus"",""0"",""0""
""fullscreenenter"",""0"",""32632""
","
","""event"",""trial"",""time""
""focus"",""0"",""0""
","""event"",""trial"",""time""
""fullscreenenter"",""0"",""32632""
","
","4008","run_exp/static/audio/clip_16_practice_question.m4a","78","","","","","","","",""
"","correct","218","404029","0.0-218.0-0.0","""event"",""trial"",""time""
""focus"",""0"",""0""
""fullscreenenter"",""0"",""32632""
","
","""event"",""trial"",""time""
""focus"",""0"",""0""
","""event"",""trial"",""time""
""fullscreenenter"",""0"",""32632""
","
","null","run_exp/static/audio/clip_17_correct.m4a","null","","","","","<div class='center'><p>That's correct!</p></div>","","",""
"","html-keyboard-response","219","405745","0.0-218.0-1.0","""event"",""trial"",""time""
""focus"",""0"",""0""
""fullscreenenter"",""0"",""32632""
","
","""event"",""trial"",""time""
""focus"",""0"",""0""
","""event"",""trial"",""time""
""fullscreenenter"",""0"",""32632""
","
","1715","<div class='center'><p>That's correct!</p><div><p><b>[Press the space bar to continue]</b></p></div>","32","","","","","","","",""
"","practice_q2","220","407067","0.0-218.0-2.0","""event"",""trial"",""time""
""focus"",""0"",""0""
""fullscreenenter"",""0"",""32632""
","
","""event"",""trial"",""time""
""focus"",""0"",""0""
","""event"",""trial"",""time""
""fullscreenenter"",""0"",""32632""
","
","1321","run_exp/static/audio/clip_16_practice_question.m4a","86","","","","","","","",""
"","correct","221","409000","0.0-219.0-0.0","""event"",""trial"",""time""
""focus"",""0"",""0""
""fullscreenenter"",""0"",""32632""
","
","""event"",""trial"",""time""
""focus"",""0"",""0""
","""event"",""trial"",""time""
""fullscreenenter"",""0"",""32632""
","
","null","run_exp/static/audio/clip_17_correct.m4a","null","","","","","<div class='center'><p>That's correct!</p></div>","","",""
"","html-keyboard-response","222","409662","0.0-219.0-1.0","""event"",""trial"",""time""
""focus"",""0"",""0""
""fullscreenenter"",""0"",""32632""
","
","""event"",""trial"",""time""
""focus"",""0"",""0""
","""event"",""trial"",""time""
""fullscreenenter"",""0"",""32632""
","
","660","<div class='center'><p>That's correct!</p><div><p><b>[Press the space bar to continue]</b></p></div>","32","","","","","","","",""
"","practice_q3","223","411429","0.0-219.0-2.0","""event"",""trial"",""time""
""focus"",""0"",""0""
""fullscreenenter"",""0"",""32632""
","
","""event"",""trial"",""time""
""focus"",""0"",""0""
","""event"",""trial"",""time""
""fullscreenenter"",""0"",""32632""
","
","1766","run_exp/static/audio/clip_16_practice_question.m4a","66","","","","","","","",""
"","correct","224","413623","0.0-220.0-0.0","""event"",""trial"",""time""
""focus"",""0"",""0""
""fullscreenenter"",""0"",""32632""
","
","""event"",""trial"",""time""
""focus"",""0"",""0""
","""event"",""trial"",""time""
""fullscreenenter"",""0"",""32632""
","
","null","run_exp/static/audio/clip_17_correct.m4a","null","","","","","<div class='center'><p>That's correct!</p></div>","","",""
"","html-keyboard-response","225","413939","0.0-220.0-1.0","""event"",""trial"",""time""
""focus"",""0"",""0""
""fullscreenenter"",""0"",""32632""
","
","""event"",""trial"",""time""
""focus"",""0"",""0""
","""event"",""trial"",""time""
""fullscreenenter"",""0"",""32632""
","
","314","<div class='center'><p>That's correct!</p><div><p><b>[Press the space bar to continue]</b></p></div>","32","","","","","","","",""
"","begin_text","226","432398","0.0-221.0-0.0","""event"",""trial"",""time""
""focus"",""0"",""0""
""fullscreenenter"",""0"",""32632""
","
","""event"",""trial"",""time""
""focus"",""0"",""0""
","""event"",""trial"",""time""
""fullscreenenter"",""0"",""32632""
","
","null","run_exp/static/audio/clip_22_begin_test.m4a","null","","","","","<div class='center'><p>On to the real game where well test your memory of items from the indoor/outdoor game. For each item, you need to indicate if the item is <b>old</b> by pressing the <b>v</b> key, <b>similar</b> by pressing the <b>b</b> key, or <b>new</b> by pressing the <b>n</b> key. </p></div>","","",""
"","html-keyboard-response","227","433993","0.0-221.0-1.0","""event"",""trial"",""time""
""focus"",""0"",""0""
""fullscreenenter"",""0"",""32632""
","
","""event"",""trial"",""time""
""focus"",""0"",""0""
","""event"",""trial"",""time""
""fullscreenenter"",""0"",""32632""
","
","1593","<div class='center'><p>On to the real game where well test your memory of items from the indoor/outdoor game. For each item, you need to indicate if the item is <b>old</b> by pressing the <b>v</b> key, <b>similar</b> by pressing the <b>b</b> key, or <b>new</b> by pressing the <b>n</b> key. </p><div><p><b>[Press the space bar to continue]</b></p></div>","32","","","","","","","",""
"","image","228","435916","0.0-222.0-0.0","""event"",""trial"",""time""
""focus"",""0"",""0""
""fullscreenenter"",""0"",""32632""
","
","""event"",""trial"",""time""
""focus"",""0"",""0""
","""event"",""trial"",""time""
""fullscreenenter"",""0"",""32632""
","
","1921","run_exp/static/images/Set 6_rs/191b.jpg","78","","","","","","test","TL","2"
"","show_choice","229","436423","0.0-222.0-1.0","""event"",""trial"",""time""
""focus"",""0"",""0""
""fullscreenenter"",""0"",""32632""
","
","""event"",""trial"",""time""
""focus"",""0"",""0""
","""event"",""trial"",""time""
""fullscreenenter"",""0"",""32632""
","
","null","run_exp/static/images/Set 6_rs/191b.jpg","null","","","","","","test","TL",""
"","html-keyboard-response","230","436927","0.0-222.0-2.0","""event"",""trial"",""time""
""focus"",""0"",""0""
""fullscreenenter"",""0"",""32632""
","
","""event"",""trial"",""time""
""focus"",""0"",""0""
","""event"",""trial"",""time""
""fullscreenenter"",""0"",""32632""
","
","null","<p></p>","null","","","","","","","",""
"","image","231","438082","0.0-223.0-0.0","""event"",""trial"",""time""
""focus"",""0"",""0""
""fullscreenenter"",""0"",""32632""
","
","""event"",""trial"",""time""
""focus"",""0"",""0""
","""event"",""trial"",""time""
""fullscreenenter"",""0"",""32632""
","
","1152","run_exp/static/images/Set 6_rs/097a.jpg","78","","","","","","test","TF","5"
"","show_choice","232","438584","0.0-223.0-1.0","""event"",""trial"",""time""
""focus"",""0"",""0""
""fullscreenenter"",""0"",""32632""
","
","""event"",""trial"",""time""
""focus"",""0"",""0""
","""event"",""trial"",""time""
""fullscreenenter"",""0"",""32632""
","
","null","run_exp/static/images/Set 6_rs/097a.jpg","null","","","","","","test","TF",""
"","html-keyboard-response","233","439087","0.0-223.0-2.0","""event"",""trial"",""time""
""focus"",""0"",""0""
""fullscreenenter"",""0"",""32632""
","
","""event"",""trial"",""time""
""focus"",""0"",""0""
","""event"",""trial"",""time""
""fullscreenenter"",""0"",""32632""
","
","null","<p></p>","null","","","","","","","",""
"","image","234","440238","0.0-224.0-0.0","""event"",""trial"",""time""
""focus"",""0"",""0""
""fullscreenenter"",""0"",""32632""
","
","""event"",""trial"",""time""
""focus"",""0"",""0""
","""event"",""trial"",""time""
""fullscreenenter"",""0"",""32632""
","
","1149","run_exp/static/images/Set 6_rs/116b.jpg","66","","","","","","test","TL","2"
"","show_choice","235","440743","0.0-224.0-1.0","""event"",""trial"",""time""
""focus"",""0"",""0""
""fullscreenenter"",""0"",""32632""
","
","""event"",""trial"",""time""
""focus"",""0"",""0""
","""event"",""trial"",""time""
""fullscreenenter"",""0"",""32632""
","
","null","run_exp/static/images/Set 6_rs/116b.jpg","null","","","","","","test","TL",""
"","html-keyboard-response","236","441245","0.0-224.0-2.0","""event"",""trial"",""time""
""focus"",""0"",""0""
""fullscreenenter"",""0"",""32632""
","
","""event"",""trial"",""time""
""focus"",""0"",""0""
","""event"",""trial"",""time""
""fullscreenenter"",""0"",""32632""
","
","null","<p></p>","null","","","","","","","",""
"","image","237","442651","0.0-225.0-0.0","""event"",""trial"",""time""
""focus"",""0"",""0""
""fullscreenenter"",""0"",""32632""
","
","""event"",""trial"",""time""
""focus"",""0"",""0""
","""event"",""trial"",""time""
""fullscreenenter"",""0"",""32632""
","
","1403","run_exp/static/images/Set 6_rs/144b.jpg","66","","","","","","test","TL","4"
"","show_choice","238","443155","0.0-225.0-1.0","""event"",""trial"",""time""
""focus"",""0"",""0""
""fullscreenenter"",""0"",""32632""
","
","""event"",""trial"",""time""
""focus"",""0"",""0""
","""event"",""trial"",""time""
""fullscreenenter"",""0"",""32632""
","
","null","run_exp/static/images/Set 6_rs/144b.jpg","null","","","","","","test","TL",""
"","html-keyboard-response","239","443657","0.0-225.0-2.0","""event"",""trial"",""time""
""focus"",""0"",""0""
""fullscreenenter"",""0"",""32632""
","
","""event"",""trial"",""time""
""focus"",""0"",""0""
","""event"",""trial"",""time""
""fullscreenenter"",""0"",""32632""
","
","null","<p></p>","null","","","","","","","",""
"","image","240","445095","0.0-226.0-0.0","""event"",""trial"",""time""
""focus"",""0"",""0""
""fullscreenenter"",""0"",""32632""
","
","""event"",""trial"",""time""
""focus"",""0"",""0""
","""event"",""trial"",""time""
""fullscreenenter"",""0"",""32632""
","
","1437","run_exp/static/images/Set 6_rs/063a.jpg","86","","","","","","test","TR","2"
"","show_choice","241","445596","0.0-226.0-1.0","""event"",""trial"",""time""
""focus"",""0"",""0""
""fullscreenenter"",""0"",""32632""
","
","""event"",""trial"",""time""
""focus"",""0"",""0""
","""event"",""trial"",""time""
""fullscreenenter"",""0"",""32632""
","
","null","run_exp/static/images/Set 6_rs/063a.jpg","null","","","","","","test","TR",""
"","html-keyboard-response","242","446100","0.0-226.0-2.0","""event"",""trial"",""time""
""focus"",""0"",""0""
""fullscreenenter"",""0"",""32632""
","
","""event"",""trial"",""time""
""focus"",""0"",""0""
","""event"",""trial"",""time""
""fullscreenenter"",""0"",""32632""
","
","null","<p></p>","null","","","","","","","",""
"","image","243","447318","0.0-227.0-0.0","""event"",""trial"",""time""
""focus"",""0"",""0""
""fullscreenenter"",""0"",""32632""
","
","""event"",""trial"",""time""
""focus"",""0"",""0""
","""event"",""trial"",""time""
""fullscreenenter"",""0"",""32632""
","
","1216","run_exp/static/images/Set 6_rs/118a.jpg","78","","","","","","test","TF","5"
"","show_choice","244","447824","0.0-227.0-1.0","""event"",""trial"",""time""
""focus"",""0"",""0""
""fullscreenenter"",""0"",""32632""
","
","""event"",""trial"",""time""
""focus"",""0"",""0""
","""event"",""trial"",""time""
""fullscreenenter"",""0"",""32632""
","
","null","run_exp/static/images/Set 6_rs/118a.jpg","null","","","","","","test","TF",""
"","html-keyboard-response","245","448326","0.0-227.0-2.0","""event"",""trial"",""time""
""focus"",""0"",""0""
""fullscreenenter"",""0"",""32632""
","
","""event"",""trial"",""time""
""focus"",""0"",""0""
","""event"",""trial"",""time""
""fullscreenenter"",""0"",""32632""
","
","null","<p></p>","null","","","","","","","",""
"","image","246","449693","0.0-228.0-0.0","""event"",""trial"",""time""
""focus"",""0"",""0""
""fullscreenenter"",""0"",""32632""
","
","""event"",""trial"",""time""
""focus"",""0"",""0""
","""event"",""trial"",""time""
""fullscreenenter"",""0"",""32632""
","
","1365","run_exp/static/images/Set 6_rs/047a.jpg","78","","","","","","test","TF","3"
"","show_choice","247","450195","0.0-228.0-1.0","""event"",""trial"",""time""
""focus"",""0"",""0""
""fullscreenenter"",""0"",""32632""
","
","""event"",""trial"",""time""
""focus"",""0"",""0""
","""event"",""trial"",""time""
""fullscreenenter"",""0"",""32632""
","
","null","run_exp/static/images/Set 6_rs/047a.jpg","null","","","","","","test","TF",""
"","html-keyboard-response","248","450699","0.0-228.0-2.0","""event"",""trial"",""time""
""focus"",""0"",""0""
""fullscreenenter"",""0"",""32632""
","
","""event"",""trial"",""time""
""focus"",""0"",""0""
","""event"",""trial"",""time""
""fullscreenenter"",""0"",""32632""
","
","null","<p></p>","null","","","","","","","",""
"","image","249","451684","0.0-229.0-0.0","""event"",""trial"",""time""
""focus"",""0"",""0""
""fullscreenenter"",""0"",""32632""
","
","""event"",""trial"",""time""
""focus"",""0"",""0""
","""event"",""trial"",""time""
""fullscreenenter"",""0"",""32632""
","
","984","run_exp/static/images/Set 6_rs/123b.jpg","66","","","","","","test","TL","2"
"","show_choice","250","452191","0.0-229.0-1.0","""event"",""trial"",""time""
""focus"",""0"",""0""
""fullscreenenter"",""0"",""32632""
","
","""event"",""trial"",""time""
""focus"",""0"",""0""
","""event"",""trial"",""time""
""fullscreenenter"",""0"",""32632""
","
","null","run_exp/static/images/Set 6_rs/123b.jpg","null","","","","","","test","TL",""
"","html-keyboard-response","251","452696","0.0-229.0-2.0","""event"",""trial"",""time""
""focus"",""0"",""0""
""fullscreenenter"",""0"",""32632""
","
","""event"",""trial"",""time""
""focus"",""0"",""0""
","""event"",""trial"",""time""
""fullscreenenter"",""0"",""32632""
","
","null","<p></p>","null","","","","","","","",""
"","image","252","454071","0.0-230.0-0.0","""event"",""trial"",""time""
""focus"",""0"",""0""
""fullscreenenter"",""0"",""32632""
","
","""event"",""trial"",""time""
""focus"",""0"",""0""
","""event"",""trial"",""time""
""fullscreenenter"",""0"",""32632""
","
","1374","run_exp/static/images/Set 6_rs/126a.jpg","86","","","","","","test","TR","2"
"","show_choice","253","454578","0.0-230.0-1.0","""event"",""trial"",""time""
""focus"",""0"",""0""
""fullscreenenter"",""0"",""32632""
","
","""event"",""trial"",""time""
""focus"",""0"",""0""
","""event"",""trial"",""time""
""fullscreenenter"",""0"",""32632""
","
","null","run_exp/static/images/Set 6_rs/126a.jpg","null","","","","","","test","TR",""
"","html-keyboard-response","254","455083","0.0-230.0-2.0","""event"",""trial"",""time""
""focus"",""0"",""0""
""fullscreenenter"",""0"",""32632""
","
","""event"",""trial"",""time""
""focus"",""0"",""0""
","""event"",""trial"",""time""
""fullscreenenter"",""0"",""32632""
","
","null","<p></p>","null","","","","","","","",""
"","image","255","456056","0.0-231.0-0.0","""event"",""trial"",""time""
""focus"",""0"",""0""
""fullscreenenter"",""0"",""32632""
","
","""event"",""trial"",""time""
""focus"",""0"",""0""
","""event"",""trial"",""time""
""fullscreenenter"",""0"",""32632""
","
","973","run_exp/static/images/Set 6_rs/078a.jpg","78","","","","","","test","TF","1"
"","show_choice","256","456563","0.0-231.0-1.0","""event"",""trial"",""time""
""focus"",""0"",""0""
""fullscreenenter"",""0"",""32632""
","
","""event"",""trial"",""time""
""focus"",""0"",""0""
","""event"",""trial"",""time""
""fullscreenenter"",""0"",""32632""
","
","null","run_exp/static/images/Set 6_rs/078a.jpg","null","","","","","","test","TF",""
"","html-keyboard-response","257","457068","0.0-231.0-2.0","""event"",""trial"",""time""
""focus"",""0"",""0""
""fullscreenenter"",""0"",""32632""
","
","""event"",""trial"",""time""
""focus"",""0"",""0""
","""event"",""trial"",""time""
""fullscreenenter"",""0"",""32632""
","
","null","<p></p>","null","","","","","","","",""
"","image","258","458510","0.0-232.0-0.0","""event"",""trial"",""time""
""focus"",""0"",""0""
""fullscreenenter"",""0"",""32632""
","
","""event"",""trial"",""time""
""focus"",""0"",""0""
","""event"",""trial"",""time""
""fullscreenenter"",""0"",""32632""
","
","1440","run_exp/static/images/Set 6_rs/055b.jpg","66","","","","","","test","TL","4"
"","show_choice","259","459015","0.0-232.0-1.0","""event"",""trial"",""time""
""focus"",""0"",""0""
""fullscreenenter"",""0"",""32632""
","
","""event"",""trial"",""time""
""focus"",""0"",""0""
","""event"",""trial"",""time""
""fullscreenenter"",""0"",""32632""
","
","null","run_exp/static/images/Set 6_rs/055b.jpg","null","","","","","","test","TL",""
"","html-keyboard-response","260","459518","0.0-232.0-2.0","""event"",""trial"",""time""
""focus"",""0"",""0""
""fullscreenenter"",""0"",""32632""
","
","""event"",""trial"",""time""
""focus"",""0"",""0""
","""event"",""trial"",""time""
""fullscreenenter"",""0"",""32632""
","
","null","<p></p>","null","","","","","","","",""
"","image","261","460882","0.0-233.0-0.0","""event"",""trial"",""time""
""focus"",""0"",""0""
""fullscreenenter"",""0"",""32632""
","
","""event"",""trial"",""time""
""focus"",""0"",""0""
","""event"",""trial"",""time""
""fullscreenenter"",""0"",""32632""
","
","1362","run_exp/static/images/Set 6_rs/021a.jpg","78","","","","","","test","TF","2"
"","show_choice","262","461387","0.0-233.0-1.0","""event"",""trial"",""time""
""focus"",""0"",""0""
""fullscreenenter"",""0"",""32632""
","
","""event"",""trial"",""time""
""focus"",""0"",""0""
","""event"",""trial"",""time""
""fullscreenenter"",""0"",""32632""
","
","null","run_exp/static/images/Set 6_rs/021a.jpg","null","","","","","","test","TF",""
"","html-keyboard-response","263","461889","0.0-233.0-2.0","""event"",""trial"",""time""
""focus"",""0"",""0""
""fullscreenenter"",""0"",""32632""
","
","""event"",""trial"",""time""
""focus"",""0"",""0""
","""event"",""trial"",""time""
""fullscreenenter"",""0"",""32632""
","
","null","<p></p>","null","","","","","","","",""
"","image","264","462860","0.0-234.0-0.0","""event"",""trial"",""time""
""focus"",""0"",""0""
""fullscreenenter"",""0"",""32632""
","
","""event"",""trial"",""time""
""focus"",""0"",""0""
","""event"",""trial"",""time""
""fullscreenenter"",""0"",""32632""
","
","968","run_exp/static/images/Set 6_rs/073b.jpg","86","","","","","","test","TL","3"
"","show_choice","265","463362","0.0-234.0-1.0","""event"",""trial"",""time""
""focus"",""0"",""0""
""fullscreenenter"",""0"",""32632""
","
","""event"",""trial"",""time""
""focus"",""0"",""0""
","""event"",""trial"",""time""
""fullscreenenter"",""0"",""32632""
","
","null","run_exp/static/images/Set 6_rs/073b.jpg","null","","","","","","test","TL",""
"","html-keyboard-response","266","463868","0.0-234.0-2.0","""event"",""trial"",""time""
""focus"",""0"",""0""
""fullscreenenter"",""0"",""32632""
","
","""event"",""trial"",""time""
""focus"",""0"",""0""
","""event"",""trial"",""time""
""fullscreenenter"",""0"",""32632""
","
","null","<p></p>","null","","","","","","","",""
"","image","267","464865","0.0-235.0-0.0","""event"",""trial"",""time""
""focus"",""0"",""0""
""fullscreenenter"",""0"",""32632""
","
","""event"",""trial"",""time""
""focus"",""0"",""0""
","""event"",""trial"",""time""
""fullscreenenter"",""0"",""32632""
","
","996","run_exp/static/images/Set 6_rs/177a.jpg","66","","","","","","test","TR","5"
"","show_choice","268","465370","0.0-235.0-1.0","""event"",""trial"",""time""
""focus"",""0"",""0""
""fullscreenenter"",""0"",""32632""
","
","""event"",""trial"",""time""
""focus"",""0"",""0""
","""event"",""trial"",""time""
""fullscreenenter"",""0"",""32632""
","
","null","run_exp/static/images/Set 6_rs/177a.jpg","null","","","","","","test","TR",""
"","html-keyboard-response","269","465872","0.0-235.0-2.0","""event"",""trial"",""time""
""focus"",""0"",""0""
""fullscreenenter"",""0"",""32632""
","
","""event"",""trial"",""time""
""focus"",""0"",""0""
","""event"",""trial"",""time""
""fullscreenenter"",""0"",""32632""
","
","null","<p></p>","null","","","","","","","",""
"","image","270","467151","0.0-236.0-0.0","""event"",""trial"",""time""
""focus"",""0"",""0""
""fullscreenenter"",""0"",""32632""
","
","""event"",""trial"",""time""
""focus"",""0"",""0""
","""event"",""trial"",""time""
""fullscreenenter"",""0"",""32632""
","
","1278","run_exp/static/images/Set 6_rs/155a.jpg","66","","","","","","test","TF","4"
"","show_choice","271","467657","0.0-236.0-1.0","""event"",""trial"",""time""
