"success","trial_type","trial_index","time_elapsed","internal_node_id","interactions","blur_events","focus_events","fullscreenenter_events","fullscreenexit_events","rt","stimulus","key_press","subject_id","participant_id","age","gender","prompt","phase","condition","lure_bin"
"true","fullscreen","0","7426","0.0-0.0","""event"",""trial"",""time""
""fullscreenenter"",""0"",""6488""
","
","
","""event"",""trial"",""time""
""fullscreenenter"",""0"",""6488""
","
","","","","","","","","","","",""
"","pavlovia","1","7436","0.0-1.0","""event"",""trial"",""time""
""fullscreenenter"",""0"",""6488""
","
","
","""event"",""trial"",""time""
""fullscreenenter"",""0"",""6488""
","
","","","","","","","","","","",""
"","welcome","2","42239","0.0-2.0","""event"",""trial"",""time""
""fullscreenenter"",""0"",""6488""
","
","
","""event"",""trial"",""time""
""fullscreenenter"",""0"",""6488""
","
","null","run_exp/static/audio/clip_1_welcome.m4a","null","832","946","14","Female","<div class='center'><p>Welcome to the third part of the study! First, you'll be shown pictures of items one at a time. For each picture, you have to decide if the item is typically found indoors or outdoors.</p><p>If you think it's usually found indoors, then press <b>v</b> key on your keyboard. If you think it's usually found outdoors, then press the <b>n</b> key.There will be reminders on the screen to help you remember which keys to press. </p><p>If you're not sure whether the item is an indoor item or an outdoor item, go ahead and take a guess but try your best not to skip that choice. </p></div>","","",""
"","html-keyboard-response","3","42833","0.0-3.0","""event"",""trial"",""time""
""fullscreenenter"",""0"",""6488""
","
","
","""event"",""trial"",""time""
""fullscreenenter"",""0"",""6488""
","
","587.2000000476837","<div class='center'><p>Welcome to the third part of the study! First, you'll be shown pictures of items one at a time. For each picture, you have to decide if the item is typically found indoors or outdoors.</p><p>If you think it's usually found indoors, then press <b>v</b> key on your keyboard. If you think it's usually found outdoors, then press the <b>n</b> key.There will be reminders on the screen to help you remember which keys to press. </p><p>If you're not sure whether the item is an indoor item or an outdoor item, go ahead and take a guess but try your best not to skip that choice. </p><div><p><b>[Press the space bar to continue]</b></p></div>","32","","","","","","","",""
"","image","4","44106","0.0-4.0","""event"",""trial"",""time""
""fullscreenenter"",""0"",""6488""
","
","
","""event"",""trial"",""time""
""fullscreenenter"",""0"",""6488""
","
","1270.5","run_exp/static/images/Set 6_rs/010a.jpg","78","","","","","","learn","SR",""
"","show_choice","5","44846","0.0-5.0","""event"",""trial"",""time""
""fullscreenenter"",""0"",""6488""
","
","
","""event"",""trial"",""time""
""fullscreenenter"",""0"",""6488""
","
","null","run_exp/static/images/Set 6_rs/010a.jpg","null","","","","","","learn","SR",""
"","html-keyboard-response","6","45366","0.0-6.0","""event"",""trial"",""time""
""fullscreenenter"",""0"",""6488""
","
","
","""event"",""trial"",""time""
""fullscreenenter"",""0"",""6488""
","
","null","<p></p>","null","","","","","","","",""
"","image","7","46178","0.0-7.0","""event"",""trial"",""time""
""fullscreenenter"",""0"",""6488""
","
","
","""event"",""trial"",""time""
""fullscreenenter"",""0"",""6488""
","
","809.1999999880791","run_exp/static/images/Set 6_rs/019a.jpg","86","","","","","","learn","SL",""
"","show_choice","8","47386","0.0-8.0","""event"",""trial"",""time""
""fullscreenenter"",""0"",""6488""
","
","
","""event"",""trial"",""time""
""fullscreenenter"",""0"",""6488""
","
","null","run_exp/static/images/Set 6_rs/019a.jpg","null","","","","","","learn","SL",""
"","html-keyboard-response","9","47895","0.0-9.0","""event"",""trial"",""time""
""fullscreenenter"",""0"",""6488""
","
","
","""event"",""trial"",""time""
""fullscreenenter"",""0"",""6488""
","
","null","<p></p>","null","","","","","","","",""
"","image","10","48641","0.0-10.0","""event"",""trial"",""time""
""fullscreenenter"",""0"",""6488""
","
","
","""event"",""trial"",""time""
""fullscreenenter"",""0"",""6488""
","
","742.8999999761581","run_exp/static/images/Set 6_rs/024a.jpg","86","","","","","","learn","SR",""
"","show_choice","11","49916","0.0-11.0","""event"",""trial"",""time""
""fullscreenenter"",""0"",""6488""
","
","
","""event"",""trial"",""time""
""fullscreenenter"",""0"",""6488""
","
","null","run_exp/static/images/Set 6_rs/024a.jpg","null","","","","","","learn","SR",""
"","html-keyboard-response","12","50426","0.0-12.0","""event"",""trial"",""time""
""fullscreenenter"",""0"",""6488""
","
","
","""event"",""trial"",""time""
""fullscreenenter"",""0"",""6488""
","
","null","<p></p>","null","","","","","","","",""
"","image","13","51194","0.0-13.0","""event"",""trial"",""time""
""fullscreenenter"",""0"",""6488""
","
","
","""event"",""trial"",""time""
""fullscreenenter"",""0"",""6488""
","
","765.1999999880791","run_exp/static/images/Set 6_rs/167a.jpg","86","","","","","","learn","SL",""
"","show_choice","14","52446","0.0-14.0","""event"",""trial"",""time""
""fullscreenenter"",""0"",""6488""
","
","
","""event"",""trial"",""time""
""fullscreenenter"",""0"",""6488""
","
","null","run_exp/static/images/Set 6_rs/167a.jpg","null","","","","","","learn","SL",""
"","html-keyboard-response","15","52956","0.0-15.0","""event"",""trial"",""time""
""fullscreenenter"",""0"",""6488""
","
","
","""event"",""trial"",""time""
""fullscreenenter"",""0"",""6488""
","
","null","<p></p>","null","","","","","","","",""
"","image","16","54290","0.0-16.0","""event"",""trial"",""time""
""fullscreenenter"",""0"",""6488""
","
","
","""event"",""trial"",""time""
""fullscreenenter"",""0"",""6488""
","
","1331.699999988079","run_exp/static/images/Set 6_rs/122a.jpg","86","","","","","","learn","SR",""
"","show_choice","17","54976","0.0-17.0","""event"",""trial"",""time""
""fullscreenenter"",""0"",""6488""
","
","
","""event"",""trial"",""time""
""fullscreenenter"",""0"",""6488""
","
","null","run_exp/static/images/Set 6_rs/122a.jpg","null","","","","","","learn","SR",""
"","html-keyboard-response","18","55477","0.0-18.0","""event"",""trial"",""time""
""fullscreenenter"",""0"",""6488""
","
","
","""event"",""trial"",""time""
""fullscreenenter"",""0"",""6488""
","
","null","<p></p>","null","","","","","","","",""
"","image","19","56249","0.0-19.0","""event"",""trial"",""time""
""fullscreenenter"",""0"",""6488""
","
","
","""event"",""trial"",""time""
""fullscreenenter"",""0"",""6488""
","
","769.5","run_exp/static/images/Set 6_rs/023a.jpg","86","","","","","","learn","SR",""
"","show_choice","20","57485","0.0-20.0","""event"",""trial"",""time""
""fullscreenenter"",""0"",""6488""
","
","
","""event"",""trial"",""time""
""fullscreenenter"",""0"",""6488""
","
","null","run_exp/static/images/Set 6_rs/023a.jpg","null","","","","","","learn","SR",""
"","html-keyboard-response","21","58006","0.0-21.0","""event"",""trial"",""time""
""fullscreenenter"",""0"",""6488""
","
","
","""event"",""trial"",""time""
""fullscreenenter"",""0"",""6488""
","
","null","<p></p>","null","","","","","","","",""
"","image","22","58768","0.0-22.0","""event"",""trial"",""time""
""fullscreenenter"",""0"",""6488""
","
","
","""event"",""trial"",""time""
""fullscreenenter"",""0"",""6488""
","
","759.5","run_exp/static/images/Set 6_rs/154a.jpg","86","","","","","","learn","SR",""
"","show_choice","23","60016","0.0-23.0","""event"",""trial"",""time""
""fullscreenenter"",""0"",""6488""
","
","
","""event"",""trial"",""time""
""fullscreenenter"",""0"",""6488""
","
","null","run_exp/static/images/Set 6_rs/154a.jpg","null","","","","","","learn","SR",""
"","html-keyboard-response","24","60525","0.0-24.0","""event"",""trial"",""time""
""fullscreenenter"",""0"",""6488""
","
","
","""event"",""trial"",""time""
""fullscreenenter"",""0"",""6488""
","
","null","<p></p>","null","","","","","","","",""
"","image","25","61426","0.0-25.0","""event"",""trial"",""time""
""fullscreenenter"",""0"",""6488""
","
","
","""event"",""trial"",""time""
""fullscreenenter"",""0"",""6488""
","
","897.2000000476837","run_exp/static/images/Set 6_rs/008a.jpg","86","","","","","","learn","SL",""
"","show_choice","26","62546","0.0-26.0","""event"",""trial"",""time""
""fullscreenenter"",""0"",""6488""
","
","
","""event"",""trial"",""time""
""fullscreenenter"",""0"",""6488""
","
","null","run_exp/static/images/Set 6_rs/008a.jpg","null","","","","","","learn","SL",""
"","html-keyboard-response","27","63056","0.0-27.0","""event"",""trial"",""time""
""fullscreenenter"",""0"",""6488""
","
","
","""event"",""trial"",""time""
""fullscreenenter"",""0"",""6488""
","
","null","<p></p>","null","","","","","","","",""
"","image","28","64169","0.0-28.0","""event"",""trial"",""time""
""fullscreenenter"",""0"",""6488""
","
","
","""event"",""trial"",""time""
""fullscreenenter"",""0"",""6488""
","
","1110.9000000357628","run_exp/static/images/Set 6_rs/088a.jpg","86","","","","","","learn","SR",""
"","show_choice","29","65066","0.0-29.0","""event"",""trial"",""time""
""fullscreenenter"",""0"",""6488""
","
","
","""event"",""trial"",""time""
""fullscreenenter"",""0"",""6488""
","
","null","run_exp/static/images/Set 6_rs/088a.jpg","null","","","","","","learn","SR",""
"","html-keyboard-response","30","65569","0.0-30.0","""event"",""trial"",""time""
""fullscreenenter"",""0"",""6488""
","
","
","""event"",""trial"",""time""
""fullscreenenter"",""0"",""6488""
","
","null","<p></p>","null","","","","","","","",""
"","image","31","66522","0.0-31.0","""event"",""trial"",""time""
""fullscreenenter"",""0"",""6488""
","
","
","""event"",""trial"",""time""
""fullscreenenter"",""0"",""6488""
","
","950.6999999880791","run_exp/static/images/Set 6_rs/123a.jpg","78","","","","","","learn","SL",""
"","show_choice","32","67576","0.0-32.0","""event"",""trial"",""time""
""fullscreenenter"",""0"",""6488""
","
","
","""event"",""trial"",""time""
""fullscreenenter"",""0"",""6488""
","
","null","run_exp/static/images/Set 6_rs/123a.jpg","null","","","","","","learn","SL",""
"","html-keyboard-response","33","68095","0.0-33.0","""event"",""trial"",""time""
""fullscreenenter"",""0"",""6488""
","
","
","""event"",""trial"",""time""
""fullscreenenter"",""0"",""6488""
","
","null","<p></p>","null","","","","","","","",""
"","image","34","69153","0.0-34.0","""event"",""trial"",""time""
""fullscreenenter"",""0"",""6488""
","
","
","""event"",""trial"",""time""
""fullscreenenter"",""0"",""6488""
","
","1055.4000000357628","run_exp/static/images/Set 6_rs/126a.jpg","78","","","","","","learn","SR",""
"","show_choice","35","70106","0.0-35.0","""event"",""trial"",""time""
""fullscreenenter"",""0"",""6488""
","
","
","""event"",""trial"",""time""
""fullscreenenter"",""0"",""6488""
","
","null","run_exp/static/images/Set 6_rs/126a.jpg","null","","","","","","learn","SR",""
"","html-keyboard-response","36","70625","0.0-36.0","""event"",""trial"",""time""
""fullscreenenter"",""0"",""6488""
","
","
","""event"",""trial"",""time""
""fullscreenenter"",""0"",""6488""
","
","null","<p></p>","null","","","","","","","",""
"","image","37","71537","0.0-37.0","""event"",""trial"",""time""
""fullscreenenter"",""0"",""6488""
","
","
","""event"",""trial"",""time""
""fullscreenenter"",""0"",""6488""
","
","909.5999999642372","run_exp/static/images/Set 6_rs/076a.jpg","78","","","","","","learn","SR",""
"","show_choice","38","72645","0.0-38.0","""event"",""trial"",""time""
""fullscreenenter"",""0"",""6488""
","
","
","""event"",""trial"",""time""
""fullscreenenter"",""0"",""6488""
","
","null","run_exp/static/images/Set 6_rs/076a.jpg","null","","","","","","learn","SR",""
"","html-keyboard-response","39","73165","0.0-39.0","""event"",""trial"",""time""
""fullscreenenter"",""0"",""6488""
","
","
","""event"",""trial"",""time""
""fullscreenenter"",""0"",""6488""
","
","null","<p></p>","null","","","","","","","",""
"","image","40","73969","0.0-40.0","""event"",""trial"",""time""
""fullscreenenter"",""0"",""6488""
","
","
","""event"",""trial"",""time""
""fullscreenenter"",""0"",""6488""
","
","800.9000000357628","run_exp/static/images/Set 6_rs/172a.jpg","78","","","","","","learn","SR",""
"","show_choice","41","75185","0.0-41.0","""event"",""trial"",""time""
""fullscreenenter"",""0"",""6488""
","
","
","""event"",""trial"",""time""
""fullscreenenter"",""0"",""6488""
","
","null","run_exp/static/images/Set 6_rs/172a.jpg","null","","","","","","learn","SR",""
"","html-keyboard-response","42","75703","0.0-42.0","""event"",""trial"",""time""
""fullscreenenter"",""0"",""6488""
","
","
","""event"",""trial"",""time""
""fullscreenenter"",""0"",""6488""
","
","null","<p></p>","null","","","","","","","",""
"","image","43","76954","0.0-43.0","""event"",""trial"",""time""
""fullscreenenter"",""0"",""6488""
","
","
","""event"",""trial"",""time""
""fullscreenenter"",""0"",""6488""
","
","1249.300000011921","run_exp/static/images/Set 6_rs/045a.jpg","86","","","","","","learn","SR",""
"","show_choice","44","77715","0.0-44.0","""event"",""trial"",""time""
""fullscreenenter"",""0"",""6488""
","
","
","""event"",""trial"",""time""
""fullscreenenter"",""0"",""6488""
","
","null","run_exp/static/images/Set 6_rs/045a.jpg","null","","","","","","learn","SR",""
"","html-keyboard-response","45","78235","0.0-45.0","""event"",""trial"",""time""
""fullscreenenter"",""0"",""6488""
","
","
","""event"",""trial"",""time""
""fullscreenenter"",""0"",""6488""
","
","null","<p></p>","null","","","","","","","",""
"","image","46","79169","0.0-46.0","""event"",""trial"",""time""
""fullscreenenter"",""0"",""6488""
","
","
","""event"",""trial"",""time""
""fullscreenenter"",""0"",""6488""
","
","931.5","run_exp/static/images/Set 6_rs/079a.jpg","86","","","","","","learn","SL",""
"","show_choice","47","80245","0.0-47.0","""event"",""trial"",""time""
""fullscreenenter"",""0"",""6488""
","
","
","""event"",""trial"",""time""
""fullscreenenter"",""0"",""6488""
","
","null","run_exp/static/images/Set 6_rs/079a.jpg","null","","","","","","learn","SL",""
"","html-keyboard-response","48","80747","0.0-48.0","""event"",""trial"",""time""
""fullscreenenter"",""0"",""6488""
","
","
","""event"",""trial"",""time""
""fullscreenenter"",""0"",""6488""
","
","null","<p></p>","null","","","","","","","",""
"","image","49","81712","0.0-49.0","""event"",""trial"",""time""
""fullscreenenter"",""0"",""6488""
","
","
","""event"",""trial"",""time""
""fullscreenenter"",""0"",""6488""
","
","963.3000000119209","run_exp/static/images/Set 6_rs/074a.jpg","78","","","","","","learn","SL",""
"","show_choice","50","82765","0.0-50.0","""event"",""trial"",""time""
""fullscreenenter"",""0"",""6488""
","
","
","""event"",""trial"",""time""
""fullscreenenter"",""0"",""6488""
","
","null","run_exp/static/images/Set 6_rs/074a.jpg","null","","","","","","learn","SL",""
"","html-keyboard-response","51","83285","0.0-51.0","""event"",""trial"",""time""
""fullscreenenter"",""0"",""6488""
","
","
","""event"",""trial"",""time""
""fullscreenenter"",""0"",""6488""
","
","null","<p></p>","null","","","","","","","",""
"","image","52","84409","0.0-52.0","""event"",""trial"",""time""
""fullscreenenter"",""0"",""6488""
","
","
","""event"",""trial"",""time""
""fullscreenenter"",""0"",""6488""
","
","1120.699999988079","run_exp/static/images/Set 6_rs/166a.jpg","86","","","","","","learn","SR",""
"","show_choice","53","85295","0.0-53.0","""event"",""trial"",""time""
""fullscreenenter"",""0"",""6488""
","
","
","""event"",""trial"",""time""
""fullscreenenter"",""0"",""6488""
","
","null","run_exp/static/images/Set 6_rs/166a.jpg","null","","","","","","learn","SR",""
"","html-keyboard-response","54","85797","0.0-54.0","""event"",""trial"",""time""
""fullscreenenter"",""0"",""6488""
","
","
","""event"",""trial"",""time""
""fullscreenenter"",""0"",""6488""
","
","null","<p></p>","null","","","","","","","",""
"","image","55","86695","0.0-55.0","""event"",""trial"",""time""
""fullscreenenter"",""0"",""6488""
","
","
","""event"",""trial"",""time""
""fullscreenenter"",""0"",""6488""
","
","896.2999999523163","run_exp/static/images/Set 6_rs/116a.jpg","86","","","","","","learn","SL",""
"","show_choice","56","87805","0.0-56.0","""event"",""trial"",""time""
""fullscreenenter"",""0"",""6488""
","
","
","""event"",""trial"",""time""
""fullscreenenter"",""0"",""6488""
","
","null","run_exp/static/images/Set 6_rs/116a.jpg","null","","","","","","learn","SL",""
"","html-keyboard-response","57","88306","0.0-57.0","""event"",""trial"",""time""
""fullscreenenter"",""0"",""6488""
","
","
","""event"",""trial"",""time""
""fullscreenenter"",""0"",""6488""
","
","null","<p></p>","null","","","","","","","",""
"","image","58","89642","0.0-58.0","""event"",""trial"",""time""
""fullscreenenter"",""0"",""6488""
","
","
","""event"",""trial"",""time""
""fullscreenenter"",""0"",""6488""
","
","1333.199999988079","run_exp/static/images/Set 6_rs/169a.jpg","78","","","","","","learn","SR",""
"","show_choice","59","90324","0.0-59.0","""event"",""trial"",""time""
""fullscreenenter"",""0"",""6488""
","
","
","""event"",""trial"",""time""
""fullscreenenter"",""0"",""6488""
","
","null","run_exp/static/images/Set 6_rs/169a.jpg","null","","","","","","learn","SR",""
"","html-keyboard-response","60","90827","0.0-60.0","""event"",""trial"",""time""
""fullscreenenter"",""0"",""6488""
","
","
","""event"",""trial"",""time""
""fullscreenenter"",""0"",""6488""
","
","null","<p></p>","null","","","","","","","",""
"","image","61","91696","0.0-61.0","""event"",""trial"",""time""
""fullscreenenter"",""0"",""6488""
","
","
","""event"",""trial"",""time""
""fullscreenenter"",""0"",""6488""
","
","868.1999999880791","run_exp/static/images/Set 6_rs/057a.jpg","86","","","","","","learn","SL",""
"","show_choice","62","92845","0.0-62.0","""event"",""trial"",""time""
""fullscreenenter"",""0"",""6488""
","
","
","""event"",""trial"",""time""
""fullscreenenter"",""0"",""6488""
","
","null","run_exp/static/images/Set 6_rs/057a.jpg","null","","","","","","learn","SL",""
"","html-keyboard-response","63","93355","0.0-63.0","""event"",""trial"",""time""
""fullscreenenter"",""0"",""6488""
","
","
","""event"",""trial"",""time""
""fullscreenenter"",""0"",""6488""
","
","null","<p></p>","null","","","","","","","",""
"","image","64","94153","0.0-64.0","""event"",""trial"",""time""
""fullscreenenter"",""0"",""6488""
","
","
","""event"",""trial"",""time""
""fullscreenenter"",""0"",""6488""
","
","795.3000000119209","run_exp/static/images/Set 6_rs/181a.jpg","78","","","","","","learn","SL",""
"","show_choice","65","95376","0.0-65.0","""event"",""trial"",""time""
""fullscreenenter"",""0"",""6488""
","
","
","""event"",""trial"",""time""
""fullscreenenter"",""0"",""6488""
","
","null","run_exp/static/images/Set 6_rs/181a.jpg","null","","","","","","learn","SL",""
"","html-keyboard-response","66","95886","0.0-66.0","""event"",""trial"",""time""
""fullscreenenter"",""0"",""6488""
","
","
","""event"",""trial"",""time""
""fullscreenenter"",""0"",""6488""
","
","null","<p></p>","null","","","","","","","",""
"","image","67","96704","0.0-67.0","""event"",""trial"",""time""
""fullscreenenter"",""0"",""6488""
","
","
","""event"",""trial"",""time""
""fullscreenenter"",""0"",""6488""
","
","815.6000000238419","run_exp/static/images/Set 6_rs/063a.jpg","86","","","","","","learn","SR",""
"","show_choice","68","97905","0.0-68.0","""event"",""trial"",""time""
""fullscreenenter"",""0"",""6488""
","
","
","""event"",""trial"",""time""
""fullscreenenter"",""0"",""6488""
","
","null","run_exp/static/images/Set 6_rs/063a.jpg","null","","","","","","learn","SR",""
"","html-keyboard-response","69","98425","0.0-69.0","""event"",""trial"",""time""
""fullscreenenter"",""0"",""6488""
","
","
","""event"",""trial"",""time""
""fullscreenenter"",""0"",""6488""
","
","null","<p></p>","null","","","","","","","",""
"","image","70","99273","0.0-70.0","""event"",""trial"",""time""
""fullscreenenter"",""0"",""6488""
","
","
","""event"",""trial"",""time""
""fullscreenenter"",""0"",""6488""
","
","845.5","run_exp/static/images/Set 6_rs/014a.jpg","86","","","","","","learn","SL",""
"","show_choice","71","100436","0.0-71.0","""event"",""trial"",""time""
""fullscreenenter"",""0"",""6488""
","
","
","""event"",""trial"",""time""
""fullscreenenter"",""0"",""6488""
","
","null","run_exp/static/images/Set 6_rs/014a.jpg","null","","","","","","learn","SL",""
"","html-keyboard-response","72","100955","0.0-72.0","""event"",""trial"",""time""
""fullscreenenter"",""0"",""6488""
","
","
","""event"",""trial"",""time""
""fullscreenenter"",""0"",""6488""
","
","null","<p></p>","null","","","","","","","",""
"","image","73","101928","0.0-73.0","""event"",""trial"",""time""
""fullscreenenter"",""0"",""6488""
","
","
","""event"",""trial"",""time""
""fullscreenenter"",""0"",""6488""
","
","970.6000000238419","run_exp/static/images/Set 6_rs/007a.jpg","86","","","","","","learn","SR",""
"","show_choice","74","102976","0.0-74.0","""event"",""trial"",""time""
""fullscreenenter"",""0"",""6488""
","
","
","""event"",""trial"",""time""
""fullscreenenter"",""0"",""6488""
","
","null","run_exp/static/images/Set 6_rs/007a.jpg","null","","","","","","learn","SR",""
"","html-keyboard-response","75","103495","0.0-75.0","""event"",""trial"",""time""
""fullscreenenter"",""0"",""6488""
","
","
","""event"",""trial"",""time""
""fullscreenenter"",""0"",""6488""
","
","null","<p></p>","null","","","","","","","",""
"","image","76","104625","0.0-76.0","""event"",""trial"",""time""
""fullscreenenter"",""0"",""6488""
","
","
","""event"",""trial"",""time""
""fullscreenenter"",""0"",""6488""
","
","1127.199999988079","run_exp/static/images/Set 6_rs/012a.jpg","86","","","","","","learn","SR",""
"","show_choice","77","105505","0.0-77.0","""event"",""trial"",""time""
""fullscreenenter"",""0"",""6488""
","
","
","""event"",""trial"",""time""
""fullscreenenter"",""0"",""6488""
","
","null","run_exp/static/images/Set 6_rs/012a.jpg","null","","","","","","learn","SR",""
"","html-keyboard-response","78","106015","0.0-78.0","""event"",""trial"",""time""
""fullscreenenter"",""0"",""6488""
","
","
","""event"",""trial"",""time""
""fullscreenenter"",""0"",""6488""
","
","null","<p></p>","null","","","","","","","",""
"","image","79","107353","0.0-79.0","""event"",""trial"",""time""
""fullscreenenter"",""0"",""6488""
","
","
","""event"",""trial"",""time""
""fullscreenenter"",""0"",""6488""
","
","1335.2000000476837","run_exp/static/images/Set 6_rs/017a.jpg","86","","","","","","learn","SL",""
"","show_choice","80","108036","0.0-80.0","""event"",""trial"",""time""
""fullscreenenter"",""0"",""6488""
","
","
","""event"",""trial"",""time""
""fullscreenenter"",""0"",""6488""
","
","null","run_exp/static/images/Set 6_rs/017a.jpg","null","","","","","","learn","SL",""
"","html-keyboard-response","81","108540","0.0-81.0","""event"",""trial"",""time""
""fullscreenenter"",""0"",""6488""
","
","
","""event"",""trial"",""time""
""fullscreenenter"",""0"",""6488""
","
","null","<p></p>","null","","","","","","","",""
"","image","82","109361","0.0-82.0","""event"",""trial"",""time""
""fullscreenenter"",""0"",""6488""
","
","
","""event"",""trial"",""time""
""fullscreenenter"",""0"",""6488""
","
","818","run_exp/static/images/Set 6_rs/050a.jpg","86","","","","","","learn","SL",""
"","show_choice","83","110556","0.0-83.0","""event"",""trial"",""time""
""fullscreenenter"",""0"",""6488""
","
","
","""event"",""trial"",""time""
""fullscreenenter"",""0"",""6488""
","
","null","run_exp/static/images/Set 6_rs/050a.jpg","null","","","","","","learn","SL",""
"","html-keyboard-response","84","111072","0.0-84.0","""event"",""trial"",""time""
""fullscreenenter"",""0"",""6488""
","
","
","""event"",""trial"",""time""
""fullscreenenter"",""0"",""6488""
","
","null","<p></p>","null","","","","","","","",""
"","image","85","112130","0.0-85.0","""event"",""trial"",""time""
""fullscreenenter"",""0"",""6488""
","
","
","""event"",""trial"",""time""
""fullscreenenter"",""0"",""6488""
","
","1054.699999988079","run_exp/static/images/Set 6_rs/117a.jpg","86","","","","","","learn","SL",""
"","show_choice","86","113095","0.0-86.0","""event"",""trial"",""time""
""fullscreenenter"",""0"",""6488""
","
","
","""event"",""trial"",""time""
""fullscreenenter"",""0"",""6488""
","
","null","run_exp/static/images/Set 6_rs/117a.jpg","null","","","","","","learn","SL",""
"","html-keyboard-response","87","113605","0.0-87.0","""event"",""trial"",""time""
""fullscreenenter"",""0"",""6488""
","
","
","""event"",""trial"",""time""
""fullscreenenter"",""0"",""6488""
","
","null","<p></p>","null","","","","","","","",""
"","image","88","114409","0.0-88.0","""event"",""trial"",""time""
""fullscreenenter"",""0"",""6488""
","
","
","""event"",""trial"",""time""
""fullscreenenter"",""0"",""6488""
","
","801.6000000238419","run_exp/static/images/Set 6_rs/006a.jpg","86","","","","","","learn","SL",""
"","show_choice","89","115621","0.0-89.0","""event"",""trial"",""time""
""fullscreenenter"",""0"",""6488""
","
","
","""event"",""trial"",""time""
""fullscreenenter"",""0"",""6488""
","
","null","run_exp/static/images/Set 6_rs/006a.jpg","null","","","","","","learn","SL",""
"","html-keyboard-response","90","116136","0.0-90.0","""event"",""trial"",""time""
""fullscreenenter"",""0"",""6488""
","
","
","""event"",""trial"",""time""
""fullscreenenter"",""0"",""6488""
","
","null","<p></p>","null","","","","","","","",""
"","image","91","116978","0.0-91.0","""event"",""trial"",""time""
""fullscreenenter"",""0"",""6488""
","
","
","""event"",""trial"",""time""
""fullscreenenter"",""0"",""6488""
","
","839.2999999523163","run_exp/static/images/Set 6_rs/178a.jpg","86","","","","","","learn","SR",""
"","show_choice","92","118156","0.0-92.0","""event"",""trial"",""time""
""fullscreenenter"",""0"",""6488""
","
","
","""event"",""trial"",""time""
""fullscreenenter"",""0"",""6488""
","
","null","run_exp/static/images/Set 6_rs/178a.jpg","null","","","","","","learn","SR",""
"","html-keyboard-response","93","118665","0.0-93.0","""event"",""trial"",""time""
""fullscreenenter"",""0"",""6488""
","
","
","""event"",""trial"",""time""
""fullscreenenter"",""0"",""6488""
","
","null","<p></p>","null","","","","","","","",""
"","image","94","119513","0.0-94.0","""event"",""trial"",""time""
""fullscreenenter"",""0"",""6488""
","
","
","""event"",""trial"",""time""
""fullscreenenter"",""0"",""6488""
","
","846.2000000476837","run_exp/static/images/Set 6_rs/186a.jpg","86","","","","","","learn","SR",""
"","show_choice","95","120680","0.0-95.0","""event"",""trial"",""time""
""fullscreenenter"",""0"",""6488""
","
","
","""event"",""trial"",""time""
""fullscreenenter"",""0"",""6488""
","
","null","run_exp/static/images/Set 6_rs/186a.jpg","null","","","","","","learn","SR",""
"","html-keyboard-response","96","121195","0.0-96.0","""event"",""trial"",""time""
""fullscreenenter"",""0"",""6488""
","
","
","""event"",""trial"",""time""
""fullscreenenter"",""0"",""6488""
","
","null","<p></p>","null","","","","","","","",""
"","image","97","121985","0.0-97.0","""event"",""trial"",""time""
""fullscreenenter"",""0"",""6488""
","
","
","""event"",""trial"",""time""
""fullscreenenter"",""0"",""6488""
","
","787.5999999642372","run_exp/static/images/Set 6_rs/111a.jpg","86","","","","","","learn","SL",""
"","show_choice","98","123206","0.0-98.0","""event"",""trial"",""time""
""fullscreenenter"",""0"",""6488""
","
","
","""event"",""trial"",""time""
""fullscreenenter"",""0"",""6488""
","
","null","run_exp/static/images/Set 6_rs/111a.jpg","null","","","","","","learn","SL",""
"","html-keyboard-response","99","123710","0.0-99.0","""event"",""trial"",""time""
""fullscreenenter"",""0"",""6488""
","
","
","""event"",""trial"",""time""
""fullscreenenter"",""0"",""6488""
","
","null","<p></p>","null","","","","","","","",""
"","image","100","124962","0.0-100.0","""event"",""trial"",""time""
""fullscreenenter"",""0"",""6488""
","
","
","""event"",""trial"",""time""
""fullscreenenter"",""0"",""6488""
","
","1250.7999999523163","run_exp/static/images/Set 6_rs/121a.jpg","86","","","","","","learn","SR",""
"","show_choice","101","125715","0.0-101.0","""event"",""trial"",""time""
""fullscreenenter"",""0"",""6488""
","
","
","""event"",""trial"",""time""
""fullscreenenter"",""0"",""6488""
","
","null","run_exp/static/images/Set 6_rs/121a.jpg","null","","","","","","learn","SR",""
"","html-keyboard-response","102","126216","0.0-102.0","""event"",""trial"",""time""
""fullscreenenter"",""0"",""6488""
","
","
","""event"",""trial"",""time""
""fullscreenenter"",""0"",""6488""
","
","null","<p></p>","null","","","","","","","",""
"","image","103","126961","0.0-103.0","""event"",""trial"",""time""
""fullscreenenter"",""0"",""6488""
","
","
","""event"",""trial"",""time""
""fullscreenenter"",""0"",""6488""
","
","743.3999999761581","run_exp/static/images/Set 6_rs/152a.jpg","86","","","","","","learn","SR",""
"","show_choice","104","128225","0.0-104.0","""event"",""trial"",""time""
""fullscreenenter"",""0"",""6488""
","
","
","""event"",""trial"",""time""
""fullscreenenter"",""0"",""6488""
","
","null","run_exp/static/images/Set 6_rs/152a.jpg","null","","","","","","learn","SR",""
"","html-keyboard-response","105","128740","0.0-105.0","""event"",""trial"",""time""
""fullscreenenter"",""0"",""6488""
","
","
","""event"",""trial"",""time""
""fullscreenenter"",""0"",""6488""
","
","null","<p></p>","null","","","","","","","",""
"","image","106","129577","0.0-106.0","""event"",""trial"",""time""
""fullscreenenter"",""0"",""6488""
","
","
","""event"",""trial"",""time""
""fullscreenenter"",""0"",""6488""
","
","836","run_exp/static/images/Set 6_rs/075a.jpg","86","","","","","","learn","SR",""
"","show_choice","107","130744","0.0-107.0","""event"",""trial"",""time""
""fullscreenenter"",""0"",""6488""
","
","
","""event"",""trial"",""time""
""fullscreenenter"",""0"",""6488""
","
","null","run_exp/static/images/Set 6_rs/075a.jpg","null","","","","","","learn","SR",""
"","html-keyboard-response","108","131265","0.0-108.0","""event"",""trial"",""time""
""fullscreenenter"",""0"",""6488""
","
","
","""event"",""trial"",""time""
""fullscreenenter"",""0"",""6488""
","
","null","<p></p>","null","","","","","","","",""
"","image","109","131905","0.0-109.0","""event"",""trial"",""time""
""fullscreenenter"",""0"",""6488""
","
","
","""event"",""trial"",""time""
""fullscreenenter"",""0"",""6488""
","
","636.6000000238419","run_exp/static/images/Set 6_rs/112a.jpg","86","","","","","","learn","SR",""
"","show_choice","110","133285","0.0-110.0","""event"",""trial"",""time""
""fullscreenenter"",""0"",""6488""
","
","
","""event"",""trial"",""time""
""fullscreenenter"",""0"",""6488""
","
","null","run_exp/static/images/Set 6_rs/112a.jpg","null","","","","","","learn","SR",""
"","html-keyboard-response","111","133795","0.0-111.0","""event"",""trial"",""time""
""fullscreenenter"",""0"",""6488""
","
","
","""event"",""trial"",""time""
""fullscreenenter"",""0"",""6488""
","
","null","<p></p>","null","","","","","","","",""
"","image","112","134775","0.0-112.0","""event"",""trial"",""time""
""fullscreenenter"",""0"",""6488""
","
","
","""event"",""trial"",""time""
""fullscreenenter"",""0"",""6488""
","
","979.3999999761581","run_exp/static/images/Set 6_rs/064a.jpg","86","","","","","","learn","SR",""
"","show_choice","113","135806","0.0-113.0","""event"",""trial"",""time""
""fullscreenenter"",""0"",""6488""
","
","
","""event"",""trial"",""time""
""fullscreenenter"",""0"",""6488""
","
","null","run_exp/static/images/Set 6_rs/064a.jpg","null","","","","","","learn","SR",""
"","html-keyboard-response","114","136313","0.0-114.0","""event"",""trial"",""time""
""fullscreenenter"",""0"",""6488""
","
","
","""event"",""trial"",""time""
""fullscreenenter"",""0"",""6488""
","
","null","<p></p>","null","","","","","","","",""
"","image","115","137410","0.0-115.0","""event"",""trial"",""time""
""fullscreenenter"",""0"",""6488""
","
","
","""event"",""trial"",""time""
""fullscreenenter"",""0"",""6488""
","
","1094.2000000476837","run_exp/static/images/Set 6_rs/191a.jpg","78","","","","","","learn","SL",""
"","show_choice","116","138318","0.0-116.0","""event"",""trial"",""time""
""fullscreenenter"",""0"",""6488""
","
","
","""event"",""trial"",""time""
""fullscreenenter"",""0"",""6488""
","
","null","run_exp/static/images/Set 6_rs/191a.jpg","null","","","","","","learn","SL",""
"","html-keyboard-response","117","138819","0.0-117.0","""event"",""trial"",""time""
""fullscreenenter"",""0"",""6488""
","
","
","""event"",""trial"",""time""
""fullscreenenter"",""0"",""6488""
","
","null","<p></p>","null","","","","","","","",""
"","image","118","139545","0.0-118.0","""event"",""trial"",""time""
""fullscreenenter"",""0"",""6488""
","
","
","""event"",""trial"",""time""
""fullscreenenter"",""0"",""6488""
","
","724.1999999880791","run_exp/static/images/Set 6_rs/036a.jpg","86","","","","","","learn","SL",""
"","show_choice","119","140825","0.0-119.0","""event"",""trial"",""time""
""fullscreenenter"",""0"",""6488""
","
","
","""event"",""trial"",""time""
""fullscreenenter"",""0"",""6488""
","
","null","run_exp/static/images/Set 6_rs/036a.jpg","null","","","","","","learn","SL",""
"","html-keyboard-response","120","141326","0.0-120.0","""event"",""trial"",""time""
""fullscreenenter"",""0"",""6488""
","
","
","""event"",""trial"",""time""
""fullscreenenter"",""0"",""6488""
","
","null","<p></p>","null","","","","","","","",""
"","image","121","142273","0.0-121.0","""event"",""trial"",""time""
""fullscreenenter"",""0"",""6488""
","
","
","""event"",""trial"",""time""
""fullscreenenter"",""0"",""6488""
","
","945.5","run_exp/static/images/Set 6_rs/055a.jpg","86","","","","","","learn","SL",""
"","show_choice","122","143330","0.0-122.0","""event"",""trial"",""time""
""fullscreenenter"",""0"",""6488""
","
","
","""event"",""trial"",""time""
""fullscreenenter"",""0"",""6488""
","
","null","run_exp/static/images/Set 6_rs/055a.jpg","null","","","","","","learn","SL",""
"","html-keyboard-response","123","143846","0.0-123.0","""event"",""trial"",""time""
""fullscreenenter"",""0"",""6488""
","
","
","""event"",""trial"",""time""
""fullscreenenter"",""0"",""6488""
","
","null","<p></p>","null","","","","","","","",""
"","image","124","145025","0.0-124.0","""event"",""trial"",""time""
""fullscreenenter"",""0"",""6488""
","
","
","""event"",""trial"",""time""
""fullscreenenter"",""0"",""6488""
","
","1175.5","run_exp/static/images/Set 6_rs/141a.jpg","78","","","","","","learn","SR",""
"","show_choice","125","145865","0.0-125.0","""event"",""trial"",""time""
""fullscreenenter"",""0"",""6488""
","
","
","""event"",""trial"",""time""
""fullscreenenter"",""0"",""6488""
","
","null","run_exp/static/images/Set 6_rs/141a.jpg","null","","","","","","learn","SR",""
"","html-keyboard-response","126","146386","0.0-126.0","""event"",""trial"",""time""
""fullscreenenter"",""0"",""6488""
","
","
","""event"",""trial"",""time""
""fullscreenenter"",""0"",""6488""
","
","null","<p></p>","null","","","","","","","",""
"","image","127","148072","0.0-127.0","""event"",""trial"",""time""
""fullscreenenter"",""0"",""6488""
","
","
","""event"",""trial"",""time""
""fullscreenenter"",""0"",""6488""
","
","1684.1000000238419","run_exp/static/images/Set 6_rs/016a.jpg","86","","","","","","learn","SL",""
"","show_choice","128","148395","0.0-128.0","""event"",""trial"",""time""
""fullscreenenter"",""0"",""6488""
","
","
","""event"",""trial"",""time""
""fullscreenenter"",""0"",""6488""
","
","null","run_exp/static/images/Set 6_rs/016a.jpg","null","","","","","","learn","SL",""
"","html-keyboard-response","129","148897","0.0-129.0","""event"",""trial"",""time""
""fullscreenenter"",""0"",""6488""
","
","
","""event"",""trial"",""time""
""fullscreenenter"",""0"",""6488""
","
","null","<p></p>","null","","","","","","","",""
"","image","130","149961","0.0-130.0","""event"",""trial"",""time""
""fullscreenenter"",""0"",""6488""
","
","
","""event"",""trial"",""time""
""fullscreenenter"",""0"",""6488""
","
","1061.3999999761581","run_exp/static/images/Set 6_rs/150a.jpg","86","","","","","","learn","SR",""
"","show_choice","131","150906","0.0-131.0","""event"",""trial"",""time""
""fullscreenenter"",""0"",""6488""
","
","
","""event"",""trial"",""time""
""fullscreenenter"",""0"",""6488""
","
","null","run_exp/static/images/Set 6_rs/150a.jpg","null","","","","","","learn","SR",""
"","html-keyboard-response","132","151426","0.0-132.0","""event"",""trial"",""time""
""fullscreenenter"",""0"",""6488""
","
","
","""event"",""trial"",""time""
""fullscreenenter"",""0"",""6488""
","
","null","<p></p>","null","","","","","","","",""
"","image","133","152561","0.0-133.0","""event"",""trial"",""time""
""fullscreenenter"",""0"",""6488""
","
","
","""event"",""trial"",""time""
""fullscreenenter"",""0"",""6488""
","
","1132.3999999761581","run_exp/static/images/Set 6_rs/177a.jpg","86","","","","","","learn","SR",""
"","show_choice","134","153431","0.0-134.0","""event"",""trial"",""time""
""fullscreenenter"",""0"",""6488""
","
","
","""event"",""trial"",""time""
""fullscreenenter"",""0"",""6488""
","
","null","run_exp/static/images/Set 6_rs/177a.jpg","null","","","","","","learn","SR",""
"","html-keyboard-response","135","153935","0.0-135.0","""event"",""trial"",""time""
""fullscreenenter"",""0"",""6488""
","
","
","""event"",""trial"",""time""
""fullscreenenter"",""0"",""6488""
","
","null","<p></p>","null","","","","","","","",""
"","image","136","155945","0.0-136.0","""event"",""trial"",""time""
""fullscreenenter"",""0"",""6488""
","
","
","""event"",""trial"",""time""
""fullscreenenter"",""0"",""6488""
","
","null","run_exp/static/images/Set 6_rs/071a.jpg","null","","","","","","learn","SL",""
"","show_choice","137","157955","0.0-137.0","""event"",""trial"",""time""
""fullscreenenter"",""0"",""6488""
","
","
","""event"",""trial"",""time""
""fullscreenenter"",""0"",""6488""
","
","null","run_exp/static/images/blank.png","null","","","","","","learn","SL",""
"","html-keyboard-response","138","158465","0.0-138.0","""event"",""trial"",""time""
""fullscreenenter"",""0"",""6488""
","
","
","""event"",""trial"",""time""
""fullscreenenter"",""0"",""6488""
","
","null","<p></p>","null","","","","","","","",""
"","image","139","160050","0.0-139.0","""event"",""trial"",""time""
""fullscreenenter"",""0"",""6488""
","
","
","""event"",""trial"",""time""
""fullscreenenter"",""0"",""6488""
","
","1582","run_exp/static/images/Set 6_rs/062a.jpg","86","","","","","","learn","SL",""
"","show_choice","140","160485","0.0-140.0","""event"",""trial"",""time""
""fullscreenenter"",""0"",""6488""
","
","
","""event"",""trial"",""time""
""fullscreenenter"",""0"",""6488""
","
","null","run_exp/static/images/Set 6_rs/062a.jpg","null","","","","","","learn","SL",""
"","html-keyboard-response","141","160995","0.0-141.0","""event"",""trial"",""time""
""fullscreenenter"",""0"",""6488""
","
","
","""event"",""trial"",""time""
""fullscreenenter"",""0"",""6488""
","
","null","<p></p>","null","","","","","","","",""
"","image","142","161961","0.0-142.0","""event"",""trial"",""time""
""fullscreenenter"",""0"",""6488""
","
","
","""event"",""trial"",""time""
""fullscreenenter"",""0"",""6488""
","
","964.8999999761581","run_exp/static/images/Set 6_rs/168a.jpg","86","","","","","","learn","SL",""
"","show_choice","143","163015","0.0-143.0","""event"",""trial"",""time""
""fullscreenenter"",""0"",""6488""
","
","
","""event"",""trial"",""time""
""fullscreenenter"",""0"",""6488""
","
","null","run_exp/static/images/Set 6_rs/168a.jpg","null","","","","","","learn","SL",""
"","html-keyboard-response","144","163526","0.0-144.0","""event"",""trial"",""time""
""fullscreenenter"",""0"",""6488""
","
","
","""event"",""trial"",""time""
""fullscreenenter"",""0"",""6488""
","
","null","<p></p>","null","","","","","","","",""
"","image","145","164281","0.0-145.0","""event"",""trial"",""time""
""fullscreenenter"",""0"",""6488""
","
","
","""event"",""trial"",""time""
""fullscreenenter"",""0"",""6488""
","
","751.1000000238419","run_exp/static/images/Set 6_rs/066a.jpg","78","","","","","","learn","SL",""
"","show_choice","146","165542","0.0-146.0","""event"",""trial"",""time""
""fullscreenenter"",""0"",""6488""
","
","
","""event"",""trial"",""time""
""fullscreenenter"",""0"",""6488""
","
","null","run_exp/static/images/Set 6_rs/066a.jpg","null","","","","","","learn","SL",""
"","html-keyboard-response","147","166055","0.0-147.0","""event"",""trial"",""time""
""fullscreenenter"",""0"",""6488""
","
","
","""event"",""trial"",""time""
""fullscreenenter"",""0"",""6488""
","
","null","<p></p>","null","","","","","","","",""
"","image","148","167017","0.0-148.0","""event"",""trial"",""time""
""fullscreenenter"",""0"",""6488""
","
","
","""event"",""trial"",""time""
""fullscreenenter"",""0"",""6488""
","
","959.1999999880791","run_exp/static/images/Set 6_rs/138a.jpg","78","","","","","","learn","SL",""
"","show_choice","149","168075","0.0-149.0","""event"",""trial"",""time""
""fullscreenenter"",""0"",""6488""
","
","
","""event"",""trial"",""time""
""fullscreenenter"",""0"",""6488""
","
","null","run_exp/static/images/Set 6_rs/138a.jpg","null","","","","","","learn","SL",""
"","html-keyboard-response","150","168595","0.0-150.0","""event"",""trial"",""time""
""fullscreenenter"",""0"",""6488""
","
","
","""event"",""trial"",""time""
""fullscreenenter"",""0"",""6488""
","
","null","<p></p>","null","","","","","","","",""
"","image","151","169305","0.0-151.0","""event"",""trial"",""time""
""fullscreenenter"",""0"",""6488""
","
","
","""event"",""trial"",""time""
""fullscreenenter"",""0"",""6488""
","
","707.3999999761581","run_exp/static/images/Set 6_rs/132a.jpg","78","","","","","","learn","SR",""
"","show_choice","152","170605","0.0-152.0","""event"",""trial"",""time""
""fullscreenenter"",""0"",""6488""
","
","
","""event"",""trial"",""time""
""fullscreenenter"",""0"",""6488""
","
","null","run_exp/static/images/Set 6_rs/132a.jpg","null","","","","","","learn","SR",""
"","html-keyboard-response","153","171115","0.0-153.0","""event"",""trial"",""time""
""fullscreenenter"",""0"",""6488""
","
","
","""event"",""trial"",""time""
""fullscreenenter"",""0"",""6488""
","
","null","<p></p>","null","","","","","","","",""
"","image","154","171776","0.0-154.0","""event"",""trial"",""time""
""fullscreenenter"",""0"",""6488""
","
","
","""event"",""trial"",""time""
""fullscreenenter"",""0"",""6488""
","
","658.6000000238419","run_exp/static/images/Set 6_rs/144a.jpg","86","","","","","","learn","SL",""
"","show_choice","155","173126","0.0-155.0","""event"",""trial"",""time""
""fullscreenenter"",""0"",""6488""
","
","
","""event"",""trial"",""time""
""fullscreenenter"",""0"",""6488""
","
","null","run_exp/static/images/Set 6_rs/144a.jpg","null","","","","","","learn","SL",""
"","html-keyboard-response","156","173635","0.0-156.0","""event"",""trial"",""time""
""fullscreenenter"",""0"",""6488""
","
","
","""event"",""trial"",""time""
""fullscreenenter"",""0"",""6488""
","
","null","<p></p>","null","","","","","","","",""
"","image","157","174553","0.0-157.0","""event"",""trial"",""time""
""fullscreenenter"",""0"",""6488""
","
","
","""event"",""trial"",""time""
""fullscreenenter"",""0"",""6488""
","
","914.5","run_exp/static/images/Set 6_rs/089a.jpg","86","","","","","","learn","SL",""
"","show_choice","158","175655","0.0-158.0","""event"",""trial"",""time""
""fullscreenenter"",""0"",""6488""
","
","
","""event"",""trial"",""time""
""fullscreenenter"",""0"",""6488""
","
","null","run_exp/static/images/Set 6_rs/089a.jpg","null","","","","","","learn","SL",""
"","html-keyboard-response","159","176175","0.0-159.0","""event"",""trial"",""time""
""fullscreenenter"",""0"",""6488""
","
","
","""event"",""trial"",""time""
""fullscreenenter"",""0"",""6488""
","
","null","<p></p>","null","","","","","","","",""
"","image","160","177065","0.0-160.0","""event"",""trial"",""time""
""fullscreenenter"",""0"",""6488""
","
","
","""event"",""trial"",""time""
""fullscreenenter"",""0"",""6488""
","
","887.3999999761581","run_exp/static/images/Set 6_rs/108a.jpg","78","","","","","","learn","SR",""
"","show_choice","161","178186","0.0-161.0","""event"",""trial"",""time""
""fullscreenenter"",""0"",""6488""
","
","
","""event"",""trial"",""time""
""fullscreenenter"",""0"",""6488""
","
","null","run_exp/static/images/Set 6_rs/108a.jpg","null","","","","","","learn","SR",""
"","html-keyboard-response","162","178690","0.0-162.0","""event"",""trial"",""time""
""fullscreenenter"",""0"",""6488""
","
","
","""event"",""trial"",""time""
""fullscreenenter"",""0"",""6488""
","
","null","<p></p>","null","","","","","","","",""
"","image","163","179561","0.0-163.0","""event"",""trial"",""time""
""fullscreenenter"",""0"",""6488""
","
","
","""event"",""trial"",""time""
""fullscreenenter"",""0"",""6488""
","
","869.6000000238419","run_exp/static/images/Set 6_rs/129a.jpg","86","","","","","","learn","SL",""
"","show_choice","164","180715","0.0-164.0","""event"",""trial"",""time""
""fullscreenenter"",""0"",""6488""
","
","
","""event"",""trial"",""time""
""fullscreenenter"",""0"",""6488""
","
","null","run_exp/static/images/Set 6_rs/129a.jpg","null","","","","","","learn","SL",""
"","html-keyboard-response","165","181225","0.0-165.0","""event"",""trial"",""time""
""fullscreenenter"",""0"",""6488""
","
","
","""event"",""trial"",""time""
""fullscreenenter"",""0"",""6488""
","
","null","<p></p>","null","","","","","","","",""
"","image","166","181962","0.0-166.0","""event"",""trial"",""time""
""fullscreenenter"",""0"",""6488""
","
","
","""event"",""trial"",""time""
""fullscreenenter"",""0"",""6488""
","
","733.8999999761581","run_exp/static/images/Set 6_rs/095a.jpg","86","","","","","","learn","SL",""
"","show_choice","167","183235","0.0-167.0","""event"",""trial"",""time""
""fullscreenenter"",""0"",""6488""
","
","
","""event"",""trial"",""time""
""fullscreenenter"",""0"",""6488""
","
","null","run_exp/static/images/Set 6_rs/095a.jpg","null","","","","","","learn","SL",""
"","html-keyboard-response","168","183740","0.0-168.0","""event"",""trial"",""time""
""fullscreenenter"",""0"",""6488""
","
","
","""event"",""trial"",""time""
""fullscreenenter"",""0"",""6488""
","
","null","<p></p>","null","","","","","","","",""
"","image","169","184481","0.0-169.0","""event"",""trial"",""time""
""fullscreenenter"",""0"",""6488""
","
","
","""event"",""trial"",""time""
""fullscreenenter"",""0"",""6488""
","
","739.5999999642372","run_exp/static/images/Set 6_rs/085a.jpg","78","","","","","","learn","SL",""
"","show_choice","170","185745","0.0-170.0","""event"",""trial"",""time""
""fullscreenenter"",""0"",""6488""
","
","
","""event"",""trial"",""time""
""fullscreenenter"",""0"",""6488""
","
","null","run_exp/static/images/Set 6_rs/085a.jpg","null","","","","","","learn","SL",""
"","html-keyboard-response","171","186255","0.0-171.0","""event"",""trial"",""time""
""fullscreenenter"",""0"",""6488""
","
","
","""event"",""trial"",""time""
""fullscreenenter"",""0"",""6488""
","
","null","<p></p>","null","","","","","","","",""
"","image","172","187049","0.0-172.0","""event"",""trial"",""time""
""fullscreenenter"",""0"",""6488""
","
","
","""event"",""trial"",""time""
""fullscreenenter"",""0"",""6488""
","
","792.7999999523163","run_exp/static/images/Set 6_rs/070a.jpg","86","","","","","","learn","SR",""
"","show_choice","173","188273","0.0-173.0","""event"",""trial"",""time""
""fullscreenenter"",""0"",""6488""
","
","
","""event"",""trial"",""time""
""fullscreenenter"",""0"",""6488""
","
","null","run_exp/static/images/Set 6_rs/070a.jpg","null","","","","","","learn","SR",""
"","html-keyboard-response","174","188785","0.0-174.0","""event"",""trial"",""time""
""fullscreenenter"",""0"",""6488""
","
","
","""event"",""trial"",""time""
""fullscreenenter"",""0"",""6488""
","
","null","<p></p>","null","","","","","","","",""
"","image","175","189529","0.0-175.0","""event"",""trial"",""time""
""fullscreenenter"",""0"",""6488""
","
","
","""event"",""trial"",""time""
""fullscreenenter"",""0"",""6488""
","
","742.3999999761581","run_exp/static/images/Set 6_rs/025a.jpg","78","","","","","","learn","SL",""
"","show_choice","176","190794","0.0-176.0","""event"",""trial"",""time""
""fullscreenenter"",""0"",""6488""
","
","
","""event"",""trial"",""time""
""fullscreenenter"",""0"",""6488""
","
","null","run_exp/static/images/Set 6_rs/025a.jpg","null","","","","","","learn","SL",""
"","html-keyboard-response","177","191315","0.0-177.0","""event"",""trial"",""time""
""fullscreenenter"",""0"",""6488""
","
","
","""event"",""trial"",""time""
""fullscreenenter"",""0"",""6488""
","
","null","<p></p>","null","","","","","","","",""
"","image","178","192266","0.0-178.0","""event"",""trial"",""time""
""fullscreenenter"",""0"",""6488""
","
","
","""event"",""trial"",""time""
""fullscreenenter"",""0"",""6488""
","
","948.5","run_exp/static/images/Set 6_rs/091a.jpg","78","","","","","","learn","SL",""
"","show_choice","179","193335","0.0-179.0","""event"",""trial"",""time""
""fullscreenenter"",""0"",""6488""
","
","
","""event"",""trial"",""time""
""fullscreenenter"",""0"",""6488""
","
","null","run_exp/static/images/Set 6_rs/091a.jpg","null","","","","","","learn","SL",""
"","html-keyboard-response","180","193845","0.0-180.0","""event"",""trial"",""time""
""fullscreenenter"",""0"",""6488""
","
","
","""event"",""trial"",""time""
""fullscreenenter"",""0"",""6488""
","
","null","<p></p>","null","","","","","","","",""
"","image","181","194481","0.0-181.0","""event"",""trial"",""time""
""fullscreenenter"",""0"",""6488""
","
","
","""event"",""trial"",""time""
""fullscreenenter"",""0"",""6488""
","
","634.7999999523163","run_exp/static/images/Set 6_rs/073a.jpg","86","","","","","","learn","SL",""
"","show_choice","182","195864","0.0-182.0","""event"",""trial"",""time""
""fullscreenenter"",""0"",""6488""
","
","
","""event"",""trial"",""time""
""fullscreenenter"",""0"",""6488""
","
","null","run_exp/static/images/Set 6_rs/073a.jpg","null","","","","","","learn","SL",""
"","html-keyboard-response","183","196375","0.0-183.0","""event"",""trial"",""time""
""fullscreenenter"",""0"",""6488""
","
","
","""event"",""trial"",""time""
""fullscreenenter"",""0"",""6488""
","
","null","<p></p>","null","","","","","","","",""
"","image","184","197033","0.0-184.0","""event"",""trial"",""time""
""fullscreenenter"",""0"",""6488""
","
","
","""event"",""trial"",""time""
""fullscreenenter"",""0"",""6488""
","
","654","run_exp/static/images/Set 6_rs/187a.jpg","86","","","","","","learn","SR",""
"","show_choice","185","198394","0.0-185.0","""event"",""trial"",""time""
""fullscreenenter"",""0"",""6488""
","
","
","""event"",""trial"",""time""
""fullscreenenter"",""0"",""6488""
","
","null","run_exp/static/images/Set 6_rs/187a.jpg","null","","","","","","learn","SR",""
"","html-keyboard-response","186","198914","0.0-186.0","""event"",""trial"",""time""
""fullscreenenter"",""0"",""6488""
","
","
","""event"",""trial"",""time""
""fullscreenenter"",""0"",""6488""
","
","null","<p></p>","null","","","","","","","",""
"","image","187","199977","0.0-187.0","""event"",""trial"",""time""
""fullscreenenter"",""0"",""6488""
","
","
","""event"",""trial"",""time""
""fullscreenenter"",""0"",""6488""
","
","1059.3999999761581","run_exp/static/images/Set 6_rs/061a.jpg","78","","","","","","learn","SR",""
"","show_choice","188","200935","0.0-188.0","""event"",""trial"",""time""
""fullscreenenter"",""0"",""6488""
","
","
","""event"",""trial"",""time""
""fullscreenenter"",""0"",""6488""
","
","null","run_exp/static/images/Set 6_rs/061a.jpg","null","","","","","","learn","SR",""
"","html-keyboard-response","189","201455","0.0-189.0","""event"",""trial"",""time""
""fullscreenenter"",""0"",""6488""
","
","
","""event"",""trial"",""time""
""fullscreenenter"",""0"",""6488""
","
","null","<p></p>","null","","","","","","","",""
"","image","190","202169","0.0-190.0","""event"",""trial"",""time""
""fullscreenenter"",""0"",""6488""
","
","
","""event"",""trial"",""time""
""fullscreenenter"",""0"",""6488""
","
","711","run_exp/static/images/Set 6_rs/131a.jpg","86","","","","","","learn","SR",""
"","show_choice","191","203464","0.0-191.0","""event"",""trial"",""time""
""fullscreenenter"",""0"",""6488""
","
","
","""event"",""trial"",""time""
""fullscreenenter"",""0"",""6488""
","
","null","run_exp/static/images/Set 6_rs/131a.jpg","null","","","","","","learn","SR",""
"","html-keyboard-response","192","203976","0.0-192.0","""event"",""trial"",""time""
""fullscreenenter"",""0"",""6488""
","
","
","""event"",""trial"",""time""
""fullscreenenter"",""0"",""6488""
","
","null","<p></p>","null","","","","","","","",""
"","image","193","204665","0.0-193.0","""event"",""trial"",""time""
""fullscreenenter"",""0"",""6488""
","
","
","""event"",""trial"",""time""
""fullscreenenter"",""0"",""6488""
","
","686.6000000238419","run_exp/static/images/Set 6_rs/134a.jpg","78","","","","","","learn","SR",""
"","show_choice","194","205985","0.0-194.0","""event"",""trial"",""time""
""fullscreenenter"",""0"",""6488""
","
","
","""event"",""trial"",""time""
""fullscreenenter"",""0"",""6488""
","
","null","run_exp/static/images/Set 6_rs/134a.jpg","null","","","","","","learn","SR",""
"","html-keyboard-response","195","206495","0.0-195.0","""event"",""trial"",""time""
""fullscreenenter"",""0"",""6488""
","
","
","""event"",""trial"",""time""
""fullscreenenter"",""0"",""6488""
","
","null","<p></p>","null","","","","","","","",""
"","test_intro","196","243347","0.0-196.0","""event"",""trial"",""time""
""fullscreenenter"",""0"",""6488""
","
","
","""event"",""trial"",""time""
""fullscreenenter"",""0"",""6488""
","
","null","run_exp/static/audio/clip_2_memory.m4a","null","","","","","<div class='center'><p>Now, lets see how much you remember about the items you just saw.  For each item, you need to indicate if it was <b>old</b> by pressing the <b>v</b> key, <b>similar</b> by pressing the <b>b</b> key, or <b>new</b> by pressing the <b>n</b> key.</p><p>Old refers to an item that you saw before in the indoor/outdoor game that you just played, new refers to an item you have <b>not</b> seen before within the indoor/outdoor game, and similar refers to an item that is similar to an item youve seen before but is not exactly the same. </p><p>Before we begin, lets go over some brief demonstrations to make sure you understand.</p></div>","","",""
"","html-keyboard-response","197","245170","0.0-197.0","""event"",""trial"",""time""
""fullscreenenter"",""0"",""6488""
","
","
","""event"",""trial"",""time""
""fullscreenenter"",""0"",""6488""
","
","1818.5","<div class='center'><p>Now, lets see how much you remember about the items you just saw.  For each item, you need to indicate if it was <b>old</b> by pressing the <b>v</b> key, <b>similar</b> by pressing the <b>b</b> key, or <b>new</b> by pressing the <b>n</b> key.</p><p>Old refers to an item that you saw before in the indoor/outdoor game that you just played, new refers to an item you have <b>not</b> seen before within the indoor/outdoor game, and similar refers to an item that is similar to an item youve seen before but is not exactly the same. </p><p>Before we begin, lets go over some brief demonstrations to make sure you understand.</p><div><p><b>[Press the space bar to continue]</b></p></div>","32","","","","","","","",""
"","items","198","252674","0.0-198.0","""event"",""trial"",""time""
""fullscreenenter"",""0"",""6488""
","
","
","""event"",""trial"",""time""
""fullscreenenter"",""0"",""6488""
","
","null","run_exp/static/audio/clip_3_items.m4a","null","","","","","","","",""
"","mop","199","257185","0.0-199.0","""event"",""trial"",""time""
""fullscreenenter"",""0"",""6488""
","
","
","""event"",""trial"",""time""
""fullscreenenter"",""0"",""6488""
","
","null","run_exp/static/audio/clip_4_mop.m4a","null","","","","","","","",""
"","baseball","200","260694","0.0-200.0","""event"",""trial"",""time""
""fullscreenenter"",""0"",""6488""
","
","
","""event"",""trial"",""time""
""fullscreenenter"",""0"",""6488""
","
","null","run_exp/static/audio/clip_5_baseball.m4a","null","","","","","","","",""
"","trumpet","201","264214","0.0-201.0","""event"",""trial"",""time""
""fullscreenenter"",""0"",""6488""
","
","
","""event"",""trial"",""time""
""fullscreenenter"",""0"",""6488""
","
","null","run_exp/static/audio/clip_6_trumpet.m4a","null","","","","","","","",""
"","gummies","202","267719","0.0-202.0","""event"",""trial"",""time""
""fullscreenenter"",""0"",""6488""
","
","
","""event"",""trial"",""time""
""fullscreenenter"",""0"",""6488""
","
","null","run_exp/static/audio/clip_7_gummies.m4a","null","","","","","","","",""
"","osn","203","272225","0.0-203.0","""event"",""trial"",""time""
""fullscreenenter"",""0"",""6488""
","
","
","""event"",""trial"",""time""
""fullscreenenter"",""0"",""6488""
","
","null","run_exp/static/audio/clip_8_osn.m4a","null","","","","","","","",""
"","old_1","204","278739","0.0-204.0","""event"",""trial"",""time""
""fullscreenenter"",""0"",""6488""
","
","
","""event"",""trial"",""time""
""fullscreenenter"",""0"",""6488""
","
","null","run_exp/static/audio/clip_9_old_trumpet.m4a","null","","","","","","","",""
"","new_1","205","286245","0.0-205.0","""event"",""trial"",""time""
""fullscreenenter"",""0"",""6488""
","
","
","""event"",""trial"",""time""
""fullscreenenter"",""0"",""6488""
","
","null","run_exp/static/audio/clip_10_new_balloon.m4a","null","","","","","","","",""
"","similar_1a","206","290754","0.0-206.0","""event"",""trial"",""time""
""fullscreenenter"",""0"",""6488""
","
","
","""event"",""trial"",""time""
""fullscreenenter"",""0"",""6488""
","
","null","run_exp/static/audio/clip_11a_similar_mop.m4a","null","","","","","","","",""
"","similar_1b","207","297265","0.0-207.0","""event"",""trial"",""time""
""fullscreenenter"",""0"",""6488""
","
","
","""event"",""trial"",""time""
""fullscreenenter"",""0"",""6488""
","
","null","run_exp/static/audio/clip_11b_similar_mop.m4a","null","","","","","","","",""
"","new_2","208","300779","0.0-208.0","""event"",""trial"",""time""
""fullscreenenter"",""0"",""6488""
","
","
","""event"",""trial"",""time""
""fullscreenenter"",""0"",""6488""
","
","null","run_exp/static/audio/clip_12_new_stoplight.m4a","null","","","","","","","",""
"","old_2","209","304294","0.0-209.0","""event"",""trial"",""time""
""fullscreenenter"",""0"",""6488""
","
","
","""event"",""trial"",""time""
""fullscreenenter"",""0"",""6488""
","
","null","run_exp/static/audio/clip_13_old_baseball.m4a","null","","","","","","","",""
"","similar_2a","210","307798","0.0-210.0","""event"",""trial"",""time""
""fullscreenenter"",""0"",""6488""
","
","
","""event"",""trial"",""time""
""fullscreenenter"",""0"",""6488""
","
","null","run_exp/static/audio/clip_14a_similar_gummies.m4a","null","","","","","","","",""
"","similar_2b","211","315314","0.0-211.0","""event"",""trial"",""time""
""fullscreenenter"",""0"",""6488""
","
","
","""event"",""trial"",""time""
""fullscreenenter"",""0"",""6488""
","
","null","run_exp/static/audio/clip_14b_similar_gummies.m4a","null","","","","","","","",""
"","practice","212","357445","0.0-212.0","""event"",""trial"",""time""
""fullscreenenter"",""0"",""6488""
","
","
","""event"",""trial"",""time""
""fullscreenenter"",""0"",""6488""
","
","null","run_exp/static/audio/clip_15_practice.m4a","null","","","","","<div class='center'><p>Lets practice a little to make sure you understand the difference between new, similar, and old. Lets say you saw these three items in the indoor/outdoor game.</p><p> Try your best to remember these images because youll soon be tested on them in a practice game. In the practice game, youll be shown images and youll have to say if they are old (one of the three images belows), similar (similar to one of the images below but not exactly the same), or new (are not one of the images below nor similar to them).</p><p>Once you press the space bar youll be shown these images again but one at time. Then youll begin the practice game.</p><p><img src='run_exp/static/images/tutorial/test/three_indoor_outdoor.png' height='300'></p></div>","","",""
"","html-keyboard-response","213","358393","0.0-213.0","""event"",""trial"",""time""
""fullscreenenter"",""0"",""6488""
","
","
","""event"",""trial"",""time""
""fullscreenenter"",""0"",""6488""
","
","941.8000000119209","<div class='center'><p>Lets practice a little to make sure you understand the difference between new, similar, and old. Lets say you saw these three items in the indoor/outdoor game.</p><p> Try your best to remember these images because youll soon be tested on them in a practice game. In the practice game, youll be shown images and youll have to say if they are old (one of the three images belows), similar (similar to one of the images below but not exactly the same), or new (are not one of the images below nor similar to them).</p><p>Once you press the space bar youll be shown these images again but one at time. Then youll begin the practice game.</p><p><img src='run_exp/static/images/tutorial/test/three_indoor_outdoor.png' height='300'></p><div><p><b>[Press the space bar to continue]</b></p></div>","32","","","","","","","",""
"","planet","214","360413","0.0-214.0","""event"",""trial"",""time""
""fullscreenenter"",""0"",""6488""
","
","
","""event"",""trial"",""time""
""fullscreenenter"",""0"",""6488""
","
","null","run_exp/static/images/tutorial/test/008a.jpg","null","","","","","","","",""
"","boot","215","362433","0.0-215.0","""event"",""trial"",""time""
""fullscreenenter"",""0"",""6488""
","
","
","""event"",""trial"",""time""
""fullscreenenter"",""0"",""6488""
","
","null","run_exp/static/images/tutorial/test/011a.jpg","null","","","","","","","",""
"","lemon","216","364454","0.0-216.0","""event"",""trial"",""time""
""fullscreenenter"",""0"",""6488""
","
","
","""event"",""trial"",""time""
""fullscreenenter"",""0"",""6488""
","
","null","run_exp/static/images/tutorial/test/018a.jpg","null","","","","","","","",""
"","practice_q1","217","369528","0.0-217.0","""event"",""trial"",""time""
""fullscreenenter"",""0"",""6488""
","
","
","""event"",""trial"",""time""
""fullscreenenter"",""0"",""6488""
","
","5068","run_exp/static/audio/clip_16_practice_question.m4a","78","","","","","","","",""
"","correct","218","371465","0.0-218.0-0.0","""event"",""trial"",""time""
""fullscreenenter"",""0"",""6488""
","
","
","""event"",""trial"",""time""
""fullscreenenter"",""0"",""6488""
","
","null","run_exp/static/audio/clip_17_correct.m4a","null","","","","","<div class='center'><p>That's correct!</p></div>","","",""
"","html-keyboard-response","219","372135","0.0-218.0-1.0","""event"",""trial"",""time""
""fullscreenenter"",""0"",""6488""
","
","
","""event"",""trial"",""time""
""fullscreenenter"",""0"",""6488""
","
","668.1000000238419","<div class='center'><p>That's correct!</p><div><p><b>[Press the space bar to continue]</b></p></div>","32","","","","","","","",""
"","practice_q2","220","377096","0.0-218.0-2.0","""event"",""trial"",""time""
""fullscreenenter"",""0"",""6488""
","
","
","""event"",""trial"",""time""
""fullscreenenter"",""0"",""6488""
","
","4957.199999988079","run_exp/static/audio/clip_16_practice_question.m4a","86","","","","","","","",""
"","correct","221","379005","0.0-219.0-0.0","""event"",""trial"",""time""
""fullscreenenter"",""0"",""6488""
","
","
","""event"",""trial"",""time""
""fullscreenenter"",""0"",""6488""
","
","null","run_exp/static/audio/clip_17_correct.m4a","null","","","","","<div class='center'><p>That's correct!</p></div>","","",""
"","html-keyboard-response","222","380671","0.0-219.0-1.0","""event"",""trial"",""time""
""fullscreenenter"",""0"",""6488""
","
","
","""event"",""trial"",""time""
""fullscreenenter"",""0"",""6488""
","
","1664.5","<div class='center'><p>That's correct!</p><div><p><b>[Press the space bar to continue]</b></p></div>","32","","","","","","","",""
"","practice_q3","223","383919","0.0-219.0-2.0","""event"",""trial"",""time""
""fullscreenenter"",""0"",""6488""
","
","
","""event"",""trial"",""time""
""fullscreenenter"",""0"",""6488""
","
","3243.800000011921","run_exp/static/audio/clip_16_practice_question.m4a","66","","","","","","","",""
"","correct","224","386763","0.0-220.0-0.0","""event"",""trial"",""time""
""fullscreenenter"",""0"",""6488""
","
","
","""event"",""trial"",""time""
""fullscreenenter"",""0"",""6488""
","
","null","run_exp/static/audio/clip_17_correct.m4a","null","","","","","<div class='center'><p>That's correct!</p></div>","","",""
"","html-keyboard-response","225","387455","0.0-220.0-1.0","""event"",""trial"",""time""
""fullscreenenter"",""0"",""6488""
","
","
","""event"",""trial"",""time""
""fullscreenenter"",""0"",""6488""
","
","690","<div class='center'><p>That's correct!</p><div><p><b>[Press the space bar to continue]</b></p></div>","32","","","","","","","",""
"","begin_text","226","405985","0.0-221.0-0.0","""event"",""trial"",""time""
""fullscreenenter"",""0"",""6488""
","
","
","""event"",""trial"",""time""
""fullscreenenter"",""0"",""6488""
","
","null","run_exp/static/audio/clip_22_begin_test.m4a","null","","","","","<div class='center'><p>On to the real game where well test your memory of items from the indoor/outdoor game. For each item, you need to indicate if the item is <b>old</b> by pressing the <b>v</b> key, <b>similar</b> by pressing the <b>b</b> key, or <b>new</b> by pressing the <b>n</b> key. </p></div>","","",""
"","html-keyboard-response","227","407064","0.0-221.0-1.0","""event"",""trial"",""time""
""fullscreenenter"",""0"",""6488""
","
","
","""event"",""trial"",""time""
""fullscreenenter"",""0"",""6488""
","
","1075.199999988079","<div class='center'><p>On to the real game where well test your memory of items from the indoor/outdoor game. For each item, you need to indicate if the item is <b>old</b> by pressing the <b>v</b> key, <b>similar</b> by pressing the <b>b</b> key, or <b>new</b> by pressing the <b>n</b> key. </p><div><p><b>[Press the space bar to continue]</b></p></div>","32","","","","","","","",""
"","image","228","408663","0.0-222.0-0.0","""event"",""trial"",""time""
""fullscreenenter"",""0"",""6488""
","
","
","""event"",""trial"",""time""
""fullscreenenter"",""0"",""6488""
","
","1595.8999999761581","run_exp/static/images/Set 6_rs/126a.jpg","86","","","","","","test","TR","2"
"","show_choice","229","409170","0.0-222.0-1.0","""event"",""trial"",""time""
""fullscreenenter"",""0"",""6488""
","
","
","""event"",""trial"",""time""
""fullscreenenter"",""0"",""6488""
","
","null","run_exp/static/images/Set 6_rs/126a.jpg","null","","","","","","test","TR",""
"","html-keyboard-response","230","409687","0.0-222.0-2.0","""event"",""trial"",""time""
""fullscreenenter"",""0"",""6488""
","
","
","""event"",""trial"",""time""
""fullscreenenter"",""0"",""6488""
","
","null","<p></p>","null","","","","","","","",""
"","image","231","410639","0.0-223.0-0.0","""event"",""trial"",""time""
""fullscreenenter"",""0"",""6488""
","
","
","""event"",""trial"",""time""
""fullscreenenter"",""0"",""6488""
","
","949.8000000119209","run_exp/static/images/Set 6_rs/055b.jpg","86","","","","","","test","TL","4"
"","show_choice","232","411143","0.0-223.0-1.0","""event"",""trial"",""time""
""fullscreenenter"",""0"",""6488""
","
","
","""event"",""trial"",""time""
""fullscreenenter"",""0"",""6488""
","
","null","run_exp/static/images/Set 6_rs/055b.jpg","null","","","","","","test","TL",""
"","html-keyboard-response","233","411663","0.0-223.0-2.0","""event"",""trial"",""time""
""fullscreenenter"",""0"",""6488""
","
","
","""event"",""trial"",""time""
""fullscreenenter"",""0"",""6488""
","
","null","<p></p>","null","","","","","","","",""
"","image","234","412670","0.0-224.0-0.0","""event"",""trial"",""time""
""fullscreenenter"",""0"",""6488""
","
","
","""event"",""trial"",""time""
""fullscreenenter"",""0"",""6488""
","
","1004.2000000476837","run_exp/static/images/Set 6_rs/144b.jpg","86","","","","","","test","TL","4"
"","show_choice","235","413173","0.0-224.0-1.0","""event"",""trial"",""time""
""fullscreenenter"",""0"",""6488""
","
","
","""event"",""trial"",""time""
""fullscreenenter"",""0"",""6488""
","
","null","run_exp/static/images/Set 6_rs/144b.jpg","null","","","","","","test","TL",""
"","html-keyboard-response","236","413682","0.0-224.0-2.0","""event"",""trial"",""time""
""fullscreenenter"",""0"",""6488""
","
","
","""event"",""trial"",""time""
""fullscreenenter"",""0"",""6488""
","
","null","<p></p>","null","","","","","","","",""
"","image","237","416698","0.0-225.0-0.0","""event"",""trial"",""time""
""fullscreenenter"",""0"",""6488""
","
","
","""event"",""trial"",""time""
""fullscreenenter"",""0"",""6488""
","
","null","run_exp/static/images/Set 6_rs/136a.jpg","null","","","","","","test","TF","4"
"","show_choice","238","417215","0.0-225.0-1.0","""event"",""trial"",""time""
""fullscreenenter"",""0"",""6488""
","
","
","""event"",""trial"",""time""
""fullscreenenter"",""0"",""6488""
","
","null","run_exp/static/images/Set 6_rs/136a.jpg","null","","","","","","test","TF",""
"","html-keyboard-response","239","417722","0.0-225.0-2.0","""event"",""trial"",""time""
""fullscreenenter"",""0"",""6488""
","
","
","""event"",""trial"",""time""
""fullscreenenter"",""0"",""6488""
","
","null","<p></p>","null","","","","","","","",""
"","image","240","418687","0.0-226.0-0.0","""event"",""trial"",""time""
""fullscreenenter"",""0"",""6488""
","
","
","""event"",""trial"",""time""
""fullscreenenter"",""0"",""6488""
","
","963","run_exp/static/images/Set 6_rs/167b.jpg","86","","","","","","test","TL","2"
"","show_choice","241","419203","0.0-226.0-1.0","""event"",""trial"",""time""
""fullscreenenter"",""0"",""6488""
","
","
","""event"",""trial"",""time""
""fullscreenenter"",""0"",""6488""
","
","null","run_exp/static/images/Set 6_rs/167b.jpg","null","","","","","","test","TL",""
"","html-keyboard-response","242","419722","0.0-226.0-2.0","""event"",""trial"",""time""
""fullscreenenter"",""0"",""6488""
","
","
","""event"",""trial"",""time""
""fullscreenenter"",""0"",""6488""
","
","null","<p></p>","null","","","","","","","",""
"","image","243","420927","0.0-227.0-0.0","""event"",""trial"",""time""
""fullscreenenter"",""0"",""6488""
","
","
","""event"",""trial"",""time""
""fullscreenenter"",""0"",""6488""
","
","1202.800000011921","run_exp/static/images/Set 6_rs/191b.jpg","78","","","","","","test","TL","2"
"","show_choice","244","421432","0.0-227.0-1.0","""event"",""trial"",""time""
""fullscreenenter"",""0"",""6488""
","
","
","""event"",""trial"",""time""
""fullscreenenter"",""0"",""6488""
","
","null","run_exp/static/images/Set 6_rs/191b.jpg","null","","","","","","test","TL",""
"","html-keyboard-response","245","421953","0.0-227.0-2.0","""event"",""trial"",""time""
""fullscreenenter"",""0"",""6488""
","
","
","""event"",""trial"",""time""
""fullscreenenter"",""0"",""6488""
","
","null","<p></p>","null","","","","","","","",""
"","image","246","422805","0.0-228.0-0.0","""event"",""trial"",""time""
""fullscreenenter"",""0"",""6488""
","
","
","""event"",""trial"",""time""
""fullscreenenter"",""0"",""6488""
","
","849.3999999761581","run_exp/static/images/Set 6_rs/168b.jpg","86","","","","","","test","TL","3"
"","show_choice","247","423312","0.0-228.0-1.0","""event"",""trial"",""time""
""fullscreenenter"",""0"",""6488""
","
","
","""event"",""trial"",""time""
""fullscreenenter"",""0"",""6488""
","
","null","run_exp/static/images/Set 6_rs/168b.jpg","null","","","","","","test","TL",""
"","html-keyboard-response","248","423832","0.0-228.0-2.0","""event"",""trial"",""time""
""fullscreenenter"",""0"",""6488""
","
","
","""event"",""trial"",""time""
""fullscreenenter"",""0"",""6488""
","
","null","<p></p>","null","","","","","","","",""
"","image","249","424797","0.0-229.0-0.0","""event"",""trial"",""time""
""fullscreenenter"",""0"",""6488""
","
","
","""event"",""trial"",""time""
""fullscreenenter"",""0"",""6488""
","
","963.8000000119209","run_exp/static/images/Set 6_rs/078a.jpg","78","","","","","","test","TF","1"
"","show_choice","250","425313","0.0-229.0-1.0","""event"",""trial"",""time""
""fullscreenenter"",""0"",""6488""
","
","
","""event"",""trial"",""time""
""fullscreenenter"",""0"",""6488""
","
","null","run_exp/static/images/Set 6_rs/078a.jpg","null","","","","","","test","TF",""
"","html-keyboard-response","251","425832","0.0-229.0-2.0","""event"",""trial"",""time""
""fullscreenenter"",""0"",""6488""
","
","
","""event"",""trial"",""time""
""fullscreenenter"",""0"",""6488""
","
","null","<p></p>","null","","","","","","","",""
"","image","252","426789","0.0-230.0-0.0","""event"",""trial"",""time""
""fullscreenenter"",""0"",""6488""
","
","
","""event"",""trial"",""time""
""fullscreenenter"",""0"",""6488""
","
","955.6000000238419","run_exp/static/images/Set 6_rs/048a.jpg","78","","","","","","test","TF","4"
"","show_choice","253","427293","0.0-230.0-1.0","""event"",""trial"",""time""
""fullscreenenter"",""0"",""6488""
","
","
","""event"",""trial"",""time""
""fullscreenenter"",""0"",""6488""
","
","null","run_exp/static/images/Set 6_rs/048a.jpg","null","","","","","","test","TF",""
"","html-keyboard-response","254","427812","0.0-230.0-2.0","""event"",""trial"",""time""
""fullscreenenter"",""0"",""6488""
","
","
","""event"",""trial"",""time""
""fullscreenenter"",""0"",""6488""
","
","null","<p></p>","null","","","","","","","",""
"","image","255","428495","0.0-231.0-0.0","""event"",""trial"",""time""
""fullscreenenter"",""0"",""6488""
","
","
","""event"",""trial"",""time""
""fullscreenenter"",""0"",""6488""
","
","679.5","run_exp/static/images/Set 6_rs/118a.jpg","78","","","","","","test","TF","5"
"","show_choice","256","429013","0.0-231.0-1.0","""event"",""trial"",""time""
""fullscreenenter"",""0"",""6488""
","
","
","""event"",""trial"",""time""
""fullscreenenter"",""0"",""6488""
","
","null","run_exp/static/images/Set 6_rs/118a.jpg","null","","","","","","test","TF",""
"","html-keyboard-response","257","429523","0.0-231.0-2.0","""event"",""trial"",""time""
""fullscreenenter"",""0"",""6488""
","
","
","""event"",""trial"",""time""
""fullscreenenter"",""0"",""6488""
","
","null","<p></p>","null","","","","","","","",""
"","image","258","430367","0.0-232.0-0.0","""event"",""trial"",""time""
""fullscreenenter"",""0"",""6488""
","
","
","""event"",""trial"",""time""
""fullscreenenter"",""0"",""6488""
","
","841.5","run_exp/static/images/Set 6_rs/149a.jpg","78","","","","","","test","TF","1"
"","show_choice","259","430883","0.0-232.0-1.0","""event"",""trial"",""time""
""fullscreenenter"",""0"",""6488""
","
","
","""event"",""trial"",""time""
""fullscreenenter"",""0"",""6488""
","
","null","run_exp/static/images/Set 6_rs/149a.jpg","null","","","","","","test","TF",""
"","html-keyboard-response","260","431403","0.0-232.0-2.0","""event"",""trial"",""time""
""fullscreenenter"",""0"",""6488""
","
","
","""event"",""trial"",""time""
""fullscreenenter"",""0"",""6488""
","
","null","<p></p>","null","","","","","","","",""
"","image","261","433087","0.0-233.0-0.0","""event"",""trial"",""time""
""fullscreenenter"",""0"",""6488""
","
","
","""event"",""trial"",""time""
""fullscreenenter"",""0"",""6488""
","
","1681.4000000357628","run_exp/static/images/Set 6_rs/071b.jpg","66","","","","","","test","TL","4"
"","show_choice","262","433593","0.0-233.0-1.0","""event"",""trial"",""time""
""fullscreenenter"",""0"",""6488""
","
","
","""event"",""trial"",""time""
""fullscreenenter"",""0"",""6488""
","
","null","run_exp/static/images/Set 6_rs/071b.jpg","null","","","","","","test","TL",""
"","html-keyboard-response","263","434113","0.0-233.0-2.0","""event"",""trial"",""time""
""fullscreenenter"",""0"",""6488""
","
","
","""event"",""trial"",""time""
""fullscreenenter"",""0"",""6488""
","
","null","<p></p>","null","","","","","","","",""
"","image","264","435805","0.0-234.0-0.0","""event"",""trial"",""time""
""fullscreenenter"",""0"",""6488""
","
","
","""event"",""trial"",""time""
""fullscreenenter"",""0"",""6488""
","
","1689.6000000238419","run_exp/static/images/Set 6_rs/062b.jpg","66","","","","","","test","TL","1"
"","show_choice","265","436323","0.0-234.0-1.0","""event"",""trial"",""time""
""fullscreenenter"",""0"",""6488""
","
","
","""event"",""trial"",""time""
""fullscreenenter"",""0"",""6488""
","
","null","run_exp/static/images/Set 6_rs/062b.jpg","null","","","","","","test","TL",""
"","html-keyboard-response","266","436828","0.0-234.0-2.0","""event"",""trial"",""time""
""fullscreenenter"",""0"",""6488""
","
","
","""event"",""trial"",""time""
""fullscreenenter"",""0"",""6488""
","
","null","<p></p>","null","","","","","","","",""
"","image","267","437901","0.0-235.0-0.0","""event"",""trial"",""time""
""fullscreenenter"",""0"",""6488""
","
","
","""event"",""trial"",""time""
""fullscreenenter"",""0"",""6488""
","
","1072.2000000476837","run_exp/static/images/Set 6_rs/025b.jpg","66","","","","","","test","TL","5"
"","show_choice","268","438413","0.0-235.0-1.0","""event"",""trial"",""time""
""fullscreenenter"",""0"",""6488""
","
","
","""event"",""trial"",""time""
""fullscreenenter"",""0"",""6488""
","
","null","run_exp/static/images/Set 6_rs/025b.jpg","null","","","","","","test","TL",""
"","html-keyboard-response","269","438923","0.0-235.0-2.0","""event"",""trial"",""time""
""fullscreenenter"",""0"",""6488""
","
","
","""event"",""trial"",""time""
""fullscreenenter"",""0"",""6488""
","
","null","<p></p>","null","","","","","","","",""
"","image","270","439831","0.0-236.0-0.0","""event"",""trial"",""time""
""fullscreenenter"",""0"",""6488""
","
","
","""event"",""trial"",""time""
""fullscreenenter"",""0"",""6488""
","
","903.0999999642372","run_exp/static/images/Set 6_rs/188a.jpg","78","","","","","","test","TF","3"
"","show_choice","271","440335","0.0-236.0-1.0","""event"",""trial"",""time""
""fullscreenenter"",""0"",""6488""
","
","
","""event"",""trial"",""time""
""fullscreenenter"",""0"",""6488""
","
","null","run_exp/static/images/Set 6_rs/188a.jpg","null","","","","","","test","TF",""
"","html-keyboard-response","272","440843","0.0-236.0-2.0","""event"",""trial"",""time""
""fullscreenenter"",""0"",""6488""
","
","
","""event"",""trial"",""time""
""fullscreenenter"",""0"",""6488""
","
","null","<p></p>","null","","","","","","","",""
"","image","273","441703","0.0-237.0-0.0","""event"",""trial"",""time""
""fullscreenenter"",""0"",""6488""
","
","
","""event"",""trial"",""time""
""fullscreenenter"",""0"",""6488""
","
","858.8000000119209","run_exp/static/images/Set 6_rs/010a.jpg","86","","","","","","test","TR","5"
"","show_choice","274","442215","0.0-237.0-1.0","""event"",""trial"",""time""
""fullscreenenter"",""0"",""6488""
","
","
","""event"",""trial"",""time""
""fullscreenenter"",""0"",""6488""
","
","null","run_exp/static/images/Set 6_rs/010a.jpg","null","","","","","","test","TR",""
"","html-keyboard-response","275","442735","0.0-237.0-2.0","""event"",""trial"",""time""
""fullscreenenter"",""0"",""6488""
","
","
","""event"",""trial"",""time""
""fullscreenenter"",""0"",""6488""
","
","null","<p></p>","null","","","","","","","",""
"","image","276","443497","0.0-238.0-0.0","""event"",""trial"",""time""
""fullscreenenter"",""0"",""6488""
","
","
","""event"",""trial"",""time""
""fullscreenenter"",""0"",""6488""
","
","760.1999999880791","run_exp/static/images/Set 6_rs/154a.jpg","86","","","","","","test","TR","3"
"","show_choice","277","444015","0.0-238.0-1.0","""event"",""trial"",""time""
""fullscreenenter"",""0"",""6488""
","
","
","""event"",""trial"",""time""
""fullscreenenter"",""0"",""6488""
","
","null","run_exp/static/images/Set 6_rs/154a.jpg","null","","","","","","test","TR",""
"","html-keyboard-response","278","444535","0.0-238.0-2.0","""event"",""trial"",""time""
""fullscreenenter"",""0"",""6488""
","
","
","""event"",""trial"",""time""
""fullscreenenter"",""0"",""6488""
","
","null","<p></p>","null","","","","","","","",""
"","image","279","445337","0.0-239.0-0.0","""event"",""trial"",""time""
""fullscreenenter"",""0"",""6488""
","
","
","""event"",""trial"",""time""
""fullscreenenter"",""0"",""6488""
","
","799.6999999880791","run_exp/static/images/Set 6_rs/050b.jpg","86","","","","","","test","TL","3"
"","show_choice","280","445851","0.0-239.0-1.0","""event"",""trial"",""time""
""fullscreenenter"",""0"",""6488""
","
","
","""event"",""trial"",""time""
""fullscreenenter"",""0"",""6488""
","
","null","run_exp/static/images/Set 6_rs/050b.jpg","null","","","","","","test","TL",""
"","html-keyboard-response","281","446375","0.0-239.0-2.0","""event"",""trial"",""time""
""fullscreenenter"",""0"",""6488""
","
","
","""event"",""trial"",""time""
""fullscreenenter"",""0"",""6488""
","
","null","<p></p>","null","","","","","","","",""
"","image","282","447457","0.0-240.0-0.0","""event"",""trial"",""time""
""fullscreenenter"",""0"",""6488""
","
","
","""event"",""trial"",""time""
""fullscreenenter"",""0"",""6488""
","
","1079","run_exp/static/images/Set 6_rs/105a.jpg","66","","","","","","test","TF","5"
"","show_choice","283","447976","0.0-240.0-1.0","""event"",""trial"",""time""
""fullscreenenter"",""0"",""6488""
","
","
","""event"",""trial"",""time""
""fullscreenenter"",""0"",""6488""
","
","null","run_exp/static/images/Set 6_rs/105a.jpg","null","","","","","","test","TF",""
"","html-keyboard-response","284","448496","0.0-240.0-2.0","""event"",""trial"",""time""
""fullscreenenter"",""0"",""6488""
","
","
","""event"",""trial"",""time""
""fullscreenenter"",""0"",""6488""
","
","null","<p></p>","null","","","","","","","",""
"","image","285","449711","0.0-241.0-0.0","""event"",""trial"",""time""
""fullscreenenter"",""0"",""6488""
","
","
","""event"",""trial"",""time""
""fullscreenenter"",""0"",""6488""
","
","1213.3999999761581","run_exp/static/images/Set 6_rs/169a.jpg","86","","","","","","test","TR","4"
"","show_choice","286","450213","0.0-241.0-1.0","""event"",""trial"",""time""
""fullscreenenter"",""0"",""6488""
","
","
","""event"",""trial"",""time""
""fullscreenenter"",""0"",""6488""
","
","null","run_exp/static/images/Set 6_rs/169a.jpg","null","","","","","","test","TR",""
"","html-keyboard-response","287","450714","0.0-241.0-2.0","""event"",""trial"",""time""
""fullscreenenter"",""0"",""6488""
","
","
","""event"",""trial"",""time""
""fullscreenenter"",""0"",""6488""
","
","null","<p></p>","null","","","","","","","",""
"","image","288","451807","0.0-242.0-0.0","""event"",""trial"",""time""
""fullscreenenter"",""0"",""6488""
","
","
","""event"",""trial"",""time""
""fullscreenenter"",""0"",""6488""
","
","1091.5","run_exp/static/images/Set 6_rs/021a.jpg","78","","","","","","test","TF","2"
"","show_choice","289","452325","0.0-242.0-1.0","""event"",""trial"",""time""
""fullscreenenter"",""0"",""6488""
","
","
","""event"",""trial"",""time""
""fullscreenenter"",""0"",""6488""
","
","null","run_exp/static/images/Set 6_rs/021a.jpg","null","","","","","","test","TF",""
"","html-keyboard-response","290","452832","0.0-242.0-2.0","""event"",""trial"",""time""
""fullscreenenter"",""0"",""6488""
","
","
","""event"",""trial"",""time""
""fullscreenenter"",""0"",""6488""
","
","null","<p></p>","null","","","","","","","",""
"","image","291","454079","0.0-243.0-0.0","""event"",""trial"",""time""
""fullscreenenter"",""0"",""6488""
","
","
","""event"",""trial"",""time""
""fullscreenenter"",""0"",""6488""
","
","1245.699999988079","run_exp/static/images/Set 6_rs/075a.jpg","86","","","","","","test","TR","1"
"","show_choice","292","454595","0.0-243.0-1.0","""event"",""trial"",""time""
""fullscreenenter"",""0"",""6488""
","
","
","""event"",""trial"",""time""
""fullscreenenter"",""0"",""6488""
","
","null","run_exp/static/images/Set 6_rs/075a.jpg","null","","","","","","test","TR",""
"","html-keyboard-response","293","455115","0.0-243.0-2.0","""event"",""trial"",""time""
""fullscreenenter"",""0"",""6488""
","
","
","""event"",""trial"",""time""
""fullscreenenter"",""0"",""6488""
","
","null","<p></p>","null","","","","","","","",""
"","image","294","456097","0.0-244.0-0.0","""event"",""trial"",""time""
""fullscreenenter"",""0"",""6488""
","
","
","""event"",""trial"",""time""
""fullscreenenter"",""0"",""6488""
","
","979.1999999880791","run_exp/static/images/Set 6_rs/011a.jpg","78","","","","","","test","TF","3"
"","show_choice","295","456605","0.0-244.0-1.0","""event"",""trial"",""time""
""fullscreenenter"",""0"",""6488""
","
","
","""event"",""trial"",""time""
""fullscreenenter"",""0"",""6488""
","
","null","run_exp/static/images/Set 6_rs/011a.jpg","null","","","","","","test","TF",""
"","html-keyboard-response","296","457125","0.0-244.0-2.0","""event"",""trial"",""time""
""fullscreenenter"",""0"",""6488""
","
","
","""event"",""trial"",""time""
""fullscreenenter"",""0"",""6488""
","
","null","<p></p>","null","","","","","","","",""
"","image","297","457972","0.0-245.0-0.0","""event"",""trial"",""time""
""fullscreenenter"",""0"",""6488""
","
","
","""event"",""trial"",""time""
""fullscreenenter"",""0"",""6488""
","
","844.6999999880791","run_exp/static/images/Set 6_rs/019b.jpg","86","","","","","","test","TL","2"
"","show_choice","298","458475","0.0-245.0-1.0","""event"",""trial"",""time""
""fullscreenenter"",""0"",""6488""
","
","
","""event"",""trial"",""time""
""fullscreenenter"",""0"",""6488""
","
","null","run_exp/static/images/Set 6_rs/019b.jpg","null","","","","","","test","TL",""
"","html-keyboard-response","299","458995","0.0-245.0-2.0","""event"",""trial"",""time""
""fullscreenenter"",""0"",""6488""
","
","
","""event"",""trial"",""time""
""fullscreenenter"",""0"",""6488""
","
","null","<p></p>","null","","","","","","","",""
"","image","300","459945","0.0-246.0-0.0","""event"",""trial"",""time""
""fullscreenenter"",""0"",""6488""
","
","
","""event"",""trial"",""time""
""fullscreenenter"",""0"",""6488""
","
","944.6999999880791","run_exp/static/images/Set 6_rs/007a.jpg","86","","","","","","test","TR","3"
"","show_choice","301","460456","0.0-246.0-1.0","""event"",""trial"",""time""
""fullscreenenter"",""0"",""6488""
","
","
","""event"",""trial"",""time""
""fullscreenenter"",""0"",""6488""
","
","null","run_exp/static/images/Set 6_rs/007a.jpg","null","","","","","","test","TR",""
"","html-keyboard-response","302","460968","0.0-246.0-2.0","""event"",""trial"",""time""
""fullscreenenter"",""0"",""6488""
","
","
","""event"",""trial"",""time""
""fullscreenenter"",""0"",""6488""
","
","null","<p></p>","null","","","","","","","",""
"","image","303","462506","0.0-247.0-0.0","""event"",""trial"",""time""
""fullscreenenter"",""0"",""6488""
","
","
","""event"",""trial"",""time""
""fullscreenenter"",""0"",""6488""
","
","1534.8999999761581","run_exp/static/images/Set 6_rs/066b.jpg","66","","","","","","test","TL","5"
"","show_choice","304","463015","0.0-247.0-1.0","""event"",""trial"",""time""
""fullscreenenter"",""0"",""6488""
","
","
","""event"",""trial"",""time""
""fullscreenenter"",""0"",""6488""
","
","null","run_exp/static/images/Set 6_rs/066b.jpg","null","","","","","","test","TL",""
"","html-keyboard-response","305","463535","0.0-247.0-2.0","""event"",""trial"",""time""
""fullscreenenter"",""0"",""6488""
","
","
","""event"",""trial"",""time""
""fullscreenenter"",""0"",""6488""
","
","null","<p></p>","null","","","","","","","",""
"","image","306","464481","0.0-248.0-0.0","""event"",""trial"",""time""
""fullscreenenter"",""0"",""6488""
","
","
","""event"",""trial"",""time""
""fullscreenenter"",""0"",""6488""
","
","943.1000000238419","run_exp/static/images/Set 6_rs/155a.jpg","78","","","","","","test","TF","4"
"","show_choice","307","464995","0.0-248.0-1.0","""event"",""trial"",""time""
""fullscreenenter"",""0"",""6488""
","
","
","""event"",""trial"",""time""
""fullscreenenter"",""0"",""6488""
","
","null","run_exp/static/images/Set 6_rs/155a.jpg","null","","","","","","test","TF",""
"","html-keyboard-response","308","465515","0.0-248.0-2.0","""event"",""trial"",""time""
""fullscreenenter"",""0"",""6488""
","
","
","""event"",""trial"",""time""
""fullscreenenter"",""0"",""6488""
","
","null","<p></p>","null","","","","","","","",""
"","image","309","466711","0.0-249.0-0.0","""event"",""trial"",""time""
""fullscreenenter"",""0"",""6488""
","
","
","""event"",""trial"",""time""
""fullscreenenter"",""0"",""6488""
","
","1193.3999999761581","run_exp/static/images/Set 6_rs/073b.jpg","66","","","","","","test","TL","3"
"","show_choice","310","467215","0.0-249.0-1.0","""event"",""trial"",""time""
""fullscreenenter"",""0"",""6488""
","
","
","""event"",""trial"",""time""
""fullscreenenter"",""0"",""6488""
","
","null","run_exp/static/images/Set 6_rs/073b.jpg","null","","","","","","test","TL",""
"","html-keyboard-response","311","467735","0.0-249.0-2.0","""event"",""trial"",""time""
""fullscreenenter"",""0"",""6488""
","
","
","""event"",""trial"",""time""
""fullscreenenter"",""0"",""6488""
","
","null","<p></p>","null","","","","","","","",""
"","image","312","468953","0.0-250.0-0.0","""event"",""trial"",""time""
""fullscreenenter"",""0"",""6488""
","
","
","""event"",""trial"",""time""
""fullscreenenter"",""0"",""6488""
","
","1216.5999999642372","run_exp/static/images/Set 6_rs/121a.jpg","66","","","","","","test","TR","4"
"","show_choice","313","469465","0.0-250.0-1.0","""event"",""trial"",""time""
""fullscreenenter"",""0"",""6488""
","
","
","""event"",""trial"",""time""
""fullscreenenter"",""0"",""6488""
","
","null","run_exp/static/images/Set 6_rs/121a.jpg","null","","","","","","test","TR",""
"","html-keyboard-response","314","469985","0.0-250.0-2.0","""event"",""trial"",""time""
""fullscreenenter"",""0"",""6488""
","
","
","""event"",""trial"",""time""
""fullscreenenter"",""0"",""6488""
","
","null","<p></p>","null","","","","","","","",""
"","image","315","471017","0.0-251.0-0.0","""event"",""trial"",""time""
""fullscreenenter"",""0"",""6488""
","
","
","""event"",""trial"",""time""
""fullscreenenter"",""0"",""6488""
","
","1027.8999999761581","run_exp/static/images/Set 6_rs/052a.jpg","78","","","","","","test","TF","1"
"","show_choice","316","471525","0.0-251.0-1.0","""event"",""trial"",""time""
""fullscreenenter"",""0"",""6488""
","
","
","""event"",""trial"",""time""
""fullscreenenter"",""0"",""6488""
","
","null","run_exp/static/images/Set 6_rs/052a.jpg","null","","","","","","test","TF",""
"","html-keyboard-response","317","472045","0.0-251.0-2.0","""event"",""trial"",""time""
""fullscreenenter"",""0"",""6488""
","
","
","""event"",""trial"",""time""
""fullscreenenter"",""0"",""6488""
","
","null","<p></p>","null","","","","","","","",""
"","image","318","473322","0.0-252.0-0.0","""event"",""trial"",""time""
""fullscreenenter"",""0"",""6488""
","
","
","""event"",""trial"",""time""
""fullscreenenter"",""0"",""6488""
","
","1273.5","run_exp/static/images/Set 6_rs/028a.jpg","66","","","","","","test","TF","1"
"","show_choice","319","473824","0.0-252.0-1.0","""event"",""trial"",""time""
""fullscreenenter"",""0"",""6488""
","
","
","""event"",""trial"",""time""
""fullscreenenter"",""0"",""6488""
","
","null","run_exp/static/images/Set 6_rs/028a.jpg","null","","","","","","test","TF",""
"","html-keyboard-response","320","474335","0.0-252.0-2.0","""event"",""trial"",""time""
""fullscreenenter"",""0"",""6488""
","
","
","""event"",""trial"",""time""
""fullscreenenter"",""0"",""6488""
","
","null","<p></p>","null","","","","","","","",""
"","image","321","475921","0.0-253.0-0.0","""event"",""trial"",""time""
""fullscreenenter"",""0"",""6488""
","
","
","""event"",""trial"",""time""
""fullscreenenter"",""0"",""6488""
","
","1582.4000000357628","run_exp/static/images/Set 6_rs/012a.jpg","66","","","","","","test","TR","1"
"","show_choice","322","476435","0.0-253.0-1.0","""event"",""trial"",""time""
""fullscreenenter"",""0"",""6488""
","
","
","""event"",""trial"",""time""
""fullscreenenter"",""0"",""6488""
","
","null","run_exp/static/images/Set 6_rs/012a.jpg","null","","","","","","test","TR",""
"","html-keyboard-response","323","476945","0.0-253.0-2.0","""event"",""trial"",""time""
""fullscreenenter"",""0"",""6488""
","
","
","""event"",""trial"",""time""
""fullscreenenter"",""0"",""6488""
","
","null","<p></p>","null","","","","","","","",""
"","image","324","477889","0.0-254.0-0.0","""event"",""trial"",""time""
""fullscreenenter"",""0"",""6488""
","
","
","""event"",""trial"",""time""
""fullscreenenter"",""0"",""6488""
","
","940.8000000119209","run_exp/static/images/Set 6_rs/100a.jpg","78","","","","","","test","TF","2"
"","show_choice","325","478395","0.0-254.0-1.0","""event"",""trial"",""time""
""fullscreenenter"",""0"",""6488""
","
","
","""event"",""trial"",""time""
""fullscreenenter"",""0"",""6488""
","
","null","run_exp/static/images/Set 6_rs/100a.jpg","null","","","","","","test","TF",""
"","html-keyboard-response","326","478905","0.0-254.0-2.0","""event"",""trial"",""time""
""fullscreenenter"",""0"",""6488""
","
","
","""event"",""trial"",""time""
""fullscreenenter"",""0"",""6488""
","
","null","<p></p>","null","","","","","","","",""
"","image","327","480105","0.0-255.0-0.0","""event"",""trial"",""time""
""fullscreenenter"",""0"",""6488""
","
","
","""event"",""trial"",""time""
""fullscreenenter"",""0"",""6488""
","
","1197","run_exp/static/images/Set 6_rs/178a.jpg","86","","","","","","test","TR","3"
"","show_choice","328","480615","0.0-255.0-1.0","""event"",""trial"",""time""
""fullscreenenter"",""0"",""6488""
","
","
","""event"",""trial"",""time""
""fullscreenenter"",""0"",""6488""
","
","null","run_exp/static/images/Set 6_rs/178a.jpg","null","","","","","","test","TR",""
"","html-keyboard-response","329","481126","0.0-255.0-2.0","""event"",""trial"",""time""
""fullscreenenter"",""0"",""6488""
","
","
","""event"",""trial"",""time""
""fullscreenenter"",""0"",""6488""
","
","null","<p></p>","null","","","","","","","",""
"","image","330","482153","0.0-256.0-0.0","""event"",""trial"",""time""
""fullscreenenter"",""0"",""6488""
","
","
","""event"",""trial"",""time""
""fullscreenenter"",""0"",""6488""
","
","1024.1000000238419","run_exp/static/images/Set 6_rs/190a.jpg","78","","","","","","test","TF","3"
"","show_choice","331","482665","0.0-256.0-1.0","""event"",""trial"",""time""
""fullscreenenter"",""0"",""6488""
","
","
","""event"",""trial"",""time""
""fullscreenenter"",""0"",""6488""
","
","null","run_exp/static/images/Set 6_rs/190a.jpg","null","","","","","","test","TF",""
"","html-keyboard-response","332","483185","0.0-256.0-2.0","""event"",""trial"",""time""
""fullscreenenter"",""0"",""6488""
","
","
","""event"",""trial"",""time""
""fullscreenenter"",""0"",""6488""
","
","null","<p></p>","null","","","","","","","",""
"","image","333","485114","0.0-257.0-0.0","""event"",""trial"",""time""
""fullscreenenter"",""0"",""6488""
","
","
","""event"",""trial"",""time""
""fullscreenenter"",""0"",""6488""
","
","1925.800000011921","run_exp/static/images/Set 6_rs/056a.jpg","78","","","","","","test","TF","3"
"","show_choice","334","485635","0.0-257.0-1.0","""event"",""trial"",""time""
""fullscreenenter"",""0"",""6488""
","
","
","""event"",""trial"",""time""
""fullscreenenter"",""0"",""6488""
","
","null","run_exp/static/images/Set 6_rs/056a.jpg","null","","","","","","test","TF",""
"","html-keyboard-response","335","486157","0.0-257.0-2.0","""event"",""trial"",""time""
""fullscreenenter"",""0"",""6488""
","
","
","""event"",""trial"",""time""
""fullscreenenter"",""0"",""6488""
","
","null","<p></p>","null","","","","","","","",""
"","image","336","487625","0.0-258.0-0.0","""event"",""trial"",""time""
""fullscreenenter"",""0"",""6488""
","
","
","""event"",""trial"",""time""
""fullscreenenter"",""0"",""6488""
","
","1462.300000011921","run_exp/static/images/Set 6_rs/008b.jpg","66","","","","","","test","TL","2"
"","show_choice","337","488135","0.0-258.0-1.0","""event"",""trial"",""time""
""fullscreenenter"",""0"",""6488""
","
","
","""event"",""trial"",""time""
""fullscreenenter"",""0"",""6488""
","
","null","run_exp/static/images/Set 6_rs/008b.jpg","null","","","","","","test","TL",""
"","html-keyboard-response","338","488655","0.0-258.0-2.0","""event"",""trial"",""time""
""fullscreenenter"",""0"",""6488""
","
","
","""event"",""trial"",""time""
""fullscreenenter"",""0"",""6488""
","
","null","<p></p>","null","","","","","","","",""
"","image","339","489593","0.0-259.0-0.0","""event"",""trial"",""time""
""fullscreenenter"",""0"",""6488""
","
","
","""event"",""trial"",""time""
""fullscreenenter"",""0"",""6488""
","
","934.5999999642372","run_exp/static/images/Set 6_rs/095b.jpg","86","","","","","","test","TL","5"
"","show_choice","340","490115","0.0-259.0-1.0","""event"",""trial"",""time""
""fullscreenenter"",""0"",""6488""
","
","
","""event"",""trial"",""time""
""fullscreenenter"",""0"",""6488""
","
","null","run_exp/static/images/Set 6_rs/095b.jpg","null","","","","","","test","TL",""
"","html-keyboard-response","341","490635","0.0-259.0-2.0","""event"",""trial"",""time""
""fullscreenenter"",""0"",""6488""
","
","
