"success","trial_type","trial_index","time_elapsed","internal_node_id","interactions","blur_events","focus_events","fullscreenenter_events","fullscreenexit_events","rt","stimulus","key_press","subject_id","participant_id","age","gender","prompt","phase","condition","lure_bin"
"true","fullscreen","0","502534","0.0-0.0","""event"",""trial"",""time""
""blur"",""0"",""1462""
""focus"",""0"",""426256""
""fullscreenenter"",""0"",""501545""
","""event"",""trial"",""time""
""blur"",""0"",""1462""
","""event"",""trial"",""time""
""focus"",""0"",""426256""
","""event"",""trial"",""time""
""fullscreenenter"",""0"",""501545""
","
","","","","","","","","","","",""
"","pavlovia","1","502537","0.0-1.0","""event"",""trial"",""time""
""blur"",""0"",""1462""
""focus"",""0"",""426256""
""fullscreenenter"",""0"",""501545""
","""event"",""trial"",""time""
""blur"",""0"",""1462""
","""event"",""trial"",""time""
""focus"",""0"",""426256""
","""event"",""trial"",""time""
""fullscreenenter"",""0"",""501545""
","
","","","","","","","","","","",""
"","welcome","2","537864","0.0-2.0","""event"",""trial"",""time""
""blur"",""0"",""1462""
""focus"",""0"",""426256""
""fullscreenenter"",""0"",""501545""
","""event"",""trial"",""time""
""blur"",""0"",""1462""
","""event"",""trial"",""time""
""focus"",""0"",""426256""
","""event"",""trial"",""time""
""fullscreenenter"",""0"",""501545""
","
","null","run_exp/static/audio/clip_1_welcome.m4a","null","678","658","16","Male","<div class='center'><p>Welcome to the third part of the study! First, you'll be shown pictures of items one at a time. For each picture, you have to decide if the item is typically found indoors or outdoors.</p><p>If you think it's usually found indoors, then press <b>v</b> key on your keyboard. If you think it's usually found outdoors, then press the <b>n</b> key.There will be reminders on the screen to help you remember which keys to press. </p><p>If you're not sure whether the item is an indoor item or an outdoor item, go ahead and take a guess but try your best not to skip that choice. </p></div>","","",""
"","html-keyboard-response","3","540683","0.0-3.0","""event"",""trial"",""time""
""blur"",""0"",""1462""
""focus"",""0"",""426256""
""fullscreenenter"",""0"",""501545""
","""event"",""trial"",""time""
""blur"",""0"",""1462""
","""event"",""trial"",""time""
""focus"",""0"",""426256""
","""event"",""trial"",""time""
""fullscreenenter"",""0"",""501545""
","
","2815.600000023842","<div class='center'><p>Welcome to the third part of the study! First, you'll be shown pictures of items one at a time. For each picture, you have to decide if the item is typically found indoors or outdoors.</p><p>If you think it's usually found indoors, then press <b>v</b> key on your keyboard. If you think it's usually found outdoors, then press the <b>n</b> key.There will be reminders on the screen to help you remember which keys to press. </p><p>If you're not sure whether the item is an indoor item or an outdoor item, go ahead and take a guess but try your best not to skip that choice. </p><div><p><b>[Press the space bar to continue]</b></p></div>","32","","","","","","","",""
"","image","4","542302","0.0-4.0","""event"",""trial"",""time""
""blur"",""0"",""1462""
""focus"",""0"",""426256""
""fullscreenenter"",""0"",""501545""
","""event"",""trial"",""time""
""blur"",""0"",""1462""
","""event"",""trial"",""time""
""focus"",""0"",""426256""
","""event"",""trial"",""time""
""fullscreenenter"",""0"",""501545""
","
","1615.5999999642372","run_exp/static/images/Set 6_rs/150a.jpg","86","","","","","","learn","SR",""
"","show_choice","5","542691","0.0-5.0","""event"",""trial"",""time""
""blur"",""0"",""1462""
""focus"",""0"",""426256""
""fullscreenenter"",""0"",""501545""
","""event"",""trial"",""time""
""blur"",""0"",""1462""
","""event"",""trial"",""time""
""focus"",""0"",""426256""
","""event"",""trial"",""time""
""fullscreenenter"",""0"",""501545""
","
","null","run_exp/static/images/Set 6_rs/150a.jpg","null","","","","","","learn","SR",""
"","html-keyboard-response","6","543198","0.0-6.0","""event"",""trial"",""time""
""blur"",""0"",""1462""
""focus"",""0"",""426256""
""fullscreenenter"",""0"",""501545""
","""event"",""trial"",""time""
""blur"",""0"",""1462""
","""event"",""trial"",""time""
""focus"",""0"",""426256""
","""event"",""trial"",""time""
""fullscreenenter"",""0"",""501545""
","
","null","<p></p>","null","","","","","","","",""
"","image","7","544276","0.0-7.0","""event"",""trial"",""time""
""blur"",""0"",""1462""
""focus"",""0"",""426256""
""fullscreenenter"",""0"",""501545""
","""event"",""trial"",""time""
""blur"",""0"",""1462""
","""event"",""trial"",""time""
""focus"",""0"",""426256""
","""event"",""trial"",""time""
""fullscreenenter"",""0"",""501545""
","
","1076.199999988079","run_exp/static/images/Set 6_rs/073a.jpg","86","","","","","","learn","SL",""
"","show_choice","8","545211","0.0-8.0","""event"",""trial"",""time""
""blur"",""0"",""1462""
""focus"",""0"",""426256""
""fullscreenenter"",""0"",""501545""
","""event"",""trial"",""time""
""blur"",""0"",""1462""
","""event"",""trial"",""time""
""focus"",""0"",""426256""
","""event"",""trial"",""time""
""fullscreenenter"",""0"",""501545""
","
","null","run_exp/static/images/Set 6_rs/073a.jpg","null","","","","","","learn","SL",""
"","html-keyboard-response","9","545724","0.0-9.0","""event"",""trial"",""time""
""blur"",""0"",""1462""
""focus"",""0"",""426256""
""fullscreenenter"",""0"",""501545""
","""event"",""trial"",""time""
""blur"",""0"",""1462""
","""event"",""trial"",""time""
""focus"",""0"",""426256""
","""event"",""trial"",""time""
""fullscreenenter"",""0"",""501545""
","
","null","<p></p>","null","","","","","","","",""
"","image","10","546465","0.0-10.0","""event"",""trial"",""time""
""blur"",""0"",""1462""
""focus"",""0"",""426256""
""fullscreenenter"",""0"",""501545""
","""event"",""trial"",""time""
""blur"",""0"",""1462""
","""event"",""trial"",""time""
""focus"",""0"",""426256""
","""event"",""trial"",""time""
""fullscreenenter"",""0"",""501545""
","
","738.8999999761581","run_exp/static/images/Set 6_rs/154a.jpg","86","","","","","","learn","SR",""
"","show_choice","11","547735","0.0-11.0","""event"",""trial"",""time""
""blur"",""0"",""1462""
""focus"",""0"",""426256""
""fullscreenenter"",""0"",""501545""
","""event"",""trial"",""time""
""blur"",""0"",""1462""
","""event"",""trial"",""time""
""focus"",""0"",""426256""
","""event"",""trial"",""time""
""fullscreenenter"",""0"",""501545""
","
","null","run_exp/static/images/Set 6_rs/154a.jpg","null","","","","","","learn","SR",""
"","html-keyboard-response","12","548248","0.0-12.0","""event"",""trial"",""time""
""blur"",""0"",""1462""
""focus"",""0"",""426256""
""fullscreenenter"",""0"",""501545""
","""event"",""trial"",""time""
""blur"",""0"",""1462""
","""event"",""trial"",""time""
""focus"",""0"",""426256""
","""event"",""trial"",""time""
""fullscreenenter"",""0"",""501545""
","
","null","<p></p>","null","","","","","","","",""
"","image","13","549481","0.0-13.0","""event"",""trial"",""time""
""blur"",""0"",""1462""
""focus"",""0"",""426256""
""fullscreenenter"",""0"",""501545""
","""event"",""trial"",""time""
""blur"",""0"",""1462""
","""event"",""trial"",""time""
""focus"",""0"",""426256""
","""event"",""trial"",""time""
""fullscreenenter"",""0"",""501545""
","
","1230.699999988079","run_exp/static/images/Set 6_rs/167a.jpg","86","","","","","","learn","SL",""
"","show_choice","14","550257","0.0-14.0","""event"",""trial"",""time""
""blur"",""0"",""1462""
""focus"",""0"",""426256""
""fullscreenenter"",""0"",""501545""
","""event"",""trial"",""time""
""blur"",""0"",""1462""
","""event"",""trial"",""time""
""focus"",""0"",""426256""
","""event"",""trial"",""time""
""fullscreenenter"",""0"",""501545""
","
","null","run_exp/static/images/Set 6_rs/167a.jpg","null","","","","","","learn","SL",""
"","html-keyboard-response","15","550765","0.0-15.0","""event"",""trial"",""time""
""blur"",""0"",""1462""
""focus"",""0"",""426256""
""fullscreenenter"",""0"",""501545""
","""event"",""trial"",""time""
""blur"",""0"",""1462""
","""event"",""trial"",""time""
""focus"",""0"",""426256""
","""event"",""trial"",""time""
""fullscreenenter"",""0"",""501545""
","
","null","<p></p>","null","","","","","","","",""
"","image","16","551775","0.0-16.0","""event"",""trial"",""time""
""blur"",""0"",""1462""
""focus"",""0"",""426256""
""fullscreenenter"",""0"",""501545""
","""event"",""trial"",""time""
""blur"",""0"",""1462""
","""event"",""trial"",""time""
""focus"",""0"",""426256""
","""event"",""trial"",""time""
""fullscreenenter"",""0"",""501545""
","
","1008.5","run_exp/static/images/Set 6_rs/138a.jpg","78","","","","","","learn","SL",""
"","show_choice","17","552784","0.0-17.0","""event"",""trial"",""time""
""blur"",""0"",""1462""
""focus"",""0"",""426256""
""fullscreenenter"",""0"",""501545""
","""event"",""trial"",""time""
""blur"",""0"",""1462""
","""event"",""trial"",""time""
""focus"",""0"",""426256""
","""event"",""trial"",""time""
""fullscreenenter"",""0"",""501545""
","
","null","run_exp/static/images/Set 6_rs/138a.jpg","null","","","","","","learn","SL",""
"","html-keyboard-response","18","553298","0.0-18.0","""event"",""trial"",""time""
""blur"",""0"",""1462""
""focus"",""0"",""426256""
""fullscreenenter"",""0"",""501545""
","""event"",""trial"",""time""
""blur"",""0"",""1462""
","""event"",""trial"",""time""
""focus"",""0"",""426256""
","""event"",""trial"",""time""
""fullscreenenter"",""0"",""501545""
","
","null","<p></p>","null","","","","","","","",""
"","image","19","554194","0.0-19.0","""event"",""trial"",""time""
""blur"",""0"",""1462""
""focus"",""0"",""426256""
""fullscreenenter"",""0"",""501545""
","""event"",""trial"",""time""
""blur"",""0"",""1462""
","""event"",""trial"",""time""
""focus"",""0"",""426256""
","""event"",""trial"",""time""
""fullscreenenter"",""0"",""501545""
","
","894.3999999761581","run_exp/static/images/Set 6_rs/057a.jpg","86","","","","","","learn","SL",""
"","show_choice","20","555304","0.0-20.0","""event"",""trial"",""time""
""blur"",""0"",""1462""
""focus"",""0"",""426256""
""fullscreenenter"",""0"",""501545""
","""event"",""trial"",""time""
""blur"",""0"",""1462""
","""event"",""trial"",""time""
""focus"",""0"",""426256""
","""event"",""trial"",""time""
""fullscreenenter"",""0"",""501545""
","
","null","run_exp/static/images/Set 6_rs/057a.jpg","null","","","","","","learn","SL",""
"","html-keyboard-response","21","555819","0.0-21.0","""event"",""trial"",""time""
""blur"",""0"",""1462""
""focus"",""0"",""426256""
""fullscreenenter"",""0"",""501545""
","""event"",""trial"",""time""
""blur"",""0"",""1462""
","""event"",""trial"",""time""
""focus"",""0"",""426256""
","""event"",""trial"",""time""
""fullscreenenter"",""0"",""501545""
","
","null","<p></p>","null","","","","","","","",""
"","image","22","556877","0.0-22.0","""event"",""trial"",""time""
""blur"",""0"",""1462""
""focus"",""0"",""426256""
""fullscreenenter"",""0"",""501545""
","""event"",""trial"",""time""
""blur"",""0"",""1462""
","""event"",""trial"",""time""
""focus"",""0"",""426256""
","""event"",""trial"",""time""
""fullscreenenter"",""0"",""501545""
","
","1055.6000000238419","run_exp/static/images/Set 6_rs/177a.jpg","78","","","","","","learn","SR",""
"","show_choice","23","557828","0.0-23.0","""event"",""trial"",""time""
""blur"",""0"",""1462""
""focus"",""0"",""426256""
""fullscreenenter"",""0"",""501545""
","""event"",""trial"",""time""
""blur"",""0"",""1462""
","""event"",""trial"",""time""
""focus"",""0"",""426256""
","""event"",""trial"",""time""
""fullscreenenter"",""0"",""501545""
","
","null","run_exp/static/images/Set 6_rs/177a.jpg","null","","","","","","learn","SR",""
"","html-keyboard-response","24","558341","0.0-24.0","""event"",""trial"",""time""
""blur"",""0"",""1462""
""focus"",""0"",""426256""
""fullscreenenter"",""0"",""501545""
","""event"",""trial"",""time""
""blur"",""0"",""1462""
","""event"",""trial"",""time""
""focus"",""0"",""426256""
","""event"",""trial"",""time""
""fullscreenenter"",""0"",""501545""
","
","null","<p></p>","null","","","","","","","",""
"","image","25","559073","0.0-25.0","""event"",""trial"",""time""
""blur"",""0"",""1462""
""focus"",""0"",""426256""
""fullscreenenter"",""0"",""501545""
","""event"",""trial"",""time""
""blur"",""0"",""1462""
","""event"",""trial"",""time""
""focus"",""0"",""426256""
","""event"",""trial"",""time""
""fullscreenenter"",""0"",""501545""
","
","730.2999999523163","run_exp/static/images/Set 6_rs/166a.jpg","86","","","","","","learn","SR",""
"","show_choice","26","560350","0.0-26.0","""event"",""trial"",""time""
""blur"",""0"",""1462""
""focus"",""0"",""426256""
""fullscreenenter"",""0"",""501545""
","""event"",""trial"",""time""
""blur"",""0"",""1462""
","""event"",""trial"",""time""
""focus"",""0"",""426256""
","""event"",""trial"",""time""
""fullscreenenter"",""0"",""501545""
","
","null","run_exp/static/images/Set 6_rs/166a.jpg","null","","","","","","learn","SR",""
"","html-keyboard-response","27","560852","0.0-27.0","""event"",""trial"",""time""
""blur"",""0"",""1462""
""focus"",""0"",""426256""
""fullscreenenter"",""0"",""501545""
","""event"",""trial"",""time""
""blur"",""0"",""1462""
","""event"",""trial"",""time""
""focus"",""0"",""426256""
","""event"",""trial"",""time""
""fullscreenenter"",""0"",""501545""
","
","null","<p></p>","null","","","","","","","",""
"","image","28","561785","0.0-28.0","""event"",""trial"",""time""
""blur"",""0"",""1462""
""focus"",""0"",""426256""
""fullscreenenter"",""0"",""501545""
","""event"",""trial"",""time""
""blur"",""0"",""1462""
","""event"",""trial"",""time""
""focus"",""0"",""426256""
","""event"",""trial"",""time""
""fullscreenenter"",""0"",""501545""
","
","932","run_exp/static/images/Set 6_rs/085a.jpg","86","","","","","","learn","SL",""
"","show_choice","29","562861","0.0-29.0","""event"",""trial"",""time""
""blur"",""0"",""1462""
""focus"",""0"",""426256""
""fullscreenenter"",""0"",""501545""
","""event"",""trial"",""time""
""blur"",""0"",""1462""
","""event"",""trial"",""time""
""focus"",""0"",""426256""
","""event"",""trial"",""time""
""fullscreenenter"",""0"",""501545""
","
","null","run_exp/static/images/Set 6_rs/085a.jpg","null","","","","","","learn","SL",""
"","html-keyboard-response","30","563376","0.0-30.0","""event"",""trial"",""time""
""blur"",""0"",""1462""
""focus"",""0"",""426256""
""fullscreenenter"",""0"",""501545""
","""event"",""trial"",""time""
""blur"",""0"",""1462""
","""event"",""trial"",""time""
""focus"",""0"",""426256""
","""event"",""trial"",""time""
""fullscreenenter"",""0"",""501545""
","
","null","<p></p>","null","","","","","","","",""
"","image","31","564197","0.0-31.0","""event"",""trial"",""time""
""blur"",""0"",""1462""
""focus"",""0"",""426256""
""fullscreenenter"",""0"",""501545""
","""event"",""trial"",""time""
""blur"",""0"",""1462""
","""event"",""trial"",""time""
""focus"",""0"",""426256""
","""event"",""trial"",""time""
""fullscreenenter"",""0"",""501545""
","
","819.5999999642372","run_exp/static/images/Set 6_rs/095a.jpg","86","","","","","","learn","SL",""
"","show_choice","32","565379","0.0-32.0","""event"",""trial"",""time""
""blur"",""0"",""1462""
""focus"",""0"",""426256""
""fullscreenenter"",""0"",""501545""
","""event"",""trial"",""time""
""blur"",""0"",""1462""
","""event"",""trial"",""time""
""focus"",""0"",""426256""
","""event"",""trial"",""time""
""fullscreenenter"",""0"",""501545""
","
","null","run_exp/static/images/Set 6_rs/095a.jpg","null","","","","","","learn","SL",""
"","html-keyboard-response","33","565896","0.0-33.0","""event"",""trial"",""time""
""blur"",""0"",""1462""
""focus"",""0"",""426256""
""fullscreenenter"",""0"",""501545""
","""event"",""trial"",""time""
""blur"",""0"",""1462""
","""event"",""trial"",""time""
""focus"",""0"",""426256""
","""event"",""trial"",""time""
""fullscreenenter"",""0"",""501545""
","
","null","<p></p>","null","","","","","","","",""
"","image","34","566508","0.0-34.0","""event"",""trial"",""time""
""blur"",""0"",""1462""
""focus"",""0"",""426256""
""fullscreenenter"",""0"",""501545""
","""event"",""trial"",""time""
""blur"",""0"",""1462""
","""event"",""trial"",""time""
""focus"",""0"",""426256""
","""event"",""trial"",""time""
""fullscreenenter"",""0"",""501545""
","
","610.3999999761581","run_exp/static/images/Set 6_rs/132a.jpg","86","","","","","","learn","SR",""
"","show_choice","35","567910","0.0-35.0","""event"",""trial"",""time""
""blur"",""0"",""1462""
""focus"",""0"",""426256""
""fullscreenenter"",""0"",""501545""
","""event"",""trial"",""time""
""blur"",""0"",""1462""
","""event"",""trial"",""time""
""focus"",""0"",""426256""
","""event"",""trial"",""time""
""fullscreenenter"",""0"",""501545""
","
","null","run_exp/static/images/Set 6_rs/132a.jpg","null","","","","","","learn","SR",""
"","html-keyboard-response","36","568421","0.0-36.0","""event"",""trial"",""time""
""blur"",""0"",""1462""
""focus"",""0"",""426256""
""fullscreenenter"",""0"",""501545""
","""event"",""trial"",""time""
""blur"",""0"",""1462""
","""event"",""trial"",""time""
""focus"",""0"",""426256""
","""event"",""trial"",""time""
""fullscreenenter"",""0"",""501545""
","
","null","<p></p>","null","","","","","","","",""
"","image","37","569123","0.0-37.0","""event"",""trial"",""time""
""blur"",""0"",""1462""
""focus"",""0"",""426256""
""fullscreenenter"",""0"",""501545""
","""event"",""trial"",""time""
""blur"",""0"",""1462""
","""event"",""trial"",""time""
""focus"",""0"",""426256""
","""event"",""trial"",""time""
""fullscreenenter"",""0"",""501545""
","
","700.5999999642372","run_exp/static/images/Set 6_rs/036a.jpg","86","","","","","","learn","SL",""
"","show_choice","38","570425","0.0-38.0","""event"",""trial"",""time""
""blur"",""0"",""1462""
""focus"",""0"",""426256""
""fullscreenenter"",""0"",""501545""
","""event"",""trial"",""time""
""blur"",""0"",""1462""
","""event"",""trial"",""time""
""focus"",""0"",""426256""
","""event"",""trial"",""time""
""fullscreenenter"",""0"",""501545""
","
","null","run_exp/static/images/Set 6_rs/036a.jpg","null","","","","","","learn","SL",""
"","html-keyboard-response","39","570941","0.0-39.0","""event"",""trial"",""time""
""blur"",""0"",""1462""
""focus"",""0"",""426256""
""fullscreenenter"",""0"",""501545""
","""event"",""trial"",""time""
""blur"",""0"",""1462""
","""event"",""trial"",""time""
""focus"",""0"",""426256""
","""event"",""trial"",""time""
""fullscreenenter"",""0"",""501545""
","
","null","<p></p>","null","","","","","","","",""
"","image","40","571633","0.0-40.0","""event"",""trial"",""time""
""blur"",""0"",""1462""
""focus"",""0"",""426256""
""fullscreenenter"",""0"",""501545""
","""event"",""trial"",""time""
""blur"",""0"",""1462""
","""event"",""trial"",""time""
""focus"",""0"",""426256""
","""event"",""trial"",""time""
""fullscreenenter"",""0"",""501545""
","
","690.1000000238419","run_exp/static/images/Set 6_rs/050a.jpg","86","","","","","","learn","SL",""
"","show_choice","41","572944","0.0-41.0","""event"",""trial"",""time""
""blur"",""0"",""1462""
""focus"",""0"",""426256""
""fullscreenenter"",""0"",""501545""
","""event"",""trial"",""time""
""blur"",""0"",""1462""
","""event"",""trial"",""time""
""focus"",""0"",""426256""
","""event"",""trial"",""time""
""fullscreenenter"",""0"",""501545""
","
","null","run_exp/static/images/Set 6_rs/050a.jpg","null","","","","","","learn","SL",""
"","html-keyboard-response","42","573460","0.0-42.0","""event"",""trial"",""time""
""blur"",""0"",""1462""
""focus"",""0"",""426256""
""fullscreenenter"",""0"",""501545""
","""event"",""trial"",""time""
""blur"",""0"",""1462""
","""event"",""trial"",""time""
""focus"",""0"",""426256""
","""event"",""trial"",""time""
""fullscreenenter"",""0"",""501545""
","
","null","<p></p>","null","","","","","","","",""
"","image","43","574151","0.0-43.0","""event"",""trial"",""time""
""blur"",""0"",""1462""
""focus"",""0"",""426256""
""fullscreenenter"",""0"",""501545""
","""event"",""trial"",""time""
""blur"",""0"",""1462""
","""event"",""trial"",""time""
""focus"",""0"",""426256""
","""event"",""trial"",""time""
""fullscreenenter"",""0"",""501545""
","
","689.1999999880791","run_exp/static/images/Set 6_rs/169a.jpg","78","","","","","","learn","SR",""
"","show_choice","44","575467","0.0-44.0","""event"",""trial"",""time""
""blur"",""0"",""1462""
""focus"",""0"",""426256""
""fullscreenenter"",""0"",""501545""
","""event"",""trial"",""time""
""blur"",""0"",""1462""
","""event"",""trial"",""time""
""focus"",""0"",""426256""
","""event"",""trial"",""time""
""fullscreenenter"",""0"",""501545""
","
","null","run_exp/static/images/Set 6_rs/169a.jpg","null","","","","","","learn","SR",""
"","html-keyboard-response","45","575981","0.0-45.0","""event"",""trial"",""time""
""blur"",""0"",""1462""
""focus"",""0"",""426256""
""fullscreenenter"",""0"",""501545""
","""event"",""trial"",""time""
""blur"",""0"",""1462""
","""event"",""trial"",""time""
""focus"",""0"",""426256""
","""event"",""trial"",""time""
""fullscreenenter"",""0"",""501545""
","
","null","<p></p>","null","","","","","","","",""
"","image","46","576714","0.0-46.0","""event"",""trial"",""time""
""blur"",""0"",""1462""
""focus"",""0"",""426256""
""fullscreenenter"",""0"",""501545""
","""event"",""trial"",""time""
""blur"",""0"",""1462""
","""event"",""trial"",""time""
""focus"",""0"",""426256""
","""event"",""trial"",""time""
""fullscreenenter"",""0"",""501545""
","
","731.7999999523163","run_exp/static/images/Set 6_rs/172a.jpg","78","","","","","","learn","SR",""
"","show_choice","47","577987","0.0-47.0","""event"",""trial"",""time""
""blur"",""0"",""1462""
""focus"",""0"",""426256""
""fullscreenenter"",""0"",""501545""
","""event"",""trial"",""time""
""blur"",""0"",""1462""
","""event"",""trial"",""time""
""focus"",""0"",""426256""
","""event"",""trial"",""time""
""fullscreenenter"",""0"",""501545""
","
","null","run_exp/static/images/Set 6_rs/172a.jpg","null","","","","","","learn","SR",""
"","html-keyboard-response","48","578498","0.0-48.0","""event"",""trial"",""time""
""blur"",""0"",""1462""
""focus"",""0"",""426256""
""fullscreenenter"",""0"",""501545""
","""event"",""trial"",""time""
""blur"",""0"",""1462""
","""event"",""trial"",""time""
""focus"",""0"",""426256""
","""event"",""trial"",""time""
""fullscreenenter"",""0"",""501545""
","
","null","<p></p>","null","","","","","","","",""
"","image","49","579823","0.0-49.0","""event"",""trial"",""time""
""blur"",""0"",""1462""
""focus"",""0"",""426256""
""fullscreenenter"",""0"",""501545""
","""event"",""trial"",""time""
""blur"",""0"",""1462""
","""event"",""trial"",""time""
""focus"",""0"",""426256""
","""event"",""trial"",""time""
""fullscreenenter"",""0"",""501545""
","
","1322.5","run_exp/static/images/Set 6_rs/075a.jpg","78","","","","","","learn","SR",""
"","show_choice","50","580509","0.0-50.0","""event"",""trial"",""time""
""blur"",""0"",""1462""
""focus"",""0"",""426256""
""fullscreenenter"",""0"",""501545""
","""event"",""trial"",""time""
""blur"",""0"",""1462""
","""event"",""trial"",""time""
""focus"",""0"",""426256""
","""event"",""trial"",""time""
""fullscreenenter"",""0"",""501545""
","
","null","run_exp/static/images/Set 6_rs/075a.jpg","null","","","","","","learn","SR",""
"","html-keyboard-response","51","581023","0.0-51.0","""event"",""trial"",""time""
""blur"",""0"",""1462""
""focus"",""0"",""426256""
""fullscreenenter"",""0"",""501545""
","""event"",""trial"",""time""
""blur"",""0"",""1462""
","""event"",""trial"",""time""
""focus"",""0"",""426256""
","""event"",""trial"",""time""
""fullscreenenter"",""0"",""501545""
","
","null","<p></p>","null","","","","","","","",""
"","image","52","581754","0.0-52.0","""event"",""trial"",""time""
""blur"",""0"",""1462""
""focus"",""0"",""426256""
""fullscreenenter"",""0"",""501545""
","""event"",""trial"",""time""
""blur"",""0"",""1462""
","""event"",""trial"",""time""
""focus"",""0"",""426256""
","""event"",""trial"",""time""
""fullscreenenter"",""0"",""501545""
","
","728.8000000119209","run_exp/static/images/Set 6_rs/025a.jpg","78","","","","","","learn","SL",""
"","show_choice","53","583034","0.0-53.0","""event"",""trial"",""time""
""blur"",""0"",""1462""
""focus"",""0"",""426256""
""fullscreenenter"",""0"",""501545""
","""event"",""trial"",""time""
""blur"",""0"",""1462""
","""event"",""trial"",""time""
""focus"",""0"",""426256""
","""event"",""trial"",""time""
""fullscreenenter"",""0"",""501545""
","
","null","run_exp/static/images/Set 6_rs/025a.jpg","null","","","","","","learn","SL",""
"","html-keyboard-response","54","583550","0.0-54.0","""event"",""trial"",""time""
""blur"",""0"",""1462""
""focus"",""0"",""426256""
""fullscreenenter"",""0"",""501545""
","""event"",""trial"",""time""
""blur"",""0"",""1462""
","""event"",""trial"",""time""
""focus"",""0"",""426256""
","""event"",""trial"",""time""
""fullscreenenter"",""0"",""501545""
","
","null","<p></p>","null","","","","","","","",""
"","image","55","584498","0.0-55.0","""event"",""trial"",""time""
""blur"",""0"",""1462""
""focus"",""0"",""426256""
""fullscreenenter"",""0"",""501545""
","""event"",""trial"",""time""
""blur"",""0"",""1462""
","""event"",""trial"",""time""
""focus"",""0"",""426256""
","""event"",""trial"",""time""
""fullscreenenter"",""0"",""501545""
","
","946.3999999761581","run_exp/static/images/Set 6_rs/012a.jpg","86","","","","","","learn","SR",""
"","show_choice","56","585559","0.0-56.0","""event"",""trial"",""time""
""blur"",""0"",""1462""
""focus"",""0"",""426256""
""fullscreenenter"",""0"",""501545""
","""event"",""trial"",""time""
""blur"",""0"",""1462""
","""event"",""trial"",""time""
""focus"",""0"",""426256""
","""event"",""trial"",""time""
""fullscreenenter"",""0"",""501545""
","
","null","run_exp/static/images/Set 6_rs/012a.jpg","null","","","","","","learn","SR",""
"","html-keyboard-response","57","586070","0.0-57.0","""event"",""trial"",""time""
""blur"",""0"",""1462""
""focus"",""0"",""426256""
""fullscreenenter"",""0"",""501545""
","""event"",""trial"",""time""
""blur"",""0"",""1462""
","""event"",""trial"",""time""
""focus"",""0"",""426256""
","""event"",""trial"",""time""
""fullscreenenter"",""0"",""501545""
","
","null","<p></p>","null","","","","","","","",""
"","image","58","587272","0.0-58.0","""event"",""trial"",""time""
""blur"",""0"",""1462""
""focus"",""0"",""426256""
""fullscreenenter"",""0"",""501545""
","""event"",""trial"",""time""
""blur"",""0"",""1462""
","""event"",""trial"",""time""
""focus"",""0"",""426256""
","""event"",""trial"",""time""
""fullscreenenter"",""0"",""501545""
","
","1200.1000000238419","run_exp/static/images/Set 6_rs/186a.jpg","86","","","","","","learn","SR",""
"","show_choice","59","588073","0.0-59.0","""event"",""trial"",""time""
""blur"",""0"",""1462""
""focus"",""0"",""426256""
""fullscreenenter"",""0"",""501545""
","""event"",""trial"",""time""
""blur"",""0"",""1462""
","""event"",""trial"",""time""
""focus"",""0"",""426256""
","""event"",""trial"",""time""
""fullscreenenter"",""0"",""501545""
","
","null","run_exp/static/images/Set 6_rs/186a.jpg","null","","","","","","learn","SR",""
"","html-keyboard-response","60","588590","0.0-60.0","""event"",""trial"",""time""
""blur"",""0"",""1462""
""focus"",""0"",""426256""
""fullscreenenter"",""0"",""501545""
","""event"",""trial"",""time""
""blur"",""0"",""1462""
","""event"",""trial"",""time""
""focus"",""0"",""426256""
","""event"",""trial"",""time""
""fullscreenenter"",""0"",""501545""
","
","null","<p></p>","null","","","","","","","",""
"","image","61","589532","0.0-61.0","""event"",""trial"",""time""
""blur"",""0"",""1462""
""focus"",""0"",""426256""
""fullscreenenter"",""0"",""501545""
","""event"",""trial"",""time""
""blur"",""0"",""1462""
","""event"",""trial"",""time""
""focus"",""0"",""426256""
","""event"",""trial"",""time""
""fullscreenenter"",""0"",""501545""
","
","940.6000000238419","run_exp/static/images/Set 6_rs/064a.jpg","78","","","","","","learn","SR",""
"","show_choice","62","590600","0.0-62.0","""event"",""trial"",""time""
""blur"",""0"",""1462""
""focus"",""0"",""426256""
""fullscreenenter"",""0"",""501545""
","""event"",""trial"",""time""
""blur"",""0"",""1462""
","""event"",""trial"",""time""
""focus"",""0"",""426256""
","""event"",""trial"",""time""
""fullscreenenter"",""0"",""501545""
","
","null","run_exp/static/images/Set 6_rs/064a.jpg","null","","","","","","learn","SR",""
"","html-keyboard-response","63","591113","0.0-63.0","""event"",""trial"",""time""
""blur"",""0"",""1462""
""focus"",""0"",""426256""
""fullscreenenter"",""0"",""501545""
","""event"",""trial"",""time""
""blur"",""0"",""1462""
","""event"",""trial"",""time""
""focus"",""0"",""426256""
","""event"",""trial"",""time""
""fullscreenenter"",""0"",""501545""
","
","null","<p></p>","null","","","","","","","",""
"","image","64","591939","0.0-64.0","""event"",""trial"",""time""
""blur"",""0"",""1462""
""focus"",""0"",""426256""
""fullscreenenter"",""0"",""501545""
","""event"",""trial"",""time""
""blur"",""0"",""1462""
","""event"",""trial"",""time""
""focus"",""0"",""426256""
","""event"",""trial"",""time""
""fullscreenenter"",""0"",""501545""
","
","824.6999999880791","run_exp/static/images/Set 6_rs/010a.jpg","86","","","","","","learn","SR",""
"","show_choice","65","593123","0.0-65.0","""event"",""trial"",""time""
""blur"",""0"",""1462""
""focus"",""0"",""426256""
""fullscreenenter"",""0"",""501545""
","""event"",""trial"",""time""
""blur"",""0"",""1462""
","""event"",""trial"",""time""
""focus"",""0"",""426256""
","""event"",""trial"",""time""
""fullscreenenter"",""0"",""501545""
","
","null","run_exp/static/images/Set 6_rs/010a.jpg","null","","","","","","learn","SR",""
"","html-keyboard-response","66","593636","0.0-66.0","""event"",""trial"",""time""
""blur"",""0"",""1462""
""focus"",""0"",""426256""
""fullscreenenter"",""0"",""501545""
","""event"",""trial"",""time""
""blur"",""0"",""1462""
","""event"",""trial"",""time""
""focus"",""0"",""426256""
","""event"",""trial"",""time""
""fullscreenenter"",""0"",""501545""
","
","null","<p></p>","null","","","","","","","",""
"","image","67","594758","0.0-67.0","""event"",""trial"",""time""
""blur"",""0"",""1462""
""focus"",""0"",""426256""
""fullscreenenter"",""0"",""501545""
","""event"",""trial"",""time""
""blur"",""0"",""1462""
","""event"",""trial"",""time""
""focus"",""0"",""426256""
","""event"",""trial"",""time""
""fullscreenenter"",""0"",""501545""
","
","1120.300000011921","run_exp/static/images/Set 6_rs/131a.jpg","86","","","","","","learn","SR",""
"","show_choice","68","595644","0.0-68.0","""event"",""trial"",""time""
""blur"",""0"",""1462""
""focus"",""0"",""426256""
""fullscreenenter"",""0"",""501545""
","""event"",""trial"",""time""
""blur"",""0"",""1462""
","""event"",""trial"",""time""
""focus"",""0"",""426256""
","""event"",""trial"",""time""
""fullscreenenter"",""0"",""501545""
","
","null","run_exp/static/images/Set 6_rs/131a.jpg","null","","","","","","learn","SR",""
"","html-keyboard-response","69","596159","0.0-69.0","""event"",""trial"",""time""
""blur"",""0"",""1462""
""focus"",""0"",""426256""
""fullscreenenter"",""0"",""501545""
","""event"",""trial"",""time""
""blur"",""0"",""1462""
","""event"",""trial"",""time""
""focus"",""0"",""426256""
","""event"",""trial"",""time""
""fullscreenenter"",""0"",""501545""
","
","null","<p></p>","null","","","","","","","",""
"","image","70","596916","0.0-70.0","""event"",""trial"",""time""
""blur"",""0"",""1462""
""focus"",""0"",""426256""
""fullscreenenter"",""0"",""501545""
","""event"",""trial"",""time""
""blur"",""0"",""1462""
","""event"",""trial"",""time""
""focus"",""0"",""426256""
","""event"",""trial"",""time""
""fullscreenenter"",""0"",""501545""
","
","754.8999999761581","run_exp/static/images/Set 6_rs/061a.jpg","78","","","","","","learn","SR",""
"","show_choice","71","598167","0.0-71.0","""event"",""trial"",""time""
""blur"",""0"",""1462""
""focus"",""0"",""426256""
""fullscreenenter"",""0"",""501545""
","""event"",""trial"",""time""
""blur"",""0"",""1462""
","""event"",""trial"",""time""
""focus"",""0"",""426256""
","""event"",""trial"",""time""
""fullscreenenter"",""0"",""501545""
","
","null","run_exp/static/images/Set 6_rs/061a.jpg","null","","","","","","learn","SR",""
"","html-keyboard-response","72","598682","0.0-72.0","""event"",""trial"",""time""
""blur"",""0"",""1462""
""focus"",""0"",""426256""
""fullscreenenter"",""0"",""501545""
","""event"",""trial"",""time""
""blur"",""0"",""1462""
","""event"",""trial"",""time""
""focus"",""0"",""426256""
","""event"",""trial"",""time""
""fullscreenenter"",""0"",""501545""
","
","null","<p></p>","null","","","","","","","",""
"","image","73","599463","0.0-73.0","""event"",""trial"",""time""
""blur"",""0"",""1462""
""focus"",""0"",""426256""
""fullscreenenter"",""0"",""501545""
","""event"",""trial"",""time""
""blur"",""0"",""1462""
","""event"",""trial"",""time""
""focus"",""0"",""426256""
","""event"",""trial"",""time""
""fullscreenenter"",""0"",""501545""
","
","780.3000000119209","run_exp/static/images/Set 6_rs/187a.jpg","86","","","","","","learn","SR",""
"","show_choice","74","600693","0.0-74.0","""event"",""trial"",""time""
""blur"",""0"",""1462""
""focus"",""0"",""426256""
""fullscreenenter"",""0"",""501545""
","""event"",""trial"",""time""
""blur"",""0"",""1462""
","""event"",""trial"",""time""
""focus"",""0"",""426256""
","""event"",""trial"",""time""
""fullscreenenter"",""0"",""501545""
","
","null","run_exp/static/images/Set 6_rs/187a.jpg","null","","","","","","learn","SR",""
"","html-keyboard-response","75","601207","0.0-75.0","""event"",""trial"",""time""
""blur"",""0"",""1462""
""focus"",""0"",""426256""
""fullscreenenter"",""0"",""501545""
","""event"",""trial"",""time""
""blur"",""0"",""1462""
","""event"",""trial"",""time""
""focus"",""0"",""426256""
","""event"",""trial"",""time""
""fullscreenenter"",""0"",""501545""
","
","null","<p></p>","null","","","","","","","",""
"","image","76","602467","0.0-76.0","""event"",""trial"",""time""
""blur"",""0"",""1462""
""focus"",""0"",""426256""
""fullscreenenter"",""0"",""501545""
","""event"",""trial"",""time""
""blur"",""0"",""1462""
","""event"",""trial"",""time""
""focus"",""0"",""426256""
","""event"",""trial"",""time""
""fullscreenenter"",""0"",""501545""
","
","1258.199999988079","run_exp/static/images/Set 6_rs/074a.jpg","78","","","","","","learn","SL",""
"","show_choice","77","603210","0.0-77.0","""event"",""trial"",""time""
""blur"",""0"",""1462""
""focus"",""0"",""426256""
""fullscreenenter"",""0"",""501545""
","""event"",""trial"",""time""
""blur"",""0"",""1462""
","""event"",""trial"",""time""
""focus"",""0"",""426256""
","""event"",""trial"",""time""
""fullscreenenter"",""0"",""501545""
","
","null","run_exp/static/images/Set 6_rs/074a.jpg","null","","","","","","learn","SL",""
"","html-keyboard-response","78","603725","0.0-78.0","""event"",""trial"",""time""
""blur"",""0"",""1462""
""focus"",""0"",""426256""
""fullscreenenter"",""0"",""501545""
","""event"",""trial"",""time""
""blur"",""0"",""1462""
","""event"",""trial"",""time""
""focus"",""0"",""426256""
","""event"",""trial"",""time""
""fullscreenenter"",""0"",""501545""
","
","null","<p></p>","null","","","","","","","",""
"","image","79","605407","0.0-79.0","""event"",""trial"",""time""
""blur"",""0"",""1462""
""focus"",""0"",""426256""
""fullscreenenter"",""0"",""501545""
","""event"",""trial"",""time""
""blur"",""0"",""1462""
","""event"",""trial"",""time""
""focus"",""0"",""426256""
","""event"",""trial"",""time""
""fullscreenenter"",""0"",""501545""
","
","1681.3999999761581","run_exp/static/images/Set 6_rs/121a.jpg","86","","","","","","learn","SR",""
"","show_choice","80","605734","0.0-80.0","""event"",""trial"",""time""
""blur"",""0"",""1462""
""focus"",""0"",""426256""
""fullscreenenter"",""0"",""501545""
","""event"",""trial"",""time""
""blur"",""0"",""1462""
","""event"",""trial"",""time""
""focus"",""0"",""426256""
","""event"",""trial"",""time""
""fullscreenenter"",""0"",""501545""
","
","null","run_exp/static/images/Set 6_rs/121a.jpg","null","","","","","","learn","SR",""
"","html-keyboard-response","81","606248","0.0-81.0","""event"",""trial"",""time""
""blur"",""0"",""1462""
""focus"",""0"",""426256""
""fullscreenenter"",""0"",""501545""
","""event"",""trial"",""time""
""blur"",""0"",""1462""
","""event"",""trial"",""time""
""focus"",""0"",""426256""
","""event"",""trial"",""time""
""fullscreenenter"",""0"",""501545""
","
","null","<p></p>","null","","","","","","","",""
"","image","82","607392","0.0-82.0","""event"",""trial"",""time""
""blur"",""0"",""1462""
""focus"",""0"",""426256""
""fullscreenenter"",""0"",""501545""
","""event"",""trial"",""time""
""blur"",""0"",""1462""
","""event"",""trial"",""time""
""focus"",""0"",""426256""
","""event"",""trial"",""time""
""fullscreenenter"",""0"",""501545""
","
","1142.3999999761581","run_exp/static/images/Set 6_rs/008a.jpg","86","","","","","","learn","SL",""
"","show_choice","83","608257","0.0-83.0","""event"",""trial"",""time""
""blur"",""0"",""1462""
""focus"",""0"",""426256""
""fullscreenenter"",""0"",""501545""
","""event"",""trial"",""time""
""blur"",""0"",""1462""
","""event"",""trial"",""time""
""focus"",""0"",""426256""
","""event"",""trial"",""time""
""fullscreenenter"",""0"",""501545""
","
","null","run_exp/static/images/Set 6_rs/008a.jpg","null","","","","","","learn","SL",""
"","html-keyboard-response","84","608770","0.0-84.0","""event"",""trial"",""time""
""blur"",""0"",""1462""
""focus"",""0"",""426256""
""fullscreenenter"",""0"",""501545""
","""event"",""trial"",""time""
""blur"",""0"",""1462""
","""event"",""trial"",""time""
""focus"",""0"",""426256""
","""event"",""trial"",""time""
""fullscreenenter"",""0"",""501545""
","
","null","<p></p>","null","","","","","","","",""
"","image","85","609807","0.0-85.0","""event"",""trial"",""time""
""blur"",""0"",""1462""
""focus"",""0"",""426256""
""fullscreenenter"",""0"",""501545""
","""event"",""trial"",""time""
""blur"",""0"",""1462""
","""event"",""trial"",""time""
""focus"",""0"",""426256""
","""event"",""trial"",""time""
""fullscreenenter"",""0"",""501545""
","
","1035.5999999642372","run_exp/static/images/Set 6_rs/006a.jpg","86","","","","","","learn","SL",""
"","show_choice","86","610775","0.0-86.0","""event"",""trial"",""time""
""blur"",""0"",""1462""
""focus"",""0"",""426256""
""fullscreenenter"",""0"",""501545""
","""event"",""trial"",""time""
""blur"",""0"",""1462""
","""event"",""trial"",""time""
""focus"",""0"",""426256""
","""event"",""trial"",""time""
""fullscreenenter"",""0"",""501545""
","
","null","run_exp/static/images/Set 6_rs/006a.jpg","null","","","","","","learn","SL",""
"","html-keyboard-response","87","611290","0.0-87.0","""event"",""trial"",""time""
""blur"",""0"",""1462""
""focus"",""0"",""426256""
""fullscreenenter"",""0"",""501545""
","""event"",""trial"",""time""
""blur"",""0"",""1462""
","""event"",""trial"",""time""
""focus"",""0"",""426256""
","""event"",""trial"",""time""
""fullscreenenter"",""0"",""501545""
","
","null","<p></p>","null","","","","","","","",""
"","image","88","612745","0.0-88.0","""event"",""trial"",""time""
""blur"",""0"",""1462""
""focus"",""0"",""426256""
""fullscreenenter"",""0"",""501545""
","""event"",""trial"",""time""
""blur"",""0"",""1462""
","""event"",""trial"",""time""
""focus"",""0"",""426256""
","""event"",""trial"",""time""
""fullscreenenter"",""0"",""501545""
","
","1453.3999999761581","run_exp/static/images/Set 6_rs/089a.jpg","86","","","","","","learn","SL",""
"","show_choice","89","613295","0.0-89.0","""event"",""trial"",""time""
""blur"",""0"",""1462""
""focus"",""0"",""426256""
""fullscreenenter"",""0"",""501545""
","""event"",""trial"",""time""
""blur"",""0"",""1462""
","""event"",""trial"",""time""
""focus"",""0"",""426256""
","""event"",""trial"",""time""
""fullscreenenter"",""0"",""501545""
","
","null","run_exp/static/images/Set 6_rs/089a.jpg","null","","","","","","learn","SL",""
"","html-keyboard-response","90","613810","0.0-90.0","""event"",""trial"",""time""
""blur"",""0"",""1462""
""focus"",""0"",""426256""
""fullscreenenter"",""0"",""501545""
","""event"",""trial"",""time""
""blur"",""0"",""1462""
","""event"",""trial"",""time""
""focus"",""0"",""426256""
","""event"",""trial"",""time""
""fullscreenenter"",""0"",""501545""
","
","null","<p></p>","null","","","","","","","",""
"","image","91","615110","0.0-91.0","""event"",""trial"",""time""
""blur"",""0"",""1462""
""focus"",""0"",""426256""
""fullscreenenter"",""0"",""501545""
","""event"",""trial"",""time""
""blur"",""0"",""1462""
","""event"",""trial"",""time""
""focus"",""0"",""426256""
","""event"",""trial"",""time""
""fullscreenenter"",""0"",""501545""
","
","1298.699999988079","run_exp/static/images/Set 6_rs/108a.jpg","78","","","","","","learn","SR",""
"","show_choice","92","615819","0.0-92.0","""event"",""trial"",""time""
""blur"",""0"",""1462""
""focus"",""0"",""426256""
""fullscreenenter"",""0"",""501545""
","""event"",""trial"",""time""
""blur"",""0"",""1462""
","""event"",""trial"",""time""
""focus"",""0"",""426256""
","""event"",""trial"",""time""
""fullscreenenter"",""0"",""501545""
","
","null","run_exp/static/images/Set 6_rs/108a.jpg","null","","","","","","learn","SR",""
"","html-keyboard-response","93","616332","0.0-93.0","""event"",""trial"",""time""
""blur"",""0"",""1462""
""focus"",""0"",""426256""
""fullscreenenter"",""0"",""501545""
","""event"",""trial"",""time""
""blur"",""0"",""1462""
","""event"",""trial"",""time""
""focus"",""0"",""426256""
","""event"",""trial"",""time""
""fullscreenenter"",""0"",""501545""
","
","null","<p></p>","null","","","","","","","",""
"","image","94","617145","0.0-94.0","""event"",""trial"",""time""
""blur"",""0"",""1462""
""focus"",""0"",""426256""
""fullscreenenter"",""0"",""501545""
","""event"",""trial"",""time""
""blur"",""0"",""1462""
","""event"",""trial"",""time""
""focus"",""0"",""426256""
","""event"",""trial"",""time""
""fullscreenenter"",""0"",""501545""
","
","810.6000000238419","run_exp/static/images/Set 6_rs/063a.jpg","86","","","","","","learn","SR",""
"","show_choice","95","618342","0.0-95.0","""event"",""trial"",""time""
""blur"",""0"",""1462""
""focus"",""0"",""426256""
""fullscreenenter"",""0"",""501545""
","""event"",""trial"",""time""
""blur"",""0"",""1462""
","""event"",""trial"",""time""
""focus"",""0"",""426256""
","""event"",""trial"",""time""
""fullscreenenter"",""0"",""501545""
","
","null","run_exp/static/images/Set 6_rs/063a.jpg","null","","","","","","learn","SR",""
"","html-keyboard-response","96","618857","0.0-96.0","""event"",""trial"",""time""
""blur"",""0"",""1462""
""focus"",""0"",""426256""
""fullscreenenter"",""0"",""501545""
","""event"",""trial"",""time""
""blur"",""0"",""1462""
","""event"",""trial"",""time""
""focus"",""0"",""426256""
","""event"",""trial"",""time""
""fullscreenenter"",""0"",""501545""
","
","null","<p></p>","null","","","","","","","",""
"","image","97","619667","0.0-97.0","""event"",""trial"",""time""
""blur"",""0"",""1462""
""focus"",""0"",""426256""
""fullscreenenter"",""0"",""501545""
","""event"",""trial"",""time""
""blur"",""0"",""1462""
","""event"",""trial"",""time""
""focus"",""0"",""426256""
","""event"",""trial"",""time""
""fullscreenenter"",""0"",""501545""
","
","808.8000000119209","run_exp/static/images/Set 6_rs/076a.jpg","78","","","","","","learn","SR",""
"","show_choice","98","620862","0.0-98.0","""event"",""trial"",""time""
""blur"",""0"",""1462""
""focus"",""0"",""426256""
""fullscreenenter"",""0"",""501545""
","""event"",""trial"",""time""
""blur"",""0"",""1462""
","""event"",""trial"",""time""
""focus"",""0"",""426256""
","""event"",""trial"",""time""
""fullscreenenter"",""0"",""501545""
","
","null","run_exp/static/images/Set 6_rs/076a.jpg","null","","","","","","learn","SR",""
"","html-keyboard-response","99","621374","0.0-99.0","""event"",""trial"",""time""
""blur"",""0"",""1462""
""focus"",""0"",""426256""
""fullscreenenter"",""0"",""501545""
","""event"",""trial"",""time""
""blur"",""0"",""1462""
","""event"",""trial"",""time""
""focus"",""0"",""426256""
","""event"",""trial"",""time""
""fullscreenenter"",""0"",""501545""
","
","null","<p></p>","null","","","","","","","",""
"","image","100","623204","0.0-100.0","""event"",""trial"",""time""
""blur"",""0"",""1462""
""focus"",""0"",""426256""
""fullscreenenter"",""0"",""501545""
","""event"",""trial"",""time""
""blur"",""0"",""1462""
","""event"",""trial"",""time""
""focus"",""0"",""426256""
","""event"",""trial"",""time""
""fullscreenenter"",""0"",""501545""
","
","1828.6000000238419","run_exp/static/images/Set 6_rs/117a.jpg","86","","","","","","learn","SL",""
"","show_choice","101","623380","0.0-101.0","""event"",""trial"",""time""
""blur"",""0"",""1462""
""focus"",""0"",""426256""
""fullscreenenter"",""0"",""501545""
","""event"",""trial"",""time""
""blur"",""0"",""1462""
","""event"",""trial"",""time""
""focus"",""0"",""426256""
","""event"",""trial"",""time""
""fullscreenenter"",""0"",""501545""
","
","null","run_exp/static/images/Set 6_rs/117a.jpg","null","","","","","","learn","SL",""
"","html-keyboard-response","102","623889","0.0-102.0","""event"",""trial"",""time""
""blur"",""0"",""1462""
""focus"",""0"",""426256""
""fullscreenenter"",""0"",""501545""
","""event"",""trial"",""time""
""blur"",""0"",""1462""
","""event"",""trial"",""time""
""focus"",""0"",""426256""
","""event"",""trial"",""time""
""fullscreenenter"",""0"",""501545""
","
","null","<p></p>","null","","","","","","","",""
"","image","103","625039","0.0-103.0","""event"",""trial"",""time""
""blur"",""0"",""1462""
""focus"",""0"",""426256""
""fullscreenenter"",""0"",""501545""
","""event"",""trial"",""time""
""blur"",""0"",""1462""
","""event"",""trial"",""time""
""focus"",""0"",""426256""
","""event"",""trial"",""time""
""fullscreenenter"",""0"",""501545""
","
","1148.5999999642372","run_exp/static/images/Set 6_rs/045a.jpg","86","","","","","","learn","SR",""
"","show_choice","104","625898","0.0-104.0","""event"",""trial"",""time""
""blur"",""0"",""1462""
""focus"",""0"",""426256""
""fullscreenenter"",""0"",""501545""
","""event"",""trial"",""time""
""blur"",""0"",""1462""
","""event"",""trial"",""time""
""focus"",""0"",""426256""
","""event"",""trial"",""time""
""fullscreenenter"",""0"",""501545""
","
","null","run_exp/static/images/Set 6_rs/045a.jpg","null","","","","","","learn","SR",""
"","html-keyboard-response","105","626414","0.0-105.0","""event"",""trial"",""time""
""blur"",""0"",""1462""
""focus"",""0"",""426256""
""fullscreenenter"",""0"",""501545""
","""event"",""trial"",""time""
""blur"",""0"",""1462""
","""event"",""trial"",""time""
""focus"",""0"",""426256""
","""event"",""trial"",""time""
""fullscreenenter"",""0"",""501545""
","
","null","<p></p>","null","","","","","","","",""
"","image","106","627511","0.0-106.0","""event"",""trial"",""time""
""blur"",""0"",""1462""
""focus"",""0"",""426256""
""fullscreenenter"",""0"",""501545""
","""event"",""trial"",""time""
""blur"",""0"",""1462""
","""event"",""trial"",""time""
""focus"",""0"",""426256""
","""event"",""trial"",""time""
""fullscreenenter"",""0"",""501545""
","
","1095.199999988079","run_exp/static/images/Set 6_rs/168a.jpg","78","","","","","","learn","SL",""
"","show_choice","107","628422","0.0-107.0","""event"",""trial"",""time""
""blur"",""0"",""1462""
""focus"",""0"",""426256""
""fullscreenenter"",""0"",""501545""
","""event"",""trial"",""time""
""blur"",""0"",""1462""
","""event"",""trial"",""time""
""focus"",""0"",""426256""
","""event"",""trial"",""time""
""fullscreenenter"",""0"",""501545""
","
","null","run_exp/static/images/Set 6_rs/168a.jpg","null","","","","","","learn","SL",""
"","html-keyboard-response","108","628938","0.0-108.0","""event"",""trial"",""time""
""blur"",""0"",""1462""
""focus"",""0"",""426256""
""fullscreenenter"",""0"",""501545""
","""event"",""trial"",""time""
""blur"",""0"",""1462""
","""event"",""trial"",""time""
""focus"",""0"",""426256""
","""event"",""trial"",""time""
""fullscreenenter"",""0"",""501545""
","
","null","<p></p>","null","","","","","","","",""
"","image","109","630285","0.0-109.0","""event"",""trial"",""time""
""blur"",""0"",""1462""
""focus"",""0"",""426256""
""fullscreenenter"",""0"",""501545""
","""event"",""trial"",""time""
""blur"",""0"",""1462""
","""event"",""trial"",""time""
""focus"",""0"",""426256""
","""event"",""trial"",""time""
""fullscreenenter"",""0"",""501545""
","
","1345.800000011921","run_exp/static/images/Set 6_rs/014a.jpg","86","","","","","","learn","SL",""
"","show_choice","110","630945","0.0-110.0","""event"",""trial"",""time""
""blur"",""0"",""1462""
""focus"",""0"",""426256""
""fullscreenenter"",""0"",""501545""
","""event"",""trial"",""time""
""blur"",""0"",""1462""
","""event"",""trial"",""time""
""focus"",""0"",""426256""
","""event"",""trial"",""time""
""fullscreenenter"",""0"",""501545""
","
","null","run_exp/static/images/Set 6_rs/014a.jpg","null","","","","","","learn","SL",""
"","html-keyboard-response","111","631460","0.0-111.0","""event"",""trial"",""time""
""blur"",""0"",""1462""
""focus"",""0"",""426256""
""fullscreenenter"",""0"",""501545""
","""event"",""trial"",""time""
""blur"",""0"",""1462""
","""event"",""trial"",""time""
""focus"",""0"",""426256""
","""event"",""trial"",""time""
""fullscreenenter"",""0"",""501545""
","
","null","<p></p>","null","","","","","","","",""
"","image","112","633277","0.0-112.0","""event"",""trial"",""time""
""blur"",""0"",""1462""
""focus"",""0"",""426256""
""fullscreenenter"",""0"",""501545""
","""event"",""trial"",""time""
""blur"",""0"",""1462""
","""event"",""trial"",""time""
""focus"",""0"",""426256""
","""event"",""trial"",""time""
""fullscreenenter"",""0"",""501545""
","
","1814.5","run_exp/static/images/Set 6_rs/017a.jpg","86","","","","","","learn","SL",""
"","show_choice","113","633466","0.0-113.0","""event"",""trial"",""time""
""blur"",""0"",""1462""
""focus"",""0"",""426256""
""fullscreenenter"",""0"",""501545""
","""event"",""trial"",""time""
""blur"",""0"",""1462""
","""event"",""trial"",""time""
""focus"",""0"",""426256""
","""event"",""trial"",""time""
""fullscreenenter"",""0"",""501545""
","
","null","run_exp/static/images/Set 6_rs/017a.jpg","null","","","","","","learn","SL",""
"","html-keyboard-response","114","633979","0.0-114.0","""event"",""trial"",""time""
""blur"",""0"",""1462""
""focus"",""0"",""426256""
""fullscreenenter"",""0"",""501545""
","""event"",""trial"",""time""
""blur"",""0"",""1462""
","""event"",""trial"",""time""
""focus"",""0"",""426256""
","""event"",""trial"",""time""
""fullscreenenter"",""0"",""501545""
","
","null","<p></p>","null","","","","","","","",""
"","image","115","635995","0.0-115.0","""event"",""trial"",""time""
""blur"",""0"",""1462""
""focus"",""0"",""426256""
""fullscreenenter"",""0"",""501545""
","""event"",""trial"",""time""
""blur"",""0"",""1462""
","""event"",""trial"",""time""
""focus"",""0"",""426256""
","""event"",""trial"",""time""
""fullscreenenter"",""0"",""501545""
","
","null","run_exp/static/images/Set 6_rs/055a.jpg","null","","","","","","learn","SL",""
"","show_choice","116","638002","0.0-116.0","""event"",""trial"",""time""
""blur"",""0"",""1462""
""focus"",""0"",""426256""
""fullscreenenter"",""0"",""501545""
","""event"",""trial"",""time""
""blur"",""0"",""1462""
","""event"",""trial"",""time""
""focus"",""0"",""426256""
","""event"",""trial"",""time""
""fullscreenenter"",""0"",""501545""
","
","null","run_exp/static/images/blank.png","null","","","","","","learn","SL",""
"","html-keyboard-response","117","638517","0.0-117.0","""event"",""trial"",""time""
""blur"",""0"",""1462""
""focus"",""0"",""426256""
""fullscreenenter"",""0"",""501545""
","""event"",""trial"",""time""
""blur"",""0"",""1462""
","""event"",""trial"",""time""
""focus"",""0"",""426256""
","""event"",""trial"",""time""
""fullscreenenter"",""0"",""501545""
","
","null","<p></p>","null","","","","","","","",""
"","image","118","639430","0.0-118.0","""event"",""trial"",""time""
""blur"",""0"",""1462""
""focus"",""0"",""426256""
""fullscreenenter"",""0"",""501545""
","""event"",""trial"",""time""
""blur"",""0"",""1462""
","""event"",""trial"",""time""
""focus"",""0"",""426256""
","""event"",""trial"",""time""
""fullscreenenter"",""0"",""501545""
","
","911.5","run_exp/static/images/Set 6_rs/023a.jpg","86","","","","","","learn","SR",""
"","show_choice","119","640526","0.0-119.0","""event"",""trial"",""time""
""blur"",""0"",""1462""
""focus"",""0"",""426256""
""fullscreenenter"",""0"",""501545""
","""event"",""trial"",""time""
""blur"",""0"",""1462""
","""event"",""trial"",""time""
""focus"",""0"",""426256""
","""event"",""trial"",""time""
""fullscreenenter"",""0"",""501545""
","
","null","run_exp/static/images/Set 6_rs/023a.jpg","null","","","","","","learn","SR",""
"","html-keyboard-response","120","641040","0.0-120.0","""event"",""trial"",""time""
""blur"",""0"",""1462""
""focus"",""0"",""426256""
""fullscreenenter"",""0"",""501545""
","""event"",""trial"",""time""
""blur"",""0"",""1462""
","""event"",""trial"",""time""
""focus"",""0"",""426256""
","""event"",""trial"",""time""
""fullscreenenter"",""0"",""501545""
","
","null","<p></p>","null","","","","","","","",""
"","image","121","642146","0.0-121.0","""event"",""trial"",""time""
""blur"",""0"",""1462""
""focus"",""0"",""426256""
""fullscreenenter"",""0"",""501545""
","""event"",""trial"",""time""
""blur"",""0"",""1462""
","""event"",""trial"",""time""
""focus"",""0"",""426256""
","""event"",""trial"",""time""
""fullscreenenter"",""0"",""501545""
","
","1104.6000000238419","run_exp/static/images/Set 6_rs/066a.jpg","86","","","","","","learn","SL",""
"","show_choice","122","643044","0.0-122.0","""event"",""trial"",""time""
""blur"",""0"",""1462""
""focus"",""0"",""426256""
""fullscreenenter"",""0"",""501545""
","""event"",""trial"",""time""
""blur"",""0"",""1462""
","""event"",""trial"",""time""
""focus"",""0"",""426256""
","""event"",""trial"",""time""
""fullscreenenter"",""0"",""501545""
","
","null","run_exp/static/images/Set 6_rs/066a.jpg","null","","","","","","learn","SL",""
"","html-keyboard-response","123","643557","0.0-123.0","""event"",""trial"",""time""
""blur"",""0"",""1462""
""focus"",""0"",""426256""
""fullscreenenter"",""0"",""501545""
","""event"",""trial"",""time""
""blur"",""0"",""1462""
","""event"",""trial"",""time""
""focus"",""0"",""426256""
","""event"",""trial"",""time""
""fullscreenenter"",""0"",""501545""
","
","null","<p></p>","null","","","","","","","",""
"","image","124","644273","0.0-124.0","""event"",""trial"",""time""
""blur"",""0"",""1462""
""focus"",""0"",""426256""
""fullscreenenter"",""0"",""501545""
","""event"",""trial"",""time""
""blur"",""0"",""1462""
","""event"",""trial"",""time""
""focus"",""0"",""426256""
","""event"",""trial"",""time""
""fullscreenenter"",""0"",""501545""
","
","713.6999999880791","run_exp/static/images/Set 6_rs/123a.jpg","78","","","","","","learn","SL",""
"","show_choice","125","645562","0.0-125.0","""event"",""trial"",""time""
""blur"",""0"",""1462""
""focus"",""0"",""426256""
""fullscreenenter"",""0"",""501545""
","""event"",""trial"",""time""
""blur"",""0"",""1462""
","""event"",""trial"",""time""
""focus"",""0"",""426256""
","""event"",""trial"",""time""
""fullscreenenter"",""0"",""501545""
","
","null","run_exp/static/images/Set 6_rs/123a.jpg","null","","","","","","learn","SL",""
"","html-keyboard-response","126","646075","0.0-126.0","""event"",""trial"",""time""
""blur"",""0"",""1462""
""focus"",""0"",""426256""
""fullscreenenter"",""0"",""501545""
","""event"",""trial"",""time""
""blur"",""0"",""1462""
","""event"",""trial"",""time""
""focus"",""0"",""426256""
","""event"",""trial"",""time""
""fullscreenenter"",""0"",""501545""
","
","null","<p></p>","null","","","","","","","",""
"","image","127","646934","0.0-127.0","""event"",""trial"",""time""
""blur"",""0"",""1462""
""focus"",""0"",""426256""
""fullscreenenter"",""0"",""501545""
","""event"",""trial"",""time""
""blur"",""0"",""1462""
","""event"",""trial"",""time""
""focus"",""0"",""426256""
","""event"",""trial"",""time""
""fullscreenenter"",""0"",""501545""
","
","857.3999999761581","run_exp/static/images/Set 6_rs/070a.jpg","86","","","","","","learn","SR",""
"","show_choice","128","648088","0.0-128.0","""event"",""trial"",""time""
""blur"",""0"",""1462""
""focus"",""0"",""426256""
""fullscreenenter"",""0"",""501545""
","""event"",""trial"",""time""
""blur"",""0"",""1462""
","""event"",""trial"",""time""
""focus"",""0"",""426256""
","""event"",""trial"",""time""
""fullscreenenter"",""0"",""501545""
","
","null","run_exp/static/images/Set 6_rs/070a.jpg","null","","","","","","learn","SR",""
"","html-keyboard-response","129","648603","0.0-129.0","""event"",""trial"",""time""
""blur"",""0"",""1462""
""focus"",""0"",""426256""
""fullscreenenter"",""0"",""501545""
","""event"",""trial"",""time""
""blur"",""0"",""1462""
","""event"",""trial"",""time""
""focus"",""0"",""426256""
","""event"",""trial"",""time""
""fullscreenenter"",""0"",""501545""
","
","null","<p></p>","null","","","","","","","",""
"","image","130","650447","0.0-130.0","""event"",""trial"",""time""
""blur"",""0"",""1462""
""focus"",""0"",""426256""
""fullscreenenter"",""0"",""501545""
","""event"",""trial"",""time""
""blur"",""0"",""1462""
","""event"",""trial"",""time""
""focus"",""0"",""426256""
","""event"",""trial"",""time""
""fullscreenenter"",""0"",""501545""
","
","1842.7000000476837","run_exp/static/images/Set 6_rs/091a.jpg","78","","","","","","learn","SL",""
"","show_choice","131","650609","0.0-131.0","""event"",""trial"",""time""
""blur"",""0"",""1462""
""focus"",""0"",""426256""
""fullscreenenter"",""0"",""501545""
","""event"",""trial"",""time""
""blur"",""0"",""1462""
","""event"",""trial"",""time""
""focus"",""0"",""426256""
","""event"",""trial"",""time""
""fullscreenenter"",""0"",""501545""
","
","null","run_exp/static/images/Set 6_rs/091a.jpg","null","","","","","","learn","SL",""
"","html-keyboard-response","132","651121","0.0-132.0","""event"",""trial"",""time""
""blur"",""0"",""1462""
""focus"",""0"",""426256""
""fullscreenenter"",""0"",""501545""
","""event"",""trial"",""time""
""blur"",""0"",""1462""
","""event"",""trial"",""time""
""focus"",""0"",""426256""
","""event"",""trial"",""time""
""fullscreenenter"",""0"",""501545""
","
","null","<p></p>","null","","","","","","","",""
"","image","133","652030","0.0-133.0","""event"",""trial"",""time""
""blur"",""0"",""1462""
""focus"",""0"",""426256""
""fullscreenenter"",""0"",""501545""
","""event"",""trial"",""time""
""blur"",""0"",""1462""
","""event"",""trial"",""time""
""focus"",""0"",""426256""
","""event"",""trial"",""time""
""fullscreenenter"",""0"",""501545""
","
","907.5","run_exp/static/images/Set 6_rs/144a.jpg","86","","","","","","learn","SL",""
"","show_choice","134","653139","0.0-134.0","""event"",""trial"",""time""
""blur"",""0"",""1462""
""focus"",""0"",""426256""
""fullscreenenter"",""0"",""501545""
","""event"",""trial"",""time""
""blur"",""0"",""1462""
","""event"",""trial"",""time""
""focus"",""0"",""426256""
","""event"",""trial"",""time""
""fullscreenenter"",""0"",""501545""
","
","null","run_exp/static/images/Set 6_rs/144a.jpg","null","","","","","","learn","SL",""
"","html-keyboard-response","135","653652","0.0-135.0","""event"",""trial"",""time""
""blur"",""0"",""1462""
""focus"",""0"",""426256""
""fullscreenenter"",""0"",""501545""
","""event"",""trial"",""time""
""blur"",""0"",""1462""
","""event"",""trial"",""time""
""focus"",""0"",""426256""
","""event"",""trial"",""time""
""fullscreenenter"",""0"",""501545""
","
","null","<p></p>","null","","","","","","","",""
"","image","136","654977","0.0-136.0","""event"",""trial"",""time""
""blur"",""0"",""1462""
""focus"",""0"",""426256""
""fullscreenenter"",""0"",""501545""
","""event"",""trial"",""time""
""blur"",""0"",""1462""
","""event"",""trial"",""time""
""focus"",""0"",""426256""
","""event"",""trial"",""time""
""fullscreenenter"",""0"",""501545""
","
","1323","run_exp/static/images/Set 6_rs/141a.jpg","78","","","","","","learn","SR",""
"","show_choice","137","655661","0.0-137.0","""event"",""trial"",""time""
""blur"",""0"",""1462""
""focus"",""0"",""426256""
""fullscreenenter"",""0"",""501545""
","""event"",""trial"",""time""
""blur"",""0"",""1462""
","""event"",""trial"",""time""
""focus"",""0"",""426256""
","""event"",""trial"",""time""
""fullscreenenter"",""0"",""501545""
","
","null","run_exp/static/images/Set 6_rs/141a.jpg","null","","","","","","learn","SR",""
"","html-keyboard-response","138","656176","0.0-138.0","""event"",""trial"",""time""
""blur"",""0"",""1462""
""focus"",""0"",""426256""
""fullscreenenter"",""0"",""501545""
","""event"",""trial"",""time""
""blur"",""0"",""1462""
","""event"",""trial"",""time""
""focus"",""0"",""426256""
","""event"",""trial"",""time""
""fullscreenenter"",""0"",""501545""
","
","null","<p></p>","null","","","","","","","",""
"","image","139","657018","0.0-139.0","""event"",""trial"",""time""
""blur"",""0"",""1462""
""focus"",""0"",""426256""
""fullscreenenter"",""0"",""501545""
","""event"",""trial"",""time""
""blur"",""0"",""1462""
","""event"",""trial"",""time""
""focus"",""0"",""426256""
","""event"",""trial"",""time""
""fullscreenenter"",""0"",""501545""
","
","840.6999999880791","run_exp/static/images/Set 6_rs/111a.jpg","86","","","","","","learn","SL",""
"","show_choice","140","658180","0.0-140.0","""event"",""trial"",""time""
""blur"",""0"",""1462""
""focus"",""0"",""426256""
""fullscreenenter"",""0"",""501545""
","""event"",""trial"",""time""
""blur"",""0"",""1462""
","""event"",""trial"",""time""
""focus"",""0"",""426256""
","""event"",""trial"",""time""
""fullscreenenter"",""0"",""501545""
","
","null","run_exp/static/images/Set 6_rs/111a.jpg","null","","","","","","learn","SL",""
"","html-keyboard-response","141","658695","0.0-141.0","""event"",""trial"",""time""
""blur"",""0"",""1462""
""focus"",""0"",""426256""
""fullscreenenter"",""0"",""501545""
","""event"",""trial"",""time""
""blur"",""0"",""1462""
","""event"",""trial"",""time""
""focus"",""0"",""426256""
","""event"",""trial"",""time""
""fullscreenenter"",""0"",""501545""
","
","null","<p></p>","null","","","","","","","",""
"","image","142","660239","0.0-142.0","""event"",""trial"",""time""
""blur"",""0"",""1462""
""focus"",""0"",""426256""
""fullscreenenter"",""0"",""501545""
","""event"",""trial"",""time""
""blur"",""0"",""1462""
","""event"",""trial"",""time""
""focus"",""0"",""426256""
","""event"",""trial"",""time""
""fullscreenenter"",""0"",""501545""
","
","1542.5","run_exp/static/images/Set 6_rs/122a.jpg","86","","","","","","learn","SR",""
"","show_choice","143","660704","0.0-143.0","""event"",""trial"",""time""
""blur"",""0"",""1462""
""focus"",""0"",""426256""
""fullscreenenter"",""0"",""501545""
","""event"",""trial"",""time""
""blur"",""0"",""1462""
","""event"",""trial"",""time""
""focus"",""0"",""426256""
","""event"",""trial"",""time""
""fullscreenenter"",""0"",""501545""
","
","null","run_exp/static/images/Set 6_rs/122a.jpg","null","","","","","","learn","SR",""
"","html-keyboard-response","144","661207","0.0-144.0","""event"",""trial"",""time""
""blur"",""0"",""1462""
""focus"",""0"",""426256""
""fullscreenenter"",""0"",""501545""
","""event"",""trial"",""time""
""blur"",""0"",""1462""
","""event"",""trial"",""time""
""focus"",""0"",""426256""
","""event"",""trial"",""time""
""fullscreenenter"",""0"",""501545""
","
","null","<p></p>","null","","","","","","","",""
"","image","145","662148","0.0-145.0","""event"",""trial"",""time""
""blur"",""0"",""1462""
""focus"",""0"",""426256""
""fullscreenenter"",""0"",""501545""
","""event"",""trial"",""time""
""blur"",""0"",""1462""
","""event"",""trial"",""time""
""focus"",""0"",""426256""
","""event"",""trial"",""time""
""fullscreenenter"",""0"",""501545""
","
","939.7000000476837","run_exp/static/images/Set 6_rs/116a.jpg","86","","","","","","learn","SL",""
"","show_choice","146","663215","0.0-146.0","""event"",""trial"",""time""
""blur"",""0"",""1462""
""focus"",""0"",""426256""
""fullscreenenter"",""0"",""501545""
","""event"",""trial"",""time""
""blur"",""0"",""1462""
","""event"",""trial"",""time""
""focus"",""0"",""426256""
","""event"",""trial"",""time""
""fullscreenenter"",""0"",""501545""
","
","null","run_exp/static/images/Set 6_rs/116a.jpg","null","","","","","","learn","SL",""
"","html-keyboard-response","147","663728","0.0-147.0","""event"",""trial"",""time""
""blur"",""0"",""1462""
""focus"",""0"",""426256""
""fullscreenenter"",""0"",""501545""
","""event"",""trial"",""time""
""blur"",""0"",""1462""
","""event"",""trial"",""time""
""focus"",""0"",""426256""
","""event"",""trial"",""time""
""fullscreenenter"",""0"",""501545""
","
","null","<p></p>","null","","","","","","","",""
"","image","148","664662","0.0-148.0","""event"",""trial"",""time""
""blur"",""0"",""1462""
""focus"",""0"",""426256""
""fullscreenenter"",""0"",""501545""
","""event"",""trial"",""time""
""blur"",""0"",""1462""
","""event"",""trial"",""time""
""focus"",""0"",""426256""
","""event"",""trial"",""time""
""fullscreenenter"",""0"",""501545""
","
","932.0999999642372","run_exp/static/images/Set 6_rs/129a.jpg","86","","","","","","learn","SL",""
"","show_choice","149","665736","0.0-149.0","""event"",""trial"",""time""
""blur"",""0"",""1462""
""focus"",""0"",""426256""
""fullscreenenter"",""0"",""501545""
","""event"",""trial"",""time""
""blur"",""0"",""1462""
","""event"",""trial"",""time""
""focus"",""0"",""426256""
","""event"",""trial"",""time""
""fullscreenenter"",""0"",""501545""
","
","null","run_exp/static/images/Set 6_rs/129a.jpg","null","","","","","","learn","SL",""
"","html-keyboard-response","150","666251","0.0-150.0","""event"",""trial"",""time""
""blur"",""0"",""1462""
""focus"",""0"",""426256""
""fullscreenenter"",""0"",""501545""
","""event"",""trial"",""time""
""blur"",""0"",""1462""
","""event"",""trial"",""time""
""focus"",""0"",""426256""
","""event"",""trial"",""time""
""fullscreenenter"",""0"",""501545""
","
","null","<p></p>","null","","","","","","","",""
"","image","151","667812","0.0-151.0","""event"",""trial"",""time""
""blur"",""0"",""1462""
""focus"",""0"",""426256""
""fullscreenenter"",""0"",""501545""
","""event"",""trial"",""time""
""blur"",""0"",""1462""
","""event"",""trial"",""time""
""focus"",""0"",""426256""
","""event"",""trial"",""time""
""fullscreenenter"",""0"",""501545""
","
","1559.800000011921","run_exp/static/images/Set 6_rs/071a.jpg","78","","","","","","learn","SL",""
"","show_choice","152","668259","0.0-152.0","""event"",""trial"",""time""
""blur"",""0"",""1462""
""focus"",""0"",""426256""
""fullscreenenter"",""0"",""501545""
","""event"",""trial"",""time""
""blur"",""0"",""1462""
","""event"",""trial"",""time""
""focus"",""0"",""426256""
","""event"",""trial"",""time""
""fullscreenenter"",""0"",""501545""
","
","null","run_exp/static/images/Set 6_rs/071a.jpg","null","","","","","","learn","SL",""
"","html-keyboard-response","153","668769","0.0-153.0","""event"",""trial"",""time""
""blur"",""0"",""1462""
""focus"",""0"",""426256""
""fullscreenenter"",""0"",""501545""
","""event"",""trial"",""time""
""blur"",""0"",""1462""
","""event"",""trial"",""time""
""focus"",""0"",""426256""
","""event"",""trial"",""time""
""fullscreenenter"",""0"",""501545""
","
","null","<p></p>","null","","","","","","","",""
"","image","154","670617","0.0-154.0","""event"",""trial"",""time""
""blur"",""0"",""1462""
""focus"",""0"",""426256""
""fullscreenenter"",""0"",""501545""
","""event"",""trial"",""time""
""blur"",""0"",""1462""
","""event"",""trial"",""time""
""focus"",""0"",""426256""
","""event"",""trial"",""time""
""fullscreenenter"",""0"",""501545""
","
","1846","run_exp/static/images/Set 6_rs/019a.jpg","78","","","","","","learn","SL",""
"","show_choice","155","670778","0.0-155.0","""event"",""trial"",""time""
""blur"",""0"",""1462""
""focus"",""0"",""426256""
""fullscreenenter"",""0"",""501545""
","""event"",""trial"",""time""
""blur"",""0"",""1462""
","""event"",""trial"",""time""
""focus"",""0"",""426256""
","""event"",""trial"",""time""
""fullscreenenter"",""0"",""501545""
","
","null","run_exp/static/images/Set 6_rs/019a.jpg","null","","","","","","learn","SL",""
"","html-keyboard-response","156","671290","0.0-156.0","""event"",""trial"",""time""
""blur"",""0"",""1462""
""focus"",""0"",""426256""
""fullscreenenter"",""0"",""501545""
","""event"",""trial"",""time""
""blur"",""0"",""1462""
","""event"",""trial"",""time""
""focus"",""0"",""426256""
","""event"",""trial"",""time""
""fullscreenenter"",""0"",""501545""
","
","null","<p></p>","null","","","","","","","",""
"","image","157","673048","0.0-157.0","""event"",""trial"",""time""
""blur"",""0"",""1462""
""focus"",""0"",""426256""
""fullscreenenter"",""0"",""501545""
","""event"",""trial"",""time""
""blur"",""0"",""1462""
","""event"",""trial"",""time""
""focus"",""0"",""426256""
","""event"",""trial"",""time""
""fullscreenenter"",""0"",""501545""
","
","1756.5","run_exp/static/images/Set 6_rs/024a.jpg","86","","","","","","learn","SR",""
"","show_choice","158","673302","0.0-158.0","""event"",""trial"",""time""
""blur"",""0"",""1462""
""focus"",""0"",""426256""
""fullscreenenter"",""0"",""501545""
","""event"",""trial"",""time""
""blur"",""0"",""1462""
","""event"",""trial"",""time""
""focus"",""0"",""426256""
","""event"",""trial"",""time""
""fullscreenenter"",""0"",""501545""
","
","null","run_exp/static/images/Set 6_rs/024a.jpg","null","","","","","","learn","SR",""
"","html-keyboard-response","159","673814","0.0-159.0","""event"",""trial"",""time""
""blur"",""0"",""1462""
""focus"",""0"",""426256""
""fullscreenenter"",""0"",""501545""
","""event"",""trial"",""time""
""blur"",""0"",""1462""
","""event"",""trial"",""time""
""focus"",""0"",""426256""
","""event"",""trial"",""time""
""fullscreenenter"",""0"",""501545""
","
","null","<p></p>","null","","","","","","","",""
"","image","160","675038","0.0-160.0","""event"",""trial"",""time""
""blur"",""0"",""1462""
""focus"",""0"",""426256""
""fullscreenenter"",""0"",""501545""
","""event"",""trial"",""time""
""blur"",""0"",""1462""
","""event"",""trial"",""time""
""focus"",""0"",""426256""
","""event"",""trial"",""time""
""fullscreenenter"",""0"",""501545""
","
","1222.5","run_exp/static/images/Set 6_rs/062a.jpg","86","","","","","","learn","SL",""
"","show_choice","161","675822","0.0-161.0","""event"",""trial"",""time""
""blur"",""0"",""1462""
""focus"",""0"",""426256""
""fullscreenenter"",""0"",""501545""
","""event"",""trial"",""time""
""blur"",""0"",""1462""
","""event"",""trial"",""time""
""focus"",""0"",""426256""
","""event"",""trial"",""time""
""fullscreenenter"",""0"",""501545""
","
","null","run_exp/static/images/Set 6_rs/062a.jpg","null","","","","","","learn","SL",""
"","html-keyboard-response","162","676334","0.0-162.0","""event"",""trial"",""time""
""blur"",""0"",""1462""
""focus"",""0"",""426256""
""fullscreenenter"",""0"",""501545""
","""event"",""trial"",""time""
""blur"",""0"",""1462""
","""event"",""trial"",""time""
""focus"",""0"",""426256""
","""event"",""trial"",""time""
""fullscreenenter"",""0"",""501545""
","
","null","<p></p>","null","","","","","","","",""
"","image","163","677479","0.0-163.0","""event"",""trial"",""time""
""blur"",""0"",""1462""
""focus"",""0"",""426256""
""fullscreenenter"",""0"",""501545""
","""event"",""trial"",""time""
""blur"",""0"",""1462""
","""event"",""trial"",""time""
""focus"",""0"",""426256""
","""event"",""trial"",""time""
""fullscreenenter"",""0"",""501545""
","
","1144.199999988079","run_exp/static/images/Set 6_rs/088a.jpg","86","","","","","","learn","SR",""
"","show_choice","164","678340","0.0-164.0","""event"",""trial"",""time""
""blur"",""0"",""1462""
""focus"",""0"",""426256""
""fullscreenenter"",""0"",""501545""
","""event"",""trial"",""time""
""blur"",""0"",""1462""
","""event"",""trial"",""time""
""focus"",""0"",""426256""
","""event"",""trial"",""time""
""fullscreenenter"",""0"",""501545""
","
","null","run_exp/static/images/Set 6_rs/088a.jpg","null","","","","","","learn","SR",""
"","html-keyboard-response","165","678853","0.0-165.0","""event"",""trial"",""time""
""blur"",""0"",""1462""
""focus"",""0"",""426256""
""fullscreenenter"",""0"",""501545""
","""event"",""trial"",""time""
""blur"",""0"",""1462""
","""event"",""trial"",""time""
""focus"",""0"",""426256""
","""event"",""trial"",""time""
""fullscreenenter"",""0"",""501545""
","
","null","<p></p>","null","","","","","","","",""
"","image","166","679604","0.0-166.0","""event"",""trial"",""time""
""blur"",""0"",""1462""
""focus"",""0"",""426256""
""fullscreenenter"",""0"",""501545""
","""event"",""trial"",""time""
""blur"",""0"",""1462""
","""event"",""trial"",""time""
""focus"",""0"",""426256""
","""event"",""trial"",""time""
""fullscreenenter"",""0"",""501545""
","
","749.3000000119209","run_exp/static/images/Set 6_rs/016a.jpg","86","","","","","","learn","SL",""
"","show_choice","167","680860","0.0-167.0","""event"",""trial"",""time""
""blur"",""0"",""1462""
""focus"",""0"",""426256""
""fullscreenenter"",""0"",""501545""
","""event"",""trial"",""time""
""blur"",""0"",""1462""
","""event"",""trial"",""time""
""focus"",""0"",""426256""
","""event"",""trial"",""time""
""fullscreenenter"",""0"",""501545""
","
","null","run_exp/static/images/Set 6_rs/016a.jpg","null","","","","","","learn","SL",""
"","html-keyboard-response","168","681374","0.0-168.0","""event"",""trial"",""time""
""blur"",""0"",""1462""
""focus"",""0"",""426256""
""fullscreenenter"",""0"",""501545""
","""event"",""trial"",""time""
""blur"",""0"",""1462""
","""event"",""trial"",""time""
""focus"",""0"",""426256""
","""event"",""trial"",""time""
""fullscreenenter"",""0"",""501545""
","
","null","<p></p>","null","","","","","","","",""
"","image","169","682020","0.0-169.0","""event"",""trial"",""time""
""blur"",""0"",""1462""
""focus"",""0"",""426256""
""fullscreenenter"",""0"",""501545""
","""event"",""trial"",""time""
""blur"",""0"",""1462""
","""event"",""trial"",""time""
""focus"",""0"",""426256""
","""event"",""trial"",""time""
""fullscreenenter"",""0"",""501545""
","
","643.8000000119209","run_exp/static/images/Set 6_rs/112a.jpg","86","","","","","","learn","SR",""
"","show_choice","170","683383","0.0-170.0","""event"",""trial"",""time""
""blur"",""0"",""1462""
""focus"",""0"",""426256""
""fullscreenenter"",""0"",""501545""
","""event"",""trial"",""time""
""blur"",""0"",""1462""
","""event"",""trial"",""time""
""focus"",""0"",""426256""
","""event"",""trial"",""time""
""fullscreenenter"",""0"",""501545""
","
","null","run_exp/static/images/Set 6_rs/112a.jpg","null","","","","","","learn","SR",""
"","html-keyboard-response","171","683894","0.0-171.0","""event"",""trial"",""time""
""blur"",""0"",""1462""
""focus"",""0"",""426256""
""fullscreenenter"",""0"",""501545""
","""event"",""trial"",""time""
""blur"",""0"",""1462""
","""event"",""trial"",""time""
""focus"",""0"",""426256""
","""event"",""trial"",""time""
""fullscreenenter"",""0"",""501545""
","
","null","<p></p>","null","","","","","","","",""
"","image","172","684765","0.0-172.0","""event"",""trial"",""time""
""blur"",""0"",""1462""
""focus"",""0"",""426256""
""fullscreenenter"",""0"",""501545""
","""event"",""trial"",""time""
""blur"",""0"",""1462""
","""event"",""trial"",""time""
""focus"",""0"",""426256""
","""event"",""trial"",""time""
""fullscreenenter"",""0"",""501545""
","
","869.3000000119209","run_exp/static/images/Set 6_rs/191a.jpg","78","","","","","","learn","SL",""
"","show_choice","173","685902","0.0-173.0","""event"",""trial"",""time""
""blur"",""0"",""1462""
""focus"",""0"",""426256""
""fullscreenenter"",""0"",""501545""
","""event"",""trial"",""time""
""blur"",""0"",""1462""
","""event"",""trial"",""time""
""focus"",""0"",""426256""
","""event"",""trial"",""time""
""fullscreenenter"",""0"",""501545""
","
","null","run_exp/static/images/Set 6_rs/191a.jpg","null","","","","","","learn","SL",""
"","html-keyboard-response","174","686415","0.0-174.0","""event"",""trial"",""time""
""blur"",""0"",""1462""
""focus"",""0"",""426256""
""fullscreenenter"",""0"",""501545""
","""event"",""trial"",""time""
""blur"",""0"",""1462""
","""event"",""trial"",""time""
""focus"",""0"",""426256""
","""event"",""trial"",""time""
""fullscreenenter"",""0"",""501545""
","
","null","<p></p>","null","","","","","","","",""
"","image","175","687057","0.0-175.0","""event"",""trial"",""time""
""blur"",""0"",""1462""
""focus"",""0"",""426256""
""fullscreenenter"",""0"",""501545""
","""event"",""trial"",""time""
""blur"",""0"",""1462""
","""event"",""trial"",""time""
""focus"",""0"",""426256""
","""event"",""trial"",""time""
""fullscreenenter"",""0"",""501545""
","
","640","run_exp/static/images/Set 6_rs/007a.jpg","86","","","","","","learn","SR",""
"","show_choice","176","688430","0.0-176.0","""event"",""trial"",""time""
""blur"",""0"",""1462""
""focus"",""0"",""426256""
""fullscreenenter"",""0"",""501545""
","""event"",""trial"",""time""
""blur"",""0"",""1462""
","""event"",""trial"",""time""
""focus"",""0"",""426256""
","""event"",""trial"",""time""
""fullscreenenter"",""0"",""501545""
","
","null","run_exp/static/images/Set 6_rs/007a.jpg","null","","","","","","learn","SR",""
"","html-keyboard-response","177","688946","0.0-177.0","""event"",""trial"",""time""
""blur"",""0"",""1462""
""focus"",""0"",""426256""
""fullscreenenter"",""0"",""501545""
","""event"",""trial"",""time""
""blur"",""0"",""1462""
","""event"",""trial"",""time""
""focus"",""0"",""426256""
","""event"",""trial"",""time""
""fullscreenenter"",""0"",""501545""
","
","null","<p></p>","null","","","","","","","",""
"","image","178","689688","0.0-178.0","""event"",""trial"",""time""
""blur"",""0"",""1462""
""focus"",""0"",""426256""
""fullscreenenter"",""0"",""501545""
","""event"",""trial"",""time""
""blur"",""0"",""1462""
","""event"",""trial"",""time""
""focus"",""0"",""426256""
","""event"",""trial"",""time""
""fullscreenenter"",""0"",""501545""
","
","740.8000000119209","run_exp/static/images/Set 6_rs/126a.jpg","78","","","","","","learn","SR",""
"","show_choice","179","690958","0.0-179.0","""event"",""trial"",""time""
""blur"",""0"",""1462""
""focus"",""0"",""426256""
""fullscreenenter"",""0"",""501545""
","""event"",""trial"",""time""
""blur"",""0"",""1462""
","""event"",""trial"",""time""
""focus"",""0"",""426256""
","""event"",""trial"",""time""
""fullscreenenter"",""0"",""501545""
","
","null","run_exp/static/images/Set 6_rs/126a.jpg","null","","","","","","learn","SR",""
"","html-keyboard-response","180","691474","0.0-180.0","""event"",""trial"",""time""
""blur"",""0"",""1462""
""focus"",""0"",""426256""
""fullscreenenter"",""0"",""501545""
","""event"",""trial"",""time""
""blur"",""0"",""1462""
","""event"",""trial"",""time""
""focus"",""0"",""426256""
","""event"",""trial"",""time""
""fullscreenenter"",""0"",""501545""
","
","null","<p></p>","null","","","","","","","",""
"","image","181","692196","0.0-181.0","""event"",""trial"",""time""
""blur"",""0"",""1462""
""focus"",""0"",""426256""
""fullscreenenter"",""0"",""501545""
","""event"",""trial"",""time""
""blur"",""0"",""1462""
","""event"",""trial"",""time""
""focus"",""0"",""426256""
","""event"",""trial"",""time""
""fullscreenenter"",""0"",""501545""
","
","719.5","run_exp/static/images/Set 6_rs/152a.jpg","78","","","","","","learn","SR",""
"","show_choice","182","693487","0.0-182.0","""event"",""trial"",""time""
""blur"",""0"",""1462""
""focus"",""0"",""426256""
""fullscreenenter"",""0"",""501545""
","""event"",""trial"",""time""
""blur"",""0"",""1462""
","""event"",""trial"",""time""
""focus"",""0"",""426256""
","""event"",""trial"",""time""
""fullscreenenter"",""0"",""501545""
","
","null","run_exp/static/images/Set 6_rs/152a.jpg","null","","","","","","learn","SR",""
"","html-keyboard-response","183","694000","0.0-183.0","""event"",""trial"",""time""
""blur"",""0"",""1462""
""focus"",""0"",""426256""
""fullscreenenter"",""0"",""501545""
","""event"",""trial"",""time""
""blur"",""0"",""1462""
","""event"",""trial"",""time""
""focus"",""0"",""426256""
","""event"",""trial"",""time""
""fullscreenenter"",""0"",""501545""
","
","null","<p></p>","null","","","","","","","",""
"","image","184","694719","0.0-184.0","""event"",""trial"",""time""
""blur"",""0"",""1462""
""focus"",""0"",""426256""
""fullscreenenter"",""0"",""501545""
","""event"",""trial"",""time""
""blur"",""0"",""1462""
","""event"",""trial"",""time""
""focus"",""0"",""426256""
","""event"",""trial"",""time""
""fullscreenenter"",""0"",""501545""
","
","717.6999999880791","run_exp/static/images/Set 6_rs/079a.jpg","86","","","","","","learn","SL",""
"","show_choice","185","696004","0.0-185.0","""event"",""trial"",""time""
""blur"",""0"",""1462""
""focus"",""0"",""426256""
""fullscreenenter"",""0"",""501545""
","""event"",""trial"",""time""
""blur"",""0"",""1462""
","""event"",""trial"",""time""
""focus"",""0"",""426256""
","""event"",""trial"",""time""
""fullscreenenter"",""0"",""501545""
","
","null","run_exp/static/images/Set 6_rs/079a.jpg","null","","","","","","learn","SL",""
"","html-keyboard-response","186","696516","0.0-186.0","""event"",""trial"",""time""
""blur"",""0"",""1462""
""focus"",""0"",""426256""
""fullscreenenter"",""0"",""501545""
","""event"",""trial"",""time""
""blur"",""0"",""1462""
","""event"",""trial"",""time""
""focus"",""0"",""426256""
","""event"",""trial"",""time""
""fullscreenenter"",""0"",""501545""
","
","null","<p></p>","null","","","","","","","",""
"","image","187","697351","0.0-187.0","""event"",""trial"",""time""
""blur"",""0"",""1462""
""focus"",""0"",""426256""
""fullscreenenter"",""0"",""501545""
","""event"",""trial"",""time""
""blur"",""0"",""1462""
","""event"",""trial"",""time""
""focus"",""0"",""426256""
","""event"",""trial"",""time""
""fullscreenenter"",""0"",""501545""
","
","833.6999999880791","run_exp/static/images/Set 6_rs/134a.jpg","86","","","","","","learn","SR",""
"","show_choice","188","698523","0.0-188.0","""event"",""trial"",""time""
""blur"",""0"",""1462""
""focus"",""0"",""426256""
""fullscreenenter"",""0"",""501545""
","""event"",""trial"",""time""
""blur"",""0"",""1462""
","""event"",""trial"",""time""
""focus"",""0"",""426256""
","""event"",""trial"",""time""
""fullscreenenter"",""0"",""501545""
","
","null","run_exp/static/images/Set 6_rs/134a.jpg","null","","","","","","learn","SR",""
"","html-keyboard-response","189","699037","0.0-189.0","""event"",""trial"",""time""
""blur"",""0"",""1462""
""focus"",""0"",""426256""
""fullscreenenter"",""0"",""501545""
","""event"",""trial"",""time""
""blur"",""0"",""1462""
","""event"",""trial"",""time""
""focus"",""0"",""426256""
","""event"",""trial"",""time""
""fullscreenenter"",""0"",""501545""
","
","null","<p></p>","null","","","","","","","",""
"","image","190","699940","0.0-190.0","""event"",""trial"",""time""
""blur"",""0"",""1462""
""focus"",""0"",""426256""
""fullscreenenter"",""0"",""501545""
","""event"",""trial"",""time""
""blur"",""0"",""1462""
","""event"",""trial"",""time""
""focus"",""0"",""426256""
","""event"",""trial"",""time""
""fullscreenenter"",""0"",""501545""
","
","902.3999999761581","run_exp/static/images/Set 6_rs/178a.jpg","78","","","","","","learn","SR",""
"","show_choice","191","701042","0.0-191.0","""event"",""trial"",""time""
""blur"",""0"",""1462""
""focus"",""0"",""426256""
""fullscreenenter"",""0"",""501545""
","""event"",""trial"",""time""
""blur"",""0"",""1462""
","""event"",""trial"",""time""
""focus"",""0"",""426256""
","""event"",""trial"",""time""
""fullscreenenter"",""0"",""501545""
","
","null","run_exp/static/images/Set 6_rs/178a.jpg","null","","","","","","learn","SR",""
"","html-keyboard-response","192","701554","0.0-192.0","""event"",""trial"",""time""
""blur"",""0"",""1462""
""focus"",""0"",""426256""
""fullscreenenter"",""0"",""501545""
","""event"",""trial"",""time""
""blur"",""0"",""1462""
","""event"",""trial"",""time""
""focus"",""0"",""426256""
","""event"",""trial"",""time""
""fullscreenenter"",""0"",""501545""
","
","null","<p></p>","null","","","","","","","",""
"","image","193","702455","0.0-193.0","""event"",""trial"",""time""
""blur"",""0"",""1462""
""focus"",""0"",""426256""
""fullscreenenter"",""0"",""501545""
","""event"",""trial"",""time""
""blur"",""0"",""1462""
","""event"",""trial"",""time""
""focus"",""0"",""426256""
","""event"",""trial"",""time""
""fullscreenenter"",""0"",""501545""
","
","899.3999999761581","run_exp/static/images/Set 6_rs/181a.jpg","78","","","","","","learn","SL",""
"","show_choice","194","703562","0.0-194.0","""event"",""trial"",""time""
""blur"",""0"",""1462""
""focus"",""0"",""426256""
""fullscreenenter"",""0"",""501545""
","""event"",""trial"",""time""
""blur"",""0"",""1462""
","""event"",""trial"",""time""
""focus"",""0"",""426256""
","""event"",""trial"",""time""
""fullscreenenter"",""0"",""501545""
","
","null","run_exp/static/images/Set 6_rs/181a.jpg","null","","","","","","learn","SL",""
"","html-keyboard-response","195","704072","0.0-195.0","""event"",""trial"",""time""
""blur"",""0"",""1462""
""focus"",""0"",""426256""
""fullscreenenter"",""0"",""501545""
","""event"",""trial"",""time""
""blur"",""0"",""1462""
","""event"",""trial"",""time""
""focus"",""0"",""426256""
","""event"",""trial"",""time""
""fullscreenenter"",""0"",""501545""
","
","null","<p></p>","null","","","","","","","",""
"","test_intro","196","741198","0.0-196.0","""event"",""trial"",""time""
""blur"",""0"",""1462""
""focus"",""0"",""426256""
""fullscreenenter"",""0"",""501545""
","""event"",""trial"",""time""
""blur"",""0"",""1462""
","""event"",""trial"",""time""
""focus"",""0"",""426256""
","""event"",""trial"",""time""
""fullscreenenter"",""0"",""501545""
","
","null","run_exp/static/audio/clip_2_memory.m4a","null","","","","","<div class='center'><p>Now, lets see how much you remember about the items you just saw.  For each item, you need to indicate if it was <b>old</b> by pressing the <b>v</b> key, <b>similar</b> by pressing the <b>b</b> key, or <b>new</b> by pressing the <b>n</b> key.</p><p>Old refers to an item that you saw before in the indoor/outdoor game that you just played, new refers to an item you have <b>not</b> seen before within the indoor/outdoor game, and similar refers to an item that is similar to an item youve seen before but is not exactly the same. </p><p>Before we begin, lets go over some brief demonstrations to make sure you understand.</p></div>","","",""
"","html-keyboard-response","197","742167","0.0-197.0","""event"",""trial"",""time""
""blur"",""0"",""1462""
""focus"",""0"",""426256""
""fullscreenenter"",""0"",""501545""
","""event"",""trial"",""time""
""blur"",""0"",""1462""
","""event"",""trial"",""time""
""focus"",""0"",""426256""
","""event"",""trial"",""time""
""fullscreenenter"",""0"",""501545""
","
","966.8000000119209","<div class='center'><p>Now, lets see how much you remember about the items you just saw.  For each item, you need to indicate if it was <b>old</b> by pressing the <b>v</b> key, <b>similar</b> by pressing the <b>b</b> key, or <b>new</b> by pressing the <b>n</b> key.</p><p>Old refers to an item that you saw before in the indoor/outdoor game that you just played, new refers to an item you have <b>not</b> seen before within the indoor/outdoor game, and similar refers to an item that is similar to an item youve seen before but is not exactly the same. </p><p>Before we begin, lets go over some brief demonstrations to make sure you understand.</p><div><p><b>[Press the space bar to continue]</b></p></div>","32","","","","","","","",""
"","items","198","749673","0.0-198.0","""event"",""trial"",""time""
""blur"",""0"",""1462""
""focus"",""0"",""426256""
""fullscreenenter"",""0"",""501545""
","""event"",""trial"",""time""
""blur"",""0"",""1462""
","""event"",""trial"",""time""
""focus"",""0"",""426256""
","""event"",""trial"",""time""
""fullscreenenter"",""0"",""501545""
","
","null","run_exp/static/audio/clip_3_items.m4a","null","","","","","","","",""
"","mop","199","754190","0.0-199.0","""event"",""trial"",""time""
""blur"",""0"",""1462""
""focus"",""0"",""426256""
""fullscreenenter"",""0"",""501545""
","""event"",""trial"",""time""
""blur"",""0"",""1462""
","""event"",""trial"",""time""
""focus"",""0"",""426256""
","""event"",""trial"",""time""
""fullscreenenter"",""0"",""501545""
","
","null","run_exp/static/audio/clip_4_mop.m4a","null","","","","","","","",""
"","baseball","200","757703","0.0-200.0","""event"",""trial"",""time""
""blur"",""0"",""1462""
""focus"",""0"",""426256""
""fullscreenenter"",""0"",""501545""
","""event"",""trial"",""time""
""blur"",""0"",""1462""
","""event"",""trial"",""time""
""focus"",""0"",""426256""
","""event"",""trial"",""time""
""fullscreenenter"",""0"",""501545""
","
","null","run_exp/static/audio/clip_5_baseball.m4a","null","","","","","","","",""
"","trumpet","201","761210","0.0-201.0","""event"",""trial"",""time""
""blur"",""0"",""1462""
""focus"",""0"",""426256""
""fullscreenenter"",""0"",""501545""
","""event"",""trial"",""time""
""blur"",""0"",""1462""
","""event"",""trial"",""time""
""focus"",""0"",""426256""
","""event"",""trial"",""time""
""fullscreenenter"",""0"",""501545""
","
","null","run_exp/static/audio/clip_6_trumpet.m4a","null","","","","","","","",""
"","gummies","202","764727","0.0-202.0","""event"",""trial"",""time""
""blur"",""0"",""1462""
""focus"",""0"",""426256""
""fullscreenenter"",""0"",""501545""
","""event"",""trial"",""time""
""blur"",""0"",""1462""
","""event"",""trial"",""time""
""focus"",""0"",""426256""
","""event"",""trial"",""time""
""fullscreenenter"",""0"",""501545""
","
","null","run_exp/static/audio/clip_7_gummies.m4a","null","","","","","","","",""
"","osn","203","769232","0.0-203.0","""event"",""trial"",""time""
""blur"",""0"",""1462""
""focus"",""0"",""426256""
""fullscreenenter"",""0"",""501545""
","""event"",""trial"",""time""
""blur"",""0"",""1462""
","""event"",""trial"",""time""
""focus"",""0"",""426256""
","""event"",""trial"",""time""
""fullscreenenter"",""0"",""501545""
","
","null","run_exp/static/audio/clip_8_osn.m4a","null","","","","","","","",""
"","old_1","204","775734","0.0-204.0","""event"",""trial"",""time""
""blur"",""0"",""1462""
""focus"",""0"",""426256""
""fullscreenenter"",""0"",""501545""
","""event"",""trial"",""time""
""blur"",""0"",""1462""
","""event"",""trial"",""time""
""focus"",""0"",""426256""
","""event"",""trial"",""time""
""fullscreenenter"",""0"",""501545""
","
","null","run_exp/static/audio/clip_9_old_trumpet.m4a","null","","","","","","","",""
"","new_1","205","783250","0.0-205.0","""event"",""trial"",""time""
""blur"",""0"",""1462""
""focus"",""0"",""426256""
""fullscreenenter"",""0"",""501545""
","""event"",""trial"",""time""
""blur"",""0"",""1462""
","""event"",""trial"",""time""
""focus"",""0"",""426256""
","""event"",""trial"",""time""
""fullscreenenter"",""0"",""501545""
","
","null","run_exp/static/audio/clip_10_new_balloon.m4a","null","","","","","","","",""
"","similar_1a","206","787765","0.0-206.0","""event"",""trial"",""time""
""blur"",""0"",""1462""
""focus"",""0"",""426256""
""fullscreenenter"",""0"",""501545""
","""event"",""trial"",""time""
""blur"",""0"",""1462""
","""event"",""trial"",""time""
""focus"",""0"",""426256""
","""event"",""trial"",""time""
""fullscreenenter"",""0"",""501545""
","
","null","run_exp/static/audio/clip_11a_similar_mop.m4a","null","","","","","","","",""
"","similar_1b","207","794281","0.0-207.0","""event"",""trial"",""time""
""blur"",""0"",""1462""
""focus"",""0"",""426256""
""fullscreenenter"",""0"",""501545""
","""event"",""trial"",""time""
""blur"",""0"",""1462""
","""event"",""trial"",""time""
""focus"",""0"",""426256""
","""event"",""trial"",""time""
""fullscreenenter"",""0"",""501545""
","
","null","run_exp/static/audio/clip_11b_similar_mop.m4a","null","","","","","","","",""
"","new_2","208","797797","0.0-208.0","""event"",""trial"",""time""
""blur"",""0"",""1462""
""focus"",""0"",""426256""
""fullscreenenter"",""0"",""501545""
","""event"",""trial"",""time""
""blur"",""0"",""1462""
","""event"",""trial"",""time""
""focus"",""0"",""426256""
","""event"",""trial"",""time""
""fullscreenenter"",""0"",""501545""
","
","null","run_exp/static/audio/clip_12_new_stoplight.m4a","null","","","","","","","",""
"","old_2","209","801301","0.0-209.0","""event"",""trial"",""time""
""blur"",""0"",""1462""
""focus"",""0"",""426256""
""fullscreenenter"",""0"",""501545""
","""event"",""trial"",""time""
""blur"",""0"",""1462""
","""event"",""trial"",""time""
""focus"",""0"",""426256""
","""event"",""trial"",""time""
""fullscreenenter"",""0"",""501545""
","
","null","run_exp/static/audio/clip_13_old_baseball.m4a","null","","","","","","","",""
"","similar_2a","210","804814","0.0-210.0","""event"",""trial"",""time""
""blur"",""0"",""1462""
""focus"",""0"",""426256""
""fullscreenenter"",""0"",""501545""
","""event"",""trial"",""time""
""blur"",""0"",""1462""
","""event"",""trial"",""time""
""focus"",""0"",""426256""
","""event"",""trial"",""time""
""fullscreenenter"",""0"",""501545""
","
","null","run_exp/static/audio/clip_14a_similar_gummies.m4a","null","","","","","","","",""
"","similar_2b","211","812326","0.0-211.0","""event"",""trial"",""time""
""blur"",""0"",""1462""
""focus"",""0"",""426256""
""fullscreenenter"",""0"",""501545""
","""event"",""trial"",""time""
""blur"",""0"",""1462""
","""event"",""trial"",""time""
""focus"",""0"",""426256""
","""event"",""trial"",""time""
""fullscreenenter"",""0"",""501545""
","
","null","run_exp/static/audio/clip_14b_similar_gummies.m4a","null","","","","","","","",""
"","practice","212","854437","0.0-212.0","""event"",""trial"",""time""
""blur"",""0"",""1462""
""focus"",""0"",""426256""
""fullscreenenter"",""0"",""501545""
","""event"",""trial"",""time""
""blur"",""0"",""1462""
","""event"",""trial"",""time""
""focus"",""0"",""426256""
","""event"",""trial"",""time""
""fullscreenenter"",""0"",""501545""
","
","null","run_exp/static/audio/clip_15_practice.m4a","null","","","","","<div class='center'><p>Lets practice a little to make sure you understand the difference between new, similar, and old. Lets say you saw these three items in the indoor/outdoor game.</p><p> Try your best to remember these images because youll soon be tested on them in a practice game. In the practice game, youll be shown images and youll have to say if they are old (one of the three images belows), similar (similar to one of the images below but not exactly the same), or new (are not one of the images below nor similar to them).</p><p>Once you press the space bar youll be shown these images again but one at time. Then youll begin the practice game.</p><p><img src='run_exp/static/images/tutorial/test/three_indoor_outdoor.png' height='300'></p></div>","","",""
"","html-keyboard-response","213","855095","0.0-213.0","""event"",""trial"",""time""
""blur"",""0"",""1462""
""focus"",""0"",""426256""
""fullscreenenter"",""0"",""501545""
","""event"",""trial"",""time""
""blur"",""0"",""1462""
","""event"",""trial"",""time""
""focus"",""0"",""426256""
","""event"",""trial"",""time""
""fullscreenenter"",""0"",""501545""
","
","656.6000000238419","<div class='center'><p>Lets practice a little to make sure you understand the difference between new, similar, and old. Lets say you saw these three items in the indoor/outdoor game.</p><p> Try your best to remember these images because youll soon be tested on them in a practice game. In the practice game, youll be shown images and youll have to say if they are old (one of the three images belows), similar (similar to one of the images below but not exactly the same), or new (are not one of the images below nor similar to them).</p><p>Once you press the space bar youll be shown these images again but one at time. Then youll begin the practice game.</p><p><img src='run_exp/static/images/tutorial/test/three_indoor_outdoor.png' height='300'></p><div><p><b>[Press the space bar to continue]</b></p></div>","32","","","","","","","",""
"","planet","214","857108","0.0-214.0","""event"",""trial"",""time""
""blur"",""0"",""1462""
""focus"",""0"",""426256""
""fullscreenenter"",""0"",""501545""
","""event"",""trial"",""time""
""blur"",""0"",""1462""
","""event"",""trial"",""time""
""focus"",""0"",""426256""
","""event"",""trial"",""time""
""fullscreenenter"",""0"",""501545""
","
","null","run_exp/static/images/tutorial/test/008a.jpg","null","","","","","","","",""
"","boot","215","859117","0.0-215.0","""event"",""trial"",""time""
""blur"",""0"",""1462""
""focus"",""0"",""426256""
""fullscreenenter"",""0"",""501545""
","""event"",""trial"",""time""
""blur"",""0"",""1462""
","""event"",""trial"",""time""
""focus"",""0"",""426256""
","""event"",""trial"",""time""
""fullscreenenter"",""0"",""501545""
","
","null","run_exp/static/images/tutorial/test/011a.jpg","null","","","","","","","",""
"","lemon","216","861122","0.0-216.0","""event"",""trial"",""time""
""blur"",""0"",""1462""
""focus"",""0"",""426256""
""fullscreenenter"",""0"",""501545""
","""event"",""trial"",""time""
""blur"",""0"",""1462""
","""event"",""trial"",""time""
""focus"",""0"",""426256""
