"success","trial_type","trial_index","time_elapsed","internal_node_id","rt","stimulus","key_press","subject_id","participant_id","age","gender","prompt","phase","condition","lure_bin"
"true","fullscreen","0","3094","0.0-0.0","","","","","","","","","","",""
"","pavlovia","1","3100","0.0-1.0","","","","","","","","","","",""
"","welcome","2","38807","0.0-2.0","null","run_exp/static/audio/clip_1_welcome.m4a","null","129","147","9","Female","<div class='center'><p>This is your last game of the experiment! First, you'll be shown pictures of items one at a time. For each picture, you have to decide if the item is typically found indoors or outdoors.</p><p>If you think it's usually found indoors, then press <b>v</b> key on your keyboard. If you think it's usually found outdoors, then press the <b>n</b> key.There will be reminders on the screen to help you remember which keys to press. </p><p>If you're not sure whether the item is an indoor item or outdoor item, go ahead and take a guess but try your best not to skip that choice. </p></div>","","",""
"","html-keyboard-response","3","45000","0.0-3.0","6182.5","<div class='center'><p>This is your last game of the experiment! First, you'll be shown pictures of items one at a time. For each picture, you have to decide if the item is typically found indoors or outdoors.</p><p>If you think it's usually found indoors, then press <b>v</b> key on your keyboard. If you think it's usually found outdoors, then press the <b>n</b> key.There will be reminders on the screen to help you remember which keys to press. </p><p>If you're not sure whether the item is an indoor item or outdoor item, go ahead and take a guess but try your best not to skip that choice. </p><div><p><b>[Press the space bar to continue]</b></p></div>","32","","","","","","","",""
"","image","4","47008","0.0-4.0","null","run_exp/static/images/Set 6_rs/117a.jpg","null","","","","","","learn","SL",""
"","show_choice","5","49012","0.0-5.0","null","run_exp/static/images/blank.png","null","","","","","","learn","SL",""
"","html-keyboard-response","6","49514","0.0-6.0","null","<p></p>","null","","","","","","","",""
"","image","7","51520","0.0-7.0","null","run_exp/static/images/Set 6_rs/132a.jpg","null","","","","","","learn","SR",""
"","show_choice","8","53525","0.0-8.0","null","run_exp/static/images/blank.png","null","","","","","","learn","SR",""
"","html-keyboard-response","9","54031","0.0-9.0","null","<p></p>","null","","","","","","","",""
"","image","10","55644","0.0-10.0","1611.2000000029802","run_exp/static/images/Set 6_rs/023a.jpg","86","","","","","","learn","SR",""
"","show_choice","11","56034","0.0-11.0","null","run_exp/static/images/Set 6_rs/023a.jpg","null","","","","","","learn","SR",""
"","html-keyboard-response","12","56539","0.0-12.0","null","<p></p>","null","","","","","","","",""
"","image","13","57912","0.0-13.0","1370.2000000029802","run_exp/static/images/Set 6_rs/008a.jpg","86","","","","","","learn","SL",""
"","show_choice","14","58543","0.0-14.0","null","run_exp/static/images/Set 6_rs/008a.jpg","null","","","","","","learn","SL",""
"","html-keyboard-response","15","59049","0.0-15.0","null","<p></p>","null","","","","","","","",""
"","image","16","60489","0.0-16.0","1438.3999999910593","run_exp/static/images/Set 6_rs/167a.jpg","86","","","","","","learn","SL",""
"","show_choice","17","61056","0.0-17.0","null","run_exp/static/images/Set 6_rs/167a.jpg","null","","","","","","learn","SL",""
"","html-keyboard-response","18","61557","0.0-18.0","null","<p></p>","null","","","","","","","",""
"","image","19","63536","0.0-19.0","1976.2999999970198","run_exp/static/images/Set 6_rs/045a.jpg","86","","","","","","learn","SR",""
"","show_choice","20","63560","0.0-20.0","null","run_exp/static/images/Set 6_rs/045a.jpg","null","","","","","","learn","SR",""
"","html-keyboard-response","21","64065","0.0-21.0","null","<p></p>","null","","","","","","","",""
"","image","22","65425","0.0-22.0","1357.7000000029802","run_exp/static/images/Set 6_rs/134a.jpg","86","","","","","","learn","SR",""
"","show_choice","23","66072","0.0-23.0","null","run_exp/static/images/Set 6_rs/134a.jpg","null","","","","","","learn","SR",""
"","html-keyboard-response","24","66578","0.0-24.0","null","<p></p>","null","","","","","","","",""
"","image","25","68249","0.0-25.0","1669.0999999940395","run_exp/static/images/Set 6_rs/154a.jpg","78","","","","","","learn","SR",""
"","show_choice","26","68581","0.0-26.0","null","run_exp/static/images/Set 6_rs/154a.jpg","null","","","","","","learn","SR",""
"","html-keyboard-response","27","69085","0.0-27.0","null","<p></p>","null","","","","","","","",""
"","image","28","70450","0.0-28.0","1363.5999999940395","run_exp/static/images/Set 6_rs/074a.jpg","78","","","","","","learn","SL",""
"","show_choice","29","71090","0.0-29.0","null","run_exp/static/images/Set 6_rs/074a.jpg","null","","","","","","learn","SL",""
"","html-keyboard-response","30","71592","0.0-30.0","null","<p></p>","null","","","","","","","",""
"","image","31","72520","0.0-31.0","927","run_exp/static/images/Set 6_rs/166a.jpg","86","","","","","","learn","SR",""
"","show_choice","32","73596","0.0-32.0","null","run_exp/static/images/Set 6_rs/166a.jpg","null","","","","","","learn","SR",""
"","html-keyboard-response","33","74102","0.0-33.0","null","<p></p>","null","","","","","","","",""
"","image","34","75099","0.0-34.0","995","run_exp/static/images/Set 6_rs/036a.jpg","86","","","","","","learn","SL",""
"","show_choice","35","76109","0.0-35.0","null","run_exp/static/images/Set 6_rs/036a.jpg","null","","","","","","learn","SL",""
"","html-keyboard-response","36","76615","0.0-36.0","null","<p></p>","null","","","","","","","",""
"","image","37","78109","0.0-37.0","1493.0999999940395","run_exp/static/images/Set 6_rs/123a.jpg","86","","","","","","learn","SL",""
"","show_choice","38","78618","0.0-38.0","null","run_exp/static/images/Set 6_rs/123a.jpg","null","","","","","","learn","SL",""
"","html-keyboard-response","39","79119","0.0-39.0","null","<p></p>","null","","","","","","","",""
"","image","40","80426","0.0-40.0","1305.5999999940395","run_exp/static/images/Set 6_rs/131a.jpg","86","","","","","","learn","SR",""
"","show_choice","41","81125","0.0-41.0","null","run_exp/static/images/Set 6_rs/131a.jpg","null","","","","","","learn","SR",""
"","html-keyboard-response","42","81630","0.0-42.0","null","<p></p>","null","","","","","","","",""
"","image","43","83110","0.0-43.0","1477.7999999970198","run_exp/static/images/Set 6_rs/168a.jpg","78","","","","","","learn","SL",""
"","show_choice","44","83635","0.0-44.0","null","run_exp/static/images/Set 6_rs/168a.jpg","null","","","","","","learn","SL",""
"","html-keyboard-response","45","84140","0.0-45.0","null","<p></p>","null","","","","","","","",""
"","image","46","85676","0.0-46.0","1533.7999999970198","run_exp/static/images/Set 6_rs/108a.jpg","78","","","","","","learn","SR",""
"","show_choice","47","86144","0.0-47.0","null","run_exp/static/images/Set 6_rs/108a.jpg","null","","","","","","learn","SR",""
"","html-keyboard-response","48","86650","0.0-48.0","null","<p></p>","null","","","","","","","",""
"","image","49","88153","0.0-49.0","1501.4000000059605","run_exp/static/images/Set 6_rs/055a.jpg","86","","","","","","learn","SL",""
"","show_choice","50","88654","0.0-50.0","null","run_exp/static/images/Set 6_rs/055a.jpg","null","","","","","","learn","SL",""
"","html-keyboard-response","51","89159","0.0-51.0","null","<p></p>","null","","","","","","","",""
"","image","52","90533","0.0-52.0","1372.7000000029802","run_exp/static/images/Set 6_rs/025a.jpg","78","","","","","","learn","SL",""
"","show_choice","53","91166","0.0-53.0","null","run_exp/static/images/Set 6_rs/025a.jpg","null","","","","","","learn","SL",""
"","html-keyboard-response","54","91672","0.0-54.0","null","<p></p>","null","","","","","","","",""
"","image","55","92853","0.0-55.0","1179.699999988079","run_exp/static/images/Set 6_rs/085a.jpg","86","","","","","","learn","SL",""
"","show_choice","56","93678","0.0-56.0","null","run_exp/static/images/Set 6_rs/085a.jpg","null","","","","","","learn","SL",""
"","html-keyboard-response","57","94179","0.0-57.0","null","<p></p>","null","","","","","","","",""
"","image","58","95387","0.0-58.0","1205.2000000029802","run_exp/static/images/Set 6_rs/071a.jpg","86","","","","","","learn","SL",""
"","show_choice","59","96186","0.0-59.0","null","run_exp/static/images/Set 6_rs/071a.jpg","null","","","","","","learn","SL",""
"","html-keyboard-response","60","96690","0.0-60.0","null","<p></p>","null","","","","","","","",""
"","image","61","97685","0.0-61.0","994.4000000059605","run_exp/static/images/Set 6_rs/095a.jpg","86","","","","","","learn","SL",""
"","show_choice","62","98692","0.0-62.0","null","run_exp/static/images/Set 6_rs/095a.jpg","null","","","","","","learn","SL",""
"","html-keyboard-response","63","99198","0.0-63.0","null","<p></p>","null","","","","","","","",""
"","image","64","100086","0.0-64.0","886.9000000059605","run_exp/static/images/Set 6_rs/181a.jpg","78","","","","","","learn","SL",""
"","show_choice","65","101201","0.0-65.0","null","run_exp/static/images/Set 6_rs/181a.jpg","null","","","","","","learn","SL",""
"","html-keyboard-response","66","101706","0.0-66.0","null","<p></p>","null","","","","","","","",""
"","image","67","102697","0.0-67.0","985.7000000029802","run_exp/static/images/Set 6_rs/007a.jpg","86","","","","","","learn","SR",""
"","show_choice","68","103713","0.0-68.0","null","run_exp/static/images/Set 6_rs/007a.jpg","null","","","","","","learn","SR",""
"","html-keyboard-response","69","104219","0.0-69.0","null","<p></p>","null","","","","","","","",""
"","image","70","105085","0.0-70.0","863.7999999970198","run_exp/static/images/Set 6_rs/067a.jpg","86","","","","","","learn","SL",""
"","show_choice","71","106223","0.0-71.0","null","run_exp/static/images/Set 6_rs/067a.jpg","null","","","","","","learn","SL",""
"","html-keyboard-response","72","106724","0.0-72.0","null","<p></p>","null","","","","","","","",""
"","image","73","108138","0.0-73.0","1411.4000000059605","run_exp/static/images/Set 6_rs/148a.jpg","86","","","","","","learn","SR",""
"","show_choice","74","108727","0.0-74.0","null","run_exp/static/images/Set 6_rs/148a.jpg","null","","","","","","learn","SR",""
"","html-keyboard-response","75","109229","0.0-75.0","null","<p></p>","null","","","","","","","",""
"","image","76","111155","0.0-76.0","1925.2000000029802","run_exp/static/images/Set 6_rs/152a.jpg","78","","","","","","learn","SR",""
"","show_choice","77","111231","0.0-77.0","null","run_exp/static/images/Set 6_rs/152a.jpg","null","","","","","","learn","SR",""
"","html-keyboard-response","78","111733","0.0-78.0","null","<p></p>","null","","","","","","","",""
"","image","79","112572","0.0-79.0","837.3000000119209","run_exp/static/images/Set 6_rs/112a.jpg","86","","","","","","learn","SR",""
"","show_choice","80","113737","0.0-80.0","null","run_exp/static/images/Set 6_rs/112a.jpg","null","","","","","","learn","SR",""
"","html-keyboard-response","81","114243","0.0-81.0","null","<p></p>","null","","","","","","","",""
"","image","82","115208","0.0-82.0","964.5","run_exp/static/images/Set 6_rs/116a.jpg","86","","","","","","learn","SL",""
"","show_choice","83","116246","0.0-83.0","null","run_exp/static/images/Set 6_rs/116a.jpg","null","","","","","","learn","SL",""
"","html-keyboard-response","84","116751","0.0-84.0","null","<p></p>","null","","","","","","","",""
"","image","85","117643","0.0-85.0","890.3000000119209","run_exp/static/images/Set 6_rs/073a.jpg","86","","","","","","learn","SL",""
"","show_choice","86","118758","0.0-86.0","null","run_exp/static/images/Set 6_rs/073a.jpg","null","","","","","","learn","SL",""
"","html-keyboard-response","87","119264","0.0-87.0","null","<p></p>","null","","","","","","","",""
"","image","88","120463","0.0-88.0","1198.199999988079","run_exp/static/images/Set 6_rs/057a.jpg","86","","","","","","learn","SL",""
"","show_choice","89","121270","0.0-89.0","null","run_exp/static/images/Set 6_rs/057a.jpg","null","","","","","","learn","SL",""
"","html-keyboard-response","90","121777","0.0-90.0","null","<p></p>","null","","","","","","","",""
"","image","91","122943","0.0-91.0","1165.2999999970198","run_exp/static/images/Set 6_rs/150a.jpg","86","","","","","","learn","SR",""
"","show_choice","92","123779","0.0-92.0","null","run_exp/static/images/Set 6_rs/150a.jpg","null","","","","","","learn","SR",""
"","html-keyboard-response","93","124280","0.0-93.0","null","<p></p>","null","","","","","","","",""
"","image","94","125763","0.0-94.0","1481.7999999970198","run_exp/static/images/Set 6_rs/172a.jpg","78","","","","","","learn","SR",""
"","show_choice","95","126286","0.0-95.0","null","run_exp/static/images/Set 6_rs/172a.jpg","null","","","","","","learn","SR",""
"","html-keyboard-response","96","126792","0.0-96.0","null","<p></p>","null","","","","","","","",""
"","image","97","127570","0.0-97.0","775.8999999910593","run_exp/static/images/Set 6_rs/066a.jpg","86","","","","","","learn","SL",""
"","show_choice","98","128796","0.0-98.0","null","run_exp/static/images/Set 6_rs/066a.jpg","null","","","","","","learn","SL",""
"","html-keyboard-response","99","129298","0.0-99.0","null","<p></p>","null","","","","","","","",""
"","image","100","129402","0.0-100.0","102.30000001192093","run_exp/static/images/Set 6_rs/178a.jpg","78","","","","","","learn","SR",""
"","show_choice","101","131302","0.0-101.0","null","run_exp/static/images/Set 6_rs/178a.jpg","null","","","","","","learn","SR",""
"","html-keyboard-response","102","131804","0.0-102.0","null","<p></p>","null","","","","","","","",""
"","image","103","132771","0.0-103.0","964.9000000059605","run_exp/static/images/Set 6_rs/062a.jpg","86","","","","","","learn","SL",""
"","show_choice","104","133811","0.0-104.0","null","run_exp/static/images/Set 6_rs/062a.jpg","null","","","","","","learn","SL",""
"","html-keyboard-response","105","134312","0.0-105.0","null","<p></p>","null","","","","","","","",""
"","image","106","135664","0.0-106.0","1350.2999999970198","run_exp/static/images/Set 6_rs/126a.jpg","78","","","","","","learn","SR",""
"","show_choice","107","136314","0.0-107.0","null","run_exp/static/images/Set 6_rs/126a.jpg","null","","","","","","learn","SR",""
"","html-keyboard-response","108","136819","0.0-108.0","null","<p></p>","null","","","","","","","",""
"","image","109","137889","0.0-109.0","1068.4000000059605","run_exp/static/images/Set 6_rs/017a.jpg","86","","","","","","learn","SL",""
"","show_choice","110","138827","0.0-110.0","null","run_exp/static/images/Set 6_rs/017a.jpg","null","","","","","","learn","SL",""
"","html-keyboard-response","111","139328","0.0-111.0","null","<p></p>","null","","","","","","","",""
"","image","112","140457","0.0-112.0","1127.2000000029802","run_exp/static/images/Set 6_rs/016a.jpg","86","","","","","","learn","SL",""
"","show_choice","113","141332","0.0-113.0","null","run_exp/static/images/Set 6_rs/016a.jpg","null","","","","","","learn","SL",""
"","html-keyboard-response","114","141837","0.0-114.0","null","<p></p>","null","","","","","","","",""
"","image","115","143708","0.0-115.0","1869.4000000059605","run_exp/static/images/Set 6_rs/075a.jpg","78","","","","","","learn","SR",""
"","show_choice","116","143840","0.0-116.0","null","run_exp/static/images/Set 6_rs/075a.jpg","null","","","","","","learn","SR",""
"","html-keyboard-response","117","144346","0.0-117.0","null","<p></p>","null","","","","","","","",""
"","image","118","145461","0.0-118.0","1113.7999999970198","run_exp/static/images/Set 6_rs/191a.jpg","86","","","","","","learn","SL",""
"","show_choice","119","146349","0.0-119.0","null","run_exp/static/images/Set 6_rs/191a.jpg","null","","","","","","learn","SL",""
"","html-keyboard-response","120","146855","0.0-120.0","null","<p></p>","null","","","","","","","",""
"","image","121","147731","0.0-121.0","874.7999999970198","run_exp/static/images/Set 6_rs/187a.jpg","86","","","","","","learn","SR",""
"","show_choice","122","148862","0.0-122.0","null","run_exp/static/images/Set 6_rs/187a.jpg","null","","","","","","learn","SR",""
"","html-keyboard-response","123","149368","0.0-123.0","null","<p></p>","null","","","","","","","",""
"","image","124","150652","0.0-124.0","1283.2999999970198","run_exp/static/images/Set 6_rs/076a.jpg","86","","","","","","learn","SR",""
"","show_choice","125","151373","0.0-125.0","null","run_exp/static/images/Set 6_rs/076a.jpg","null","","","","","","learn","SR",""
"","html-keyboard-response","126","151880","0.0-126.0","null","<p></p>","null","","","","","","","",""
"","image","127","153135","0.0-127.0","1254.5","run_exp/static/images/Set 6_rs/111a.jpg","86","","","","","","learn","SL",""
"","show_choice","128","153886","0.0-128.0","null","run_exp/static/images/Set 6_rs/111a.jpg","null","","","","","","learn","SL",""
"","html-keyboard-response","129","154387","0.0-129.0","null","<p></p>","null","","","","","","","",""
"","image","130","155702","0.0-130.0","1314.0999999940395","run_exp/static/images/Set 6_rs/010a.jpg","86","","","","","","learn","SR",""
"","show_choice","131","156393","0.0-131.0","null","run_exp/static/images/Set 6_rs/010a.jpg","null","","","","","","learn","SR",""
"","html-keyboard-response","132","156898","0.0-132.0","null","<p></p>","null","","","","","","","",""
"","image","133","157909","0.0-133.0","1009.9000000059605","run_exp/static/images/Set 6_rs/122a.jpg","86","","","","","","learn","SR",""
"","show_choice","134","158902","0.0-134.0","null","run_exp/static/images/Set 6_rs/122a.jpg","null","","","","","","learn","SR",""
"","html-keyboard-response","135","159403","0.0-135.0","null","<p></p>","null","","","","","","","",""
"","image","136","160507","0.0-136.0","1102.2999999970198","run_exp/static/images/Set 6_rs/129a.jpg","86","","","","","","learn","SL",""
"","show_choice","137","161410","0.0-137.0","null","run_exp/static/images/Set 6_rs/129a.jpg","null","","","","","","learn","SL",""
"","html-keyboard-response","138","161916","0.0-138.0","null","<p></p>","null","","","","","","","",""
"","image","139","163251","0.0-139.0","1332.800000011921","run_exp/static/images/Set 6_rs/079a.jpg","86","","","","","","learn","SL",""
"","show_choice","140","163922","0.0-140.0","null","run_exp/static/images/Set 6_rs/079a.jpg","null","","","","","","learn","SL",""
"","html-keyboard-response","141","164424","0.0-141.0","null","<p></p>","null","","","","","","","",""
"","image","142","166429","0.0-142.0","null","run_exp/static/images/Set 6_rs/061a.jpg","null","","","","","","learn","SR",""
"","show_choice","143","168430","0.0-143.0","null","run_exp/static/images/blank.png","null","","","","","","learn","SR",""
"","html-keyboard-response","144","168932","0.0-144.0","null","<p></p>","null","","","","","","","",""
"","image","145","169936","0.0-145.0","1002","run_exp/static/images/Set 6_rs/121a.jpg","86","","","","","","learn","SR",""
"","show_choice","146","170936","0.0-146.0","null","run_exp/static/images/Set 6_rs/121a.jpg","null","","","","","","learn","SR",""
"","html-keyboard-response","147","171440","0.0-147.0","null","<p></p>","null","","","","","","","",""
"","image","148","172793","0.0-148.0","1351.7000000029802","run_exp/static/images/Set 6_rs/012a.jpg","86","","","","","","learn","SR",""
"","show_choice","149","173443","0.0-149.0","null","run_exp/static/images/Set 6_rs/012a.jpg","null","","","","","","learn","SR",""
"","html-keyboard-response","150","173947","0.0-150.0","null","<p></p>","null","","","","","","","",""
"","image","151","174839","0.0-151.0","890.4000000059605","run_exp/static/images/Set 6_rs/019a.jpg","86","","","","","","learn","SL",""
"","show_choice","152","175953","0.0-152.0","null","run_exp/static/images/Set 6_rs/019a.jpg","null","","","","","","learn","SL",""
"","html-keyboard-response","153","176456","0.0-153.0","null","<p></p>","null","","","","","","","",""
"","image","154","177970","0.0-154.0","1511.3999999910593","run_exp/static/images/Set 6_rs/141a.jpg","86","","","","","","learn","SR",""
"","show_choice","155","178461","0.0-155.0","null","run_exp/static/images/Set 6_rs/141a.jpg","null","","","","","","learn","SR",""
"","html-keyboard-response","156","178964","0.0-156.0","null","<p></p>","null","","","","","","","",""
"","image","157","180737","0.0-157.0","1771.2999999970198","run_exp/static/images/Set 6_rs/138a.jpg","78","","","","","","learn","SL",""
"","show_choice","158","180967","0.0-158.0","null","run_exp/static/images/Set 6_rs/138a.jpg","null","","","","","","learn","SL",""
"","html-keyboard-response","159","181473","0.0-159.0","null","<p></p>","null","","","","","","","",""
"","image","160","182739","0.0-160.0","1264.5","run_exp/static/images/Set 6_rs/186a.jpg","86","","","","","","learn","SR",""
"","show_choice","161","183476","0.0-161.0","null","run_exp/static/images/Set 6_rs/186a.jpg","null","","","","","","learn","SR",""
"","html-keyboard-response","162","183982","0.0-162.0","null","<p></p>","null","","","","","","","",""
"","image","163","185289","0.0-163.0","1305.5","run_exp/static/images/Set 6_rs/006a.jpg","86","","","","","","learn","SL",""
"","show_choice","164","185989","0.0-164.0","null","run_exp/static/images/Set 6_rs/006a.jpg","null","","","","","","learn","SL",""
"","html-keyboard-response","165","186490","0.0-165.0","null","<p></p>","null","","","","","","","",""
"","image","166","187482","0.0-166.0","990.4000000059605","run_exp/static/images/Set 6_rs/063a.jpg","86","","","","","","learn","SR",""
"","show_choice","167","188492","0.0-167.0","null","run_exp/static/images/Set 6_rs/063a.jpg","null","","","","","","learn","SR",""
"","html-keyboard-response","168","188994","0.0-168.0","null","<p></p>","null","","","","","","","",""
"","image","169","189985","0.0-169.0","990","run_exp/static/images/Set 6_rs/177a.jpg","78","","","","","","learn","SR",""
"","show_choice","170","190997","0.0-170.0","null","run_exp/static/images/Set 6_rs/177a.jpg","null","","","","","","learn","SR",""
"","html-keyboard-response","171","191501","0.0-171.0","null","<p></p>","null","","","","","","","",""
"","image","172","192482","0.0-172.0","978.8999999910593","run_exp/static/images/Set 6_rs/024a.jpg","86","","","","","","learn","SR",""
"","show_choice","173","193507","0.0-173.0","null","run_exp/static/images/Set 6_rs/024a.jpg","null","","","","","","learn","SR",""
"","html-keyboard-response","174","194011","0.0-174.0","null","<p></p>","null","","","","","","","",""
"","image","175","195523","0.0-175.0","1511","run_exp/static/images/Set 6_rs/091a.jpg","78","","","","","","learn","SL",""
"","show_choice","176","196015","0.0-176.0","null","run_exp/static/images/Set 6_rs/091a.jpg","null","","","","","","learn","SL",""
"","html-keyboard-response","177","196519","0.0-177.0","null","<p></p>","null","","","","","","","",""
"","image","178","197388","0.0-178.0","867.8000000119209","run_exp/static/images/Set 6_rs/089a.jpg","86","","","","","","learn","SL",""
"","show_choice","179","198527","0.0-179.0","null","run_exp/static/images/Set 6_rs/089a.jpg","null","","","","","","learn","SL",""
"","html-keyboard-response","180","199029","0.0-180.0","null","<p></p>","null","","","","","","","",""
"","image","181","199053","0.0-181.0","22.200000002980232","run_exp/static/images/Set 6_rs/088a.jpg","86","","","","","","learn","SR",""
"","show_choice","182","201036","0.0-182.0","null","run_exp/static/images/Set 6_rs/088a.jpg","null","","","","","","learn","SR",""
"","html-keyboard-response","183","201538","0.0-183.0","null","<p></p>","null","","","","","","","",""
"","image","184","202626","0.0-184.0","1087.2000000029802","run_exp/static/images/Set 6_rs/169a.jpg","86","","","","","","learn","SR",""
"","show_choice","185","203544","0.0-185.0","null","run_exp/static/images/Set 6_rs/169a.jpg","null","","","","","","learn","SR",""
"","html-keyboard-response","186","204050","0.0-186.0","null","<p></p>","null","","","","","","","",""
"","image","187","205441","0.0-187.0","1389.0999999940395","run_exp/static/images/Set 6_rs/060a.jpg","78","","","","","","learn","SL",""
"","show_choice","188","206057","0.0-188.0","null","run_exp/static/images/Set 6_rs/060a.jpg","null","","","","","","learn","SL",""
"","html-keyboard-response","189","206562","0.0-189.0","null","<p></p>","null","","","","","","","",""
"","image","190","207359","0.0-190.0","794.6999999880791","run_exp/static/images/Set 6_rs/144a.jpg","86","","","","","","learn","SL",""
"","show_choice","191","208569","0.0-191.0","null","run_exp/static/images/Set 6_rs/144a.jpg","null","","","","","","learn","SL",""
"","html-keyboard-response","192","209075","0.0-192.0","null","<p></p>","null","","","","","","","",""
"","image","193","210764","0.0-193.0","1688.2000000029802","run_exp/static/images/Set 6_rs/064a.jpg","78","","","","","","learn","SR",""
"","show_choice","194","211081","0.0-194.0","null","run_exp/static/images/Set 6_rs/064a.jpg","null","","","","","","learn","SR",""
"","html-keyboard-response","195","211583","0.0-195.0","null","<p></p>","null","","","","","","","",""
"","test_intro","196","253076","0.0-196.0","null","run_exp/static/audio/clip_2_memory.m4a","null","","","","","<div class='center'><p>Now, let’s see how much you remember about the items you just saw.  For each item, you need to indicate if it was <b>old</b> by pressing the <b>v</b> key, <b>similar</b> by pressing the <b>b</b> key, or <b>new</b> by pressing the <b>n</b> key.</p><p>Old refers to an item that you saw before in the indoor/outdoor game that you just played, new refers to an item you have <b>not</b> seen before within the indoor/outdoor game, and similar refers to an item that is similar to an item you’ve seen before but is not exactly the same. </p><p>Before we begin, let’s go over some brief demonstrations to make sure you understand.</p></div>","","",""
"","html-keyboard-response","197","253836","0.0-197.0","758.7999999970198","<div class='center'><p>Now, let’s see how much you remember about the items you just saw.  For each item, you need to indicate if it was <b>old</b> by pressing the <b>v</b> key, <b>similar</b> by pressing the <b>b</b> key, or <b>new</b> by pressing the <b>n</b> key.</p><p>Old refers to an item that you saw before in the indoor/outdoor game that you just played, new refers to an item you have <b>not</b> seen before within the indoor/outdoor game, and similar refers to an item that is similar to an item you’ve seen before but is not exactly the same. </p><p>Before we begin, let’s go over some brief demonstrations to make sure you understand.</p><div><p><b>[Press the space bar to continue]</b></p></div>","32","","","","","","","",""
"","items","198","261341","0.0-198.0","null","run_exp/static/audio/clip_3_items.m4a","null","","","","","","","",""
"","mop","199","265845","0.0-199.0","null","run_exp/static/audio/clip_4_mop.m4a","null","","","","","","","",""
"","baseball","200","269352","0.0-200.0","null","run_exp/static/audio/clip_5_baseball.m4a","null","","","","","","","",""
"","trumpet","201","272859","0.0-201.0","null","run_exp/static/audio/clip_6_trumpet.m4a","null","","","","","","","",""
"","gummies","202","276365","0.0-202.0","null","run_exp/static/audio/clip_7_gummies.m4a","null","","","","","","","",""
"","osn","203","280870","0.0-203.0","null","run_exp/static/audio/clip_8_osn.m4a","null","","","","","","","",""
"","old_1","204","287375","0.0-204.0","null","run_exp/static/audio/clip_9_old_trumpet.m4a","null","","","","","","","",""
"","new_1","205","294882","0.0-205.0","null","run_exp/static/audio/clip_10_new_balloon.m4a","null","","","","","","","",""
"","similar_1a","206","299389","0.0-206.0","null","run_exp/static/audio/clip_11a_similar_mop.m4a","null","","","","","","","",""
"","similar_1b","207","305896","0.0-207.0","null","run_exp/static/audio/clip_11b_similar_mop.m4a","null","","","","","","","",""
"","new_2","208","309400","0.0-208.0","null","run_exp/static/audio/clip_12_new_stoplight.m4a","null","","","","","","","",""
"","old_2","209","312905","0.0-209.0","null","run_exp/static/audio/clip_13_old_baseball.m4a","null","","","","","","","",""
"","similar_2a","210","316408","0.0-210.0","null","run_exp/static/audio/clip_14a_similar_gummies.m4a","null","","","","","","","",""
"","similar_2b","211","323912","0.0-211.0","null","run_exp/static/audio/clip_14b_similar_gummies.m4a","null","","","","","","","",""
"","practice","212","339641","0.0-212.0","null","run_exp/static/audio/clip_15_practice.m4a","null","","","","","<div class='center'><p>Ok, let’s practice a little to make sure you understand the difference between new, similar, and old. Let’s say you saw these three items in the indoor/outdoor game. Study these because you’ll be tested on them soon in this practice game. </p><p><img src='run_exp/static/images/tutorial/test/three_indoor_outdoor.png' height='300'></p></div>","","",""
"","html-keyboard-response","213","397565","0.0-213.0","57920.5","<div class='center'><p>Ok, let’s practice a little to make sure you understand the difference between new, similar, and old. Let’s say you saw these three items in the indoor/outdoor game. Study these because you’ll be tested on them soon in this practice game. </p><p><img src='run_exp/static/images/tutorial/test/three_indoor_outdoor.png' height='300'></p><div><p><b>[Press the space bar to continue]</b></p></div>","32","","","","","","","",""
"","practice_q1","214","404041","0.0-214.0","6473.70000000298","run_exp/static/audio/clip_16_practice_question.m4a","78","","","","","","","",""
"","correct","215","405920","0.0-215.0-0.0","null","run_exp/static/audio/clip_17_correct.m4a","null","","","","","<div class='center'><p>That's correct!</p></div>","","",""
"","html-keyboard-response","216","407098","0.0-215.0-1.0","1176.7000000029802","<div class='center'><p>That's correct!</p><div><p><b>[Press the space bar to continue]</b></p></div>","32","","","","","","","",""
"","practice_q2","217","413101","0.0-215.0-2.0","6000.20000000298","run_exp/static/audio/clip_16_practice_question.m4a","86","","","","","","","",""
"","correct","218","414975","0.0-216.0-0.0","null","run_exp/static/audio/clip_17_correct.m4a","null","","","","","<div class='center'><p>That's correct!</p></div>","","",""
"","html-keyboard-response","219","415988","0.0-216.0-1.0","1011.5","<div class='center'><p>That's correct!</p><div><p><b>[Press the space bar to continue]</b></p></div>","32","","","","","","","",""
"","practice_q3","220","422138","0.0-216.0-2.0","6147.9000000059605","run_exp/static/audio/clip_16_practice_question.m4a","66","","","","","","","",""
"","correct","221","424148","0.0-217.0-0.0","null","run_exp/static/audio/clip_17_correct.m4a","null","","","","","<div class='center'><p>That's correct!</p></div>","","",""
"","html-keyboard-response","222","425187","0.0-217.0-1.0","1037.7999999970198","<div class='center'><p>That's correct!</p><div><p><b>[Press the space bar to continue]</b></p></div>","32","","","","","","","",""
"","begin_text","223","440240","0.0-218.0-0.0","null","run_exp/static/audio/clip_22_begin_test.m4a","null","","","","","<div class='center'><p>Now it’s your turn. For each item, you need to indicate if the item is <b>old</b> by pressing the <b>v</b> key, <b>similar</b> by pressing the <b>b</b> key, or <b>new</b> by pressing the <b>n</b> key. </p></div>","","",""
"","html-keyboard-response","224","468828","0.0-218.0-1.0","28586.09999999404","<div class='center'><p>Now it’s your turn. For each item, you need to indicate if the item is <b>old</b> by pressing the <b>v</b> key, <b>similar</b> by pressing the <b>b</b> key, or <b>new</b> by pressing the <b>n</b> key. </p><div><p><b>[Press the space bar to continue]</b></p></div>","32","","","","","","","",""
"","image","225","471772","0.0-219.0-0.0","2941.4000000059605","run_exp/static/images/Set 6_rs/079b.jpg","66","","","","","","test","TL","5"
"","show_choice","226","472277","0.0-219.0-1.0","null","run_exp/static/images/Set 6_rs/079b.jpg","null","","","","","","test","TL",""
"","html-keyboard-response","227","472779","0.0-219.0-2.0","null","<p></p>","null","","","","","","","",""
"","image","228","475784","0.0-220.0-0.0","null","run_exp/static/images/Set 6_rs/075a.jpg","null","","","","","","test","TR","1"
"","show_choice","229","476291","0.0-220.0-1.0","null","run_exp/static/images/Set 6_rs/075a.jpg","null","","","","","","test","TR",""
"","html-keyboard-response","230","476792","0.0-220.0-2.0","null","<p></p>","null","","","","","","","",""
"","image","231","478552","0.0-221.0-0.0","1758.4000000059605","run_exp/static/images/Set 6_rs/067b.jpg","78","","","","","","test","TL","5"
"","show_choice","232","479055","0.0-221.0-1.0","null","run_exp/static/images/Set 6_rs/067b.jpg","null","","","","","","test","TL",""
"","html-keyboard-response","233","479558","0.0-221.0-2.0","null","<p></p>","null","","","","","","","",""
"","image","234","482562","0.0-222.0-0.0","null","run_exp/static/images/Set 6_rs/024a.jpg","null","","","","","","test","TR","5"
"","show_choice","235","483069","0.0-222.0-1.0","null","run_exp/static/images/Set 6_rs/024a.jpg","null","","","","","","test","TR",""
"","html-keyboard-response","236","483571","0.0-222.0-2.0","null","<p></p>","null","","","","","","","",""
"","image","237","485218","0.0-223.0-0.0","1644.8999999910593","run_exp/static/images/Set 6_rs/105a.jpg","78","","","","","","test","TF","5"
"","show_choice","238","485720","0.0-223.0-1.0","null","run_exp/static/images/Set 6_rs/105a.jpg","null","","","","","","test","TF",""
"","html-keyboard-response","239","486226","0.0-223.0-2.0","null","<p></p>","null","","","","","","","",""
"","image","240","488959","0.0-224.0-0.0","2730.4000000059605","run_exp/static/images/Set 6_rs/166a.jpg","66","","","","","","test","TR","1"
"","show_choice","241","489462","0.0-224.0-1.0","null","run_exp/static/images/Set 6_rs/166a.jpg","null","","","","","","test","TR",""
"","html-keyboard-response","242","489964","0.0-224.0-2.0","null","<p></p>","null","","","","","","","",""
"","image","243","492355","0.0-225.0-0.0","2389.4000000059605","run_exp/static/images/Set 6_rs/061a.jpg","78","","","","","","test","TR","5"
"","show_choice","244","492858","0.0-225.0-1.0","null","run_exp/static/images/Set 6_rs/061a.jpg","null","","","","","","test","TR",""
"","html-keyboard-response","245","493361","0.0-225.0-2.0","null","<p></p>","null","","","","","","","",""
"","image","246","495219","0.0-226.0-0.0","1855.4000000059605","run_exp/static/images/Set 6_rs/123b.jpg","86","","","","","","test","TL","2"
"","show_choice","247","495721","0.0-226.0-1.0","null","run_exp/static/images/Set 6_rs/123b.jpg","null","","","","","","test","TL",""
"","html-keyboard-response","248","496223","0.0-226.0-2.0","null","<p></p>","null","","","","","","","",""
"","image","249","497958","0.0-227.0-0.0","1733.5","run_exp/static/images/Set 6_rs/126a.jpg","86","","","","","","test","TR","2"
"","show_choice","250","498461","0.0-227.0-1.0","null","run_exp/static/images/Set 6_rs/126a.jpg","null","","","","","","test","TR",""
"","html-keyboard-response","251","498962","0.0-227.0-2.0","null","<p></p>","null","","","","","","","",""
"","image","252","500317","0.0-228.0-0.0","1353.4000000059605","run_exp/static/images/Set 6_rs/052a.jpg","78","","","","","","test","TF","1"
"","show_choice","253","500820","0.0-228.0-1.0","null","run_exp/static/images/Set 6_rs/052a.jpg","null","","","","","","test","TF",""
"","html-keyboard-response","254","501322","0.0-228.0-2.0","null","<p></p>","null","","","","","","","",""
"","image","255","502572","0.0-229.0-0.0","1247.7000000029802","run_exp/static/images/Set 6_rs/015a.jpg","78","","","","","","test","TF","4"
"","show_choice","256","503074","0.0-229.0-1.0","null","run_exp/static/images/Set 6_rs/015a.jpg","null","","","","","","test","TF",""
"","html-keyboard-response","257","503576","0.0-229.0-2.0","null","<p></p>","null","","","","","","","",""
"","image","258","504873","0.0-230.0-0.0","1295.5999999940395","run_exp/static/images/Set 6_rs/109a.jpg","78","","","","","","test","TF","5"
"","show_choice","259","505375","0.0-230.0-1.0","null","run_exp/static/images/Set 6_rs/109a.jpg","null","","","","","","test","TF",""
"","html-keyboard-response","260","505878","0.0-230.0-2.0","null","<p></p>","null","","","","","","","",""
"","image","261","507691","0.0-231.0-0.0","1811.300000011921","run_exp/static/images/Set 6_rs/011a.jpg","66","","","","","","test","TF","3"
"","show_choice","262","508194","0.0-231.0-1.0","null","run_exp/static/images/Set 6_rs/011a.jpg","null","","","","","","test","TF",""
"","html-keyboard-response","263","508696","0.0-231.0-2.0","null","<p></p>","null","","","","","","","",""
"","image","264","510633","0.0-232.0-0.0","1934.699999988079","run_exp/static/images/Set 6_rs/118a.jpg","78","","","","","","test","TF","5"
"","show_choice","265","511135","0.0-232.0-1.0","null","run_exp/static/images/Set 6_rs/118a.jpg","null","","","","","","test","TF",""
"","html-keyboard-response","266","511636","0.0-232.0-2.0","null","<p></p>","null","","","","","","","",""
"","image","267","513433","0.0-233.0-0.0","1794.7999999970198","run_exp/static/images/Set 6_rs/045a.jpg","86","","","","","","test","TR","2"
"","show_choice","268","513937","0.0-233.0-1.0","null","run_exp/static/images/Set 6_rs/045a.jpg","null","","","","","","test","TR",""
"","html-keyboard-response","269","514439","0.0-233.0-2.0","null","<p></p>","null","","","","","","","",""
"","image","270","515638","0.0-234.0-0.0","1197.4000000059605","run_exp/static/images/Set 6_rs/047a.jpg","78","","","","","","test","TF","3"
"","show_choice","271","516140","0.0-234.0-1.0","null","run_exp/static/images/Set 6_rs/047a.jpg","null","","","","","","test","TF",""
"","html-keyboard-response","272","516641","0.0-234.0-2.0","null","<p></p>","null","","","","","","","",""
"","image","273","518678","0.0-235.0-0.0","2035.2999999970198","run_exp/static/images/Set 6_rs/141a.jpg","66","","","","","","test","TR","2"
"","show_choice","274","519180","0.0-235.0-1.0","null","run_exp/static/images/Set 6_rs/141a.jpg","null","","","","","","test","TR",""
"","html-keyboard-response","275","519682","0.0-235.0-2.0","null","<p></p>","null","","","","","","","",""
"","image","276","521290","0.0-236.0-0.0","1605.2999999970198","run_exp/static/images/Set 6_rs/186a.jpg","86","","","","","","test","TR","5"
"","show_choice","277","521793","0.0-236.0-1.0","null","run_exp/static/images/Set 6_rs/186a.jpg","null","","","","","","test","TR",""
"","html-keyboard-response","278","522297","0.0-236.0-2.0","null","<p></p>","null","","","","","","","",""
"","image","279","524354","0.0-237.0-0.0","2055.9000000059605","run_exp/static/images/Set 6_rs/021a.jpg","78","","","","","","test","TF","2"
"","show_choice","280","524856","0.0-237.0-1.0","null","run_exp/static/images/Set 6_rs/021a.jpg","null","","","","","","test","TF",""
"","html-keyboard-response","281","525357","0.0-237.0-2.0","null","<p></p>","null","","","","","","","",""
"","image","282","526197","0.0-238.0-0.0","838.2999999970198","run_exp/static/images/Set 6_rs/077a.jpg","78","","","","","","test","TF","3"
"","show_choice","283","526699","0.0-238.0-1.0","null","run_exp/static/images/Set 6_rs/077a.jpg","null","","","","","","test","TF",""
"","html-keyboard-response","284","527203","0.0-238.0-2.0","null","<p></p>","null","","","","","","","",""
"","image","285","529559","0.0-239.0-0.0","2353.5","run_exp/static/images/Set 6_rs/025b.jpg","86","","","","","","test","TL","5"
"","show_choice","286","530061","0.0-239.0-1.0","null","run_exp/static/images/Set 6_rs/025b.jpg","null","","","","","","test","TL",""
"","html-keyboard-response","287","530566","0.0-239.0-2.0","null","<p></p>","null","","","","","","","",""
"","image","288","531652","0.0-240.0-0.0","1083.4000000059605","run_exp/static/images/Set 6_rs/022a.jpg","78","","","","","","test","TF","4"
"","show_choice","289","532157","0.0-240.0-1.0","null","run_exp/static/images/Set 6_rs/022a.jpg","null","","","","","","test","TF",""
"","html-keyboard-response","290","532663","0.0-240.0-2.0","null","<p></p>","null","","","","","","","",""
"","image","291","534991","0.0-241.0-0.0","2326.1000000089407","run_exp/static/images/Set 6_rs/095b.jpg","66","","","","","","test","TL","5"
"","show_choice","292","535493","0.0-241.0-1.0","null","run_exp/static/images/Set 6_rs/095b.jpg","null","","","","","","test","TL",""
"","html-keyboard-response","293","536000","0.0-241.0-2.0","null","<p></p>","null","","","","","","","",""
"","image","294","536866","0.0-242.0-0.0","864.7999999970198","run_exp/static/images/Set 6_rs/019b.jpg","78","","","","","","test","TL","2"
"","show_choice","295","537371","0.0-242.0-1.0","null","run_exp/static/images/Set 6_rs/019b.jpg","null","","","","","","test","TL",""
"","html-keyboard-response","296","537875","0.0-242.0-2.0","null","<p></p>","null","","","","","","","",""
"","image","297","539604","0.0-243.0-0.0","1727.0999999940395","run_exp/static/images/Set 6_rs/108a.jpg","66","","","","","","test","TR","5"
"","show_choice","298","540108","0.0-243.0-1.0","null","run_exp/static/images/Set 6_rs/108a.jpg","null","","","","","","test","TR",""
"","html-keyboard-response","299","540610","0.0-243.0-2.0","null","<p></p>","null","","","","","","","",""
"","image","300","542003","0.0-244.0-0.0","1391.2999999970198","run_exp/static/images/Set 6_rs/140a.jpg","78","","","","","","test","TF","1"
"","show_choice","301","542505","0.0-244.0-1.0","null","run_exp/static/images/Set 6_rs/140a.jpg","null","","","","","","test","TF",""
"","html-keyboard-response","302","543008","0.0-244.0-2.0","null","<p></p>","null","","","","","","","",""
"","image","303","543919","0.0-245.0-0.0","909","run_exp/static/images/Set 6_rs/155a.jpg","78","","","","","","test","TF","4"
"","show_choice","304","544421","0.0-245.0-1.0","null","run_exp/static/images/Set 6_rs/155a.jpg","null","","","","","","test","TF",""
"","html-keyboard-response","305","544925","0.0-245.0-2.0","null","<p></p>","null","","","","","","","",""
"","image","306","547020","0.0-246.0-0.0","2093.2999999970198","run_exp/static/images/Set 6_rs/148a.jpg","86","","","","","","test","TR","2"
"","show_choice","307","547522","0.0-246.0-1.0","null","run_exp/static/images/Set 6_rs/148a.jpg","null","","","","","","test","TR",""
"","html-keyboard-response","308","548023","0.0-246.0-2.0","null","<p></p>","null","","","","","","","",""
"","image","309","549823","0.0-247.0-0.0","1797.9000000059605","run_exp/static/images/Set 6_rs/063a.jpg","66","","","","","","test","TR","2"
"","show_choice","310","550325","0.0-247.0-1.0","null","run_exp/static/images/Set 6_rs/063a.jpg","null","","","","","","test","TR",""
"","html-keyboard-response","311","550828","0.0-247.0-2.0","null","<p></p>","null","","","","","","","",""
"","image","312","552512","0.0-248.0-0.0","1681.3999999910593","run_exp/static/images/Set 6_rs/012a.jpg","86","","","","","","test","TR","1"
"","show_choice","313","553017","0.0-248.0-1.0","null","run_exp/static/images/Set 6_rs/012a.jpg","null","","","","","","test","TR",""
"","html-keyboard-response","314","553518","0.0-248.0-2.0","null","<p></p>","null","","","","","","","",""
"","image","315","555558","0.0-249.0-0.0","2038.9000000059605","run_exp/static/images/Set 6_rs/073b.jpg","86","","","","","","test","TL","3"
"","show_choice","316","556063","0.0-249.0-1.0","null","run_exp/static/images/Set 6_rs/073b.jpg","null","","","","","","test","TL",""
"","html-keyboard-response","317","556566","0.0-249.0-2.0","null","<p></p>","null","","","","","","","",""
"","image","318","559429","0.0-250.0-0.0","2861.7999999970198","run_exp/static/images/Set 6_rs/010a.jpg","66","","","","","","test","TR","5"
"","show_choice","319","559931","0.0-250.0-1.0","null","run_exp/static/images/Set 6_rs/010a.jpg","null","","","","","","test","TR",""
"","html-keyboard-response","320","560432","0.0-250.0-2.0","null","<p></p>","null","","","","","","","",""
"","image","321","561780","0.0-251.0-0.0","1346.5","run_exp/static/images/Set 6_rs/090a.jpg","78","","","","","","test","TF","5"
"","show_choice","322","562285","0.0-251.0-1.0","null","run_exp/static/images/Set 6_rs/090a.jpg","null","","","","","","test","TF",""
"","html-keyboard-response","323","562789","0.0-251.0-2.0","null","<p></p>","null","","","","","","","",""
"","image","324","563710","0.0-252.0-0.0","917.5999999940395","run_exp/static/images/Set 6_rs/168b.jpg","86","","","","","","test","TL","3"
"","show_choice","325","564212","0.0-252.0-1.0","null","run_exp/static/images/Set 6_rs/168b.jpg","null","","","","","","test","TL",""
"","html-keyboard-response","326","564717","0.0-252.0-2.0","null","<p></p>","null","","","","","","","",""
"","image","327","566187","0.0-253.0-0.0","1468.5","run_exp/static/images/Set 6_rs/065a.jpg","78","","","","","","test","TF","3"
"","show_choice","328","566689","0.0-253.0-1.0","null","run_exp/static/images/Set 6_rs/065a.jpg","null","","","","","","test","TF",""
"","html-keyboard-response","329","567190","0.0-253.0-2.0","null","<p></p>","null","","","","","","","",""
"","image","330","568586","0.0-254.0-0.0","1394.7000000029802","run_exp/static/images/Set 6_rs/035a.jpg","78","","","","","","test","TF","4"
"","show_choice","331","569089","0.0-254.0-1.0","null","run_exp/static/images/Set 6_rs/035a.jpg","null","","","","","","test","TF",""
"","html-keyboard-response","332","569592","0.0-254.0-2.0","null","<p></p>","null","","","","","","","",""
"","image","333","570785","0.0-255.0-0.0","1191.5999999940395","run_exp/static/images/Set 6_rs/036b.jpg","78","","","","","","test","TL","4"
"","show_choice","334","571287","0.0-255.0-1.0","null","run_exp/static/images/Set 6_rs/036b.jpg","null","","","","","","test","TL",""
"","html-keyboard-response","335","571790","0.0-255.0-2.0","null","<p></p>","null","","","","","","","",""
"","image","336","573343","0.0-256.0-0.0","1550.5","run_exp/static/images/Set 6_rs/152a.jpg","86","","","","","","test","TR","2"
"","show_choice","337","573845","0.0-256.0-1.0","null","run_exp/static/images/Set 6_rs/152a.jpg","null","","","","","","test","TR",""
"","html-keyboard-response","338","574346","0.0-256.0-2.0","null","<p></p>","null","","","","","","","",""
"","image","339","575274","0.0-257.0-0.0","926.1999999880791","run_exp/static/images/Set 6_rs/133a.jpg","66","","","","","","test","TF","4"
"","show_choice","340","575775","0.0-257.0-1.0","null","run_exp/static/images/Set 6_rs/133a.jpg","null","","","","","","test","TF",""
"","html-keyboard-response","341","576278","0.0-257.0-2.0","null","<p></p>","null","","","","","","","",""
"","image","342","578227","0.0-258.0-0.0","1947.7999999970198","run_exp/static/images/Set 6_rs/150a.jpg","86","","","","","","test","TR","1"
"","show_choice","343","578729","0.0-258.0-1.0","null","run_exp/static/images/Set 6_rs/150a.jpg","null","","","","","","test","TR",""
"","html-keyboard-response","344","579230","0.0-258.0-2.0","null","<p></p>","null","","","","","","","",""
"","image","345","581372","0.0-259.0-0.0","2139.2999999970198","run_exp/static/images/Set 6_rs/117b.jpg","66","","","","","","test","TL","5"
"","show_choice","346","581874","0.0-259.0-1.0","null","run_exp/static/images/Set 6_rs/117b.jpg","null","","","","","","test","TL",""
"","html-keyboard-response","347","582375","0.0-259.0-2.0","null","<p></p>","null","","","","","","","",""
"","image","348","584152","0.0-260.0-0.0","1774.8999999910593","run_exp/static/images/Set 6_rs/088a.jpg","78","","","","","","test","TR","2"
"","show_choice","349","584654","0.0-260.0-1.0","null","run_exp/static/images/Set 6_rs/088a.jpg","null","","","","","","test","TR",""
"","html-keyboard-response","350","585156","0.0-260.0-2.0","null","<p></p>","null","","","","","","","",""
"","image","351","587034","0.0-261.0-0.0","1875.5","run_exp/static/images/Set 6_rs/116b.jpg","86","","","","","","test","TL","2"
"","show_choice","352","587535","0.0-261.0-1.0","null","run_exp/static/images/Set 6_rs/116b.jpg","null","","","","","","test","TL",""
"","html-keyboard-response","353","588037","0.0-261.0-2.0","null","<p></p>","null","","","","","","","",""
"","image","354","589245","0.0-262.0-0.0","1205.7999999970198","run_exp/static/images/Set 6_rs/167b.jpg","86","","","","","","test","TL","2"
"","show_choice","355","589746","0.0-262.0-1.0","null","run_exp/static/images/Set 6_rs/167b.jpg","null","","","","","","test","TL",""
"","html-keyboard-response","356","590251","0.0-262.0-2.0","null","<p></p>","null","","","","","","","",""
"","image","357","591540","0.0-263.0-0.0","1287.8999999910593","run_exp/static/images/Set 6_rs/023a.jpg","78","","","","","","test","TR","3"
"","show_choice","358","592042","0.0-263.0-1.0","null","run_exp/static/images/Set 6_rs/023a.jpg","null","","","","","","test","TR",""
"","html-keyboard-response","359","592544","0.0-263.0-2.0","null","<p></p>","null","","","","","","","",""
"","image","360","593856","0.0-264.0-0.0","1309.7000000029802","run_exp/static/images/Set 6_rs/176a.jpg","86","","","","","","test","TF","4"
"","show_choice","361","594358","0.0-264.0-1.0","null","run_exp/static/images/Set 6_rs/176a.jpg","null","","","","","","test","TF",""
"","html-keyboard-response","362","594859","0.0-264.0-2.0","null","<p></p>","null","","","","","","","",""
"","image","363","596559","0.0-265.0-0.0","1697.5","run_exp/static/images/Set 6_rs/134a.jpg","86","","","","","","test","TR","3"
"","show_choice","364","597062","0.0-265.0-1.0","null","run_exp/static/images/Set 6_rs/134a.jpg","null","","","","","","test","TR",""
"","html-keyboard-response","365","597563","0.0-265.0-2.0","null","<p></p>","null","","","","","","","",""
"","image","366","599850","0.0-266.0-0.0","2285.3999999910593","run_exp/static/images/Set 6_rs/121a.jpg","86","","","","","","test","TR","4"
"","show_choice","367","600352","0.0-266.0-1.0","null","run_exp/static/images/Set 6_rs/121a.jpg","null","","","","","","test","TR",""
"","html-keyboard-response","368","600854","0.0-266.0-2.0","null","<p></p>","null","","","","","","","",""
"","image","369","603458","0.0-267.0-0.0","2603","run_exp/static/images/Set 6_rs/048a.jpg","78","","","","","","test","TF","4"
"","show_choice","370","603960","0.0-267.0-1.0","null","run_exp/static/images/Set 6_rs/048a.jpg","null","","","","","","test","TF",""
"","html-keyboard-response","371","604462","0.0-267.0-2.0","null","<p></p>","null","","","","","","","",""
"","image","372","606606","0.0-268.0-0.0","2142.5","run_exp/static/images/Set 6_rs/131a.jpg","66","","","","","","test","TR","5"
"","show_choice","373","607109","0.0-268.0-1.0","null","run_exp/static/images/Set 6_rs/131a.jpg","null","","","","","","test","TR",""
"","html-keyboard-response","374","607610","0.0-268.0-2.0","null","<p></p>","null","","","","","","","",""
"","image","375","609847","0.0-269.0-0.0","2235.2999999970198","run_exp/static/images/Set 6_rs/144b.jpg","86","","","","","","test","TL","4"
"","show_choice","376","610350","0.0-269.0-1.0","null","run_exp/static/images/Set 6_rs/144b.jpg","null","","","","","","test","TL",""
"","html-keyboard-response","377","610852","0.0-269.0-2.0","null","<p></p>","null","","","","","","","",""
"","image","378","612939","0.0-270.0-0.0","2085","run_exp/static/images/Set 6_rs/001a.jpg","78","","","","","","test","TF","1"
"","show_choice","379","613441","0.0-270.0-1.0","null","run_exp/static/images/Set 6_rs/001a.jpg","null","","","","","","test","TF",""
"","html-keyboard-response","380","613943","0.0-270.0-2.0","null","<p></p>","null","","","","","","","",""
"","image","381","615900","0.0-271.0-0.0","1954.9000000059605","run_exp/static/images/Set 6_rs/064a.jpg","86","","","","","","test","TR","5"
"","show_choice","382","616402","0.0-271.0-1.0","null","run_exp/static/images/Set 6_rs/064a.jpg","null","","","","","","test","TR",""
"","html-keyboard-response","383","616903","0.0-271.0-2.0","null","<p></p>","null","","","","","","","",""
"","image","384","618817","0.0-272.0-0.0","1910.9000000059605","run_exp/static/images/Set 6_rs/132a.jpg","66","","","","","","test","TR","5"
"","show_choice","385","619319","0.0-272.0-1.0","null","run_exp/static/images/Set 6_rs/132a.jpg","null","","","","","","test","TR",""
"","html-keyboard-response","386","619820","0.0-272.0-2.0","null","<p></p>","null","","","","","","","",""
"","image","387","620948","0.0-273.0-0.0","1125.800000011921","run_exp/static/images/Set 6_rs/138b.jpg","78","","","","","","test","TL","1"
"","show_choice","388","621450","0.0-273.0-1.0","null","run_exp/static/images/Set 6_rs/138b.jpg","null","","","","","","test","TL",""
"","html-keyboard-response","389","621952","0.0-273.0-2.0","null","<p></p>","null","","","","","","","",""
"","image","390","623244","0.0-274.0-0.0","1290.2000000029802","run_exp/static/images/Set 6_rs/062b.jpg","78","","","","","","test","TL","1"
"","show_choice","391","623746","0.0-274.0-1.0","null","run_exp/static/images/Set 6_rs/062b.jpg","null","","","","","","test","TL",""
"","html-keyboard-response","392","624249","0.0-274.0-2.0","null","<p></p>","null","","","","","","","",""
"","image","393","625043","0.0-275.0-0.0","792.3000000119209","run_exp/static/images/Set 6_rs/008b.jpg","78","","","","","","test","TL","2"
"","show_choice","394","625545","0.0-275.0-1.0","null","run_exp/static/images/Set 6_rs/008b.jpg","null","","","","","","test","TL",""
"","html-keyboard-response","395","626047","0.0-275.0-2.0","null","<p></p>","null","","","","","","","",""
"","image","396","627619","0.0-276.0-0.0","1570.2000000029802","run_exp/static/images/Set 6_rs/028a.jpg","78","","","","","","test","TF","1"
"","show_choice","397","628123","0.0-276.0-1.0","null","run_exp/static/images/Set 6_rs/028a.jpg","null","","","","","","test","TF",""
"","html-keyboard-response","398","628626","0.0-276.0-2.0","null","<p></p>","null","","","","","","","",""
"","image","399","629680","0.0-277.0-0.0","1051.8999999910593","run_exp/static/images/Set 6_rs/060b.jpg","78","","","","","","test","TL","3"
"","show_choice","400","630183","0.0-277.0-1.0","null","run_exp/static/images/Set 6_rs/060b.jpg","null","","","","","","test","TL",""
"","html-keyboard-response","401","630686","0.0-277.0-2.0","null","<p></p>","null","","","","","","","",""
"","image","402","633061","0.0-278.0-0.0","2373.5","run_exp/static/images/Set 6_rs/100a.jpg","86","","","","","","test","TF","2"
"","show_choice","403","633563","0.0-278.0-1.0","null","run_exp/static/images/Set 6_rs/100a.jpg","null","","","","","","test","TF",""
"","html-keyboard-response","404","634064","0.0-278.0-2.0","null","<p></p>","null","","","","","","","",""
"","image","405","635512","0.0-279.0-0.0","1446.2999999970198","run_exp/static/images/Set 6_rs/170a.jpg","66","","","","","","test","TF","2"
"","show_choice","406","636017","0.0-279.0-1.0","null","run_exp/static/images/Set 6_rs/170a.jpg","null","","","","","","test","TF",""
"","html-keyboard-response","407","636519","0.0-279.0-2.0","null","<p></p>","null","","","","","","","",""
"","image","408","638412","0.0-280.0-0.0","1891.0999999940395","run_exp/static/images/Set 6_rs/056a.jpg","78","","","","","","test","TF","3"
"","show_choice","409","638918","0.0-280.0-1.0","null","run_exp/static/images/Set 6_rs/056a.jpg","null","","","","","","test","TF",""
"","html-keyboard-response","410","639420","0.0-280.0-2.0","null","<p></p>","null","","","","","","","",""
"","image","411","640502","0.0-281.0-0.0","1079.7999999970198","run_exp/static/images/Set 6_rs/188a.jpg","78","","","","","","test","TF","3"
"","show_choice","412","641005","0.0-281.0-1.0","null","run_exp/static/images/Set 6_rs/188a.jpg","null","","","","","","test","TF",""
"","html-keyboard-response","413","641506","0.0-281.0-2.0","null","<p></p>","null","","","","","","","",""
"","image","414","642917","0.0-282.0-0.0","1409.5999999940395","run_exp/static/images/Set 6_rs/177a.jpg","66","","","","","","test","TR","5"
"","show_choice","415","643419","0.0-282.0-1.0","null","run_exp/static/images/Set 6_rs/177a.jpg","null","","","","","","test","TR",""
"","html-keyboard-response","416","643920","0.0-282.0-2.0","null","<p></p>","null","","","","","","","",""
"","image","417","644880","0.0-283.0-0.0","957.9000000059605","run_exp/static/images/Set 6_rs/091b.jpg","78","","","","","","test","TL","3"
"","show_choice","418","645383","0.0-283.0-1.0","null","run_exp/static/images/Set 6_rs/091b.jpg","null","","","","","","test","TL",""
"","html-keyboard-response","419","645889","0.0-283.0-2.0","null","<p></p>","null","","","","","","","",""
"","image","420","646918","0.0-284.0-0.0","1027.2999999970198","run_exp/static/images/Set 6_rs/017b.jpg","78","","","","","","test","TL","3"
"","show_choice","421","647421","0.0-284.0-1.0","null","run_exp/static/images/Set 6_rs/017b.jpg","null","","","","","","test","TL",""
"","html-keyboard-response","422","647922","0.0-284.0-2.0","null","<p></p>","null","","","","","","","",""
"","image","423","648442","0.0-285.0-0.0","517.6999999880791","run_exp/static/images/Set 6_rs/122a.jpg","78","","","","","","test","TR","5"
"","show_choice","424","648944","0.0-285.0-1.0","null","run_exp/static/images/Set 6_rs/122a.jpg","null","","","","","","test","TR",""
"","html-keyboard-response","425","649446","0.0-285.0-2.0","null","<p></p>","null","","","","","","","",""
"","image","426","649964","0.0-286.0-0.0","516","run_exp/static/images/Set 6_rs/189a.jpg","78","","","","","","test","TF","5"
"","show_choice","427","650466","0.0-286.0-1.0","null","run_exp/static/images/Set 6_rs/189a.jpg","null","","","","","","test","TF",""
"","html-keyboard-response","428","650968","0.0-286.0-2.0","null","<p></p>","null","","","","","","","",""
"","image","429","652922","0.0-287.0-0.0","1951.7000000029802","run_exp/static/images/Set 6_rs/076a.jpg","78","","","","","","test","TR","4"
"","show_choice","430","653424","0.0-287.0-1.0","null","run_exp/static/images/Set 6_rs/076a.jpg","null","","","","","","test","TR",""
"","html-keyboard-response","431","653927","0.0-287.0-2.0","null","<p></p>","null","","","","","","","",""
"","image","432","654968","0.0-288.0-0.0","1039.3999999910593","run_exp/static/images/Set 6_rs/006b.jpg","78","","","","","","test","TL","2"
"","show_choice","433","655470","0.0-288.0-1.0","null","run_exp/static/images/Set 6_rs/006b.jpg","null","","","","","","test","TL",""
"","html-keyboard-response","434","655972","0.0-288.0-2.0","null","<p></p>","null","","","","","","","",""
"","image","435","656597","0.0-289.0-0.0","623.2999999970198","run_exp/static/images/Set 6_rs/097a.jpg","78","","","","","","test","TF","5"
"","show_choice","436","657102","0.0-289.0-1.0","null","run_exp/static/images/Set 6_rs/097a.jpg","null","","","","","","test","TF",""
"","html-keyboard-response","437","657603","0.0-289.0-2.0","null","<p></p>","null","","","","","","","",""
"","image","438","659747","0.0-290.0-0.0","2141.2000000029802","run_exp/static/images/Set 6_rs/086a.jpg","78","","","","","","test","TF","1"
"","show_choice","439","660251","0.0-290.0-1.0","null","run_exp/static/images/Set 6_rs/086a.jpg","null","","","","","","test","TF",""
"","html-keyboard-response","440","660753","0.0-290.0-2.0","null","<p></p>","null","","","","","","","",""
"","image","441","661447","0.0-291.0-0.0","691.4000000059605","run_exp/static/images/Set 6_rs/074b.jpg","78","","","","","","test","TL","4"
"","show_choice","442","661949","0.0-291.0-1.0","null","run_exp/static/images/Set 6_rs/074b.jpg","null","","","","","","test","TL",""
"","html-keyboard-response","443","662453","0.0-291.0-2.0","null","<p></p>","null","","","","","","","",""
"","image","444","662951","0.0-292.0-0.0","496.5","run_exp/static/images/Set 6_rs/066b.jpg","78","","","","","","test","TL","5"
"","show_choice","445","663454","0.0-292.0-1.0","null","run_exp/static/images/Set 6_rs/066b.jpg","null","","","","","","test","TL",""
"","html-keyboard-response","446","663958","0.0-292.0-2.0","null","<p></p>","null","","","","","","","",""
"","image","447","665608","0.0-293.0-0.0","1648.8999999910593","run_exp/static/images/Set 6_rs/111b.jpg","66","","","","","","test","TL","3"
"","show_choice","448","666111","0.0-293.0-1.0","null","run_exp/static/images/Set 6_rs/111b.jpg","null","","","","","","test","TL",""
"","html-keyboard-response","449","666612","0.0-293.0-2.0","null","<p></p>","null","","","","","","","",""
"","image","450","667833","0.0-294.0-0.0","1218.5999999940395","run_exp/static/images/Set 6_rs/007a.jpg","78","","","","","","test","TR","3"
"","show_choice","451","668337","0.0-294.0-1.0","null","run_exp/static/images/Set 6_rs/007a.jpg","null","","","","","","test","TR",""
"","html-keyboard-response","452","668838","0.0-294.0-2.0","null","<p></p>","null","","","","","","","",""
"","image","453","670093","0.0-295.0-0.0","1252.2000000029802","run_exp/static/images/Set 6_rs/169a.jpg","78","","","","","","test","TR","4"
"","show_choice","454","670595","0.0-295.0-1.0","null","run_exp/static/images/Set 6_rs/169a.jpg","null","","","","","","test","TR",""
"","html-keyboard-response","455","671098","0.0-295.0-2.0","null","<p></p>","null","","","","","","","",""
"","image","456","673177","0.0-296.0-0.0","2076.9000000059605","run_exp/static/images/Set 6_rs/057b.jpg","86","","","","","","test","TL","1"
"","show_choice","457","673679","0.0-296.0-1.0","null","run_exp/static/images/Set 6_rs/057b.jpg","null","","","","","","test","TL",""
"","html-keyboard-response","458","674181","0.0-296.0-2.0","null","<p></p>","null","","","","","","","",""
"","image","459","675411","0.0-297.0-0.0","1227.8999999910593","run_exp/static/images/Set 6_rs/154a.jpg","86","","","","","","test","TR","3"
"","show_choice","460","675913","0.0-297.0-1.0","null","run_exp/static/images/Set 6_rs/154a.jpg","null","","","","","","test","TR",""
"","html-keyboard-response","461","676414","0.0-297.0-2.0","null","<p></p>","null","","","","","","","",""
"","image","462","677765","0.0-298.0-0.0","1348","run_exp/static/images/Set 6_rs/078a.jpg","78","","","","","","test","TF","1"
"","show_choice","463","678267","0.0-298.0-1.0","null","run_exp/static/images/Set 6_rs/078a.jpg","null","","","","","","test","TF",""
"","html-keyboard-response","464","678768","0.0-298.0-2.0","null","<p></p>","null","","","","","","","",""
"","image","465","680481","0.0-299.0-0.0","1710.5999999940395","run_exp/static/images/Set 6_rs/191b.jpg","86","","","","","","test","TL","2"
"","show_choice","466","680983","0.0-299.0-1.0","null","run_exp/static/images/Set 6_rs/191b.jpg","null","","","","","","test","TL",""
"","html-keyboard-response","467","681485","0.0-299.0-2.0","null","<p></p>","null","","","","","","","",""
"","image","468","683379","0.0-300.0-0.0","1891.4000000059605","run_exp/static/images/Set 6_rs/178a.jpg","66","","","","","","test","TR","3"
"","show_choice","469","683885","0.0-300.0-1.0","null","run_exp/static/images/Set 6_rs/178a.jpg","null","","","","","","test","TR",""
"","html-keyboard-response","470","684386","0.0-300.0-2.0","null","<p></p>","null","","","","","","","",""
"","image","471","685758","0.0-301.0-0.0","1369.4000000059605","run_exp/static/images/Set 6_rs/085b.jpg","66","","","","","","test","TL","1"
"","show_choice","472","686260","0.0-301.0-1.0","null","run_exp/static/images/Set 6_rs/085b.jpg","null","","","","","","test","TL",""
"","html-keyboard-response","473","686764","0.0-301.0-2.0","null","<p></p>","null","","","","","","","",""
"","image","474","688377","0.0-302.0-0.0","1610.9000000059605","run_exp/static/images/Set 6_rs/089b.jpg","86","","","","","","test","TL","4"
"","show_choice","475","688882","0.0-302.0-1.0","null","run_exp/static/images/Set 6_rs/089b.jpg","null","","","","","","test","TL",""
"","html-keyboard-response","476","689388","0.0-302.0-2.0","null","<p></p>","null","","","","","","","",""
"","image","477","691635","0.0-303.0-0.0","2244.5","run_exp/static/images/Set 6_rs/136a.jpg","78","","","","","","test","TF","4"
"","show_choice","478","692137","0.0-303.0-1.0","null","run_exp/static/images/Set 6_rs/136a.jpg","null","","","","","","test","TF",""
"","html-keyboard-response","479","692639","0.0-303.0-2.0","null","<p></p>","null","","","","","","","",""
"","image","480","694571","0.0-304.0-0.0","1930","run_exp/static/images/Set 6_rs/129b.jpg","78","","","","","","test","TL","1"
"","show_choice","481","695073","0.0-304.0-1.0","null","run_exp/static/images/Set 6_rs/129b.jpg","null","","","","","","test","TL",""
"","html-keyboard-response","482","695575","0.0-304.0-2.0","null","<p></p>","null","","","","","","","",""
"","image","483","696320","0.0-305.0-0.0","743.6999999880791","run_exp/static/images/Set 6_rs/071b.jpg","78","","","","","","test","TL","4"
"","show_choice","484","696822","0.0-305.0-1.0","null","run_exp/static/images/Set 6_rs/071b.jpg","null","","","","","","test","TL",""
"","html-keyboard-response","485","697323","0.0-305.0-2.0","null","<p></p>","null","","","","","","","",""
"","image","486","699131","0.0-306.0-0.0","1806.0999999940395","run_exp/static/images/Set 6_rs/055b.jpg","86","","","","","","test","TL","4"
"","show_choice","487","699633","0.0-306.0-1.0","null","run_exp/static/images/Set 6_rs/055b.jpg","null","","","","","","test","TL",""
"","html-keyboard-response","488","700136","0.0-306.0-2.0","null","<p></p>","null","","","","","","","",""
"","image","489","702148","0.0-307.0-0.0","2010.2000000029802","run_exp/static/images/Set 6_rs/172a.jpg","86","","","","","","test","TR","1"
"","show_choice","490","702650","0.0-307.0-1.0","null","run_exp/static/images/Set 6_rs/172a.jpg","null","","","","","","test","TR",""
"","html-keyboard-response","491","703151","0.0-307.0-2.0","null","<p></p>","null","","","","","","","",""
"","image","492","705033","0.0-308.0-0.0","1879.9000000059605","run_exp/static/images/Set 6_rs/112a.jpg","86","","","","","","test","TR","5"
"","show_choice","493","705535","0.0-308.0-1.0","null","run_exp/static/images/Set 6_rs/112a.jpg","null","","","","","","test","TR",""
"","html-keyboard-response","494","706038","0.0-308.0-2.0","null","<p></p>","null","","","","","","","",""
"","image","495","706477","0.0-309.0-0.0","437.29999999701977","run_exp/static/images/Set 6_rs/190a.jpg","86","","","","","","test","TF","3"
"","show_choice","496","706978","0.0-309.0-1.0","null","run_exp/static/images/Set 6_rs/190a.jpg","null","","","","","","test","TF",""
"","html-keyboard-response","497","707485","0.0-309.0-2.0","null","<p></p>","null","","","","","","","",""
"","image","498","709160","0.0-310.0-0.0","1673.2999999970198","run_exp/static/images/Set 6_rs/181b.jpg","86","","","","","","test","TL","1"
"","show_choice","499","709662","0.0-310.0-1.0","null","run_exp/static/images/Set 6_rs/181b.jpg","null","","","","","","test","TL",""
"","html-keyboard-response","500","710168","0.0-310.0-2.0","null","<p></p>","null","","","","","","","",""
"","image","501","711320","0.0-311.0-0.0","1149.9000000059605","run_exp/static/images/Set 6_rs/016b.jpg","78","","","","","","test","TL","1"
"","show_choice","502","711822","0.0-311.0-1.0","null","run_exp/static/images/Set 6_rs/016b.jpg","null","","","","","","test","TL",""
"","html-keyboard-response","503","712324","0.0-311.0-2.0","null","<p></p>","null","","","","","","","",""
"","image","504","713433","0.0-312.0-0.0","1106.8999999910593","run_exp/static/images/Set 6_rs/171a.jpg","78","","","","","","test","TF","1"
"","show_choice","505","713937","0.0-312.0-1.0","null","run_exp/static/images/Set 6_rs/171a.jpg","null","","","","","","test","TF",""
"","html-keyboard-response","506","714438","0.0-312.0-2.0","null","<p></p>","null","","","","","","","",""
"","image","507","715585","0.0-313.0-0.0","1145.2000000029802","run_exp/static/images/Set 6_rs/149a.jpg","78","","","","","","test","TF","1"
"","show_choice","508","716090","0.0-313.0-1.0","null","run_exp/static/images/Set 6_rs/149a.jpg","null","","","","","","test","TF",""
"","html-keyboard-response","509","716594","0.0-313.0-2.0","null","<p></p>","null","","","","","","","",""
"","image","510","717432","0.0-314.0-0.0","836.2000000029802","run_exp/static/images/Set 6_rs/187a.jpg","78","","","","","","test","TR","3"
"","show_choice","511","717935","0.0-314.0-1.0","null","run_exp/static/images/Set 6_rs/187a.jpg","null","","","","","","test","TR",""
"","html-keyboard-response","512","718436","0.0-314.0-2.0","null","<p></p>","null","","","","","","","",""
"","all_done","513","725511","0.0-315.0-0.0","null","run_exp/static/audio/clip_23_all_done.m4a","null","","","","","<div class='center'><p>You are finished with all three parts of the experiment! You can press the space bar to end the game now. </p></div>","","",""
"","html-keyboard-response","514","726007","0.0-315.0-1.0","494.29999999701977","<div class='center'><p>You are finished with all three parts of the experiment! You can press the space bar to end the game now. </p><div><p><b>[Press the space bar to continue]</b></p></div>","32","","","","","","","",""
