"success","trial_type","trial_index","time_elapsed","internal_node_id","interactions","blur_events","focus_events","fullscreenenter_events","fullscreenexit_events","rt","stimulus","key_press","subject_id","participant_id","age","gender","prompt","phase","condition","lure_bin"
"true","fullscreen","0","5958","0.0-0.0","""event"",""trial"",""time""
""fullscreenenter"",""0"",""4970""
","
","
","""event"",""trial"",""time""
""fullscreenenter"",""0"",""4970""
","
","","","","","","","","","","",""
"","pavlovia","1","5960","0.0-1.0","""event"",""trial"",""time""
""fullscreenenter"",""0"",""4970""
","
","
","""event"",""trial"",""time""
""fullscreenenter"",""0"",""4970""
","
","","","","","","","","","","",""
"","welcome","2","40775","0.0-2.0","""event"",""trial"",""time""
""fullscreenenter"",""0"",""4970""
","
","
","""event"",""trial"",""time""
""fullscreenenter"",""0"",""4970""
","
","null","run_exp/static/audio/clip_1_welcome.m4a","null","1397","1302","15","Male","<div class='center'><p>Welcome to the third part of the study! First, you'll be shown pictures of items one at a time. For each picture, you have to decide if the item is typically found indoors or outdoors.</p><p>If you think it's usually found indoors, then press <b>v</b> key on your keyboard. If you think it's usually found outdoors, then press the <b>n</b> key.There will be reminders on the screen to help you remember which keys to press. </p><p>If you're not sure whether the item is an indoor item or an outdoor item, go ahead and take a guess but try your best not to skip that choice. </p></div>","","",""
"","html-keyboard-response","3","41458","0.0-3.0","""event"",""trial"",""time""
""fullscreenenter"",""0"",""4970""
","
","
","""event"",""trial"",""time""
""fullscreenenter"",""0"",""4970""
","
","681.9000000000233","<div class='center'><p>Welcome to the third part of the study! First, you'll be shown pictures of items one at a time. For each picture, you have to decide if the item is typically found indoors or outdoors.</p><p>If you think it's usually found indoors, then press <b>v</b> key on your keyboard. If you think it's usually found outdoors, then press the <b>n</b> key.There will be reminders on the screen to help you remember which keys to press. </p><p>If you're not sure whether the item is an indoor item or an outdoor item, go ahead and take a guess but try your best not to skip that choice. </p><div><p><b>[Press the space bar to continue]</b></p></div>","32","","","","","","","",""
"","image","4","43148","0.0-4.0","""event"",""trial"",""time""
""fullscreenenter"",""0"",""4970""
","
","
","""event"",""trial"",""time""
""fullscreenenter"",""0"",""4970""
","
","1688.5999999999767","run_exp/static/images/Set 6_rs/172a.jpg","78","","","","","","learn","SR",""
"","show_choice","5","43466","0.0-5.0","""event"",""trial"",""time""
""fullscreenenter"",""0"",""4970""
","
","
","""event"",""trial"",""time""
""fullscreenenter"",""0"",""4970""
","
","null","run_exp/static/images/Set 6_rs/172a.jpg","null","","","","","","learn","SR",""
"","html-keyboard-response","6","43973","0.0-6.0","""event"",""trial"",""time""
""fullscreenenter"",""0"",""4970""
","
","
","""event"",""trial"",""time""
""fullscreenenter"",""0"",""4970""
","
","null","<p></p>","null","","","","","","","",""
"","image","7","45585","0.0-7.0","""event"",""trial"",""time""
""fullscreenenter"",""0"",""4970""
","
","
","""event"",""trial"",""time""
""fullscreenenter"",""0"",""4970""
","
","1611","run_exp/static/images/Set 6_rs/061a.jpg","78","","","","","","learn","SR",""
"","show_choice","8","45981","0.0-8.0","""event"",""trial"",""time""
""fullscreenenter"",""0"",""4970""
","
","
","""event"",""trial"",""time""
""fullscreenenter"",""0"",""4970""
","
","null","run_exp/static/images/Set 6_rs/061a.jpg","null","","","","","","learn","SR",""
"","html-keyboard-response","9","46485","0.0-9.0","""event"",""trial"",""time""
""fullscreenenter"",""0"",""4970""
","
","
","""event"",""trial"",""time""
""fullscreenenter"",""0"",""4970""
","
","null","<p></p>","null","","","","","","","",""
"","image","10","48315","0.0-10.0","""event"",""trial"",""time""
""fullscreenenter"",""0"",""4970""
","
","
","""event"",""trial"",""time""
""fullscreenenter"",""0"",""4970""
","
","1828.5999999999767","run_exp/static/images/Set 6_rs/191a.jpg","78","","","","","","learn","SL",""
"","show_choice","11","48500","0.0-11.0","""event"",""trial"",""time""
""fullscreenenter"",""0"",""4970""
","
","
","""event"",""trial"",""time""
""fullscreenenter"",""0"",""4970""
","
","null","run_exp/static/images/Set 6_rs/191a.jpg","null","","","","","","learn","SL",""
"","html-keyboard-response","12","49004","0.0-12.0","""event"",""trial"",""time""
""fullscreenenter"",""0"",""4970""
","
","
","""event"",""trial"",""time""
""fullscreenenter"",""0"",""4970""
","
","null","<p></p>","null","","","","","","","",""
"","image","13","50489","0.0-13.0","""event"",""trial"",""time""
""fullscreenenter"",""0"",""4970""
","
","
","""event"",""trial"",""time""
""fullscreenenter"",""0"",""4970""
","
","1483.7000000000698","run_exp/static/images/Set 6_rs/121a.jpg","86","","","","","","learn","SR",""
"","show_choice","14","51009","0.0-14.0","""event"",""trial"",""time""
""fullscreenenter"",""0"",""4970""
","
","
","""event"",""trial"",""time""
""fullscreenenter"",""0"",""4970""
","
","null","run_exp/static/images/Set 6_rs/121a.jpg","null","","","","","","learn","SR",""
"","html-keyboard-response","15","51514","0.0-15.0","""event"",""trial"",""time""
""fullscreenenter"",""0"",""4970""
","
","
","""event"",""trial"",""time""
""fullscreenenter"",""0"",""4970""
","
","null","<p></p>","null","","","","","","","",""
"","image","16","52268","0.0-16.0","""event"",""trial"",""time""
""fullscreenenter"",""0"",""4970""
","
","
","""event"",""trial"",""time""
""fullscreenenter"",""0"",""4970""
","
","753.8000000000466","run_exp/static/images/Set 6_rs/112a.jpg","86","","","","","","learn","SR",""
"","show_choice","17","53530","0.0-17.0","""event"",""trial"",""time""
""fullscreenenter"",""0"",""4970""
","
","
","""event"",""trial"",""time""
""fullscreenenter"",""0"",""4970""
","
","null","run_exp/static/images/Set 6_rs/112a.jpg","null","","","","","","learn","SR",""
"","html-keyboard-response","18","54033","0.0-18.0","""event"",""trial"",""time""
""fullscreenenter"",""0"",""4970""
","
","
","""event"",""trial"",""time""
""fullscreenenter"",""0"",""4970""
","
","null","<p></p>","null","","","","","","","",""
"","image","19","55025","0.0-19.0","""event"",""trial"",""time""
""fullscreenenter"",""0"",""4970""
","
","
","""event"",""trial"",""time""
""fullscreenenter"",""0"",""4970""
","
","991.4000000000233","run_exp/static/images/Set 6_rs/074a.jpg","78","","","","","","learn","SL",""
"","show_choice","20","56037","0.0-20.0","""event"",""trial"",""time""
""fullscreenenter"",""0"",""4970""
","
","
","""event"",""trial"",""time""
""fullscreenenter"",""0"",""4970""
","
","null","run_exp/static/images/Set 6_rs/074a.jpg","null","","","","","","learn","SL",""
"","html-keyboard-response","21","56540","0.0-21.0","""event"",""trial"",""time""
""fullscreenenter"",""0"",""4970""
","
","
","""event"",""trial"",""time""
""fullscreenenter"",""0"",""4970""
","
","null","<p></p>","null","","","","","","","",""
"","image","22","57469","0.0-22.0","""event"",""trial"",""time""
""fullscreenenter"",""0"",""4970""
","
","
","""event"",""trial"",""time""
""fullscreenenter"",""0"",""4970""
","
","929","run_exp/static/images/Set 6_rs/045a.jpg","86","","","","","","learn","SR",""
"","show_choice","23","58551","0.0-23.0","""event"",""trial"",""time""
""fullscreenenter"",""0"",""4970""
","
","
","""event"",""trial"",""time""
""fullscreenenter"",""0"",""4970""
","
","null","run_exp/static/images/Set 6_rs/045a.jpg","null","","","","","","learn","SR",""
"","html-keyboard-response","24","59055","0.0-24.0","""event"",""trial"",""time""
""fullscreenenter"",""0"",""4970""
","
","
","""event"",""trial"",""time""
""fullscreenenter"",""0"",""4970""
","
","null","<p></p>","null","","","","","","","",""
"","image","25","59792","0.0-25.0","""event"",""trial"",""time""
""fullscreenenter"",""0"",""4970""
","
","
","""event"",""trial"",""time""
""fullscreenenter"",""0"",""4970""
","
","736.0999999999767","run_exp/static/images/Set 6_rs/186a.jpg","86","","","","","","learn","SR",""
"","show_choice","26","61067","0.0-26.0","""event"",""trial"",""time""
""fullscreenenter"",""0"",""4970""
","
","
","""event"",""trial"",""time""
""fullscreenenter"",""0"",""4970""
","
","null","run_exp/static/images/Set 6_rs/186a.jpg","null","","","","","","learn","SR",""
"","html-keyboard-response","27","61572","0.0-27.0","""event"",""trial"",""time""
""fullscreenenter"",""0"",""4970""
","
","
","""event"",""trial"",""time""
""fullscreenenter"",""0"",""4970""
","
","null","<p></p>","null","","","","","","","",""
"","image","28","62450","0.0-28.0","""event"",""trial"",""time""
""fullscreenenter"",""0"",""4970""
","
","
","""event"",""trial"",""time""
""fullscreenenter"",""0"",""4970""
","
","877","run_exp/static/images/Set 6_rs/036a.jpg","86","","","","","","learn","SL",""
"","show_choice","29","63587","0.0-29.0","""event"",""trial"",""time""
""fullscreenenter"",""0"",""4970""
","
","
","""event"",""trial"",""time""
""fullscreenenter"",""0"",""4970""
","
","null","run_exp/static/images/Set 6_rs/036a.jpg","null","","","","","","learn","SL",""
"","html-keyboard-response","30","64092","0.0-30.0","""event"",""trial"",""time""
""fullscreenenter"",""0"",""4970""
","
","
","""event"",""trial"",""time""
""fullscreenenter"",""0"",""4970""
","
","null","<p></p>","null","","","","","","","",""
"","image","31","64821","0.0-31.0","""event"",""trial"",""time""
""fullscreenenter"",""0"",""4970""
","
","
","""event"",""trial"",""time""
""fullscreenenter"",""0"",""4970""
","
","727.7999999999302","run_exp/static/images/Set 6_rs/012a.jpg","86","","","","","","learn","SR",""
"","show_choice","32","66098","0.0-32.0","""event"",""trial"",""time""
""fullscreenenter"",""0"",""4970""
","
","
","""event"",""trial"",""time""
""fullscreenenter"",""0"",""4970""
","
","null","run_exp/static/images/Set 6_rs/012a.jpg","null","","","","","","learn","SR",""
"","html-keyboard-response","33","66603","0.0-33.0","""event"",""trial"",""time""
""fullscreenenter"",""0"",""4970""
","
","
","""event"",""trial"",""time""
""fullscreenenter"",""0"",""4970""
","
","null","<p></p>","null","","","","","","","",""
"","image","34","67754","0.0-34.0","""event"",""trial"",""time""
""fullscreenenter"",""0"",""4970""
","
","
","""event"",""trial"",""time""
""fullscreenenter"",""0"",""4970""
","
","1150.4000000000233","run_exp/static/images/Set 6_rs/071a.jpg","78","","","","","","learn","SL",""
"","show_choice","35","68618","0.0-35.0","""event"",""trial"",""time""
""fullscreenenter"",""0"",""4970""
","
","
","""event"",""trial"",""time""
""fullscreenenter"",""0"",""4970""
","
","null","run_exp/static/images/Set 6_rs/071a.jpg","null","","","","","","learn","SL",""
"","html-keyboard-response","36","69124","0.0-36.0","""event"",""trial"",""time""
""fullscreenenter"",""0"",""4970""
","
","
","""event"",""trial"",""time""
""fullscreenenter"",""0"",""4970""
","
","null","<p></p>","null","","","","","","","",""
"","image","37","69932","0.0-37.0","""event"",""trial"",""time""
""fullscreenenter"",""0"",""4970""
","
","
","""event"",""trial"",""time""
""fullscreenenter"",""0"",""4970""
","
","807.9000000000233","run_exp/static/images/Set 6_rs/085a.jpg","86","","","","","","learn","SL",""
"","show_choice","38","71137","0.0-38.0","""event"",""trial"",""time""
""fullscreenenter"",""0"",""4970""
","
","
","""event"",""trial"",""time""
""fullscreenenter"",""0"",""4970""
","
","null","run_exp/static/images/Set 6_rs/085a.jpg","null","","","","","","learn","SL",""
"","html-keyboard-response","39","71639","0.0-39.0","""event"",""trial"",""time""
""fullscreenenter"",""0"",""4970""
","
","
","""event"",""trial"",""time""
""fullscreenenter"",""0"",""4970""
","
","null","<p></p>","null","","","","","","","",""
"","image","40","72951","0.0-40.0","""event"",""trial"",""time""
""fullscreenenter"",""0"",""4970""
","
","
","""event"",""trial"",""time""
""fullscreenenter"",""0"",""4970""
","
","1310.7000000000698","run_exp/static/images/Set 6_rs/025a.jpg","78","","","","","","learn","SL",""
"","show_choice","41","73648","0.0-41.0","""event"",""trial"",""time""
""fullscreenenter"",""0"",""4970""
","
","
","""event"",""trial"",""time""
""fullscreenenter"",""0"",""4970""
","
","null","run_exp/static/images/Set 6_rs/025a.jpg","null","","","","","","learn","SL",""
"","html-keyboard-response","42","74152","0.0-42.0","""event"",""trial"",""time""
""fullscreenenter"",""0"",""4970""
","
","
","""event"",""trial"",""time""
""fullscreenenter"",""0"",""4970""
","
","null","<p></p>","null","","","","","","","",""
"","image","43","75387","0.0-43.0","""event"",""trial"",""time""
""fullscreenenter"",""0"",""4970""
","
","
","""event"",""trial"",""time""
""fullscreenenter"",""0"",""4970""
","
","1234.5999999999767","run_exp/static/images/Set 6_rs/017a.jpg","86","","","","","","learn","SL",""
"","show_choice","44","76159","0.0-44.0","""event"",""trial"",""time""
""fullscreenenter"",""0"",""4970""
","
","
","""event"",""trial"",""time""
""fullscreenenter"",""0"",""4970""
","
","null","run_exp/static/images/Set 6_rs/017a.jpg","null","","","","","","learn","SL",""
"","html-keyboard-response","45","76665","0.0-45.0","""event"",""trial"",""time""
""fullscreenenter"",""0"",""4970""
","
","
","""event"",""trial"",""time""
""fullscreenenter"",""0"",""4970""
","
","null","<p></p>","null","","","","","","","",""
"","image","46","78315","0.0-46.0","""event"",""trial"",""time""
""fullscreenenter"",""0"",""4970""
","
","
","""event"",""trial"",""time""
""fullscreenenter"",""0"",""4970""
","
","1649.5","run_exp/static/images/Set 6_rs/117a.jpg","86","","","","","","learn","SL",""
"","show_choice","47","78668","0.0-47.0","""event"",""trial"",""time""
""fullscreenenter"",""0"",""4970""
","
","
","""event"",""trial"",""time""
""fullscreenenter"",""0"",""4970""
","
","null","run_exp/static/images/Set 6_rs/117a.jpg","null","","","","","","learn","SL",""
"","html-keyboard-response","48","79173","0.0-48.0","""event"",""trial"",""time""
""fullscreenenter"",""0"",""4970""
","
","
","""event"",""trial"",""time""
""fullscreenenter"",""0"",""4970""
","
","null","<p></p>","null","","","","","","","",""
"","image","49","80106","0.0-49.0","""event"",""trial"",""time""
""fullscreenenter"",""0"",""4970""
","
","
","""event"",""trial"",""time""
""fullscreenenter"",""0"",""4970""
","
","931.5999999999767","run_exp/static/images/Set 6_rs/108a.jpg","78","","","","","","learn","SR",""
"","show_choice","50","81188","0.0-50.0","""event"",""trial"",""time""
""fullscreenenter"",""0"",""4970""
","
","
","""event"",""trial"",""time""
""fullscreenenter"",""0"",""4970""
","
","null","run_exp/static/images/Set 6_rs/108a.jpg","null","","","","","","learn","SR",""
"","html-keyboard-response","51","81696","0.0-51.0","""event"",""trial"",""time""
""fullscreenenter"",""0"",""4970""
","
","
","""event"",""trial"",""time""
""fullscreenenter"",""0"",""4970""
","
","null","<p></p>","null","","","","","","","",""
"","image","52","82502","0.0-52.0","""event"",""trial"",""time""
""fullscreenenter"",""0"",""4970""
","
","
","""event"",""trial"",""time""
""fullscreenenter"",""0"",""4970""
","
","804.5999999999767","run_exp/static/images/Set 6_rs/007a.jpg","86","","","","","","learn","SR",""
"","show_choice","53","83710","0.0-53.0","""event"",""trial"",""time""
""fullscreenenter"",""0"",""4970""
","
","
","""event"",""trial"",""time""
""fullscreenenter"",""0"",""4970""
","
","null","run_exp/static/images/Set 6_rs/007a.jpg","null","","","","","","learn","SR",""
"","html-keyboard-response","54","84216","0.0-54.0","""event"",""trial"",""time""
""fullscreenenter"",""0"",""4970""
","
","
","""event"",""trial"",""time""
""fullscreenenter"",""0"",""4970""
","
","null","<p></p>","null","","","","","","","",""
"","image","55","85617","0.0-55.0","""event"",""trial"",""time""
""fullscreenenter"",""0"",""4970""
","
","
","""event"",""trial"",""time""
""fullscreenenter"",""0"",""4970""
","
","1399.5999999999767","run_exp/static/images/Set 6_rs/116a.jpg","86","","","","","","learn","SL",""
"","show_choice","56","86222","0.0-56.0","""event"",""trial"",""time""
""fullscreenenter"",""0"",""4970""
","
","
","""event"",""trial"",""time""
""fullscreenenter"",""0"",""4970""
","
","null","run_exp/static/images/Set 6_rs/116a.jpg","null","","","","","","learn","SL",""
"","html-keyboard-response","57","86724","0.0-57.0","""event"",""trial"",""time""
""fullscreenenter"",""0"",""4970""
","
","
","""event"",""trial"",""time""
""fullscreenenter"",""0"",""4970""
","
","null","<p></p>","null","","","","","","","",""
"","image","58","87712","0.0-58.0","""event"",""trial"",""time""
""fullscreenenter"",""0"",""4970""
","
","
","""event"",""trial"",""time""
""fullscreenenter"",""0"",""4970""
","
","987.0999999999767","run_exp/static/images/Set 6_rs/089a.jpg","86","","","","","","learn","SL",""
"","show_choice","59","88733","0.0-59.0","""event"",""trial"",""time""
""fullscreenenter"",""0"",""4970""
","
","
","""event"",""trial"",""time""
""fullscreenenter"",""0"",""4970""
","
","null","run_exp/static/images/Set 6_rs/089a.jpg","null","","","","","","learn","SL",""
"","html-keyboard-response","60","89237","0.0-60.0","""event"",""trial"",""time""
""fullscreenenter"",""0"",""4970""
","
","
","""event"",""trial"",""time""
""fullscreenenter"",""0"",""4970""
","
","null","<p></p>","null","","","","","","","",""
"","image","61","90051","0.0-61.0","""event"",""trial"",""time""
""fullscreenenter"",""0"",""4970""
","
","
","""event"",""trial"",""time""
""fullscreenenter"",""0"",""4970""
","
","813","run_exp/static/images/Set 6_rs/181a.jpg","78","","","","","","learn","SL",""
"","show_choice","62","91253","0.0-62.0","""event"",""trial"",""time""
""fullscreenenter"",""0"",""4970""
","
","
","""event"",""trial"",""time""
""fullscreenenter"",""0"",""4970""
","
","null","run_exp/static/images/Set 6_rs/181a.jpg","null","","","","","","learn","SL",""
"","html-keyboard-response","63","91759","0.0-63.0","""event"",""trial"",""time""
""fullscreenenter"",""0"",""4970""
","
","
","""event"",""trial"",""time""
""fullscreenenter"",""0"",""4970""
","
","null","<p></p>","null","","","","","","","",""
"","image","64","92744","0.0-64.0","""event"",""trial"",""time""
""fullscreenenter"",""0"",""4970""
","
","
","""event"",""trial"",""time""
""fullscreenenter"",""0"",""4970""
","
","983.9000000000233","run_exp/static/images/Set 6_rs/063a.jpg","86","","","","","","learn","SR",""
"","show_choice","65","93761","0.0-65.0","""event"",""trial"",""time""
""fullscreenenter"",""0"",""4970""
","
","
","""event"",""trial"",""time""
""fullscreenenter"",""0"",""4970""
","
","null","run_exp/static/images/Set 6_rs/063a.jpg","null","","","","","","learn","SR",""
"","html-keyboard-response","66","94276","0.0-66.0","""event"",""trial"",""time""
""fullscreenenter"",""0"",""4970""
","
","
","""event"",""trial"",""time""
""fullscreenenter"",""0"",""4970""
","
","null","<p></p>","null","","","","","","","",""
"","image","67","95224","0.0-67.0","""event"",""trial"",""time""
""fullscreenenter"",""0"",""4970""
","
","
","""event"",""trial"",""time""
""fullscreenenter"",""0"",""4970""
","
","947.4000000000233","run_exp/static/images/Set 6_rs/024a.jpg","86","","","","","","learn","SR",""
"","show_choice","68","96288","0.0-68.0","""event"",""trial"",""time""
""fullscreenenter"",""0"",""4970""
","
","
","""event"",""trial"",""time""
""fullscreenenter"",""0"",""4970""
","
","null","run_exp/static/images/Set 6_rs/024a.jpg","null","","","","","","learn","SR",""
"","html-keyboard-response","69","96795","0.0-69.0","""event"",""trial"",""time""
""fullscreenenter"",""0"",""4970""
","
","
","""event"",""trial"",""time""
""fullscreenenter"",""0"",""4970""
","
","null","<p></p>","null","","","","","","","",""
"","image","70","97680","0.0-70.0","""event"",""trial"",""time""
""fullscreenenter"",""0"",""4970""
","
","
","""event"",""trial"",""time""
""fullscreenenter"",""0"",""4970""
","
","883.4000000000233","run_exp/static/images/Set 6_rs/129a.jpg","86","","","","","","learn","SL",""
"","show_choice","71","98812","0.0-71.0","""event"",""trial"",""time""
""fullscreenenter"",""0"",""4970""
","
","
","""event"",""trial"",""time""
""fullscreenenter"",""0"",""4970""
","
","null","run_exp/static/images/Set 6_rs/129a.jpg","null","","","","","","learn","SL",""
"","html-keyboard-response","72","99316","0.0-72.0","""event"",""trial"",""time""
""fullscreenenter"",""0"",""4970""
","
","
","""event"",""trial"",""time""
""fullscreenenter"",""0"",""4970""
","
","null","<p></p>","null","","","","","","","",""
"","image","73","100678","0.0-73.0","""event"",""trial"",""time""
""fullscreenenter"",""0"",""4970""
","
","
","""event"",""trial"",""time""
""fullscreenenter"",""0"",""4970""
","
","1361.4000000000233","run_exp/static/images/Set 6_rs/152a.jpg","78","","","","","","learn","SR",""
"","show_choice","74","101331","0.0-74.0","""event"",""trial"",""time""
""fullscreenenter"",""0"",""4970""
","
","
","""event"",""trial"",""time""
""fullscreenenter"",""0"",""4970""
","
","null","run_exp/static/images/Set 6_rs/152a.jpg","null","","","","","","learn","SR",""
"","html-keyboard-response","75","101834","0.0-75.0","""event"",""trial"",""time""
""fullscreenenter"",""0"",""4970""
","
","
","""event"",""trial"",""time""
""fullscreenenter"",""0"",""4970""
","
","null","<p></p>","null","","","","","","","",""
"","image","76","103685","0.0-76.0","""event"",""trial"",""time""
""fullscreenenter"",""0"",""4970""
","
","
","""event"",""trial"",""time""
""fullscreenenter"",""0"",""4970""
","
","1849.5999999999767","run_exp/static/images/Set 6_rs/126a.jpg","86","","","","","","learn","SR",""
"","show_choice","77","103841","0.0-77.0","""event"",""trial"",""time""
""fullscreenenter"",""0"",""4970""
","
","
","""event"",""trial"",""time""
""fullscreenenter"",""0"",""4970""
","
","null","run_exp/static/images/Set 6_rs/126a.jpg","null","","","","","","learn","SR",""
"","html-keyboard-response","78","104346","0.0-78.0","""event"",""trial"",""time""
""fullscreenenter"",""0"",""4970""
","
","
","""event"",""trial"",""time""
""fullscreenenter"",""0"",""4970""
","
","null","<p></p>","null","","","","","","","",""
"","image","79","106176","0.0-79.0","""event"",""trial"",""time""
""fullscreenenter"",""0"",""4970""
","
","
","""event"",""trial"",""time""
""fullscreenenter"",""0"",""4970""
","
","1829.1999999999534","run_exp/static/images/Set 6_rs/168a.jpg","78","","","","","","learn","SL",""
"","show_choice","80","106360","0.0-80.0","""event"",""trial"",""time""
""fullscreenenter"",""0"",""4970""
","
","
","""event"",""trial"",""time""
""fullscreenenter"",""0"",""4970""
","
","null","run_exp/static/images/Set 6_rs/168a.jpg","null","","","","","","learn","SL",""
"","html-keyboard-response","81","106864","0.0-81.0","""event"",""trial"",""time""
""fullscreenenter"",""0"",""4970""
","
","
","""event"",""trial"",""time""
""fullscreenenter"",""0"",""4970""
","
","null","<p></p>","null","","","","","","","",""
"","image","82","107870","0.0-82.0","""event"",""trial"",""time""
""fullscreenenter"",""0"",""4970""
","
","
","""event"",""trial"",""time""
""fullscreenenter"",""0"",""4970""
","
","1005.5999999999767","run_exp/static/images/Set 6_rs/131a.jpg","86","","","","","","learn","SR",""
"","show_choice","83","108879","0.0-83.0","""event"",""trial"",""time""
""fullscreenenter"",""0"",""4970""
","
","
","""event"",""trial"",""time""
""fullscreenenter"",""0"",""4970""
","
","null","run_exp/static/images/Set 6_rs/131a.jpg","null","","","","","","learn","SR",""
"","html-keyboard-response","84","109386","0.0-84.0","""event"",""trial"",""time""
""fullscreenenter"",""0"",""4970""
","
","
","""event"",""trial"",""time""
""fullscreenenter"",""0"",""4970""
","
","null","<p></p>","null","","","","","","","",""
"","image","85","110623","0.0-85.0","""event"",""trial"",""time""
""fullscreenenter"",""0"",""4970""
","
","
","""event"",""trial"",""time""
""fullscreenenter"",""0"",""4970""
","
","1236.5999999999767","run_exp/static/images/Set 6_rs/187a.jpg","86","","","","","","learn","SR",""
"","show_choice","86","111389","0.0-86.0","""event"",""trial"",""time""
""fullscreenenter"",""0"",""4970""
","
","
","""event"",""trial"",""time""
""fullscreenenter"",""0"",""4970""
","
","null","run_exp/static/images/Set 6_rs/187a.jpg","null","","","","","","learn","SR",""
"","html-keyboard-response","87","111897","0.0-87.0","""event"",""trial"",""time""
""fullscreenenter"",""0"",""4970""
","
","
","""event"",""trial"",""time""
""fullscreenenter"",""0"",""4970""
","
","null","<p></p>","null","","","","","","","",""
"","image","88","113227","0.0-88.0","""event"",""trial"",""time""
""fullscreenenter"",""0"",""4970""
","
","
","""event"",""trial"",""time""
""fullscreenenter"",""0"",""4970""
","
","1328.7999999999302","run_exp/static/images/Set 6_rs/073a.jpg","86","","","","","","learn","SL",""
"","show_choice","89","113903","0.0-89.0","""event"",""trial"",""time""
""fullscreenenter"",""0"",""4970""
","
","
","""event"",""trial"",""time""
""fullscreenenter"",""0"",""4970""
","
","null","run_exp/static/images/Set 6_rs/073a.jpg","null","","","","","","learn","SL",""
"","html-keyboard-response","90","114406","0.0-90.0","""event"",""trial"",""time""
""fullscreenenter"",""0"",""4970""
","
","
","""event"",""trial"",""time""
""fullscreenenter"",""0"",""4970""
","
","null","<p></p>","null","","","","","","","",""
"","image","91","115791","0.0-91.0","""event"",""trial"",""time""
""fullscreenenter"",""0"",""4970""
","
","
","""event"",""trial"",""time""
""fullscreenenter"",""0"",""4970""
","
","1383.4000000000233","run_exp/static/images/Set 6_rs/111a.jpg","86","","","","","","learn","SL",""
"","show_choice","92","116421","0.0-92.0","""event"",""trial"",""time""
""fullscreenenter"",""0"",""4970""
","
","
","""event"",""trial"",""time""
""fullscreenenter"",""0"",""4970""
","
","null","run_exp/static/images/Set 6_rs/111a.jpg","null","","","","","","learn","SL",""
"","html-keyboard-response","93","116924","0.0-93.0","""event"",""trial"",""time""
""fullscreenenter"",""0"",""4970""
","
","
","""event"",""trial"",""time""
""fullscreenenter"",""0"",""4970""
","
","null","<p></p>","null","","","","","","","",""
"","image","94","118228","0.0-94.0","""event"",""trial"",""time""
""fullscreenenter"",""0"",""4970""
","
","
","""event"",""trial"",""time""
""fullscreenenter"",""0"",""4970""
","
","1302.4000000000233","run_exp/static/images/Set 6_rs/062a.jpg","86","","","","","","learn","SL",""
"","show_choice","95","118938","0.0-95.0","""event"",""trial"",""time""
""fullscreenenter"",""0"",""4970""
","
","
","""event"",""trial"",""time""
""fullscreenenter"",""0"",""4970""
","
","null","run_exp/static/images/Set 6_rs/062a.jpg","null","","","","","","learn","SL",""
"","html-keyboard-response","96","119445","0.0-96.0","""event"",""trial"",""time""
""fullscreenenter"",""0"",""4970""
","
","
","""event"",""trial"",""time""
""fullscreenenter"",""0"",""4970""
","
","null","<p></p>","null","","","","","","","",""
"","image","97","120566","0.0-97.0","""event"",""trial"",""time""
""fullscreenenter"",""0"",""4970""
","
","
","""event"",""trial"",""time""
""fullscreenenter"",""0"",""4970""
","
","1120.5","run_exp/static/images/Set 6_rs/019a.jpg","86","","","","","","learn","SL",""
"","show_choice","98","121460","0.0-98.0","""event"",""trial"",""time""
""fullscreenenter"",""0"",""4970""
","
","
","""event"",""trial"",""time""
""fullscreenenter"",""0"",""4970""
","
","null","run_exp/static/images/Set 6_rs/019a.jpg","null","","","","","","learn","SL",""
"","html-keyboard-response","99","121967","0.0-99.0","""event"",""trial"",""time""
""fullscreenenter"",""0"",""4970""
","
","
","""event"",""trial"",""time""
""fullscreenenter"",""0"",""4970""
","
","null","<p></p>","null","","","","","","","",""
"","image","100","122582","0.0-100.0","""event"",""trial"",""time""
""fullscreenenter"",""0"",""4970""
","
","
","""event"",""trial"",""time""
""fullscreenenter"",""0"",""4970""
","
","614.2000000000698","run_exp/static/images/Set 6_rs/079a.jpg","86","","","","","","learn","SL",""
"","show_choice","101","123978","0.0-101.0","""event"",""trial"",""time""
""fullscreenenter"",""0"",""4970""
","
","
","""event"",""trial"",""time""
""fullscreenenter"",""0"",""4970""
","
","null","run_exp/static/images/Set 6_rs/079a.jpg","null","","","","","","learn","SL",""
"","html-keyboard-response","102","124482","0.0-102.0","""event"",""trial"",""time""
""fullscreenenter"",""0"",""4970""
","
","
","""event"",""trial"",""time""
""fullscreenenter"",""0"",""4970""
","
","null","<p></p>","null","","","","","","","",""
"","image","103","125673","0.0-103.0","""event"",""trial"",""time""
""fullscreenenter"",""0"",""4970""
","
","
","""event"",""trial"",""time""
""fullscreenenter"",""0"",""4970""
","
","1190.6000000000931","run_exp/static/images/Set 6_rs/091a.jpg","78","","","","","","learn","SL",""
"","show_choice","104","126490","0.0-104.0","""event"",""trial"",""time""
""fullscreenenter"",""0"",""4970""
","
","
","""event"",""trial"",""time""
""fullscreenenter"",""0"",""4970""
","
","null","run_exp/static/images/Set 6_rs/091a.jpg","null","","","","","","learn","SL",""
"","html-keyboard-response","105","126998","0.0-105.0","""event"",""trial"",""time""
""fullscreenenter"",""0"",""4970""
","
","
","""event"",""trial"",""time""
""fullscreenenter"",""0"",""4970""
","
","null","<p></p>","null","","","","","","","",""
"","image","106","128058","0.0-106.0","""event"",""trial"",""time""
""fullscreenenter"",""0"",""4970""
","
","
","""event"",""trial"",""time""
""fullscreenenter"",""0"",""4970""
","
","1059.4000000000233","run_exp/static/images/Set 6_rs/123a.jpg","78","","","","","","learn","SL",""
"","show_choice","107","129008","0.0-107.0","""event"",""trial"",""time""
""fullscreenenter"",""0"",""4970""
","
","
","""event"",""trial"",""time""
""fullscreenenter"",""0"",""4970""
","
","null","run_exp/static/images/Set 6_rs/123a.jpg","null","","","","","","learn","SL",""
"","html-keyboard-response","108","129516","0.0-108.0","""event"",""trial"",""time""
""fullscreenenter"",""0"",""4970""
","
","
","""event"",""trial"",""time""
""fullscreenenter"",""0"",""4970""
","
","null","<p></p>","null","","","","","","","",""
"","image","109","130140","0.0-109.0","""event"",""trial"",""time""
""fullscreenenter"",""0"",""4970""
","
","
","""event"",""trial"",""time""
""fullscreenenter"",""0"",""4970""
","
","622.3999999999069","run_exp/static/images/Set 6_rs/154a.jpg","86","","","","","","learn","SR",""
"","show_choice","110","131526","0.0-110.0","""event"",""trial"",""time""
""fullscreenenter"",""0"",""4970""
","
","
","""event"",""trial"",""time""
""fullscreenenter"",""0"",""4970""
","
","null","run_exp/static/images/Set 6_rs/154a.jpg","null","","","","","","learn","SR",""
"","html-keyboard-response","111","132043","0.0-111.0","""event"",""trial"",""time""
""fullscreenenter"",""0"",""4970""
","
","
","""event"",""trial"",""time""
""fullscreenenter"",""0"",""4970""
","
","null","<p></p>","null","","","","","","","",""
"","image","112","132904","0.0-112.0","""event"",""trial"",""time""
""fullscreenenter"",""0"",""4970""
","
","
","""event"",""trial"",""time""
""fullscreenenter"",""0"",""4970""
","
","860.0999999999767","run_exp/static/images/Set 6_rs/064a.jpg","78","","","","","","learn","SR",""
"","show_choice","113","134047","0.0-113.0","""event"",""trial"",""time""
""fullscreenenter"",""0"",""4970""
","
","
","""event"",""trial"",""time""
""fullscreenenter"",""0"",""4970""
","
","null","run_exp/static/images/Set 6_rs/064a.jpg","null","","","","","","learn","SR",""
"","html-keyboard-response","114","134552","0.0-114.0","""event"",""trial"",""time""
""fullscreenenter"",""0"",""4970""
","
","
","""event"",""trial"",""time""
""fullscreenenter"",""0"",""4970""
","
","null","<p></p>","null","","","","","","","",""
"","image","115","135373","0.0-115.0","""event"",""trial"",""time""
""fullscreenenter"",""0"",""4970""
","
","
","""event"",""trial"",""time""
""fullscreenenter"",""0"",""4970""
","
","820.3000000000466","run_exp/static/images/Set 6_rs/178a.jpg","78","","","","","","learn","SR",""
"","show_choice","116","136565","0.0-116.0","""event"",""trial"",""time""
""fullscreenenter"",""0"",""4970""
","
","
","""event"",""trial"",""time""
""fullscreenenter"",""0"",""4970""
","
","null","run_exp/static/images/Set 6_rs/178a.jpg","null","","","","","","learn","SR",""
"","html-keyboard-response","117","137069","0.0-117.0","""event"",""trial"",""time""
""fullscreenenter"",""0"",""4970""
","
","
","""event"",""trial"",""time""
""fullscreenenter"",""0"",""4970""
","
","null","<p></p>","null","","","","","","","",""
"","image","118","138507","0.0-118.0","""event"",""trial"",""time""
""fullscreenenter"",""0"",""4970""
","
","
","""event"",""trial"",""time""
""fullscreenenter"",""0"",""4970""
","
","1436.5","run_exp/static/images/Set 6_rs/014a.jpg","86","","","","","","learn","SL",""
"","show_choice","119","139082","0.0-119.0","""event"",""trial"",""time""
""fullscreenenter"",""0"",""4970""
","
","
","""event"",""trial"",""time""
""fullscreenenter"",""0"",""4970""
","
","null","run_exp/static/images/Set 6_rs/014a.jpg","null","","","","","","learn","SL",""
"","html-keyboard-response","120","139587","0.0-120.0","""event"",""trial"",""time""
""fullscreenenter"",""0"",""4970""
","
","
","""event"",""trial"",""time""
""fullscreenenter"",""0"",""4970""
","
","null","<p></p>","null","","","","","","","",""
"","image","121","140281","0.0-121.0","""event"",""trial"",""time""
""fullscreenenter"",""0"",""4970""
","
","
","""event"",""trial"",""time""
""fullscreenenter"",""0"",""4970""
","
","692.5","run_exp/static/images/Set 6_rs/095a.jpg","86","","","","","","learn","SL",""
"","show_choice","122","141603","0.0-122.0","""event"",""trial"",""time""
""fullscreenenter"",""0"",""4970""
","
","
","""event"",""trial"",""time""
""fullscreenenter"",""0"",""4970""
","
","null","run_exp/static/images/Set 6_rs/095a.jpg","null","","","","","","learn","SL",""
"","html-keyboard-response","123","142110","0.0-123.0","""event"",""trial"",""time""
""fullscreenenter"",""0"",""4970""
","
","
","""event"",""trial"",""time""
""fullscreenenter"",""0"",""4970""
","
","null","<p></p>","null","","","","","","","",""
"","image","124","143185","0.0-124.0","""event"",""trial"",""time""
""fullscreenenter"",""0"",""4970""
","
","
","""event"",""trial"",""time""
""fullscreenenter"",""0"",""4970""
","
","1074.2999999999302","run_exp/static/images/Set 6_rs/055a.jpg","86","","","","","","learn","SL",""
"","show_choice","125","144112","0.0-125.0","""event"",""trial"",""time""
""fullscreenenter"",""0"",""4970""
","
","
","""event"",""trial"",""time""
""fullscreenenter"",""0"",""4970""
","
","null","run_exp/static/images/Set 6_rs/055a.jpg","null","","","","","","learn","SL",""
"","html-keyboard-response","126","144616","0.0-126.0","""event"",""trial"",""time""
""fullscreenenter"",""0"",""4970""
","
","
","""event"",""trial"",""time""
""fullscreenenter"",""0"",""4970""
","
","null","<p></p>","null","","","","","","","",""
"","image","127","145569","0.0-127.0","""event"",""trial"",""time""
""fullscreenenter"",""0"",""4970""
","
","
","""event"",""trial"",""time""
""fullscreenenter"",""0"",""4970""
","
","951.5","run_exp/static/images/Set 6_rs/057a.jpg","86","","","","","","learn","SL",""
"","show_choice","128","146621","0.0-128.0","""event"",""trial"",""time""
""fullscreenenter"",""0"",""4970""
","
","
","""event"",""trial"",""time""
""fullscreenenter"",""0"",""4970""
","
","null","run_exp/static/images/Set 6_rs/057a.jpg","null","","","","","","learn","SL",""
"","html-keyboard-response","129","147125","0.0-129.0","""event"",""trial"",""time""
""fullscreenenter"",""0"",""4970""
","
","
","""event"",""trial"",""time""
""fullscreenenter"",""0"",""4970""
","
","null","<p></p>","null","","","","","","","",""
"","image","130","148009","0.0-130.0","""event"",""trial"",""time""
""fullscreenenter"",""0"",""4970""
","
","
","""event"",""trial"",""time""
""fullscreenenter"",""0"",""4970""
","
","883","run_exp/static/images/Set 6_rs/076a.jpg","78","","","","","","learn","SR",""
"","show_choice","131","149133","0.0-131.0","""event"",""trial"",""time""
""fullscreenenter"",""0"",""4970""
","
","
","""event"",""trial"",""time""
""fullscreenenter"",""0"",""4970""
","
","null","run_exp/static/images/Set 6_rs/076a.jpg","null","","","","","","learn","SR",""
"","html-keyboard-response","132","149637","0.0-132.0","""event"",""trial"",""time""
""fullscreenenter"",""0"",""4970""
","
","
","""event"",""trial"",""time""
""fullscreenenter"",""0"",""4970""
","
","null","<p></p>","null","","","","","","","",""
"","image","133","150397","0.0-133.0","""event"",""trial"",""time""
""fullscreenenter"",""0"",""4970""
","
","
","""event"",""trial"",""time""
""fullscreenenter"",""0"",""4970""
","
","759.6999999999534","run_exp/static/images/Set 6_rs/008a.jpg","78","","","","","","learn","SL",""
"","show_choice","134","151650","0.0-134.0","""event"",""trial"",""time""
""fullscreenenter"",""0"",""4970""
","
","
","""event"",""trial"",""time""
""fullscreenenter"",""0"",""4970""
","
","null","run_exp/static/images/Set 6_rs/008a.jpg","null","","","","","","learn","SL",""
"","html-keyboard-response","135","152160","0.0-135.0","""event"",""trial"",""time""
""fullscreenenter"",""0"",""4970""
","
","
","""event"",""trial"",""time""
""fullscreenenter"",""0"",""4970""
","
","null","<p></p>","null","","","","","","","",""
"","image","136","153233","0.0-136.0","""event"",""trial"",""time""
""fullscreenenter"",""0"",""4970""
","
","
","""event"",""trial"",""time""
""fullscreenenter"",""0"",""4970""
","
","1072.5","run_exp/static/images/Set 6_rs/134a.jpg","86","","","","","","learn","SR",""
"","show_choice","137","154163","0.0-137.0","""event"",""trial"",""time""
""fullscreenenter"",""0"",""4970""
","
","
","""event"",""trial"",""time""
""fullscreenenter"",""0"",""4970""
","
","null","run_exp/static/images/Set 6_rs/134a.jpg","null","","","","","","learn","SR",""
"","html-keyboard-response","138","154671","0.0-138.0","""event"",""trial"",""time""
""fullscreenenter"",""0"",""4970""
","
","
","""event"",""trial"",""time""
""fullscreenenter"",""0"",""4970""
","
","null","<p></p>","null","","","","","","","",""
"","image","139","155421","0.0-139.0","""event"",""trial"",""time""
""fullscreenenter"",""0"",""4970""
","
","
","""event"",""trial"",""time""
""fullscreenenter"",""0"",""4970""
","
","748.7000000000698","run_exp/static/images/Set 6_rs/169a.jpg","78","","","","","","learn","SR",""
"","show_choice","140","156683","0.0-140.0","""event"",""trial"",""time""
""fullscreenenter"",""0"",""4970""
","
","
","""event"",""trial"",""time""
""fullscreenenter"",""0"",""4970""
","
","null","run_exp/static/images/Set 6_rs/169a.jpg","null","","","","","","learn","SR",""
"","html-keyboard-response","141","157187","0.0-141.0","""event"",""trial"",""time""
""fullscreenenter"",""0"",""4970""
","
","
","""event"",""trial"",""time""
""fullscreenenter"",""0"",""4970""
","
","null","<p></p>","null","","","","","","","",""
"","image","142","158719","0.0-142.0","""event"",""trial"",""time""
""fullscreenenter"",""0"",""4970""
","
","
","""event"",""trial"",""time""
""fullscreenenter"",""0"",""4970""
","
","1531.0999999999767","run_exp/static/images/Set 6_rs/144a.jpg","86","","","","","","learn","SL",""
"","show_choice","143","159191","0.0-143.0","""event"",""trial"",""time""
""fullscreenenter"",""0"",""4970""
","
","
","""event"",""trial"",""time""
""fullscreenenter"",""0"",""4970""
","
","null","run_exp/static/images/Set 6_rs/144a.jpg","null","","","","","","learn","SL",""
"","html-keyboard-response","144","159697","0.0-144.0","""event"",""trial"",""time""
""fullscreenenter"",""0"",""4970""
","
","
","""event"",""trial"",""time""
""fullscreenenter"",""0"",""4970""
","
","null","<p></p>","null","","","","","","","",""
"","image","145","161214","0.0-145.0","""event"",""trial"",""time""
""fullscreenenter"",""0"",""4970""
","
","
","""event"",""trial"",""time""
""fullscreenenter"",""0"",""4970""
","
","1515.5","run_exp/static/images/Set 6_rs/023a.jpg","86","","","","","","learn","SR",""
"","show_choice","146","161699","0.0-146.0","""event"",""trial"",""time""
""fullscreenenter"",""0"",""4970""
","
","
","""event"",""trial"",""time""
""fullscreenenter"",""0"",""4970""
","
","null","run_exp/static/images/Set 6_rs/023a.jpg","null","","","","","","learn","SR",""
"","html-keyboard-response","147","162201","0.0-147.0","""event"",""trial"",""time""
""fullscreenenter"",""0"",""4970""
","
","
","""event"",""trial"",""time""
""fullscreenenter"",""0"",""4970""
","
","null","<p></p>","null","","","","","","","",""
"","image","148","162901","0.0-148.0","""event"",""trial"",""time""
""fullscreenenter"",""0"",""4970""
","
","
","""event"",""trial"",""time""
""fullscreenenter"",""0"",""4970""
","
","699.2999999999302","run_exp/static/images/Set 6_rs/050a.jpg","86","","","","","","learn","SL",""
"","show_choice","149","164204","0.0-149.0","""event"",""trial"",""time""
""fullscreenenter"",""0"",""4970""
","
","
","""event"",""trial"",""time""
""fullscreenenter"",""0"",""4970""
","
","null","run_exp/static/images/Set 6_rs/050a.jpg","null","","","","","","learn","SL",""
"","html-keyboard-response","150","164707","0.0-150.0","""event"",""trial"",""time""
""fullscreenenter"",""0"",""4970""
","
","
","""event"",""trial"",""time""
""fullscreenenter"",""0"",""4970""
","
","null","<p></p>","null","","","","","","","",""
"","image","151","166467","0.0-151.0","""event"",""trial"",""time""
""fullscreenenter"",""0"",""4970""
","
","
","""event"",""trial"",""time""
""fullscreenenter"",""0"",""4970""
","
","1759.6999999999534","run_exp/static/images/Set 6_rs/167a.jpg","86","","","","","","learn","SL",""
"","show_choice","152","166712","0.0-152.0","""event"",""trial"",""time""
""fullscreenenter"",""0"",""4970""
","
","
","""event"",""trial"",""time""
""fullscreenenter"",""0"",""4970""
","
","null","run_exp/static/images/Set 6_rs/167a.jpg","null","","","","","","learn","SL",""
"","html-keyboard-response","153","167216","0.0-153.0","""event"",""trial"",""time""
""fullscreenenter"",""0"",""4970""
","
","
","""event"",""trial"",""time""
""fullscreenenter"",""0"",""4970""
","
","null","<p></p>","null","","","","","","","",""
"","image","154","168116","0.0-154.0","""event"",""trial"",""time""
""fullscreenenter"",""0"",""4970""
","
","
","""event"",""trial"",""time""
""fullscreenenter"",""0"",""4970""
","
","898.8000000000466","run_exp/static/images/Set 6_rs/010a.jpg","86","","","","","","learn","SR",""
"","show_choice","155","169222","0.0-155.0","""event"",""trial"",""time""
""fullscreenenter"",""0"",""4970""
","
","
","""event"",""trial"",""time""
""fullscreenenter"",""0"",""4970""
","
","null","run_exp/static/images/Set 6_rs/010a.jpg","null","","","","","","learn","SR",""
"","html-keyboard-response","156","169739","0.0-156.0","""event"",""trial"",""time""
""fullscreenenter"",""0"",""4970""
","
","
","""event"",""trial"",""time""
""fullscreenenter"",""0"",""4970""
","
","null","<p></p>","null","","","","","","","",""
"","image","157","170850","0.0-157.0","""event"",""trial"",""time""
""fullscreenenter"",""0"",""4970""
","
","
","""event"",""trial"",""time""
""fullscreenenter"",""0"",""4970""
","
","1110.6000000000931","run_exp/static/images/Set 6_rs/122a.jpg","86","","","","","","learn","SR",""
"","show_choice","158","171742","0.0-158.0","""event"",""trial"",""time""
""fullscreenenter"",""0"",""4970""
","
","
","""event"",""trial"",""time""
""fullscreenenter"",""0"",""4970""
","
","null","run_exp/static/images/Set 6_rs/122a.jpg","null","","","","","","learn","SR",""
"","html-keyboard-response","159","172243","0.0-159.0","""event"",""trial"",""time""
""fullscreenenter"",""0"",""4970""
","
","
","""event"",""trial"",""time""
""fullscreenenter"",""0"",""4970""
","
","null","<p></p>","null","","","","","","","",""
"","image","160","174070","0.0-160.0","""event"",""trial"",""time""
""fullscreenenter"",""0"",""4970""
","
","
","""event"",""trial"",""time""
""fullscreenenter"",""0"",""4970""
","
","1826.1999999999534","run_exp/static/images/Set 6_rs/066a.jpg","78","","","","","","learn","SL",""
"","show_choice","161","174251","0.0-161.0","""event"",""trial"",""time""
""fullscreenenter"",""0"",""4970""
","
","
","""event"",""trial"",""time""
""fullscreenenter"",""0"",""4970""
","
","null","run_exp/static/images/Set 6_rs/066a.jpg","null","","","","","","learn","SL",""
"","html-keyboard-response","162","174758","0.0-162.0","""event"",""trial"",""time""
""fullscreenenter"",""0"",""4970""
","
","
","""event"",""trial"",""time""
""fullscreenenter"",""0"",""4970""
","
","null","<p></p>","null","","","","","","","",""
"","image","163","176214","0.0-163.0","""event"",""trial"",""time""
""fullscreenenter"",""0"",""4970""
","
","
","""event"",""trial"",""time""
""fullscreenenter"",""0"",""4970""
","
","1455.6999999999534","run_exp/static/images/Set 6_rs/141a.jpg","78","","","","","","learn","SR",""
"","show_choice","164","176767","0.0-164.0","""event"",""trial"",""time""
""fullscreenenter"",""0"",""4970""
","
","
","""event"",""trial"",""time""
""fullscreenenter"",""0"",""4970""
","
","null","run_exp/static/images/Set 6_rs/141a.jpg","null","","","","","","learn","SR",""
"","html-keyboard-response","165","177277","0.0-165.0","""event"",""trial"",""time""
""fullscreenenter"",""0"",""4970""
","
","
","""event"",""trial"",""time""
""fullscreenenter"",""0"",""4970""
","
","null","<p></p>","null","","","","","","","",""
"","image","166","178212","0.0-166.0","""event"",""trial"",""time""
""fullscreenenter"",""0"",""4970""
","
","
","""event"",""trial"",""time""
""fullscreenenter"",""0"",""4970""
","
","934.2000000000698","run_exp/static/images/Set 6_rs/006a.jpg","86","","","","","","learn","SL",""
"","show_choice","167","179283","0.0-167.0","""event"",""trial"",""time""
""fullscreenenter"",""0"",""4970""
","
","
","""event"",""trial"",""time""
""fullscreenenter"",""0"",""4970""
","
","null","run_exp/static/images/Set 6_rs/006a.jpg","null","","","","","","learn","SL",""
"","html-keyboard-response","168","179791","0.0-168.0","""event"",""trial"",""time""
""fullscreenenter"",""0"",""4970""
","
","
","""event"",""trial"",""time""
""fullscreenenter"",""0"",""4970""
","
","null","<p></p>","null","","","","","","","",""
"","image","169","180837","0.0-169.0","""event"",""trial"",""time""
""fullscreenenter"",""0"",""4970""
","
","
","""event"",""trial"",""time""
""fullscreenenter"",""0"",""4970""
","
","1045.5","run_exp/static/images/Set 6_rs/150a.jpg","86","","","","","","learn","SR",""
"","show_choice","170","181797","0.0-170.0","""event"",""trial"",""time""
""fullscreenenter"",""0"",""4970""
","
","
","""event"",""trial"",""time""
""fullscreenenter"",""0"",""4970""
","
","null","run_exp/static/images/Set 6_rs/150a.jpg","null","","","","","","learn","SR",""
"","html-keyboard-response","171","182305","0.0-171.0","""event"",""trial"",""time""
""fullscreenenter"",""0"",""4970""
","
","
","""event"",""trial"",""time""
""fullscreenenter"",""0"",""4970""
","
","null","<p></p>","null","","","","","","","",""
"","image","172","183128","0.0-172.0","""event"",""trial"",""time""
""fullscreenenter"",""0"",""4970""
","
","
","""event"",""trial"",""time""
""fullscreenenter"",""0"",""4970""
","
","821.8999999999069","run_exp/static/images/Set 6_rs/075a.jpg","86","","","","","","learn","SR",""
"","show_choice","173","184311","0.0-173.0","""event"",""trial"",""time""
""fullscreenenter"",""0"",""4970""
","
","
","""event"",""trial"",""time""
""fullscreenenter"",""0"",""4970""
","
","null","run_exp/static/images/Set 6_rs/075a.jpg","null","","","","","","learn","SR",""
"","html-keyboard-response","174","184818","0.0-174.0","""event"",""trial"",""time""
""fullscreenenter"",""0"",""4970""
","
","
","""event"",""trial"",""time""
""fullscreenenter"",""0"",""4970""
","
","null","<p></p>","null","","","","","","","",""
"","image","175","185772","0.0-175.0","""event"",""trial"",""time""
""fullscreenenter"",""0"",""4970""
","
","
","""event"",""trial"",""time""
""fullscreenenter"",""0"",""4970""
","
","953.5","run_exp/static/images/Set 6_rs/016a.jpg","86","","","","","","learn","SL",""
"","show_choice","176","186830","0.0-176.0","""event"",""trial"",""time""
""fullscreenenter"",""0"",""4970""
","
","
","""event"",""trial"",""time""
""fullscreenenter"",""0"",""4970""
","
","null","run_exp/static/images/Set 6_rs/016a.jpg","null","","","","","","learn","SL",""
"","html-keyboard-response","177","187332","0.0-177.0","""event"",""trial"",""time""
""fullscreenenter"",""0"",""4970""
","
","
","""event"",""trial"",""time""
""fullscreenenter"",""0"",""4970""
","
","null","<p></p>","null","","","","","","","",""
"","image","178","188586","0.0-178.0","""event"",""trial"",""time""
""fullscreenenter"",""0"",""4970""
","
","
","""event"",""trial"",""time""
""fullscreenenter"",""0"",""4970""
","
","1252.9000000000233","run_exp/static/images/Set 6_rs/132a.jpg","78","","","","","","learn","SR",""
"","show_choice","179","189344","0.0-179.0","""event"",""trial"",""time""
""fullscreenenter"",""0"",""4970""
","
","
","""event"",""trial"",""time""
""fullscreenenter"",""0"",""4970""
","
","null","run_exp/static/images/Set 6_rs/132a.jpg","null","","","","","","learn","SR",""
"","html-keyboard-response","180","189850","0.0-180.0","""event"",""trial"",""time""
""fullscreenenter"",""0"",""4970""
","
","
","""event"",""trial"",""time""
""fullscreenenter"",""0"",""4970""
","
","null","<p></p>","null","","","","","","","",""
"","image","181","190936","0.0-181.0","""event"",""trial"",""time""
""fullscreenenter"",""0"",""4970""
","
","
","""event"",""trial"",""time""
""fullscreenenter"",""0"",""4970""
","
","1084.9000000000233","run_exp/static/images/Set 6_rs/088a.jpg","86","","","","","","learn","SR",""
"","show_choice","182","191861","0.0-182.0","""event"",""trial"",""time""
""fullscreenenter"",""0"",""4970""
","
","
","""event"",""trial"",""time""
""fullscreenenter"",""0"",""4970""
","
","null","run_exp/static/images/Set 6_rs/088a.jpg","null","","","","","","learn","SR",""
"","html-keyboard-response","183","192369","0.0-183.0","""event"",""trial"",""time""
""fullscreenenter"",""0"",""4970""
","
","
","""event"",""trial"",""time""
""fullscreenenter"",""0"",""4970""
","
","null","<p></p>","null","","","","","","","",""
"","image","184","193245","0.0-184.0","""event"",""trial"",""time""
""fullscreenenter"",""0"",""4970""
","
","
","""event"",""trial"",""time""
""fullscreenenter"",""0"",""4970""
","
","875.2000000000698","run_exp/static/images/Set 6_rs/177a.jpg","78","","","","","","learn","SR",""
"","show_choice","185","194379","0.0-185.0","""event"",""trial"",""time""
""fullscreenenter"",""0"",""4970""
","
","
","""event"",""trial"",""time""
""fullscreenenter"",""0"",""4970""
","
","null","run_exp/static/images/Set 6_rs/177a.jpg","null","","","","","","learn","SR",""
"","html-keyboard-response","186","194882","0.0-186.0","""event"",""trial"",""time""
""fullscreenenter"",""0"",""4970""
","
","
","""event"",""trial"",""time""
""fullscreenenter"",""0"",""4970""
","
","null","<p></p>","null","","","","","","","",""
"","image","187","195863","0.0-187.0","""event"",""trial"",""time""
""fullscreenenter"",""0"",""4970""
","
","
","""event"",""trial"",""time""
""fullscreenenter"",""0"",""4970""
","
","979.5999999999767","run_exp/static/images/Set 6_rs/138a.jpg","78","","","","","","learn","SL",""
"","show_choice","188","196889","0.0-188.0","""event"",""trial"",""time""
""fullscreenenter"",""0"",""4970""
","
","
","""event"",""trial"",""time""
""fullscreenenter"",""0"",""4970""
","
","null","run_exp/static/images/Set 6_rs/138a.jpg","null","","","","","","learn","SL",""
"","html-keyboard-response","189","197395","0.0-189.0","""event"",""trial"",""time""
""fullscreenenter"",""0"",""4970""
","
","
","""event"",""trial"",""time""
""fullscreenenter"",""0"",""4970""
","
","null","<p></p>","null","","","","","","","",""
"","image","190","198053","0.0-190.0","""event"",""trial"",""time""
""fullscreenenter"",""0"",""4970""
","
","
","""event"",""trial"",""time""
""fullscreenenter"",""0"",""4970""
","
","656.4000000000233","run_exp/static/images/Set 6_rs/070a.jpg","86","","","","","","learn","SR",""
"","show_choice","191","199402","0.0-191.0","""event"",""trial"",""time""
""fullscreenenter"",""0"",""4970""
","
","
","""event"",""trial"",""time""
""fullscreenenter"",""0"",""4970""
","
","null","run_exp/static/images/Set 6_rs/070a.jpg","null","","","","","","learn","SR",""
"","html-keyboard-response","192","199905","0.0-192.0","""event"",""trial"",""time""
""fullscreenenter"",""0"",""4970""
","
","
","""event"",""trial"",""time""
""fullscreenenter"",""0"",""4970""
","
","null","<p></p>","null","","","","","","","",""
"","image","193","200903","0.0-193.0","""event"",""trial"",""time""
""fullscreenenter"",""0"",""4970""
","
","
","""event"",""trial"",""time""
""fullscreenenter"",""0"",""4970""
","
","997","run_exp/static/images/Set 6_rs/166a.jpg","86","","","","","","learn","SR",""
"","show_choice","194","201913","0.0-194.0","""event"",""trial"",""time""
""fullscreenenter"",""0"",""4970""
","
","
","""event"",""trial"",""time""
""fullscreenenter"",""0"",""4970""
","
","null","run_exp/static/images/Set 6_rs/166a.jpg","null","","","","","","learn","SR",""
"","html-keyboard-response","195","202419","0.0-195.0","""event"",""trial"",""time""
""fullscreenenter"",""0"",""4970""
","
","
","""event"",""trial"",""time""
""fullscreenenter"",""0"",""4970""
","
","null","<p></p>","null","","","","","","","",""
"","test_intro","196","239270","0.0-196.0","""event"",""trial"",""time""
""fullscreenenter"",""0"",""4970""
","
","
","""event"",""trial"",""time""
""fullscreenenter"",""0"",""4970""
","
","null","run_exp/static/audio/clip_2_memory.m4a","null","","","","","<div class='center'><p>Now, lets see how much you remember about the items you just saw.  For each item, you need to indicate if it was <b>old</b> by pressing the <b>v</b> key, <b>similar</b> by pressing the <b>b</b> key, or <b>new</b> by pressing the <b>n</b> key.</p><p>Old refers to an item that you saw before in the indoor/outdoor game that you just played, new refers to an item you have <b>not</b> seen before within the indoor/outdoor game, and similar refers to an item that is similar to an item youve seen before but is not exactly the same. </p><p>Before we begin, lets go over some brief demonstrations to make sure you understand.</p></div>","","",""
"","html-keyboard-response","197","239756","0.0-197.0","""event"",""trial"",""time""
""fullscreenenter"",""0"",""4970""
","
","
","""event"",""trial"",""time""
""fullscreenenter"",""0"",""4970""
","
","484.80000000004657","<div class='center'><p>Now, lets see how much you remember about the items you just saw.  For each item, you need to indicate if it was <b>old</b> by pressing the <b>v</b> key, <b>similar</b> by pressing the <b>b</b> key, or <b>new</b> by pressing the <b>n</b> key.</p><p>Old refers to an item that you saw before in the indoor/outdoor game that you just played, new refers to an item you have <b>not</b> seen before within the indoor/outdoor game, and similar refers to an item that is similar to an item youve seen before but is not exactly the same. </p><p>Before we begin, lets go over some brief demonstrations to make sure you understand.</p><div><p><b>[Press the space bar to continue]</b></p></div>","32","","","","","","","",""
"","items","198","247264","0.0-198.0","""event"",""trial"",""time""
""fullscreenenter"",""0"",""4970""
","
","
","""event"",""trial"",""time""
""fullscreenenter"",""0"",""4970""
","
","null","run_exp/static/audio/clip_3_items.m4a","null","","","","","","","",""
"","mop","199","251780","0.0-199.0","""event"",""trial"",""time""
""fullscreenenter"",""0"",""4970""
","
","
","""event"",""trial"",""time""
""fullscreenenter"",""0"",""4970""
","
","null","run_exp/static/audio/clip_4_mop.m4a","null","","","","","","","",""
"","baseball","200","255287","0.0-200.0","""event"",""trial"",""time""
""fullscreenenter"",""0"",""4970""
","
","
","""event"",""trial"",""time""
""fullscreenenter"",""0"",""4970""
","
","null","run_exp/static/audio/clip_5_baseball.m4a","null","","","","","","","",""
"","trumpet","201","258803","0.0-201.0","""event"",""trial"",""time""
""fullscreenenter"",""0"",""4970""
","
","
","""event"",""trial"",""time""
""fullscreenenter"",""0"",""4970""
","
","null","run_exp/static/audio/clip_6_trumpet.m4a","null","","","","","","","",""
"","gummies","202","262311","0.0-202.0","""event"",""trial"",""time""
""fullscreenenter"",""0"",""4970""
","
","
","""event"",""trial"",""time""
""fullscreenenter"",""0"",""4970""
","
","null","run_exp/static/audio/clip_7_gummies.m4a","null","","","","","","","",""
"","osn","203","266817","0.0-203.0","""event"",""trial"",""time""
""fullscreenenter"",""0"",""4970""
","
","
","""event"",""trial"",""time""
""fullscreenenter"",""0"",""4970""
","
","null","run_exp/static/audio/clip_8_osn.m4a","null","","","","","","","",""
"","old_1","204","273324","0.0-204.0","""event"",""trial"",""time""
""fullscreenenter"",""0"",""4970""
","
","
","""event"",""trial"",""time""
""fullscreenenter"",""0"",""4970""
","
","null","run_exp/static/audio/clip_9_old_trumpet.m4a","null","","","","","","","",""
"","new_1","205","280840","0.0-205.0","""event"",""trial"",""time""
""fullscreenenter"",""0"",""4970""
","
","
","""event"",""trial"",""time""
""fullscreenenter"",""0"",""4970""
","
","null","run_exp/static/audio/clip_10_new_balloon.m4a","null","","","","","","","",""
"","similar_1a","206","285357","0.0-206.0","""event"",""trial"",""time""
""fullscreenenter"",""0"",""4970""
","
","
","""event"",""trial"",""time""
""fullscreenenter"",""0"",""4970""
","
","null","run_exp/static/audio/clip_11a_similar_mop.m4a","null","","","","","","","",""
"","similar_1b","207","291872","0.0-207.0","""event"",""trial"",""time""
""fullscreenenter"",""0"",""4970""
","
","
","""event"",""trial"",""time""
""fullscreenenter"",""0"",""4970""
","
","null","run_exp/static/audio/clip_11b_similar_mop.m4a","null","","","","","","","",""
"","new_2","208","295378","0.0-208.0","""event"",""trial"",""time""
""fullscreenenter"",""0"",""4970""
","
","
","""event"",""trial"",""time""
""fullscreenenter"",""0"",""4970""
","
","null","run_exp/static/audio/clip_12_new_stoplight.m4a","null","","","","","","","",""
"","old_2","209","298889","0.0-209.0","""event"",""trial"",""time""
""fullscreenenter"",""0"",""4970""
","
","
","""event"",""trial"",""time""
""fullscreenenter"",""0"",""4970""
","
","null","run_exp/static/audio/clip_13_old_baseball.m4a","null","","","","","","","",""
"","similar_2a","210","302405","0.0-210.0","""event"",""trial"",""time""
""fullscreenenter"",""0"",""4970""
","
","
","""event"",""trial"",""time""
""fullscreenenter"",""0"",""4970""
","
","null","run_exp/static/audio/clip_14a_similar_gummies.m4a","null","","","","","","","",""
"","similar_2b","211","309916","0.0-211.0","""event"",""trial"",""time""
""fullscreenenter"",""0"",""4970""
","
","
","""event"",""trial"",""time""
""fullscreenenter"",""0"",""4970""
","
","null","run_exp/static/audio/clip_14b_similar_gummies.m4a","null","","","","","","","",""
"","practice","212","352011","0.0-212.0","""event"",""trial"",""time""
""fullscreenenter"",""0"",""4970""
","
","
","""event"",""trial"",""time""
""fullscreenenter"",""0"",""4970""
","
","null","run_exp/static/audio/clip_15_practice.m4a","null","","","","","<div class='center'><p>Lets practice a little to make sure you understand the difference between new, similar, and old. Lets say you saw these three items in the indoor/outdoor game.</p><p> Try your best to remember these images because youll soon be tested on them in a practice game. In the practice game, youll be shown images and youll have to say if they are old (one of the three images belows), similar (similar to one of the images below but not exactly the same), or new (are not one of the images below nor similar to them).</p><p>Once you press the space bar youll be shown these images again but one at time. Then youll begin the practice game.</p><p><img src='run_exp/static/images/tutorial/test/three_indoor_outdoor.png' height='300'></p></div>","","",""
"","html-keyboard-response","213","352627","0.0-213.0","""event"",""trial"",""time""
""fullscreenenter"",""0"",""4970""
","
","
","""event"",""trial"",""time""
""fullscreenenter"",""0"",""4970""
","
","615.4000000000233","<div class='center'><p>Lets practice a little to make sure you understand the difference between new, similar, and old. Lets say you saw these three items in the indoor/outdoor game.</p><p> Try your best to remember these images because youll soon be tested on them in a practice game. In the practice game, youll be shown images and youll have to say if they are old (one of the three images belows), similar (similar to one of the images below but not exactly the same), or new (are not one of the images below nor similar to them).</p><p>Once you press the space bar youll be shown these images again but one at time. Then youll begin the practice game.</p><p><img src='run_exp/static/images/tutorial/test/three_indoor_outdoor.png' height='300'></p><div><p><b>[Press the space bar to continue]</b></p></div>","32","","","","","","","",""
"","planet","214","354642","0.0-214.0","""event"",""trial"",""time""
""fullscreenenter"",""0"",""4970""
","
","
","""event"",""trial"",""time""
""fullscreenenter"",""0"",""4970""
","
","null","run_exp/static/images/tutorial/test/008a.jpg","null","","","","","","","",""
"","boot","215","356647","0.0-215.0","""event"",""trial"",""time""
""fullscreenenter"",""0"",""4970""
","
","
","""event"",""trial"",""time""
""fullscreenenter"",""0"",""4970""
","
","null","run_exp/static/images/tutorial/test/011a.jpg","null","","","","","","","",""
"","lemon","216","358658","0.0-216.0","""event"",""trial"",""time""
""fullscreenenter"",""0"",""4970""
","
","
","""event"",""trial"",""time""
""fullscreenenter"",""0"",""4970""
","
","null","run_exp/static/images/tutorial/test/018a.jpg","null","","","","","","","",""
"","practice_q1","217","363772","0.0-217.0","""event"",""trial"",""time""
""fullscreenenter"",""0"",""4970""
","
","
","""event"",""trial"",""time""
""fullscreenenter"",""0"",""4970""
","
","5112.599999999977","run_exp/static/audio/clip_16_practice_question.m4a","78","","","","","","","",""
"","correct","218","365670","0.0-218.0-0.0","""event"",""trial"",""time""
""fullscreenenter"",""0"",""4970""
","
","
","""event"",""trial"",""time""
""fullscreenenter"",""0"",""4970""
","
","null","run_exp/static/audio/clip_17_correct.m4a","null","","","","","<div class='center'><p>That's correct!</p></div>","","",""
"","html-keyboard-response","219","366467","0.0-218.0-1.0","""event"",""trial"",""time""
""fullscreenenter"",""0"",""4970""
","
","
","""event"",""trial"",""time""
""fullscreenenter"",""0"",""4970""
","
","796.1000000000931","<div class='center'><p>That's correct!</p><div><p><b>[Press the space bar to continue]</b></p></div>","32","","","","","","","",""
"","practice_q2","220","367371","0.0-218.0-2.0","""event"",""trial"",""time""
""fullscreenenter"",""0"",""4970""
","
","
","""event"",""trial"",""time""
""fullscreenenter"",""0"",""4970""
","
","903.2000000000698","run_exp/static/audio/clip_16_practice_question.m4a","86","","","","","","","",""
"","correct","221","369270","0.0-219.0-0.0","""event"",""trial"",""time""
""fullscreenenter"",""0"",""4970""
","
","
","""event"",""trial"",""time""
""fullscreenenter"",""0"",""4970""
","
","null","run_exp/static/audio/clip_17_correct.m4a","null","","","","","<div class='center'><p>That's correct!</p></div>","","",""
"","html-keyboard-response","222","369694","0.0-219.0-1.0","""event"",""trial"",""time""
""fullscreenenter"",""0"",""4970""
","
","
","""event"",""trial"",""time""
""fullscreenenter"",""0"",""4970""
","
","423.79999999993015","<div class='center'><p>That's correct!</p><div><p><b>[Press the space bar to continue]</b></p></div>","32","","","","","","","",""
"","practice_q3","223","371344","0.0-219.0-2.0","""event"",""trial"",""time""
""fullscreenenter"",""0"",""4970""
","
","
","""event"",""trial"",""time""
""fullscreenenter"",""0"",""4970""
","
","1648.4000000000233","run_exp/static/audio/clip_16_practice_question.m4a","66","","","","","","","",""
"","correct","224","373330","0.0-220.0-0.0","""event"",""trial"",""time""
""fullscreenenter"",""0"",""4970""
","
","
","""event"",""trial"",""time""
""fullscreenenter"",""0"",""4970""
","
","null","run_exp/static/audio/clip_17_correct.m4a","null","","","","","<div class='center'><p>That's correct!</p></div>","","",""
"","html-keyboard-response","225","373618","0.0-220.0-1.0","""event"",""trial"",""time""
""fullscreenenter"",""0"",""4970""
","
","
","""event"",""trial"",""time""
""fullscreenenter"",""0"",""4970""
","
","287.19999999995343","<div class='center'><p>That's correct!</p><div><p><b>[Press the space bar to continue]</b></p></div>","32","","","","","","","",""
"","begin_text","226","392111","0.0-221.0-0.0","""event"",""trial"",""time""
""fullscreenenter"",""0"",""4970""
","
","
","""event"",""trial"",""time""
""fullscreenenter"",""0"",""4970""
","
","null","run_exp/static/audio/clip_22_begin_test.m4a","null","","","","","<div class='center'><p>On to the real game where well test your memory of items from the indoor/outdoor game. For each item, you need to indicate if the item is <b>old</b> by pressing the <b>v</b> key, <b>similar</b> by pressing the <b>b</b> key, or <b>new</b> by pressing the <b>n</b> key. </p></div>","","",""
"","html-keyboard-response","227","392742","0.0-221.0-1.0","""event"",""trial"",""time""
""fullscreenenter"",""0"",""4970""
","
","
","""event"",""trial"",""time""
""fullscreenenter"",""0"",""4970""
","
","630.2999999999302","<div class='center'><p>On to the real game where well test your memory of items from the indoor/outdoor game. For each item, you need to indicate if the item is <b>old</b> by pressing the <b>v</b> key, <b>similar</b> by pressing the <b>b</b> key, or <b>new</b> by pressing the <b>n</b> key. </p><div><p><b>[Press the space bar to continue]</b></p></div>","32","","","","","","","",""
"","image","228","394266","0.0-222.0-0.0","""event"",""trial"",""time""
""fullscreenenter"",""0"",""4970""
","
","
","""event"",""trial"",""time""
""fullscreenenter"",""0"",""4970""
","
","1523.4000000000233","run_exp/static/images/Set 6_rs/095b.jpg","66","","","","","","test","TL","5"
"","show_choice","229","394769","0.0-222.0-1.0","""event"",""trial"",""time""
""fullscreenenter"",""0"",""4970""
","
","
","""event"",""trial"",""time""
""fullscreenenter"",""0"",""4970""
","
","null","run_exp/static/images/Set 6_rs/095b.jpg","null","","","","","","test","TL",""
"","html-keyboard-response","230","395270","0.0-222.0-2.0","""event"",""trial"",""time""
""fullscreenenter"",""0"",""4970""
","
","
","""event"",""trial"",""time""
""fullscreenenter"",""0"",""4970""
","
","null","<p></p>","null","","","","","","","",""
"","image","231","396629","0.0-223.0-0.0","""event"",""trial"",""time""
""fullscreenenter"",""0"",""4970""
","
","
","""event"",""trial"",""time""
""fullscreenenter"",""0"",""4970""
","
","1358.6000000000931","run_exp/static/images/Set 6_rs/091b.jpg","66","","","","","","test","TL","3"
"","show_choice","232","397140","0.0-223.0-1.0","""event"",""trial"",""time""
""fullscreenenter"",""0"",""4970""
","
","
","""event"",""trial"",""time""
""fullscreenenter"",""0"",""4970""
","
","null","run_exp/static/images/Set 6_rs/091b.jpg","null","","","","","","test","TL",""
"","html-keyboard-response","233","397643","0.0-223.0-2.0","""event"",""trial"",""time""
""fullscreenenter"",""0"",""4970""
","
","
","""event"",""trial"",""time""
""fullscreenenter"",""0"",""4970""
","
","null","<p></p>","null","","","","","","","",""
"","image","234","398908","0.0-224.0-0.0","""event"",""trial"",""time""
""fullscreenenter"",""0"",""4970""
","
","
","""event"",""trial"",""time""
""fullscreenenter"",""0"",""4970""
","
","1263.8000000000466","run_exp/static/images/Set 6_rs/064a.jpg","86","","","","","","test","TR","5"
"","show_choice","235","399410","0.0-224.0-1.0","""event"",""trial"",""time""
""fullscreenenter"",""0"",""4970""
","
","
","""event"",""trial"",""time""
""fullscreenenter"",""0"",""4970""
","
","null","run_exp/static/images/Set 6_rs/064a.jpg","null","","","","","","test","TR",""
"","html-keyboard-response","236","399914","0.0-224.0-2.0","""event"",""trial"",""time""
""fullscreenenter"",""0"",""4970""
","
","
","""event"",""trial"",""time""
""fullscreenenter"",""0"",""4970""
","
","null","<p></p>","null","","","","","","","",""
"","image","237","401585","0.0-225.0-0.0","""event"",""trial"",""time""
""fullscreenenter"",""0"",""4970""
","
","
","""event"",""trial"",""time""
""fullscreenenter"",""0"",""4970""
","
","1670","run_exp/static/images/Set 6_rs/055b.jpg","66","","","","","","test","TL","4"
"","show_choice","238","402094","0.0-225.0-1.0","""event"",""trial"",""time""
""fullscreenenter"",""0"",""4970""
","
","
","""event"",""trial"",""time""
""fullscreenenter"",""0"",""4970""
","
","null","run_exp/static/images/Set 6_rs/055b.jpg","null","","","","","","test","TL",""
"","html-keyboard-response","239","402597","0.0-225.0-2.0","""event"",""trial"",""time""
""fullscreenenter"",""0"",""4970""
","
","
","""event"",""trial"",""time""
""fullscreenenter"",""0"",""4970""
","
","null","<p></p>","null","","","","","","","",""
"","image","240","403840","0.0-226.0-0.0","""event"",""trial"",""time""
""fullscreenenter"",""0"",""4970""
","
","
","""event"",""trial"",""time""
""fullscreenenter"",""0"",""4970""
","
","1241.3999999999069","run_exp/static/images/Set 6_rs/011a.jpg","78","","","","","","test","TF","3"
"","show_choice","241","404344","0.0-226.0-1.0","""event"",""trial"",""time""
""fullscreenenter"",""0"",""4970""
","
","
","""event"",""trial"",""time""
""fullscreenenter"",""0"",""4970""
","
","null","run_exp/static/images/Set 6_rs/011a.jpg","null","","","","","","test","TF",""
"","html-keyboard-response","242","404852","0.0-226.0-2.0","""event"",""trial"",""time""
""fullscreenenter"",""0"",""4970""
","
","
","""event"",""trial"",""time""
""fullscreenenter"",""0"",""4970""
","
","null","<p></p>","null","","","","","","","",""
"","image","243","406667","0.0-227.0-0.0","""event"",""trial"",""time""
""fullscreenenter"",""0"",""4970""
","
","
","""event"",""trial"",""time""
""fullscreenenter"",""0"",""4970""
","
","1814.9000000000233","run_exp/static/images/Set 6_rs/138b.jpg","86","","","","","","test","TL","1"
"","show_choice","244","407168","0.0-227.0-1.0","""event"",""trial"",""time""
""fullscreenenter"",""0"",""4970""
","
","
","""event"",""trial"",""time""
""fullscreenenter"",""0"",""4970""
","
","null","run_exp/static/images/Set 6_rs/138b.jpg","null","","","","","","test","TL",""
"","html-keyboard-response","245","407676","0.0-227.0-2.0","""event"",""trial"",""time""
""fullscreenenter"",""0"",""4970""
","
","
","""event"",""trial"",""time""
""fullscreenenter"",""0"",""4970""
","
","null","<p></p>","null","","","","","","","",""
"","image","246","408816","0.0-228.0-0.0","""event"",""trial"",""time""
""fullscreenenter"",""0"",""4970""
","
","
","""event"",""trial"",""time""
""fullscreenenter"",""0"",""4970""
","
","1138.5","run_exp/static/images/Set 6_rs/057b.jpg","86","","","","","","test","TL","1"
"","show_choice","247","409326","0.0-228.0-1.0","""event"",""trial"",""time""
""fullscreenenter"",""0"",""4970""
","
","
","""event"",""trial"",""time""
""fullscreenenter"",""0"",""4970""
","
","null","run_exp/static/images/Set 6_rs/057b.jpg","null","","","","","","test","TL",""
"","html-keyboard-response","248","409836","0.0-228.0-2.0","""event"",""trial"",""time""
""fullscreenenter"",""0"",""4970""
","
","
","""event"",""trial"",""time""
""fullscreenenter"",""0"",""4970""
","
","null","<p></p>","null","","","","","","","",""
"","image","249","411085","0.0-229.0-0.0","""event"",""trial"",""time""
""fullscreenenter"",""0"",""4970""
","
","
","""event"",""trial"",""time""
""fullscreenenter"",""0"",""4970""
","
","1247.7999999999302","run_exp/static/images/Set 6_rs/140a.jpg","66","","","","","","test","TF","1"
"","show_choice","250","411592","0.0-229.0-1.0","""event"",""trial"",""time""
""fullscreenenter"",""0"",""4970""
","
","
","""event"",""trial"",""time""
""fullscreenenter"",""0"",""4970""
","
","null","run_exp/static/images/Set 6_rs/140a.jpg","null","","","","","","test","TF",""
"","html-keyboard-response","251","412099","0.0-229.0-2.0","""event"",""trial"",""time""
""fullscreenenter"",""0"",""4970""
","
","
","""event"",""trial"",""time""
""fullscreenenter"",""0"",""4970""
","
","null","<p></p>","null","","","","","","","",""
"","image","252","413482","0.0-230.0-0.0","""event"",""trial"",""time""
""fullscreenenter"",""0"",""4970""
","
","
","""event"",""trial"",""time""
""fullscreenenter"",""0"",""4970""
","
","1382.0999999999767","run_exp/static/images/Set 6_rs/050b.jpg","66","","","","","","test","TL","3"
"","show_choice","253","413987","0.0-230.0-1.0","""event"",""trial"",""time""
""fullscreenenter"",""0"",""4970""
","
","
","""event"",""trial"",""time""
""fullscreenenter"",""0"",""4970""
","
","null","run_exp/static/images/Set 6_rs/050b.jpg","null","","","","","","test","TL",""
"","html-keyboard-response","254","414492","0.0-230.0-2.0","""event"",""trial"",""time""
""fullscreenenter"",""0"",""4970""
","
","
","""event"",""trial"",""time""
""fullscreenenter"",""0"",""4970""
","
","null","<p></p>","null","","","","","","","",""
"","image","255","415564","0.0-231.0-0.0","""event"",""trial"",""time""
""fullscreenenter"",""0"",""4970""
","
","
","""event"",""trial"",""time""
""fullscreenenter"",""0"",""4970""
","
","1072.0999999999767","run_exp/static/images/Set 6_rs/108a.jpg","86","","","","","","test","TR","5"
"","show_choice","256","416067","0.0-231.0-1.0","""event"",""trial"",""time""
""fullscreenenter"",""0"",""4970""
","
","
","""event"",""trial"",""time""
""fullscreenenter"",""0"",""4970""
","
","null","run_exp/static/images/Set 6_rs/108a.jpg","null","","","","","","test","TR",""
"","html-keyboard-response","257","416582","0.0-231.0-2.0","""event"",""trial"",""time""
""fullscreenenter"",""0"",""4970""
","
","
","""event"",""trial"",""time""
""fullscreenenter"",""0"",""4970""
","
","null","<p></p>","null","","","","","","","",""
"","image","258","417299","0.0-232.0-0.0","""event"",""trial"",""time""
""fullscreenenter"",""0"",""4970""
","
","
","""event"",""trial"",""time""
""fullscreenenter"",""0"",""4970""
","
","716","run_exp/static/images/Set 6_rs/078a.jpg","78","","","","","","test","TF","1"
"","show_choice","259","417812","0.0-232.0-1.0","""event"",""trial"",""time""
""fullscreenenter"",""0"",""4970""
","
","
","""event"",""trial"",""time""
""fullscreenenter"",""0"",""4970""
","
","null","run_exp/static/images/Set 6_rs/078a.jpg","null","","","","","","test","TF",""
"","html-keyboard-response","260","418321","0.0-232.0-2.0","""event"",""trial"",""time""
""fullscreenenter"",""0"",""4970""
","
","
","""event"",""trial"",""time""
""fullscreenenter"",""0"",""4970""
","
","null","<p></p>","null","","","","","","","",""
"","image","261","419563","0.0-233.0-0.0","""event"",""trial"",""time""
""fullscreenenter"",""0"",""4970""
","
","
","""event"",""trial"",""time""
""fullscreenenter"",""0"",""4970""
","
","1240.9000000000233","run_exp/static/images/Set 6_rs/019b.jpg","66","","","","","","test","TL","2"
"","show_choice","262","420076","0.0-233.0-1.0","""event"",""trial"",""time""
""fullscreenenter"",""0"",""4970""
","
","
","""event"",""trial"",""time""
""fullscreenenter"",""0"",""4970""
","
","null","run_exp/static/images/Set 6_rs/019b.jpg","null","","","","","","test","TL",""
"","html-keyboard-response","263","420580","0.0-233.0-2.0","""event"",""trial"",""time""
""fullscreenenter"",""0"",""4970""
","
","
","""event"",""trial"",""time""
""fullscreenenter"",""0"",""4970""
","
","null","<p></p>","null","","","","","","","",""
"","image","264","421450","0.0-234.0-0.0","""event"",""trial"",""time""
""fullscreenenter"",""0"",""4970""
","
","
","""event"",""trial"",""time""
""fullscreenenter"",""0"",""4970""
","
","868.4000000000233","run_exp/static/images/Set 6_rs/122a.jpg","86","","","","","","test","TR","5"
"","show_choice","265","421951","0.0-234.0-1.0","""event"",""trial"",""time""
""fullscreenenter"",""0"",""4970""
","
","
","""event"",""trial"",""time""
""fullscreenenter"",""0"",""4970""
","
","null","run_exp/static/images/Set 6_rs/122a.jpg","null","","","","","","test","TR",""
"","html-keyboard-response","266","422459","0.0-234.0-2.0","""event"",""trial"",""time""
""fullscreenenter"",""0"",""4970""
","
","
","""event"",""trial"",""time""
""fullscreenenter"",""0"",""4970""
","
","null","<p></p>","null","","","","","","","",""
"","image","267","423249","0.0-235.0-0.0","""event"",""trial"",""time""
""fullscreenenter"",""0"",""4970""
","
","
","""event"",""trial"",""time""
""fullscreenenter"",""0"",""4970""
","
","789.5","run_exp/static/images/Set 6_rs/074b.jpg","86","","","","","","test","TL","4"
"","show_choice","268","423750","0.0-235.0-1.0","""event"",""trial"",""time""
""fullscreenenter"",""0"",""4970""
","
","
","""event"",""trial"",""time""
""fullscreenenter"",""0"",""4970""
","
","null","run_exp/static/images/Set 6_rs/074b.jpg","null","","","","","","test","TL",""
"","html-keyboard-response","269","424256","0.0-235.0-2.0","""event"",""trial"",""time""
""fullscreenenter"",""0"",""4970""
","
","
","""event"",""trial"",""time""
""fullscreenenter"",""0"",""4970""
","
","null","<p></p>","null","","","","","","","",""
"","image","270","425635","0.0-236.0-0.0","""event"",""trial"",""time""
""fullscreenenter"",""0"",""4970""
","
","
","""event"",""trial"",""time""
""fullscreenenter"",""0"",""4970""
","
","1377.6999999999534","run_exp/static/images/Set 6_rs/149a.jpg","66","","","","","","test","TF","1"
"","show_choice","271","426136","0.0-236.0-1.0","""event"",""trial"",""time""
""fullscreenenter"",""0"",""4970""
","
","
","""event"",""trial"",""time""
""fullscreenenter"",""0"",""4970""
","
","null","run_exp/static/images/Set 6_rs/149a.jpg","null","","","","","","test","TF",""
"","html-keyboard-response","272","426649","0.0-236.0-2.0","""event"",""trial"",""time""
""fullscreenenter"",""0"",""4970""
","
","
","""event"",""trial"",""time""
""fullscreenenter"",""0"",""4970""
","
","null","<p></p>","null","","","","","","","",""
"","image","273","427862","0.0-237.0-0.0","""event"",""trial"",""time""
""fullscreenenter"",""0"",""4970""
","
","
","""event"",""trial"",""time""
""fullscreenenter"",""0"",""4970""
","
","1212.1000000000931","run_exp/static/images/Set 6_rs/141a.jpg","86","","","","","","test","TR","2"
"","show_choice","274","428372","0.0-237.0-1.0","""event"",""trial"",""time""
""fullscreenenter"",""0"",""4970""
","
","
","""event"",""trial"",""time""
""fullscreenenter"",""0"",""4970""
","
","null","run_exp/static/images/Set 6_rs/141a.jpg","null","","","","","","test","TR",""
"","html-keyboard-response","275","428878","0.0-237.0-2.0","""event"",""trial"",""time""
""fullscreenenter"",""0"",""4970""
","
","
","""event"",""trial"",""time""
""fullscreenenter"",""0"",""4970""
","
","null","<p></p>","null","","","","","","","",""
"","image","276","430536","0.0-238.0-0.0","""event"",""trial"",""time""
""fullscreenenter"",""0"",""4970""
","
","
","""event"",""trial"",""time""
""fullscreenenter"",""0"",""4970""
","
","1657.4000000000233","run_exp/static/images/Set 6_rs/006b.jpg","66","","","","","","test","TL","2"
"","show_choice","277","431038","0.0-238.0-1.0","""event"",""trial"",""time""
""fullscreenenter"",""0"",""4970""
","
","
","""event"",""trial"",""time""
""fullscreenenter"",""0"",""4970""
","
","null","run_exp/static/images/Set 6_rs/006b.jpg","null","","","","","","test","TL",""
"","html-keyboard-response","278","431540","0.0-238.0-2.0","""event"",""trial"",""time""
""fullscreenenter"",""0"",""4970""
","
","
","""event"",""trial"",""time""
""fullscreenenter"",""0"",""4970""
","
","null","<p></p>","null","","","","","","","",""
"","image","279","432895","0.0-239.0-0.0","""event"",""trial"",""time""
""fullscreenenter"",""0"",""4970""
","
","
","""event"",""trial"",""time""
""fullscreenenter"",""0"",""4970""
","
","1354.5","run_exp/static/images/Set 6_rs/062b.jpg","86","","","","","","test","TL","1"
"","show_choice","280","433404","0.0-239.0-1.0","""event"",""trial"",""time""
""fullscreenenter"",""0"",""4970""
","
","
","""event"",""trial"",""time""
""fullscreenenter"",""0"",""4970""
","
","null","run_exp/static/images/Set 6_rs/062b.jpg","null","","","","","","test","TL",""
"","html-keyboard-response","281","433910","0.0-239.0-2.0","""event"",""trial"",""time""
""fullscreenenter"",""0"",""4970""
","
","
","""event"",""trial"",""time""
""fullscreenenter"",""0"",""4970""
","
","null","<p></p>","null","","","","","","","",""
"","image","282","434901","0.0-240.0-0.0","""event"",""trial"",""time""
""fullscreenenter"",""0"",""4970""
","
","
","""event"",""trial"",""time""
""fullscreenenter"",""0"",""4970""
","
","989.6999999999534","run_exp/static/images/Set 6_rs/166a.jpg","86","","","","","","test","TR","1"
"","show_choice","283","435402","0.0-240.0-1.0","""event"",""trial"",""time""
""fullscreenenter"",""0"",""4970""
","
","
","""event"",""trial"",""time""
""fullscreenenter"",""0"",""4970""
","
","null","run_exp/static/images/Set 6_rs/166a.jpg","null","","","","","","test","TR",""
"","html-keyboard-response","284","435907","0.0-240.0-2.0","""event"",""trial"",""time""
""fullscreenenter"",""0"",""4970""
","
","
","""event"",""trial"",""time""
""fullscreenenter"",""0"",""4970""
","
","null","<p></p>","null","","","","","","","",""
"","image","285","437000","0.0-241.0-0.0","""event"",""trial"",""time""
""fullscreenenter"",""0"",""4970""
","
","
","""event"",""trial"",""time""
""fullscreenenter"",""0"",""4970""
","
","1091.0999999999767","run_exp/static/images/Set 6_rs/086a.jpg","78","","","","","","test","TF","1"
"","show_choice","286","437501","0.0-241.0-1.0","""event"",""trial"",""time""
""fullscreenenter"",""0"",""4970""
","
","
","""event"",""trial"",""time""
""fullscreenenter"",""0"",""4970""
","
","null","run_exp/static/images/Set 6_rs/086a.jpg","null","","","","","","test","TF",""
"","html-keyboard-response","287","438006","0.0-241.0-2.0","""event"",""trial"",""time""
""fullscreenenter"",""0"",""4970""
","
","
","""event"",""trial"",""time""
""fullscreenenter"",""0"",""4970""
","
","null","<p></p>","null","","","","","","","",""
"","image","288","439474","0.0-242.0-0.0","""event"",""trial"",""time""
""fullscreenenter"",""0"",""4970""
","
","
","""event"",""trial"",""time""
""fullscreenenter"",""0"",""4970""
","
","1466.5999999999767","run_exp/static/images/Set 6_rs/176a.jpg","78","","","","","","test","TF","4"
"","show_choice","289","439985","0.0-242.0-1.0","""event"",""trial"",""time""
""fullscreenenter"",""0"",""4970""
","
","
","""event"",""trial"",""time""
""fullscreenenter"",""0"",""4970""
","
","null","run_exp/static/images/Set 6_rs/176a.jpg","null","","","","","","test","TF",""
"","html-keyboard-response","290","440487","0.0-242.0-2.0","""event"",""trial"",""time""
""fullscreenenter"",""0"",""4970""
","
","
","""event"",""trial"",""time""
""fullscreenenter"",""0"",""4970""
","
","null","<p></p>","null","","","","","","","",""
"","image","291","441912","0.0-243.0-0.0","""event"",""trial"",""time""
""fullscreenenter"",""0"",""4970""
","
","
","""event"",""trial"",""time""
""fullscreenenter"",""0"",""4970""
","
","1423.8000000000466","run_exp/static/images/Set 6_rs/132a.jpg","86","","","","","","test","TR","5"
"","show_choice","292","442424","0.0-243.0-1.0","""event"",""trial"",""time""
""fullscreenenter"",""0"",""4970""
","
","
","""event"",""trial"",""time""
""fullscreenenter"",""0"",""4970""
","
","null","run_exp/static/images/Set 6_rs/132a.jpg","null","","","","","","test","TR",""
"","html-keyboard-response","293","442928","0.0-243.0-2.0","""event"",""trial"",""time""
""fullscreenenter"",""0"",""4970""
","
","
","""event"",""trial"",""time""
""fullscreenenter"",""0"",""4970""
","
","null","<p></p>","null","","","","","","","",""
"","image","294","443832","0.0-244.0-0.0","""event"",""trial"",""time""
""fullscreenenter"",""0"",""4970""
","
","
","""event"",""trial"",""time""
""fullscreenenter"",""0"",""4970""
","
","902.8999999999069","run_exp/static/images/Set 6_rs/061a.jpg","86","","","","","","test","TR","5"
"","show_choice","295","444335","0.0-244.0-1.0","""event"",""trial"",""time""
""fullscreenenter"",""0"",""4970""
","
","
","""event"",""trial"",""time""
""fullscreenenter"",""0"",""4970""
","
","null","run_exp/static/images/Set 6_rs/061a.jpg","null","","","","","","test","TR",""
"","html-keyboard-response","296","444841","0.0-244.0-2.0","""event"",""trial"",""time""
""fullscreenenter"",""0"",""4970""
","
","
","""event"",""trial"",""time""
""fullscreenenter"",""0"",""4970""
","
","null","<p></p>","null","","","","","","","",""
"","image","297","445921","0.0-245.0-0.0","""event"",""trial"",""time""
""fullscreenenter"",""0"",""4970""
","
","
","""event"",""trial"",""time""
""fullscreenenter"",""0"",""4970""
","
","1079.5","run_exp/static/images/Set 6_rs/021a.jpg","78","","","","","","test","TF","2"
"","show_choice","298","446434","0.0-245.0-1.0","""event"",""trial"",""time""
""fullscreenenter"",""0"",""4970""
","
","
","""event"",""trial"",""time""
""fullscreenenter"",""0"",""4970""
","
","null","run_exp/static/images/Set 6_rs/021a.jpg","null","","","","","","test","TF",""
"","html-keyboard-response","299","446938","0.0-245.0-2.0","""event"",""trial"",""time""
""fullscreenenter"",""0"",""4970""
","
","
","""event"",""trial"",""time""
""fullscreenenter"",""0"",""4970""
","
","null","<p></p>","null","","","","","","","",""
"","image","300","447960","0.0-246.0-0.0","""event"",""trial"",""time""
""fullscreenenter"",""0"",""4970""
","
","
","""event"",""trial"",""time""
""fullscreenenter"",""0"",""4970""
","
","1020.6999999999534","run_exp/static/images/Set 6_rs/048a.jpg","78","","","","","","test","TF","4"
"","show_choice","301","448473","0.0-246.0-1.0","""event"",""trial"",""time""
""fullscreenenter"",""0"",""4970""
","
","
","""event"",""trial"",""time""
""fullscreenenter"",""0"",""4970""
","
","null","run_exp/static/images/Set 6_rs/048a.jpg","null","","","","","","test","TF",""
"","html-keyboard-response","302","448976","0.0-246.0-2.0","""event"",""trial"",""time""
""fullscreenenter"",""0"",""4970""
","
","
","""event"",""trial"",""time""
""fullscreenenter"",""0"",""4970""
","
","null","<p></p>","null","","","","","","","",""
"","image","303","450042","0.0-247.0-0.0","""event"",""trial"",""time""
""fullscreenenter"",""0"",""4970""
","
","
","""event"",""trial"",""time""
""fullscreenenter"",""0"",""4970""
","
","1065.2000000001863","run_exp/static/images/Set 6_rs/169a.jpg","86","","","","","","test","TR","4"
"","show_choice","304","450543","0.0-247.0-1.0","""event"",""trial"",""time""
""fullscreenenter"",""0"",""4970""
","
","
","""event"",""trial"",""time""
""fullscreenenter"",""0"",""4970""
","
","null","run_exp/static/images/Set 6_rs/169a.jpg","null","","","","","","test","TR",""
"","html-keyboard-response","305","451053","0.0-247.0-2.0","""event"",""trial"",""time""
""fullscreenenter"",""0"",""4970""
","
","
","""event"",""trial"",""time""
""fullscreenenter"",""0"",""4970""
","
","null","<p></p>","null","","","","","","","",""
"","image","306","452371","0.0-248.0-0.0","""event"",""trial"",""time""
""fullscreenenter"",""0"",""4970""
","
","
","""event"",""trial"",""time""
""fullscreenenter"",""0"",""4970""
","
","1316.3000000000466","run_exp/static/images/Set 6_rs/056a.jpg","78","","","","","","test","TF","3"
"","show_choice","307","452881","0.0-248.0-1.0","""event"",""trial"",""time""
""fullscreenenter"",""0"",""4970""
","
","
","""event"",""trial"",""time""
""fullscreenenter"",""0"",""4970""
","
","null","run_exp/static/images/Set 6_rs/056a.jpg","null","","","","","","test","TF",""
"","html-keyboard-response","308","453385","0.0-248.0-2.0","""event"",""trial"",""time""
""fullscreenenter"",""0"",""4970""
","
","
","""event"",""trial"",""time""
""fullscreenenter"",""0"",""4970""
","
","null","<p></p>","null","","","","","","","",""
"","image","309","454764","0.0-249.0-0.0","""event"",""trial"",""time""
""fullscreenenter"",""0"",""4970""
","
","
","""event"",""trial"",""time""
""fullscreenenter"",""0"",""4970""
","
","1377.0999999998603","run_exp/static/images/Set 6_rs/024a.jpg","86","","","","","","test","TR","5"
"","show_choice","310","455276","0.0-249.0-1.0","""event"",""trial"",""time""
""fullscreenenter"",""0"",""4970""
","
","
","""event"",""trial"",""time""
""fullscreenenter"",""0"",""4970""
","
","null","run_exp/static/images/Set 6_rs/024a.jpg","null","","","","","","test","TR",""
"","html-keyboard-response","311","455781","0.0-249.0-2.0","""event"",""trial"",""time""
""fullscreenenter"",""0"",""4970""
","
","
","""event"",""trial"",""time""
""fullscreenenter"",""0"",""4970""
","
","null","<p></p>","null","","","","","","","",""
"","image","312","457129","0.0-250.0-0.0","""event"",""trial"",""time""
""fullscreenenter"",""0"",""4970""
","
","
","""event"",""trial"",""time""
""fullscreenenter"",""0"",""4970""
","
","1346.6000000000931","run_exp/static/images/Set 6_rs/035a.jpg","78","","","","","","test","TF","4"
"","show_choice","313","457642","0.0-250.0-1.0","""event"",""trial"",""time""
""fullscreenenter"",""0"",""4970""
","
","
","""event"",""trial"",""time""
""fullscreenenter"",""0"",""4970""
","
","null","run_exp/static/images/Set 6_rs/035a.jpg","null","","","","","","test","TF",""
"","html-keyboard-response","314","458146","0.0-250.0-2.0","""event"",""trial"",""time""
""fullscreenenter"",""0"",""4970""
","
","
","""event"",""trial"",""time""
""fullscreenenter"",""0"",""4970""
","
","null","<p></p>","null","","","","","","","",""
"","image","315","459246","0.0-251.0-0.0","""event"",""trial"",""time""
""fullscreenenter"",""0"",""4970""
","
","
","""event"",""trial"",""time""
""fullscreenenter"",""0"",""4970""
","
","1098.8999999999069","run_exp/static/images/Set 6_rs/016b.jpg","66","","","","","","test","TL","1"
"","show_choice","316","459749","0.0-251.0-1.0","""event"",""trial"",""time""
""fullscreenenter"",""0"",""4970""
","
","
","""event"",""trial"",""time""
""fullscreenenter"",""0"",""4970""
","
","null","run_exp/static/images/Set 6_rs/016b.jpg","null","","","","","","test","TL",""
"","html-keyboard-response","317","460259","0.0-251.0-2.0","""event"",""trial"",""time""
""fullscreenenter"",""0"",""4970""
","
","
","""event"",""trial"",""time""
""fullscreenenter"",""0"",""4970""
","
","null","<p></p>","null","","","","","","","",""
"","image","318","461371","0.0-252.0-0.0","""event"",""trial"",""time""
""fullscreenenter"",""0"",""4970""
","
","
","""event"",""trial"",""time""
""fullscreenenter"",""0"",""4970""
","
","1111.3000000000466","run_exp/static/images/Set 6_rs/015a.jpg","78","","","","","","test","TF","4"
"","show_choice","319","461873","0.0-252.0-1.0","""event"",""trial"",""time""
""fullscreenenter"",""0"",""4970""
","
","
","""event"",""trial"",""time""
""fullscreenenter"",""0"",""4970""
","
","null","run_exp/static/images/Set 6_rs/015a.jpg","null","","","","","","test","TF",""
"","html-keyboard-response","320","462380","0.0-252.0-2.0","""event"",""trial"",""time""
""fullscreenenter"",""0"",""4970""
","
","
","""event"",""trial"",""time""
""fullscreenenter"",""0"",""4970""
","
","null","<p></p>","null","","","","","","","",""
"","image","321","464014","0.0-253.0-0.0","""event"",""trial"",""time""
""fullscreenenter"",""0"",""4970""
","
","
","""event"",""trial"",""time""
""fullscreenenter"",""0"",""4970""
","
","1633.1999999999534","run_exp/static/images/Set 6_rs/167b.jpg","86","","","","","","test","TL","2"
"","show_choice","322","464524","0.0-253.0-1.0","""event"",""trial"",""time""
""fullscreenenter"",""0"",""4970""
","
","
","""event"",""trial"",""time""
""fullscreenenter"",""0"",""4970""
","
","null","run_exp/static/images/Set 6_rs/167b.jpg","null","","","","","","test","TL",""
"","html-keyboard-response","323","465030","0.0-253.0-2.0","""event"",""trial"",""time""
""fullscreenenter"",""0"",""4970""
","
","
","""event"",""trial"",""time""
""fullscreenenter"",""0"",""4970""
","
","null","<p></p>","null","","","","","","","",""
"","image","324","466474","0.0-254.0-0.0","""event"",""trial"",""time""
""fullscreenenter"",""0"",""4970""
","
","
","""event"",""trial"",""time""
""fullscreenenter"",""0"",""4970""
","
","1443.3999999999069","run_exp/static/images/Set 6_rs/181b.jpg","86","","","","","","test","TL","1"
"","show_choice","325","466985","0.0-254.0-1.0","""event"",""trial"",""time""
""fullscreenenter"",""0"",""4970""
","
","
","""event"",""trial"",""time""
""fullscreenenter"",""0"",""4970""
","
","null","run_exp/static/images/Set 6_rs/181b.jpg","null","","","","","","test","TL",""
"","html-keyboard-response","326","467490","0.0-254.0-2.0","""event"",""trial"",""time""
""fullscreenenter"",""0"",""4970""
","
","
","""event"",""trial"",""time""
""fullscreenenter"",""0"",""4970""
","
","null","<p></p>","null","","","","","","","",""
"","image","327","468544","0.0-255.0-0.0","""event"",""trial"",""time""
""fullscreenenter"",""0"",""4970""
","
","
","""event"",""trial"",""time""
""fullscreenenter"",""0"",""4970""
","
","1052.5","run_exp/static/images/Set 6_rs/177a.jpg","86","","","","","","test","TR","5"
"","show_choice","328","469052","0.0-255.0-1.0","""event"",""trial"",""time""
""fullscreenenter"",""0"",""4970""
","
","
","""event"",""trial"",""time""
""fullscreenenter"",""0"",""4970""
","
","null","run_exp/static/images/Set 6_rs/177a.jpg","null","","","","","","test","TR",""
"","html-keyboard-response","329","469557","0.0-255.0-2.0","""event"",""trial"",""time""
""fullscreenenter"",""0"",""4970""
","
","
","""event"",""trial"",""time""
""fullscreenenter"",""0"",""4970""
","
","null","<p></p>","null","","","","","","","",""
"","image","330","470654","0.0-256.0-0.0","""event"",""trial"",""time""
""fullscreenenter"",""0"",""4970""
","
","
","""event"",""trial"",""time""
""fullscreenenter"",""0"",""4970""
","
","1096.1000000000931","run_exp/static/images/Set 6_rs/076a.jpg","86","","","","","","test","TR","4"
"","show_choice","331","471167","0.0-256.0-1.0","""event"",""trial"",""time""
""fullscreenenter"",""0"",""4970""
","
","
","""event"",""trial"",""time""
""fullscreenenter"",""0"",""4970""
","
","null","run_exp/static/images/Set 6_rs/076a.jpg","null","","","","","","test","TR",""
"","html-keyboard-response","332","471678","0.0-256.0-2.0","""event"",""trial"",""time""
""fullscreenenter"",""0"",""4970""
","
","
","""event"",""trial"",""time""
""fullscreenenter"",""0"",""4970""
","
","null","<p></p>","null","","","","","","","",""
"","image","333","472943","0.0-257.0-0.0","""event"",""trial"",""time""
""fullscreenenter"",""0"",""4970""
","
","
","""event"",""trial"",""time""
""fullscreenenter"",""0"",""4970""
","
","1264.3999999999069","run_exp/static/images/Set 6_rs/017b.jpg","66","","","","","","test","TL","3"
"","show_choice","334","473457","0.0-257.0-1.0","""event"",""trial"",""time""
""fullscreenenter"",""0"",""4970""
","
","
","""event"",""trial"",""time""
""fullscreenenter"",""0"",""4970""
","
","null","run_exp/static/images/Set 6_rs/017b.jpg","null","","","","","","test","TL",""
"","html-keyboard-response","335","473960","0.0-257.0-2.0","""event"",""trial"",""time""
""fullscreenenter"",""0"",""4970""
","
","
","""event"",""trial"",""time""
""fullscreenenter"",""0"",""4970""
","
","null","<p></p>","null","","","","","","","",""
"","image","336","475055","0.0-258.0-0.0","""event"",""trial"",""time""
""fullscreenenter"",""0"",""4970""
","
","
","""event"",""trial"",""time""
""fullscreenenter"",""0"",""4970""
","
","1093.6999999999534","run_exp/static/images/Set 6_rs/005a.jpg","78","","","","","","test","TF","5"
"","show_choice","337","475559","0.0-258.0-1.0","""event"",""trial"",""time""
""fullscreenenter"",""0"",""4970""
","
","
","""event"",""trial"",""time""
""fullscreenenter"",""0"",""4970""
","
","null","run_exp/static/images/Set 6_rs/005a.jpg","null","","","","","","test","TF",""
"","html-keyboard-response","338","476065","0.0-258.0-2.0","""event"",""trial"",""time""
""fullscreenenter"",""0"",""4970""
","
","
","""event"",""trial"",""time""
""fullscreenenter"",""0"",""4970""
","
","null","<p></p>","null","","","","","","","",""
"","image","339","477169","0.0-259.0-0.0","""event"",""trial"",""time""
""fullscreenenter"",""0"",""4970""
","
","
","""event"",""trial"",""time""
""fullscreenenter"",""0"",""4970""
","
","1103.5","run_exp/static/images/Set 6_rs/133a.jpg","78","","","","","","test","TF","4"
"","show_choice","340","477680","0.0-259.0-1.0","""event"",""trial"",""time""
""fullscreenenter"",""0"",""4970""
","
","
","""event"",""trial"",""time""
""fullscreenenter"",""0"",""4970""
","
","null","run_exp/static/images/Set 6_rs/133a.jpg","null","","","","","","test","TF",""
