"success","trial_type","trial_index","time_elapsed","internal_node_id","interactions","blur_events","focus_events","fullscreenenter_events","fullscreenexit_events","rt","stimulus","key_press","subject_id","participant_id","age","gender","prompt","phase","condition","lure_bin"
"true","fullscreen","0","3283","0.0-0.0","""event"",""trial"",""time""
""fullscreenenter"",""0"",""2295""
","
","
","""event"",""trial"",""time""
""fullscreenenter"",""0"",""2295""
","
","","","","","","","","","","",""
"","pavlovia","1","3289","0.0-1.0","""event"",""trial"",""time""
""fullscreenenter"",""0"",""2295""
","
","
","""event"",""trial"",""time""
""fullscreenenter"",""0"",""2295""
","
","","","","","","","","","","",""
"","welcome","2","38100","0.0-2.0","""event"",""trial"",""time""
""fullscreenenter"",""0"",""2295""
","
","
","""event"",""trial"",""time""
""fullscreenenter"",""0"",""2295""
","
","null","run_exp/static/audio/clip_1_welcome.m4a","null","2006","433","23","Male","<div class='center'><p>Welcome to the third part of the study! First, you'll be shown pictures of items one at a time. For each picture, you have to decide if the item is typically found indoors or outdoors.</p><p>If you think it's usually found indoors, then press <b>v</b> key on your keyboard. If you think it's usually found outdoors, then press the <b>n</b> key.There will be reminders on the screen to help you remember which keys to press. </p><p>If you're not sure whether the item is an indoor item or an outdoor item, go ahead and take a guess but try your best not to skip that choice. </p></div>","","",""
"","html-keyboard-response","3","38200","0.0-3.0","""event"",""trial"",""time""
""fullscreenenter"",""0"",""2295""
","
","
","""event"",""trial"",""time""
""fullscreenenter"",""0"",""2295""
","
","99.10000038146973","<div class='center'><p>Welcome to the third part of the study! First, you'll be shown pictures of items one at a time. For each picture, you have to decide if the item is typically found indoors or outdoors.</p><p>If you think it's usually found indoors, then press <b>v</b> key on your keyboard. If you think it's usually found outdoors, then press the <b>n</b> key.There will be reminders on the screen to help you remember which keys to press. </p><p>If you're not sure whether the item is an indoor item or an outdoor item, go ahead and take a guess but try your best not to skip that choice. </p><div><p><b>[Press the space bar to continue]</b></p></div>","32","","","","","","","",""
"","image","4","40229","0.0-4.0","""event"",""trial"",""time""
""fullscreenenter"",""0"",""2295""
","
","
","""event"",""trial"",""time""
""fullscreenenter"",""0"",""2295""
","
","null","run_exp/static/images/Set 6_rs/117a.jpg","null","","","","","","learn","SL",""
"","show_choice","5","42243","0.0-5.0","""event"",""trial"",""time""
""fullscreenenter"",""0"",""2295""
","
","
","""event"",""trial"",""time""
""fullscreenenter"",""0"",""2295""
","
","null","run_exp/static/images/blank.png","null","","","","","","learn","SL",""
"","html-keyboard-response","6","42763","0.0-6.0","""event"",""trial"",""time""
""fullscreenenter"",""0"",""2295""
","
","
","""event"",""trial"",""time""
""fullscreenenter"",""0"",""2295""
","
","null","<p></p>","null","","","","","","","",""
"","image","7","43864","0.0-7.0","""event"",""trial"",""time""
""fullscreenenter"",""0"",""2295""
","
","
","""event"",""trial"",""time""
""fullscreenenter"",""0"",""2295""
","
","1100.3999996185303","run_exp/static/images/Set 6_rs/045a.jpg","86","","","","","","learn","SR",""
"","show_choice","8","44778","0.0-8.0","""event"",""trial"",""time""
""fullscreenenter"",""0"",""2295""
","
","
","""event"",""trial"",""time""
""fullscreenenter"",""0"",""2295""
","
","null","run_exp/static/images/Set 6_rs/045a.jpg","null","","","","","","learn","SR",""
"","html-keyboard-response","9","45293","0.0-9.0","""event"",""trial"",""time""
""fullscreenenter"",""0"",""2295""
","
","
","""event"",""trial"",""time""
""fullscreenenter"",""0"",""2295""
","
","null","<p></p>","null","","","","","","","",""
"","image","10","46120","0.0-10.0","""event"",""trial"",""time""
""fullscreenenter"",""0"",""2295""
","
","
","""event"",""trial"",""time""
""fullscreenenter"",""0"",""2295""
","
","826","run_exp/static/images/Set 6_rs/129a.jpg","86","","","","","","learn","SL",""
"","show_choice","11","47304","0.0-11.0","""event"",""trial"",""time""
""fullscreenenter"",""0"",""2295""
","
","
","""event"",""trial"",""time""
""fullscreenenter"",""0"",""2295""
","
","null","run_exp/static/images/Set 6_rs/129a.jpg","null","","","","","","learn","SL",""
"","html-keyboard-response","12","47823","0.0-12.0","""event"",""trial"",""time""
""fullscreenenter"",""0"",""2295""
","
","
","""event"",""trial"",""time""
""fullscreenenter"",""0"",""2295""
","
","null","<p></p>","null","","","","","","","",""
"","image","13","48984","0.0-13.0","""event"",""trial"",""time""
""fullscreenenter"",""0"",""2295""
","
","
","""event"",""trial"",""time""
""fullscreenenter"",""0"",""2295""
","
","1160.099998474121","run_exp/static/images/Set 6_rs/062a.jpg","78","","","","","","learn","SL",""
"","show_choice","14","49825","0.0-14.0","""event"",""trial"",""time""
""fullscreenenter"",""0"",""2295""
","
","
","""event"",""trial"",""time""
""fullscreenenter"",""0"",""2295""
","
","null","run_exp/static/images/Set 6_rs/062a.jpg","null","","","","","","learn","SL",""
"","html-keyboard-response","15","50346","0.0-15.0","""event"",""trial"",""time""
""fullscreenenter"",""0"",""2295""
","
","
","""event"",""trial"",""time""
""fullscreenenter"",""0"",""2295""
","
","null","<p></p>","null","","","","","","","",""
"","image","16","51272","0.0-16.0","""event"",""trial"",""time""
""fullscreenenter"",""0"",""2295""
","
","
","""event"",""trial"",""time""
""fullscreenenter"",""0"",""2295""
","
","925.5","run_exp/static/images/Set 6_rs/089a.jpg","86","","","","","","learn","SL",""
"","show_choice","17","52365","0.0-17.0","""event"",""trial"",""time""
""fullscreenenter"",""0"",""2295""
","
","
","""event"",""trial"",""time""
""fullscreenenter"",""0"",""2295""
","
","null","run_exp/static/images/Set 6_rs/089a.jpg","null","","","","","","learn","SL",""
"","html-keyboard-response","18","52877","0.0-18.0","""event"",""trial"",""time""
""fullscreenenter"",""0"",""2295""
","
","
","""event"",""trial"",""time""
""fullscreenenter"",""0"",""2295""
","
","null","<p></p>","null","","","","","","","",""
"","image","19","53560","0.0-19.0","""event"",""trial"",""time""
""fullscreenenter"",""0"",""2295""
","
","
","""event"",""trial"",""time""
""fullscreenenter"",""0"",""2295""
","
","682","run_exp/static/images/Set 6_rs/070a.jpg","86","","","","","","learn","SR",""
"","show_choice","20","54892","0.0-20.0","""event"",""trial"",""time""
""fullscreenenter"",""0"",""2295""
","
","
","""event"",""trial"",""time""
""fullscreenenter"",""0"",""2295""
","
","null","run_exp/static/images/Set 6_rs/070a.jpg","null","","","","","","learn","SR",""
"","html-keyboard-response","21","55403","0.0-21.0","""event"",""trial"",""time""
""fullscreenenter"",""0"",""2295""
","
","
","""event"",""trial"",""time""
""fullscreenenter"",""0"",""2295""
","
","null","<p></p>","null","","","","","","","",""
"","image","22","56088","0.0-22.0","""event"",""trial"",""time""
""fullscreenenter"",""0"",""2295""
","
","
","""event"",""trial"",""time""
""fullscreenenter"",""0"",""2295""
","
","684.2999992370605","run_exp/static/images/Set 6_rs/055a.jpg","86","","","","","","learn","SL",""
"","show_choice","23","57406","0.0-23.0","""event"",""trial"",""time""
""fullscreenenter"",""0"",""2295""
","
","
","""event"",""trial"",""time""
""fullscreenenter"",""0"",""2295""
","
","null","run_exp/static/images/Set 6_rs/055a.jpg","null","","","","","","learn","SL",""
"","html-keyboard-response","24","57919","0.0-24.0","""event"",""trial"",""time""
""fullscreenenter"",""0"",""2295""
","
","
","""event"",""trial"",""time""
""fullscreenenter"",""0"",""2295""
","
","null","<p></p>","null","","","","","","","",""
"","image","25","58664","0.0-25.0","""event"",""trial"",""time""
""fullscreenenter"",""0"",""2295""
","
","
","""event"",""trial"",""time""
""fullscreenenter"",""0"",""2295""
","
","744.1000003814697","run_exp/static/images/Set 6_rs/123a.jpg","78","","","","","","learn","SL",""
"","show_choice","26","59934","0.0-26.0","""event"",""trial"",""time""
""fullscreenenter"",""0"",""2295""
","
","
","""event"",""trial"",""time""
""fullscreenenter"",""0"",""2295""
","
","null","run_exp/static/images/Set 6_rs/123a.jpg","null","","","","","","learn","SL",""
"","html-keyboard-response","27","60439","0.0-27.0","""event"",""trial"",""time""
""fullscreenenter"",""0"",""2295""
","
","
","""event"",""trial"",""time""
""fullscreenenter"",""0"",""2295""
","
","null","<p></p>","null","","","","","","","",""
"","image","28","61208","0.0-28.0","""event"",""trial"",""time""
""fullscreenenter"",""0"",""2295""
","
","
","""event"",""trial"",""time""
""fullscreenenter"",""0"",""2295""
","
","768.0999984741211","run_exp/static/images/Set 6_rs/017a.jpg","78","","","","","","learn","SL",""
"","show_choice","29","62454","0.0-29.0","""event"",""trial"",""time""
""fullscreenenter"",""0"",""2295""
","
","
","""event"",""trial"",""time""
""fullscreenenter"",""0"",""2295""
","
","null","run_exp/static/images/Set 6_rs/017a.jpg","null","","","","","","learn","SL",""
"","html-keyboard-response","30","62956","0.0-30.0","""event"",""trial"",""time""
""fullscreenenter"",""0"",""2295""
","
","
","""event"",""trial"",""time""
""fullscreenenter"",""0"",""2295""
","
","null","<p></p>","null","","","","","","","",""
"","image","31","63768","0.0-31.0","""event"",""trial"",""time""
""fullscreenenter"",""0"",""2295""
","
","
","""event"",""trial"",""time""
""fullscreenenter"",""0"",""2295""
","
","811.1000003814697","run_exp/static/images/Set 6_rs/064a.jpg","86","","","","","","learn","SR",""
"","show_choice","32","64970","0.0-32.0","""event"",""trial"",""time""
""fullscreenenter"",""0"",""2295""
","
","
","""event"",""trial"",""time""
""fullscreenenter"",""0"",""2295""
","
","null","run_exp/static/images/Set 6_rs/064a.jpg","null","","","","","","learn","SR",""
"","html-keyboard-response","33","65472","0.0-33.0","""event"",""trial"",""time""
""fullscreenenter"",""0"",""2295""
","
","
","""event"",""trial"",""time""
""fullscreenenter"",""0"",""2295""
","
","null","<p></p>","null","","","","","","","",""
"","image","34","66504","0.0-34.0","""event"",""trial"",""time""
""fullscreenenter"",""0"",""2295""
","
","
","""event"",""trial"",""time""
""fullscreenenter"",""0"",""2295""
","
","1031.5","run_exp/static/images/Set 6_rs/172a.jpg","78","","","","","","learn","SR",""
"","show_choice","35","67474","0.0-35.0","""event"",""trial"",""time""
""fullscreenenter"",""0"",""2295""
","
","
","""event"",""trial"",""time""
""fullscreenenter"",""0"",""2295""
","
","null","run_exp/static/images/Set 6_rs/172a.jpg","null","","","","","","learn","SR",""
"","html-keyboard-response","36","67988","0.0-36.0","""event"",""trial"",""time""
""fullscreenenter"",""0"",""2295""
","
","
","""event"",""trial"",""time""
""fullscreenenter"",""0"",""2295""
","
","null","<p></p>","null","","","","","","","",""
"","image","37","68840","0.0-37.0","""event"",""trial"",""time""
""fullscreenenter"",""0"",""2295""
","
","
","""event"",""trial"",""time""
""fullscreenenter"",""0"",""2295""
","
","851.4000015258789","run_exp/static/images/Set 6_rs/154a.jpg","86","","","","","","learn","SR",""
"","show_choice","38","70001","0.0-38.0","""event"",""trial"",""time""
""fullscreenenter"",""0"",""2295""
","
","
","""event"",""trial"",""time""
""fullscreenenter"",""0"",""2295""
","
","null","run_exp/static/images/Set 6_rs/154a.jpg","null","","","","","","learn","SR",""
"","html-keyboard-response","39","70505","0.0-39.0","""event"",""trial"",""time""
""fullscreenenter"",""0"",""2295""
","
","
","""event"",""trial"",""time""
""fullscreenenter"",""0"",""2295""
","
","null","<p></p>","null","","","","","","","",""
"","image","40","71240","0.0-40.0","""event"",""trial"",""time""
""fullscreenenter"",""0"",""2295""
","
","
","""event"",""trial"",""time""
""fullscreenenter"",""0"",""2295""
","
","733.9000015258789","run_exp/static/images/Set 6_rs/036a.jpg","86","","","","","","learn","SL",""
"","show_choice","41","72521","0.0-41.0","""event"",""trial"",""time""
""fullscreenenter"",""0"",""2295""
","
","
","""event"",""trial"",""time""
""fullscreenenter"",""0"",""2295""
","
","null","run_exp/static/images/Set 6_rs/036a.jpg","null","","","","","","learn","SL",""
"","html-keyboard-response","42","73022","0.0-42.0","""event"",""trial"",""time""
""fullscreenenter"",""0"",""2295""
","
","
","""event"",""trial"",""time""
""fullscreenenter"",""0"",""2295""
","
","null","<p></p>","null","","","","","","","",""
"","image","43","73896","0.0-43.0","""event"",""trial"",""time""
""fullscreenenter"",""0"",""2295""
","
","
","""event"",""trial"",""time""
""fullscreenenter"",""0"",""2295""
","
","873.5999984741211","run_exp/static/images/Set 6_rs/061a.jpg","78","","","","","","learn","SR",""
"","show_choice","44","75028","0.0-44.0","""event"",""trial"",""time""
""fullscreenenter"",""0"",""2295""
","
","
","""event"",""trial"",""time""
""fullscreenenter"",""0"",""2295""
","
","null","run_exp/static/images/Set 6_rs/061a.jpg","null","","","","","","learn","SR",""
"","html-keyboard-response","45","75532","0.0-45.0","""event"",""trial"",""time""
""fullscreenenter"",""0"",""2295""
","
","
","""event"",""trial"",""time""
""fullscreenenter"",""0"",""2295""
","
","null","<p></p>","null","","","","","","","",""
"","image","46","76264","0.0-46.0","""event"",""trial"",""time""
""fullscreenenter"",""0"",""2295""
","
","
","""event"",""trial"",""time""
""fullscreenenter"",""0"",""2295""
","
","731.1000003814697","run_exp/static/images/Set 6_rs/025a.jpg","78","","","","","","learn","SL",""
"","show_choice","47","77538","0.0-47.0","""event"",""trial"",""time""
""fullscreenenter"",""0"",""2295""
","
","
","""event"",""trial"",""time""
""fullscreenenter"",""0"",""2295""
","
","null","run_exp/static/images/Set 6_rs/025a.jpg","null","","","","","","learn","SL",""
"","html-keyboard-response","48","78054","0.0-48.0","""event"",""trial"",""time""
""fullscreenenter"",""0"",""2295""
","
","
","""event"",""trial"",""time""
""fullscreenenter"",""0"",""2295""
","
","null","<p></p>","null","","","","","","","",""
"","image","49","78712","0.0-49.0","""event"",""trial"",""time""
""fullscreenenter"",""0"",""2295""
","
","
","""event"",""trial"",""time""
""fullscreenenter"",""0"",""2295""
","
","657.1000003814697","run_exp/static/images/Set 6_rs/112a.jpg","86","","","","","","learn","SR",""
"","show_choice","50","80064","0.0-50.0","""event"",""trial"",""time""
""fullscreenenter"",""0"",""2295""
","
","
","""event"",""trial"",""time""
""fullscreenenter"",""0"",""2295""
","
","null","run_exp/static/images/Set 6_rs/112a.jpg","null","","","","","","learn","SR",""
"","html-keyboard-response","51","80575","0.0-51.0","""event"",""trial"",""time""
""fullscreenenter"",""0"",""2295""
","
","
","""event"",""trial"",""time""
""fullscreenenter"",""0"",""2295""
","
","null","<p></p>","null","","","","","","","",""
"","image","52","81896","0.0-52.0","""event"",""trial"",""time""
""fullscreenenter"",""0"",""2295""
","
","
","""event"",""trial"",""time""
""fullscreenenter"",""0"",""2295""
","
","1320.400001525879","run_exp/static/images/Set 6_rs/144a.jpg","86","","","","","","learn","SL",""
"","show_choice","53","82592","0.0-53.0","""event"",""trial"",""time""
""fullscreenenter"",""0"",""2295""
","
","
","""event"",""trial"",""time""
""fullscreenenter"",""0"",""2295""
","
","null","run_exp/static/images/Set 6_rs/144a.jpg","null","","","","","","learn","SL",""
"","html-keyboard-response","54","83105","0.0-54.0","""event"",""trial"",""time""
""fullscreenenter"",""0"",""2295""
","
","
","""event"",""trial"",""time""
""fullscreenenter"",""0"",""2295""
","
","null","<p></p>","null","","","","","","","",""
"","image","55","83912","0.0-55.0","""event"",""trial"",""time""
""fullscreenenter"",""0"",""2295""
","
","
","""event"",""trial"",""time""
""fullscreenenter"",""0"",""2295""
","
","806.2000007629395","run_exp/static/images/Set 6_rs/079a.jpg","86","","","","","","learn","SL",""
"","show_choice","56","85117","0.0-56.0","""event"",""trial"",""time""
""fullscreenenter"",""0"",""2295""
","
","
","""event"",""trial"",""time""
""fullscreenenter"",""0"",""2295""
","
","null","run_exp/static/images/Set 6_rs/079a.jpg","null","","","","","","learn","SL",""
"","html-keyboard-response","57","85622","0.0-57.0","""event"",""trial"",""time""
""fullscreenenter"",""0"",""2295""
","
","
","""event"",""trial"",""time""
""fullscreenenter"",""0"",""2295""
","
","null","<p></p>","null","","","","","","","",""
"","image","58","86328","0.0-58.0","""event"",""trial"",""time""
""fullscreenenter"",""0"",""2295""
","
","
","""event"",""trial"",""time""
""fullscreenenter"",""0"",""2295""
","
","705.7000007629395","run_exp/static/images/Set 6_rs/138a.jpg","78","","","","","","learn","SL",""
"","show_choice","59","87633","0.0-59.0","""event"",""trial"",""time""
""fullscreenenter"",""0"",""2295""
","
","
","""event"",""trial"",""time""
""fullscreenenter"",""0"",""2295""
","
","null","run_exp/static/images/Set 6_rs/138a.jpg","null","","","","","","learn","SL",""
"","html-keyboard-response","60","88137","0.0-60.0","""event"",""trial"",""time""
""fullscreenenter"",""0"",""2295""
","
","
","""event"",""trial"",""time""
""fullscreenenter"",""0"",""2295""
","
","null","<p></p>","null","","","","","","","",""
"","image","61","89624","0.0-61.0","""event"",""trial"",""time""
""fullscreenenter"",""0"",""2295""
","
","
","""event"",""trial"",""time""
""fullscreenenter"",""0"",""2295""
","
","1486.6999988555908","run_exp/static/images/Set 6_rs/057a.jpg","86","","","","","","learn","SL",""
"","show_choice","62","90153","0.0-62.0","""event"",""trial"",""time""
""fullscreenenter"",""0"",""2295""
","
","
","""event"",""trial"",""time""
""fullscreenenter"",""0"",""2295""
","
","null","run_exp/static/images/Set 6_rs/057a.jpg","null","","","","","","learn","SL",""
"","html-keyboard-response","63","90663","0.0-63.0","""event"",""trial"",""time""
""fullscreenenter"",""0"",""2295""
","
","
","""event"",""trial"",""time""
""fullscreenenter"",""0"",""2295""
","
","null","<p></p>","null","","","","","","","",""
"","image","64","91368","0.0-64.0","""event"",""trial"",""time""
""fullscreenenter"",""0"",""2295""
","
","
","""event"",""trial"",""time""
""fullscreenenter"",""0"",""2295""
","
","704.3999996185303","run_exp/static/images/Set 6_rs/141a.jpg","78","","","","","","learn","SR",""
"","show_choice","65","92665","0.0-65.0","""event"",""trial"",""time""
""fullscreenenter"",""0"",""2295""
","
","
","""event"",""trial"",""time""
""fullscreenenter"",""0"",""2295""
","
","null","run_exp/static/images/Set 6_rs/141a.jpg","null","","","","","","learn","SR",""
"","html-keyboard-response","66","93171","0.0-66.0","""event"",""trial"",""time""
""fullscreenenter"",""0"",""2295""
","
","
","""event"",""trial"",""time""
""fullscreenenter"",""0"",""2295""
","
","null","<p></p>","null","","","","","","","",""
"","image","67","94168","0.0-67.0","""event"",""trial"",""time""
""fullscreenenter"",""0"",""2295""
","
","
","""event"",""trial"",""time""
""fullscreenenter"",""0"",""2295""
","
","996.5","run_exp/static/images/Set 6_rs/132a.jpg","78","","","","","","learn","SR",""
"","show_choice","68","95188","0.0-68.0","""event"",""trial"",""time""
""fullscreenenter"",""0"",""2295""
","
","
","""event"",""trial"",""time""
""fullscreenenter"",""0"",""2295""
","
","null","run_exp/static/images/Set 6_rs/132a.jpg","null","","","","","","learn","SR",""
"","html-keyboard-response","69","95701","0.0-69.0","""event"",""trial"",""time""
""fullscreenenter"",""0"",""2295""
","
","
","""event"",""trial"",""time""
""fullscreenenter"",""0"",""2295""
","
","null","<p></p>","null","","","","","","","",""
"","image","70","97096","0.0-70.0","""event"",""trial"",""time""
""fullscreenenter"",""0"",""2295""
","
","
","""event"",""trial"",""time""
""fullscreenenter"",""0"",""2295""
","
","1394.1000003814697","run_exp/static/images/Set 6_rs/121a.jpg","86","","","","","","learn","SR",""
"","show_choice","71","97715","0.0-71.0","""event"",""trial"",""time""
""fullscreenenter"",""0"",""2295""
","
","
","""event"",""trial"",""time""
""fullscreenenter"",""0"",""2295""
","
","null","run_exp/static/images/Set 6_rs/121a.jpg","null","","","","","","learn","SR",""
"","html-keyboard-response","72","98221","0.0-72.0","""event"",""trial"",""time""
""fullscreenenter"",""0"",""2295""
","
","
","""event"",""trial"",""time""
""fullscreenenter"",""0"",""2295""
","
","null","<p></p>","null","","","","","","","",""
"","image","73","99129","0.0-73.0","""event"",""trial"",""time""
""fullscreenenter"",""0"",""2295""
","
","
","""event"",""trial"",""time""
""fullscreenenter"",""0"",""2295""
","
","907.5","run_exp/static/images/Set 6_rs/177a.jpg","78","","","","","","learn","SR",""
"","show_choice","74","100232","0.0-74.0","""event"",""trial"",""time""
""fullscreenenter"",""0"",""2295""
","
","
","""event"",""trial"",""time""
""fullscreenenter"",""0"",""2295""
","
","null","run_exp/static/images/Set 6_rs/177a.jpg","null","","","","","","learn","SR",""
"","html-keyboard-response","75","100743","0.0-75.0","""event"",""trial"",""time""
""fullscreenenter"",""0"",""2295""
","
","
","""event"",""trial"",""time""
""fullscreenenter"",""0"",""2295""
","
","null","<p></p>","null","","","","","","","",""
"","image","76","101881","0.0-76.0","""event"",""trial"",""time""
""fullscreenenter"",""0"",""2295""
","
","
","""event"",""trial"",""time""
""fullscreenenter"",""0"",""2295""
","
","1137.3000011444092","run_exp/static/images/Set 6_rs/010a.jpg","86","","","","","","learn","SR",""
"","show_choice","77","102748","0.0-77.0","""event"",""trial"",""time""
""fullscreenenter"",""0"",""2295""
","
","
","""event"",""trial"",""time""
""fullscreenenter"",""0"",""2295""
","
","null","run_exp/static/images/Set 6_rs/010a.jpg","null","","","","","","learn","SR",""
"","html-keyboard-response","78","103255","0.0-78.0","""event"",""trial"",""time""
""fullscreenenter"",""0"",""2295""
","
","
","""event"",""trial"",""time""
""fullscreenenter"",""0"",""2295""
","
","null","<p></p>","null","","","","","","","",""
"","image","79","104025","0.0-79.0","""event"",""trial"",""time""
""fullscreenenter"",""0"",""2295""
","
","
","""event"",""trial"",""time""
""fullscreenenter"",""0"",""2295""
","
","768.8000011444092","run_exp/static/images/Set 6_rs/007a.jpg","86","","","","","","learn","SR",""
"","show_choice","80","105257","0.0-80.0","""event"",""trial"",""time""
""fullscreenenter"",""0"",""2295""
","
","
","""event"",""trial"",""time""
""fullscreenenter"",""0"",""2295""
","
","null","run_exp/static/images/Set 6_rs/007a.jpg","null","","","","","","learn","SR",""
"","html-keyboard-response","81","105772","0.0-81.0","""event"",""trial"",""time""
""fullscreenenter"",""0"",""2295""
","
","
","""event"",""trial"",""time""
""fullscreenenter"",""0"",""2295""
","
","null","<p></p>","null","","","","","","","",""
"","image","82","106681","0.0-82.0","""event"",""trial"",""time""
""fullscreenenter"",""0"",""2295""
","
","
","""event"",""trial"",""time""
""fullscreenenter"",""0"",""2295""
","
","908.6000003814697","run_exp/static/images/Set 6_rs/091a.jpg","78","","","","","","learn","SL",""
"","show_choice","83","107780","0.0-83.0","""event"",""trial"",""time""
""fullscreenenter"",""0"",""2295""
","
","
","""event"",""trial"",""time""
""fullscreenenter"",""0"",""2295""
","
","null","run_exp/static/images/Set 6_rs/091a.jpg","null","","","","","","learn","SL",""
"","html-keyboard-response","84","108288","0.0-84.0","""event"",""trial"",""time""
""fullscreenenter"",""0"",""2295""
","
","
","""event"",""trial"",""time""
""fullscreenenter"",""0"",""2295""
","
","null","<p></p>","null","","","","","","","",""
"","image","85","109129","0.0-85.0","""event"",""trial"",""time""
""fullscreenenter"",""0"",""2295""
","
","
","""event"",""trial"",""time""
""fullscreenenter"",""0"",""2295""
","
","839.8999996185303","run_exp/static/images/Set 6_rs/186a.jpg","86","","","","","","learn","SR",""
"","show_choice","86","110294","0.0-86.0","""event"",""trial"",""time""
""fullscreenenter"",""0"",""2295""
","
","
","""event"",""trial"",""time""
""fullscreenenter"",""0"",""2295""
","
","null","run_exp/static/images/Set 6_rs/186a.jpg","null","","","","","","learn","SR",""
"","html-keyboard-response","87","110808","0.0-87.0","""event"",""trial"",""time""
""fullscreenenter"",""0"",""2295""
","
","
","""event"",""trial"",""time""
""fullscreenenter"",""0"",""2295""
","
","null","<p></p>","null","","","","","","","",""
"","image","88","111993","0.0-88.0","""event"",""trial"",""time""
""fullscreenenter"",""0"",""2295""
","
","
","""event"",""trial"",""time""
""fullscreenenter"",""0"",""2295""
","
","1184.3999996185303","run_exp/static/images/Set 6_rs/006a.jpg","78","","","","","","learn","SL",""
"","show_choice","89","112817","0.0-89.0","""event"",""trial"",""time""
""fullscreenenter"",""0"",""2295""
","
","
","""event"",""trial"",""time""
""fullscreenenter"",""0"",""2295""
","
","null","run_exp/static/images/Set 6_rs/006a.jpg","null","","","","","","learn","SL",""
"","html-keyboard-response","90","113321","0.0-90.0","""event"",""trial"",""time""
""fullscreenenter"",""0"",""2295""
","
","
","""event"",""trial"",""time""
""fullscreenenter"",""0"",""2295""
","
","null","<p></p>","null","","","","","","","",""
"","image","91","114793","0.0-91.0","""event"",""trial"",""time""
""fullscreenenter"",""0"",""2295""
","
","
","""event"",""trial"",""time""
""fullscreenenter"",""0"",""2295""
","
","1470.7000007629395","run_exp/static/images/Set 6_rs/150a.jpg","78","","","","","","learn","SR",""
"","show_choice","92","115336","0.0-92.0","""event"",""trial"",""time""
""fullscreenenter"",""0"",""2295""
","
","
","""event"",""trial"",""time""
""fullscreenenter"",""0"",""2295""
","
","null","run_exp/static/images/Set 6_rs/150a.jpg","null","","","","","","learn","SR",""
"","html-keyboard-response","93","115839","0.0-93.0","""event"",""trial"",""time""
""fullscreenenter"",""0"",""2295""
","
","
","""event"",""trial"",""time""
""fullscreenenter"",""0"",""2295""
","
","null","<p></p>","null","","","","","","","",""
"","image","94","117081","0.0-94.0","""event"",""trial"",""time""
""fullscreenenter"",""0"",""2295""
","
","
","""event"",""trial"",""time""
""fullscreenenter"",""0"",""2295""
","
","1240.6000003814697","run_exp/static/images/Set 6_rs/191a.jpg","78","","","","","","learn","SL",""
"","show_choice","95","117846","0.0-95.0","""event"",""trial"",""time""
""fullscreenenter"",""0"",""2295""
","
","
","""event"",""trial"",""time""
""fullscreenenter"",""0"",""2295""
","
","null","run_exp/static/images/Set 6_rs/191a.jpg","null","","","","","","learn","SL",""
"","html-keyboard-response","96","118355","0.0-96.0","""event"",""trial"",""time""
""fullscreenenter"",""0"",""2295""
","
","
","""event"",""trial"",""time""
""fullscreenenter"",""0"",""2295""
","
","null","<p></p>","null","","","","","","","",""
"","image","97","119145","0.0-97.0","""event"",""trial"",""time""
""fullscreenenter"",""0"",""2295""
","
","
","""event"",""trial"",""time""
""fullscreenenter"",""0"",""2295""
","
","789.3999996185303","run_exp/static/images/Set 6_rs/014a.jpg","86","","","","","","learn","SL",""
"","show_choice","98","120358","0.0-98.0","""event"",""trial"",""time""
""fullscreenenter"",""0"",""2295""
","
","
","""event"",""trial"",""time""
""fullscreenenter"",""0"",""2295""
","
","null","run_exp/static/images/Set 6_rs/014a.jpg","null","","","","","","learn","SL",""
"","html-keyboard-response","99","120872","0.0-99.0","""event"",""trial"",""time""
""fullscreenenter"",""0"",""2295""
","
","
","""event"",""trial"",""time""
""fullscreenenter"",""0"",""2295""
","
","null","<p></p>","null","","","","","","","",""
"","image","100","122281","0.0-100.0","""event"",""trial"",""time""
""fullscreenenter"",""0"",""2295""
","
","
","""event"",""trial"",""time""
""fullscreenenter"",""0"",""2295""
","
","1408.3000011444092","run_exp/static/images/Set 6_rs/066a.jpg","86","","","","","","learn","SL",""
"","show_choice","101","122880","0.0-101.0","""event"",""trial"",""time""
""fullscreenenter"",""0"",""2295""
","
","
","""event"",""trial"",""time""
""fullscreenenter"",""0"",""2295""
","
","null","run_exp/static/images/Set 6_rs/066a.jpg","null","","","","","","learn","SL",""
"","html-keyboard-response","102","123388","0.0-102.0","""event"",""trial"",""time""
""fullscreenenter"",""0"",""2295""
","
","
","""event"",""trial"",""time""
""fullscreenenter"",""0"",""2295""
","
","null","<p></p>","null","","","","","","","",""
"","image","103","124137","0.0-103.0","""event"",""trial"",""time""
""fullscreenenter"",""0"",""2295""
","
","
","""event"",""trial"",""time""
""fullscreenenter"",""0"",""2295""
","
","748.5","run_exp/static/images/Set 6_rs/063a.jpg","86","","","","","","learn","SR",""
"","show_choice","104","125404","0.0-104.0","""event"",""trial"",""time""
""fullscreenenter"",""0"",""2295""
","
","
","""event"",""trial"",""time""
""fullscreenenter"",""0"",""2295""
","
","null","run_exp/static/images/Set 6_rs/063a.jpg","null","","","","","","learn","SR",""
"","html-keyboard-response","105","125906","0.0-105.0","""event"",""trial"",""time""
""fullscreenenter"",""0"",""2295""
","
","
","""event"",""trial"",""time""
""fullscreenenter"",""0"",""2295""
","
","null","<p></p>","null","","","","","","","",""
"","image","106","126825","0.0-106.0","""event"",""trial"",""time""
""fullscreenenter"",""0"",""2295""
","
","
","""event"",""trial"",""time""
""fullscreenenter"",""0"",""2295""
","
","918","run_exp/static/images/Set 6_rs/108a.jpg","78","","","","","","learn","SR",""
"","show_choice","107","127917","0.0-107.0","""event"",""trial"",""time""
""fullscreenenter"",""0"",""2295""
","
","
","""event"",""trial"",""time""
""fullscreenenter"",""0"",""2295""
","
","null","run_exp/static/images/Set 6_rs/108a.jpg","null","","","","","","learn","SR",""
"","html-keyboard-response","108","128421","0.0-108.0","""event"",""trial"",""time""
""fullscreenenter"",""0"",""2295""
","
","
","""event"",""trial"",""time""
""fullscreenenter"",""0"",""2295""
","
","null","<p></p>","null","","","","","","","",""
"","image","109","129657","0.0-109.0","""event"",""trial"",""time""
""fullscreenenter"",""0"",""2295""
","
","
","""event"",""trial"",""time""
""fullscreenenter"",""0"",""2295""
","
","1234.6000003814697","run_exp/static/images/Set 6_rs/050a.jpg","86","","","","","","learn","SL",""
"","show_choice","110","130436","0.0-110.0","""event"",""trial"",""time""
""fullscreenenter"",""0"",""2295""
","
","
","""event"",""trial"",""time""
""fullscreenenter"",""0"",""2295""
","
","null","run_exp/static/images/Set 6_rs/050a.jpg","null","","","","","","learn","SL",""
"","html-keyboard-response","111","130939","0.0-111.0","""event"",""trial"",""time""
""fullscreenenter"",""0"",""2295""
","
","
","""event"",""trial"",""time""
""fullscreenenter"",""0"",""2295""
","
","null","<p></p>","null","","","","","","","",""
"","image","112","131737","0.0-112.0","""event"",""trial"",""time""
""fullscreenenter"",""0"",""2295""
","
","
","""event"",""trial"",""time""
""fullscreenenter"",""0"",""2295""
","
","796.6000003814697","run_exp/static/images/Set 6_rs/116a.jpg","86","","","","","","learn","SL",""
"","show_choice","113","132945","0.0-113.0","""event"",""trial"",""time""
""fullscreenenter"",""0"",""2295""
","
","
","""event"",""trial"",""time""
""fullscreenenter"",""0"",""2295""
","
","null","run_exp/static/images/Set 6_rs/116a.jpg","null","","","","","","learn","SL",""
"","html-keyboard-response","114","133453","0.0-114.0","""event"",""trial"",""time""
""fullscreenenter"",""0"",""2295""
","
","
","""event"",""trial"",""time""
""fullscreenenter"",""0"",""2295""
","
","null","<p></p>","null","","","","","","","",""
"","image","115","134665","0.0-115.0","""event"",""trial"",""time""
""fullscreenenter"",""0"",""2295""
","
","
","""event"",""trial"",""time""
""fullscreenenter"",""0"",""2295""
","
","1211.3000011444092","run_exp/static/images/Set 6_rs/166a.jpg","78","","","","","","learn","SR",""
"","show_choice","116","135467","0.0-116.0","""event"",""trial"",""time""
""fullscreenenter"",""0"",""2295""
","
","
","""event"",""trial"",""time""
""fullscreenenter"",""0"",""2295""
","
","null","run_exp/static/images/Set 6_rs/166a.jpg","null","","","","","","learn","SR",""
"","html-keyboard-response","117","135971","0.0-117.0","""event"",""trial"",""time""
""fullscreenenter"",""0"",""2295""
","
","
","""event"",""trial"",""time""
""fullscreenenter"",""0"",""2295""
","
","null","<p></p>","null","","","","","","","",""
"","image","118","136761","0.0-118.0","""event"",""trial"",""time""
""fullscreenenter"",""0"",""2295""
","
","
","""event"",""trial"",""time""
""fullscreenenter"",""0"",""2295""
","
","789.2000007629395","run_exp/static/images/Set 6_rs/019a.jpg","86","","","","","","learn","SL",""
"","show_choice","119","137975","0.0-119.0","""event"",""trial"",""time""
""fullscreenenter"",""0"",""2295""
","
","
","""event"",""trial"",""time""
""fullscreenenter"",""0"",""2295""
","
","null","run_exp/static/images/Set 6_rs/019a.jpg","null","","","","","","learn","SL",""
"","html-keyboard-response","120","138476","0.0-120.0","""event"",""trial"",""time""
""fullscreenenter"",""0"",""2295""
","
","
","""event"",""trial"",""time""
""fullscreenenter"",""0"",""2295""
","
","null","<p></p>","null","","","","","","","",""
"","image","121","139129","0.0-121.0","""event"",""trial"",""time""
""fullscreenenter"",""0"",""2295""
","
","
","""event"",""trial"",""time""
""fullscreenenter"",""0"",""2295""
","
","652.1000003814697","run_exp/static/images/Set 6_rs/088a.jpg","86","","","","","","learn","SR",""
"","show_choice","122","140482","0.0-122.0","""event"",""trial"",""time""
""fullscreenenter"",""0"",""2295""
","
","
","""event"",""trial"",""time""
""fullscreenenter"",""0"",""2295""
","
","null","run_exp/static/images/Set 6_rs/088a.jpg","null","","","","","","learn","SR",""
"","html-keyboard-response","123","140983","0.0-123.0","""event"",""trial"",""time""
""fullscreenenter"",""0"",""2295""
","
","
","""event"",""trial"",""time""
""fullscreenenter"",""0"",""2295""
","
","null","<p></p>","null","","","","","","","",""
"","image","124","141609","0.0-124.0","""event"",""trial"",""time""
""fullscreenenter"",""0"",""2295""
","
","
","""event"",""trial"",""time""
""fullscreenenter"",""0"",""2295""
","
","625.3999996185303","run_exp/static/images/Set 6_rs/071a.jpg","86","","","","","","learn","SL",""
"","show_choice","125","142996","0.0-125.0","""event"",""trial"",""time""
""fullscreenenter"",""0"",""2295""
","
","
","""event"",""trial"",""time""
""fullscreenenter"",""0"",""2295""
","
","null","run_exp/static/images/Set 6_rs/071a.jpg","null","","","","","","learn","SL",""
"","html-keyboard-response","126","143503","0.0-126.0","""event"",""trial"",""time""
""fullscreenenter"",""0"",""2295""
","
","
","""event"",""trial"",""time""
""fullscreenenter"",""0"",""2295""
","
","null","<p></p>","null","","","","","","","",""
"","image","127","144777","0.0-127.0","""event"",""trial"",""time""
""fullscreenenter"",""0"",""2295""
","
","
","""event"",""trial"",""time""
""fullscreenenter"",""0"",""2295""
","
","1272.8000011444092","run_exp/static/images/Set 6_rs/075a.jpg","86","","","","","","learn","SR",""
"","show_choice","128","145506","0.0-128.0","""event"",""trial"",""time""
""fullscreenenter"",""0"",""2295""
","
","
","""event"",""trial"",""time""
""fullscreenenter"",""0"",""2295""
","
","null","run_exp/static/images/Set 6_rs/075a.jpg","null","","","","","","learn","SR",""
"","html-keyboard-response","129","146022","0.0-129.0","""event"",""trial"",""time""
""fullscreenenter"",""0"",""2295""
","
","
","""event"",""trial"",""time""
""fullscreenenter"",""0"",""2295""
","
","null","<p></p>","null","","","","","","","",""
"","image","130","147001","0.0-130.0","""event"",""trial"",""time""
""fullscreenenter"",""0"",""2295""
","
","
","""event"",""trial"",""time""
""fullscreenenter"",""0"",""2295""
","
","978.3999996185303","run_exp/static/images/Set 6_rs/122a.jpg","86","","","","","","learn","SR",""
"","show_choice","131","148037","0.0-131.0","""event"",""trial"",""time""
""fullscreenenter"",""0"",""2295""
","
","
","""event"",""trial"",""time""
""fullscreenenter"",""0"",""2295""
","
","null","run_exp/static/images/Set 6_rs/122a.jpg","null","","","","","","learn","SR",""
"","html-keyboard-response","132","148539","0.0-132.0","""event"",""trial"",""time""
""fullscreenenter"",""0"",""2295""
","
","
","""event"",""trial"",""time""
""fullscreenenter"",""0"",""2295""
","
","null","<p></p>","null","","","","","","","",""
"","image","133","149481","0.0-133.0","""event"",""trial"",""time""
""fullscreenenter"",""0"",""2295""
","
","
","""event"",""trial"",""time""
""fullscreenenter"",""0"",""2295""
","
","940.6000003814697","run_exp/static/images/Set 6_rs/168a.jpg","86","","","","","","learn","SL",""
"","show_choice","134","150551","0.0-134.0","""event"",""trial"",""time""
""fullscreenenter"",""0"",""2295""
","
","
","""event"",""trial"",""time""
""fullscreenenter"",""0"",""2295""
","
","null","run_exp/static/images/Set 6_rs/168a.jpg","null","","","","","","learn","SL",""
"","html-keyboard-response","135","151056","0.0-135.0","""event"",""trial"",""time""
""fullscreenenter"",""0"",""2295""
","
","
","""event"",""trial"",""time""
""fullscreenenter"",""0"",""2295""
","
","null","<p></p>","null","","","","","","","",""
"","image","136","152105","0.0-136.0","""event"",""trial"",""time""
""fullscreenenter"",""0"",""2295""
","
","
","""event"",""trial"",""time""
""fullscreenenter"",""0"",""2295""
","
","1047.5","run_exp/static/images/Set 6_rs/073a.jpg","86","","","","","","learn","SL",""
"","show_choice","137","153072","0.0-137.0","""event"",""trial"",""time""
""fullscreenenter"",""0"",""2295""
","
","
","""event"",""trial"",""time""
""fullscreenenter"",""0"",""2295""
","
","null","run_exp/static/images/Set 6_rs/073a.jpg","null","","","","","","learn","SL",""
"","html-keyboard-response","138","153574","0.0-138.0","""event"",""trial"",""time""
""fullscreenenter"",""0"",""2295""
","
","
","""event"",""trial"",""time""
""fullscreenenter"",""0"",""2295""
","
","null","<p></p>","null","","","","","","","",""
"","image","139","154313","0.0-139.0","""event"",""trial"",""time""
""fullscreenenter"",""0"",""2295""
","
","
","""event"",""trial"",""time""
""fullscreenenter"",""0"",""2295""
","
","738.2999992370605","run_exp/static/images/Set 6_rs/152a.jpg","86","","","","","","learn","SR",""
"","show_choice","140","155588","0.0-140.0","""event"",""trial"",""time""
""fullscreenenter"",""0"",""2295""
","
","
","""event"",""trial"",""time""
""fullscreenenter"",""0"",""2295""
","
","null","run_exp/static/images/Set 6_rs/152a.jpg","null","","","","","","learn","SR",""
"","html-keyboard-response","141","156089","0.0-141.0","""event"",""trial"",""time""
""fullscreenenter"",""0"",""2295""
","
","
","""event"",""trial"",""time""
""fullscreenenter"",""0"",""2295""
","
","null","<p></p>","null","","","","","","","",""
"","image","142","156937","0.0-142.0","""event"",""trial"",""time""
""fullscreenenter"",""0"",""2295""
","
","
","""event"",""trial"",""time""
""fullscreenenter"",""0"",""2295""
","
","846.7000007629395","run_exp/static/images/Set 6_rs/178a.jpg","78","","","","","","learn","SR",""
"","show_choice","143","158106","0.0-143.0","""event"",""trial"",""time""
""fullscreenenter"",""0"",""2295""
","
","
","""event"",""trial"",""time""
""fullscreenenter"",""0"",""2295""
","
","null","run_exp/static/images/Set 6_rs/178a.jpg","null","","","","","","learn","SR",""
"","html-keyboard-response","144","158621","0.0-144.0","""event"",""trial"",""time""
""fullscreenenter"",""0"",""2295""
","
","
","""event"",""trial"",""time""
""fullscreenenter"",""0"",""2295""
","
","null","<p></p>","null","","","","","","","",""
"","image","145","159913","0.0-145.0","""event"",""trial"",""time""
""fullscreenenter"",""0"",""2295""
","
","
","""event"",""trial"",""time""
""fullscreenenter"",""0"",""2295""
","
","1290.3999996185303","run_exp/static/images/Set 6_rs/085a.jpg","86","","","","","","learn","SL",""
"","show_choice","146","160624","0.0-146.0","""event"",""trial"",""time""
""fullscreenenter"",""0"",""2295""
","
","
","""event"",""trial"",""time""
""fullscreenenter"",""0"",""2295""
","
","null","run_exp/static/images/Set 6_rs/085a.jpg","null","","","","","","learn","SL",""
"","html-keyboard-response","147","161138","0.0-147.0","""event"",""trial"",""time""
""fullscreenenter"",""0"",""2295""
","
","
","""event"",""trial"",""time""
""fullscreenenter"",""0"",""2295""
","
","null","<p></p>","null","","","","","","","",""
"","image","148","163080","0.0-148.0","""event"",""trial"",""time""
""fullscreenenter"",""0"",""2295""
","
","
","""event"",""trial"",""time""
""fullscreenenter"",""0"",""2295""
","
","1941.6999988555908","run_exp/static/images/Set 6_rs/134a.jpg","86","","","","","","learn","SR",""
"","show_choice","149","163150","0.0-149.0","""event"",""trial"",""time""
""fullscreenenter"",""0"",""2295""
","
","
","""event"",""trial"",""time""
""fullscreenenter"",""0"",""2295""
","
","null","run_exp/static/images/Set 6_rs/134a.jpg","null","","","","","","learn","SR",""
"","html-keyboard-response","150","163663","0.0-150.0","""event"",""trial"",""time""
""fullscreenenter"",""0"",""2295""
","
","
","""event"",""trial"",""time""
""fullscreenenter"",""0"",""2295""
","
","null","<p></p>","null","","","","","","","",""
"","image","151","164681","0.0-151.0","""event"",""trial"",""time""
""fullscreenenter"",""0"",""2295""
","
","
","""event"",""trial"",""time""
""fullscreenenter"",""0"",""2295""
","
","1016.6999988555908","run_exp/static/images/Set 6_rs/016a.jpg","86","","","","","","learn","SL",""
"","show_choice","152","165671","0.0-152.0","""event"",""trial"",""time""
""fullscreenenter"",""0"",""2295""
","
","
","""event"",""trial"",""time""
""fullscreenenter"",""0"",""2295""
","
","null","run_exp/static/images/Set 6_rs/016a.jpg","null","","","","","","learn","SL",""
"","html-keyboard-response","153","166187","0.0-153.0","""event"",""trial"",""time""
""fullscreenenter"",""0"",""2295""
","
","
","""event"",""trial"",""time""
""fullscreenenter"",""0"",""2295""
","
","null","<p></p>","null","","","","","","","",""
"","image","154","167120","0.0-154.0","""event"",""trial"",""time""
""fullscreenenter"",""0"",""2295""
","
","
","""event"",""trial"",""time""
""fullscreenenter"",""0"",""2295""
","
","931.7999992370605","run_exp/static/images/Set 6_rs/126a.jpg","78","","","","","","learn","SR",""
"","show_choice","155","168203","0.0-155.0","""event"",""trial"",""time""
""fullscreenenter"",""0"",""2295""
","
","
","""event"",""trial"",""time""
""fullscreenenter"",""0"",""2295""
","
","null","run_exp/static/images/Set 6_rs/126a.jpg","null","","","","","","learn","SR",""
"","html-keyboard-response","156","168706","0.0-156.0","""event"",""trial"",""time""
""fullscreenenter"",""0"",""2295""
","
","
","""event"",""trial"",""time""
""fullscreenenter"",""0"",""2295""
","
","null","<p></p>","null","","","","","","","",""
"","image","157","169416","0.0-157.0","""event"",""trial"",""time""
""fullscreenenter"",""0"",""2295""
","
","
","""event"",""trial"",""time""
""fullscreenenter"",""0"",""2295""
","
","710.1999988555908","run_exp/static/images/Set 6_rs/024a.jpg","86","","","","","","learn","SR",""
"","show_choice","158","170716","0.0-158.0","""event"",""trial"",""time""
""fullscreenenter"",""0"",""2295""
","
","
","""event"",""trial"",""time""
""fullscreenenter"",""0"",""2295""
","
","null","run_exp/static/images/Set 6_rs/024a.jpg","null","","","","","","learn","SR",""
"","html-keyboard-response","159","171221","0.0-159.0","""event"",""trial"",""time""
""fullscreenenter"",""0"",""2295""
","
","
","""event"",""trial"",""time""
""fullscreenenter"",""0"",""2295""
","
","null","<p></p>","null","","","","","","","",""
"","image","160","172024","0.0-160.0","""event"",""trial"",""time""
""fullscreenenter"",""0"",""2295""
","
","
","""event"",""trial"",""time""
""fullscreenenter"",""0"",""2295""
","
","802.8999996185303","run_exp/static/images/Set 6_rs/023a.jpg","86","","","","","","learn","SR",""
"","show_choice","161","173227","0.0-161.0","""event"",""trial"",""time""
""fullscreenenter"",""0"",""2295""
","
","
","""event"",""trial"",""time""
""fullscreenenter"",""0"",""2295""
","
","null","run_exp/static/images/Set 6_rs/023a.jpg","null","","","","","","learn","SR",""
"","html-keyboard-response","162","173738","0.0-162.0","""event"",""trial"",""time""
""fullscreenenter"",""0"",""2295""
","
","
","""event"",""trial"",""time""
""fullscreenenter"",""0"",""2295""
","
","null","<p></p>","null","","","","","","","",""
"","image","163","174744","0.0-163.0","""event"",""trial"",""time""
""fullscreenenter"",""0"",""2295""
","
","
","""event"",""trial"",""time""
""fullscreenenter"",""0"",""2295""
","
","1005.5","run_exp/static/images/Set 6_rs/169a.jpg","78","","","","","","learn","SR",""
"","show_choice","164","175754","0.0-164.0","""event"",""trial"",""time""
""fullscreenenter"",""0"",""2295""
","
","
","""event"",""trial"",""time""
""fullscreenenter"",""0"",""2295""
","
","null","run_exp/static/images/Set 6_rs/169a.jpg","null","","","","","","learn","SR",""
"","html-keyboard-response","165","176256","0.0-165.0","""event"",""trial"",""time""
""fullscreenenter"",""0"",""2295""
","
","
","""event"",""trial"",""time""
""fullscreenenter"",""0"",""2295""
","
","null","<p></p>","null","","","","","","","",""
"","image","166","177080","0.0-166.0","""event"",""trial"",""time""
""fullscreenenter"",""0"",""2295""
","
","
","""event"",""trial"",""time""
""fullscreenenter"",""0"",""2295""
","
","824.1000003814697","run_exp/static/images/Set 6_rs/167a.jpg","86","","","","","","learn","SL",""
"","show_choice","167","178259","0.0-167.0","""event"",""trial"",""time""
""fullscreenenter"",""0"",""2295""
","
","
","""event"",""trial"",""time""
""fullscreenenter"",""0"",""2295""
","
","null","run_exp/static/images/Set 6_rs/167a.jpg","null","","","","","","learn","SL",""
"","html-keyboard-response","168","178771","0.0-168.0","""event"",""trial"",""time""
""fullscreenenter"",""0"",""2295""
","
","
","""event"",""trial"",""time""
""fullscreenenter"",""0"",""2295""
","
","null","<p></p>","null","","","","","","","",""
"","image","169","179577","0.0-169.0","""event"",""trial"",""time""
""fullscreenenter"",""0"",""2295""
","
","
","""event"",""trial"",""time""
""fullscreenenter"",""0"",""2295""
","
","804.3999996185303","run_exp/static/images/Set 6_rs/111a.jpg","86","","","","","","learn","SL",""
"","show_choice","170","180787","0.0-170.0","""event"",""trial"",""time""
""fullscreenenter"",""0"",""2295""
","
","
","""event"",""trial"",""time""
""fullscreenenter"",""0"",""2295""
","
","null","run_exp/static/images/Set 6_rs/111a.jpg","null","","","","","","learn","SL",""
"","html-keyboard-response","171","181304","0.0-171.0","""event"",""trial"",""time""
""fullscreenenter"",""0"",""2295""
","
","
","""event"",""trial"",""time""
""fullscreenenter"",""0"",""2295""
","
","null","<p></p>","null","","","","","","","",""
"","image","172","181976","0.0-172.0","""event"",""trial"",""time""
""fullscreenenter"",""0"",""2295""
","
","
","""event"",""trial"",""time""
""fullscreenenter"",""0"",""2295""
","
","671.8999996185303","run_exp/static/images/Set 6_rs/187a.jpg","86","","","","","","learn","SR",""
"","show_choice","173","183311","0.0-173.0","""event"",""trial"",""time""
""fullscreenenter"",""0"",""2295""
","
","
","""event"",""trial"",""time""
""fullscreenenter"",""0"",""2295""
","
","null","run_exp/static/images/Set 6_rs/187a.jpg","null","","","","","","learn","SR",""
"","html-keyboard-response","174","183815","0.0-174.0","""event"",""trial"",""time""
""fullscreenenter"",""0"",""2295""
","
","
","""event"",""trial"",""time""
""fullscreenenter"",""0"",""2295""
","
","null","<p></p>","null","","","","","","","",""
"","image","175","184568","0.0-175.0","""event"",""trial"",""time""
""fullscreenenter"",""0"",""2295""
","
","
","""event"",""trial"",""time""
""fullscreenenter"",""0"",""2295""
","
","752.6999988555908","run_exp/static/images/Set 6_rs/181a.jpg","78","","","","","","learn","SL",""
"","show_choice","176","185831","0.0-176.0","""event"",""trial"",""time""
""fullscreenenter"",""0"",""2295""
","
","
","""event"",""trial"",""time""
""fullscreenenter"",""0"",""2295""
","
","null","run_exp/static/images/Set 6_rs/181a.jpg","null","","","","","","learn","SL",""
"","html-keyboard-response","177","186333","0.0-177.0","""event"",""trial"",""time""
""fullscreenenter"",""0"",""2295""
","
","
","""event"",""trial"",""time""
""fullscreenenter"",""0"",""2295""
","
","null","<p></p>","null","","","","","","","",""
"","image","178","187448","0.0-178.0","""event"",""trial"",""time""
""fullscreenenter"",""0"",""2295""
","
","
","""event"",""trial"",""time""
""fullscreenenter"",""0"",""2295""
","
","1115.099998474121","run_exp/static/images/Set 6_rs/131a.jpg","86","","","","","","learn","SR",""
"","show_choice","179","188338","0.0-179.0","""event"",""trial"",""time""
""fullscreenenter"",""0"",""2295""
","
","
","""event"",""trial"",""time""
""fullscreenenter"",""0"",""2295""
","
","null","run_exp/static/images/Set 6_rs/131a.jpg","null","","","","","","learn","SR",""
"","html-keyboard-response","180","188855","0.0-180.0","""event"",""trial"",""time""
""fullscreenenter"",""0"",""2295""
","
","
","""event"",""trial"",""time""
""fullscreenenter"",""0"",""2295""
","
","null","<p></p>","null","","","","","","","",""
"","image","181","189513","0.0-181.0","""event"",""trial"",""time""
""fullscreenenter"",""0"",""2295""
","
","
","""event"",""trial"",""time""
""fullscreenenter"",""0"",""2295""
","
","657.3000011444092","run_exp/static/images/Set 6_rs/012a.jpg","86","","","","","","learn","SR",""
"","show_choice","182","190868","0.0-182.0","""event"",""trial"",""time""
""fullscreenenter"",""0"",""2295""
","
","
","""event"",""trial"",""time""
""fullscreenenter"",""0"",""2295""
","
","null","run_exp/static/images/Set 6_rs/012a.jpg","null","","","","","","learn","SR",""
"","html-keyboard-response","183","191373","0.0-183.0","""event"",""trial"",""time""
""fullscreenenter"",""0"",""2295""
","
","
","""event"",""trial"",""time""
""fullscreenenter"",""0"",""2295""
","
","null","<p></p>","null","","","","","","","",""
"","image","184","192313","0.0-184.0","""event"",""trial"",""time""
""fullscreenenter"",""0"",""2295""
","
","
","""event"",""trial"",""time""
""fullscreenenter"",""0"",""2295""
","
","938.5","run_exp/static/images/Set 6_rs/076a.jpg","78","","","","","","learn","SR",""
"","show_choice","185","193390","0.0-185.0","""event"",""trial"",""time""
""fullscreenenter"",""0"",""2295""
","
","
","""event"",""trial"",""time""
""fullscreenenter"",""0"",""2295""
","
","null","run_exp/static/images/Set 6_rs/076a.jpg","null","","","","","","learn","SR",""
"","html-keyboard-response","186","193905","0.0-186.0","""event"",""trial"",""time""
""fullscreenenter"",""0"",""2295""
","
","
","""event"",""trial"",""time""
""fullscreenenter"",""0"",""2295""
","
","null","<p></p>","null","","","","","","","",""
"","image","187","195384","0.0-187.0","""event"",""trial"",""time""
""fullscreenenter"",""0"",""2295""
","
","
","""event"",""trial"",""time""
""fullscreenenter"",""0"",""2295""
","
","1479.1000003814697","run_exp/static/images/Set 6_rs/008a.jpg","86","","","","","","learn","SL",""
"","show_choice","188","195906","0.0-188.0","""event"",""trial"",""time""
""fullscreenenter"",""0"",""2295""
","
","
","""event"",""trial"",""time""
""fullscreenenter"",""0"",""2295""
","
","null","run_exp/static/images/Set 6_rs/008a.jpg","null","","","","","","learn","SL",""
"","html-keyboard-response","189","196420","0.0-189.0","""event"",""trial"",""time""
""fullscreenenter"",""0"",""2295""
","
","
","""event"",""trial"",""time""
""fullscreenenter"",""0"",""2295""
","
","null","<p></p>","null","","","","","","","",""
"","image","190","197832","0.0-190.0","""event"",""trial"",""time""
""fullscreenenter"",""0"",""2295""
","
","
","""event"",""trial"",""time""
""fullscreenenter"",""0"",""2295""
","
","1411.7999992370605","run_exp/static/images/Set 6_rs/074a.jpg","78","","","","","","learn","SL",""
"","show_choice","191","198431","0.0-191.0","""event"",""trial"",""time""
""fullscreenenter"",""0"",""2295""
","
","
","""event"",""trial"",""time""
""fullscreenenter"",""0"",""2295""
","
","null","run_exp/static/images/Set 6_rs/074a.jpg","null","","","","","","learn","SL",""
"","html-keyboard-response","192","198938","0.0-192.0","""event"",""trial"",""time""
""fullscreenenter"",""0"",""2295""
","
","
","""event"",""trial"",""time""
""fullscreenenter"",""0"",""2295""
","
","null","<p></p>","null","","","","","","","",""
"","image","193","199624","0.0-193.0","""event"",""trial"",""time""
""fullscreenenter"",""0"",""2295""
","
","
","""event"",""trial"",""time""
""fullscreenenter"",""0"",""2295""
","
","685.6999988555908","run_exp/static/images/Set 6_rs/095a.jpg","86","","","","","","learn","SL",""
"","show_choice","194","200950","0.0-194.0","""event"",""trial"",""time""
""fullscreenenter"",""0"",""2295""
","
","
","""event"",""trial"",""time""
""fullscreenenter"",""0"",""2295""
","
","null","run_exp/static/images/Set 6_rs/095a.jpg","null","","","","","","learn","SL",""
"","html-keyboard-response","195","201454","0.0-195.0","""event"",""trial"",""time""
""fullscreenenter"",""0"",""2295""
","
","
","""event"",""trial"",""time""
""fullscreenenter"",""0"",""2295""
","
","null","<p></p>","null","","","","","","","",""
"","test_intro","196","238337","0.0-196.0","""event"",""trial"",""time""
""fullscreenenter"",""0"",""2295""
","
","
","""event"",""trial"",""time""
""fullscreenenter"",""0"",""2295""
","
","null","run_exp/static/audio/clip_2_memory.m4a","null","","","","","<div class='center'><p>Now, lets see how much you remember about the items you just saw.  For each item, you need to indicate if it was <b>old</b> by pressing the <b>v</b> key, <b>similar</b> by pressing the <b>b</b> key, or <b>new</b> by pressing the <b>n</b> key.</p><p>Old refers to an item that you saw before in the indoor/outdoor game that you just played, new refers to an item you have <b>not</b> seen before within the indoor/outdoor game, and similar refers to an item that is similar to an item youve seen before but is not exactly the same. </p><p>Before we begin, lets go over some brief demonstrations to make sure you understand.</p></div>","","",""
"","html-keyboard-response","197","239895","0.0-197.0","""event"",""trial"",""time""
""fullscreenenter"",""0"",""2295""
","
","
","""event"",""trial"",""time""
""fullscreenenter"",""0"",""2295""
","
","1557.6000003814697","<div class='center'><p>Now, lets see how much you remember about the items you just saw.  For each item, you need to indicate if it was <b>old</b> by pressing the <b>v</b> key, <b>similar</b> by pressing the <b>b</b> key, or <b>new</b> by pressing the <b>n</b> key.</p><p>Old refers to an item that you saw before in the indoor/outdoor game that you just played, new refers to an item you have <b>not</b> seen before within the indoor/outdoor game, and similar refers to an item that is similar to an item youve seen before but is not exactly the same. </p><p>Before we begin, lets go over some brief demonstrations to make sure you understand.</p><div><p><b>[Press the space bar to continue]</b></p></div>","32","","","","","","","",""
"","items","198","247410","0.0-198.0","""event"",""trial"",""time""
""fullscreenenter"",""0"",""2295""
","
","
","""event"",""trial"",""time""
""fullscreenenter"",""0"",""2295""
","
","null","run_exp/static/audio/clip_3_items.m4a","null","","","","","","","",""
"","mop","199","251930","0.0-199.0","""event"",""trial"",""time""
""fullscreenenter"",""0"",""2295""
","
","
","""event"",""trial"",""time""
""fullscreenenter"",""0"",""2295""
","
","null","run_exp/static/audio/clip_4_mop.m4a","null","","","","","","","",""
"","baseball","200","255435","0.0-200.0","""event"",""trial"",""time""
""fullscreenenter"",""0"",""2295""
","
","
","""event"",""trial"",""time""
""fullscreenenter"",""0"",""2295""
","
","null","run_exp/static/audio/clip_5_baseball.m4a","null","","","","","","","",""
"","trumpet","201","258940","0.0-201.0","""event"",""trial"",""time""
""fullscreenenter"",""0"",""2295""
","
","
","""event"",""trial"",""time""
""fullscreenenter"",""0"",""2295""
","
","null","run_exp/static/audio/clip_6_trumpet.m4a","null","","","","","","","",""
"","gummies","202","262455","0.0-202.0","""event"",""trial"",""time""
""fullscreenenter"",""0"",""2295""
","
","
","""event"",""trial"",""time""
""fullscreenenter"",""0"",""2295""
","
","null","run_exp/static/audio/clip_7_gummies.m4a","null","","","","","","","",""
"","osn","203","266960","0.0-203.0","""event"",""trial"",""time""
""fullscreenenter"",""0"",""2295""
","
","
","""event"",""trial"",""time""
""fullscreenenter"",""0"",""2295""
","
","null","run_exp/static/audio/clip_8_osn.m4a","null","","","","","","","",""
"","old_1","204","273480","0.0-204.0","""event"",""trial"",""time""
""fullscreenenter"",""0"",""2295""
","
","
","""event"",""trial"",""time""
""fullscreenenter"",""0"",""2295""
","
","null","run_exp/static/audio/clip_9_old_trumpet.m4a","null","","","","","","","",""
"","new_1","205","281001","0.0-205.0","""event"",""trial"",""time""
""fullscreenenter"",""0"",""2295""
","
","
","""event"",""trial"",""time""
""fullscreenenter"",""0"",""2295""
","
","null","run_exp/static/audio/clip_10_new_balloon.m4a","null","","","","","","","",""
"","similar_1a","206","285521","0.0-206.0","""event"",""trial"",""time""
""fullscreenenter"",""0"",""2295""
","
","
","""event"",""trial"",""time""
""fullscreenenter"",""0"",""2295""
","
","null","run_exp/static/audio/clip_11a_similar_mop.m4a","null","","","","","","","",""
"","similar_1b","207","292036","0.0-207.0","""event"",""trial"",""time""
""fullscreenenter"",""0"",""2295""
","
","
","""event"",""trial"",""time""
""fullscreenenter"",""0"",""2295""
","
","null","run_exp/static/audio/clip_11b_similar_mop.m4a","null","","","","","","","",""
"","new_2","208","295556","0.0-208.0","""event"",""trial"",""time""
""fullscreenenter"",""0"",""2295""
","
","
","""event"",""trial"",""time""
""fullscreenenter"",""0"",""2295""
","
","null","run_exp/static/audio/clip_12_new_stoplight.m4a","null","","","","","","","",""
"","old_2","209","299061","0.0-209.0","""event"",""trial"",""time""
""fullscreenenter"",""0"",""2295""
","
","
","""event"",""trial"",""time""
""fullscreenenter"",""0"",""2295""
","
","null","run_exp/static/audio/clip_13_old_baseball.m4a","null","","","","","","","",""
"","similar_2a","210","302576","0.0-210.0","""event"",""trial"",""time""
""fullscreenenter"",""0"",""2295""
","
","
","""event"",""trial"",""time""
""fullscreenenter"",""0"",""2295""
","
","null","run_exp/static/audio/clip_14a_similar_gummies.m4a","null","","","","","","","",""
"","similar_2b","211","310086","0.0-211.0","""event"",""trial"",""time""
""fullscreenenter"",""0"",""2295""
","
","
","""event"",""trial"",""time""
""fullscreenenter"",""0"",""2295""
","
","null","run_exp/static/audio/clip_14b_similar_gummies.m4a","null","","","","","","","",""
"","practice","212","352217","0.0-212.0","""event"",""trial"",""time""
""fullscreenenter"",""0"",""2295""
","
","
","""event"",""trial"",""time""
""fullscreenenter"",""0"",""2295""
","
","null","run_exp/static/audio/clip_15_practice.m4a","null","","","","","<div class='center'><p>Lets practice a little to make sure you understand the difference between new, similar, and old. Lets say you saw these three items in the indoor/outdoor game.</p><p> Try your best to remember these images because youll soon be tested on them in a practice game. In the practice game, youll be shown images and youll have to say if they are old (one of the three images belows), similar (similar to one of the images below but not exactly the same), or new (are not one of the images below nor similar to them).</p><p>Once you press the space bar youll be shown these images again but one at time. Then youll begin the practice game.</p><p><img src='run_exp/static/images/tutorial/test/three_indoor_outdoor.png' height='300'></p></div>","","",""
"","html-keyboard-response","213","352776","0.0-213.0","""event"",""trial"",""time""
""fullscreenenter"",""0"",""2295""
","
","
","""event"",""trial"",""time""
""fullscreenenter"",""0"",""2295""
","
","557.8999996185303","<div class='center'><p>Lets practice a little to make sure you understand the difference between new, similar, and old. Lets say you saw these three items in the indoor/outdoor game.</p><p> Try your best to remember these images because youll soon be tested on them in a practice game. In the practice game, youll be shown images and youll have to say if they are old (one of the three images belows), similar (similar to one of the images below but not exactly the same), or new (are not one of the images below nor similar to them).</p><p>Once you press the space bar youll be shown these images again but one at time. Then youll begin the practice game.</p><p><img src='run_exp/static/images/tutorial/test/three_indoor_outdoor.png' height='300'></p><div><p><b>[Press the space bar to continue]</b></p></div>","32","","","","","","","",""
"","planet","214","354790","0.0-214.0","""event"",""trial"",""time""
""fullscreenenter"",""0"",""2295""
","
","
","""event"",""trial"",""time""
""fullscreenenter"",""0"",""2295""
","
","null","run_exp/static/images/tutorial/test/008a.jpg","null","","","","","","","",""
"","boot","215","356796","0.0-215.0","""event"",""trial"",""time""
""fullscreenenter"",""0"",""2295""
","
","
","""event"",""trial"",""time""
""fullscreenenter"",""0"",""2295""
","
","null","run_exp/static/images/tutorial/test/011a.jpg","null","","","","","","","",""
"","lemon","216","358816","0.0-216.0","""event"",""trial"",""time""
""fullscreenenter"",""0"",""2295""
","
","
","""event"",""trial"",""time""
""fullscreenenter"",""0"",""2295""
","
","null","run_exp/static/images/tutorial/test/018a.jpg","null","","","","","","","",""
"","practice_q1","217","360648","0.0-217.0","""event"",""trial"",""time""
""fullscreenenter"",""0"",""2295""
","
","
","""event"",""trial"",""time""
""fullscreenenter"",""0"",""2295""
","
","1830.599998474121","run_exp/static/audio/clip_16_practice_question.m4a","78","","","","","","","",""
"","correct","218","362578","0.0-218.0-0.0","""event"",""trial"",""time""
""fullscreenenter"",""0"",""2295""
","
","
","""event"",""trial"",""time""
""fullscreenenter"",""0"",""2295""
","
","null","run_exp/static/audio/clip_17_correct.m4a","null","","","","","<div class='center'><p>That's correct!</p></div>","","",""
"","html-keyboard-response","219","364552","0.0-218.0-1.0","""event"",""trial"",""time""
""fullscreenenter"",""0"",""2295""
","
","
","""event"",""trial"",""time""
""fullscreenenter"",""0"",""2295""
","
","1974","<div class='center'><p>That's correct!</p><div><p><b>[Press the space bar to continue]</b></p></div>","32","","","","","","","",""
"","practice_q2","220","365640","0.0-218.0-2.0","""event"",""trial"",""time""
""fullscreenenter"",""0"",""2295""
","
","
","""event"",""trial"",""time""
""fullscreenenter"",""0"",""2295""
","
","1087","run_exp/static/audio/clip_16_practice_question.m4a","86","","","","","","","",""
"","correct","221","367537","0.0-219.0-0.0","""event"",""trial"",""time""
""fullscreenenter"",""0"",""2295""
","
","
","""event"",""trial"",""time""
""fullscreenenter"",""0"",""2295""
","
","null","run_exp/static/audio/clip_17_correct.m4a","null","","","","","<div class='center'><p>That's correct!</p></div>","","",""
"","html-keyboard-response","222","367896","0.0-219.0-1.0","""event"",""trial"",""time""
""fullscreenenter"",""0"",""2295""
","
","
","""event"",""trial"",""time""
""fullscreenenter"",""0"",""2295""
","
","357.8999996185303","<div class='center'><p>That's correct!</p><div><p><b>[Press the space bar to continue]</b></p></div>","32","","","","","","","",""
"","practice_q3","223","369464","0.0-219.0-2.0","""event"",""trial"",""time""
""fullscreenenter"",""0"",""2295""
","
","
","""event"",""trial"",""time""
""fullscreenenter"",""0"",""2295""
","
","1566.8999996185303","run_exp/static/audio/clip_16_practice_question.m4a","66","","","","","","","",""
"","correct","224","371477","0.0-220.0-0.0","""event"",""trial"",""time""
""fullscreenenter"",""0"",""2295""
","
","
","""event"",""trial"",""time""
""fullscreenenter"",""0"",""2295""
","
","null","run_exp/static/audio/clip_17_correct.m4a","null","","","","","<div class='center'><p>That's correct!</p></div>","","",""
"","html-keyboard-response","225","371864","0.0-220.0-1.0","""event"",""trial"",""time""
""fullscreenenter"",""0"",""2295""
","
","
","""event"",""trial"",""time""
""fullscreenenter"",""0"",""2295""
","
","386","<div class='center'><p>That's correct!</p><div><p><b>[Press the space bar to continue]</b></p></div>","32","","","","","","","",""
"","begin_text","226","390378","0.0-221.0-0.0","""event"",""trial"",""time""
""fullscreenenter"",""0"",""2295""
","
","
","""event"",""trial"",""time""
""fullscreenenter"",""0"",""2295""
","
","null","run_exp/static/audio/clip_22_begin_test.m4a","null","","","","","<div class='center'><p>On to the real game where well test your memory of items from the indoor/outdoor game. For each item, you need to indicate if the item is <b>old</b> by pressing the <b>v</b> key, <b>similar</b> by pressing the <b>b</b> key, or <b>new</b> by pressing the <b>n</b> key. </p></div>","","",""
"","html-keyboard-response","227","391128","0.0-221.0-1.0","""event"",""trial"",""time""
""fullscreenenter"",""0"",""2295""
","
","
","""event"",""trial"",""time""
""fullscreenenter"",""0"",""2295""
","
","749.6999988555908","<div class='center'><p>On to the real game where well test your memory of items from the indoor/outdoor game. For each item, you need to indicate if the item is <b>old</b> by pressing the <b>v</b> key, <b>similar</b> by pressing the <b>b</b> key, or <b>new</b> by pressing the <b>n</b> key. </p><div><p><b>[Press the space bar to continue]</b></p></div>","32","","","","","","","",""
"","image","228","392472","0.0-222.0-0.0","""event"",""trial"",""time""
""fullscreenenter"",""0"",""2295""
","
","
","""event"",""trial"",""time""
""fullscreenenter"",""0"",""2295""
","
","1342.900001525879","run_exp/static/images/Set 6_rs/074b.jpg","66","","","","","","test","TL","4"
"","show_choice","229","392981","0.0-222.0-1.0","""event"",""trial"",""time""
""fullscreenenter"",""0"",""2295""
","
","
","""event"",""trial"",""time""
""fullscreenenter"",""0"",""2295""
","
","null","run_exp/static/images/Set 6_rs/074b.jpg","null","","","","","","test","TL",""
"","html-keyboard-response","230","393497","0.0-222.0-2.0","""event"",""trial"",""time""
""fullscreenenter"",""0"",""2295""
","
","
","""event"",""trial"",""time""
""fullscreenenter"",""0"",""2295""
","
","null","<p></p>","null","","","","","","","",""
"","image","231","394632","0.0-223.0-0.0","""event"",""trial"",""time""
""fullscreenenter"",""0"",""2295""
","
","
","""event"",""trial"",""time""
""fullscreenenter"",""0"",""2295""
","
","1134.7000007629395","run_exp/static/images/Set 6_rs/007a.jpg","86","","","","","","test","TR","3"
"","show_choice","232","395147","0.0-223.0-1.0","""event"",""trial"",""time""
""fullscreenenter"",""0"",""2295""
","
","
","""event"",""trial"",""time""
""fullscreenenter"",""0"",""2295""
","
","null","run_exp/static/images/Set 6_rs/007a.jpg","null","","","","","","test","TR",""
"","html-keyboard-response","233","395652","0.0-223.0-2.0","""event"",""trial"",""time""
""fullscreenenter"",""0"",""2295""
","
","
","""event"",""trial"",""time""
""fullscreenenter"",""0"",""2295""
","
","null","<p></p>","null","","","","","","","",""
"","image","234","396728","0.0-224.0-0.0","""event"",""trial"",""time""
""fullscreenenter"",""0"",""2295""
","
","
","""event"",""trial"",""time""
""fullscreenenter"",""0"",""2295""
","
","1075.6999988555908","run_exp/static/images/Set 6_rs/112a.jpg","86","","","","","","test","TR","5"
"","show_choice","235","397246","0.0-224.0-1.0","""event"",""trial"",""time""
""fullscreenenter"",""0"",""2295""
","
","
","""event"",""trial"",""time""
""fullscreenenter"",""0"",""2295""
","
","null","run_exp/static/images/Set 6_rs/112a.jpg","null","","","","","","test","TR",""
"","html-keyboard-response","236","397761","0.0-224.0-2.0","""event"",""trial"",""time""
""fullscreenenter"",""0"",""2295""
","
","
","""event"",""trial"",""time""
""fullscreenenter"",""0"",""2295""
","
","null","<p></p>","null","","","","","","","",""
"","image","237","398376","0.0-225.0-0.0","""event"",""trial"",""time""
""fullscreenenter"",""0"",""2295""
","
","
","""event"",""trial"",""time""
""fullscreenenter"",""0"",""2295""
","
","614.2000007629395","run_exp/static/images/Set 6_rs/012a.jpg","86","","","","","","test","TR","1"
"","show_choice","238","398878","0.0-225.0-1.0","""event"",""trial"",""time""
""fullscreenenter"",""0"",""2295""
","
","
","""event"",""trial"",""time""
""fullscreenenter"",""0"",""2295""
","
","null","run_exp/static/images/Set 6_rs/012a.jpg","null","","","","","","test","TR",""
"","html-keyboard-response","239","399380","0.0-225.0-2.0","""event"",""trial"",""time""
""fullscreenenter"",""0"",""2295""
","
","
","""event"",""trial"",""time""
""fullscreenenter"",""0"",""2295""
","
","null","<p></p>","null","","","","","","","",""
"","image","240","400040","0.0-226.0-0.0","""event"",""trial"",""time""
""fullscreenenter"",""0"",""2295""
","
","
","""event"",""trial"",""time""
""fullscreenenter"",""0"",""2295""
","
","659.5","run_exp/static/images/Set 6_rs/045a.jpg","86","","","","","","test","TR","2"
"","show_choice","241","400557","0.0-226.0-1.0","""event"",""trial"",""time""
""fullscreenenter"",""0"",""2295""
","
","
","""event"",""trial"",""time""
""fullscreenenter"",""0"",""2295""
","
","null","run_exp/static/images/Set 6_rs/045a.jpg","null","","","","","","test","TR",""
"","html-keyboard-response","242","401070","0.0-226.0-2.0","""event"",""trial"",""time""
""fullscreenenter"",""0"",""2295""
","
","
","""event"",""trial"",""time""
""fullscreenenter"",""0"",""2295""
","
","null","<p></p>","null","","","","","","","",""
"","image","243","402120","0.0-227.0-0.0","""event"",""trial"",""time""
""fullscreenenter"",""0"",""2295""
","
","
","""event"",""trial"",""time""
""fullscreenenter"",""0"",""2295""
","
","1049.3999996185303","run_exp/static/images/Set 6_rs/022a.jpg","78","","","","","","test","TF","4"
"","show_choice","244","402633","0.0-227.0-1.0","""event"",""trial"",""time""
""fullscreenenter"",""0"",""2295""
","
","
","""event"",""trial"",""time""
""fullscreenenter"",""0"",""2295""
","
","null","run_exp/static/images/Set 6_rs/022a.jpg","null","","","","","","test","TF",""
"","html-keyboard-response","245","403134","0.0-227.0-2.0","""event"",""trial"",""time""
""fullscreenenter"",""0"",""2295""
","
","
","""event"",""trial"",""time""
""fullscreenenter"",""0"",""2295""
","
","null","<p></p>","null","","","","","","","",""
"","image","246","404088","0.0-228.0-0.0","""event"",""trial"",""time""
""fullscreenenter"",""0"",""2295""
","
","
","""event"",""trial"",""time""
""fullscreenenter"",""0"",""2295""
","
","952.8000011444092","run_exp/static/images/Set 6_rs/011a.jpg","78","","","","","","test","TF","3"
"","show_choice","247","404591","0.0-228.0-1.0","""event"",""trial"",""time""
""fullscreenenter"",""0"",""2295""
","
","
","""event"",""trial"",""time""
""fullscreenenter"",""0"",""2295""
","
","null","run_exp/static/images/Set 6_rs/011a.jpg","null","","","","","","test","TF",""
"","html-keyboard-response","248","405108","0.0-228.0-2.0","""event"",""trial"",""time""
""fullscreenenter"",""0"",""2295""
","
","
","""event"",""trial"",""time""
""fullscreenenter"",""0"",""2295""
","
","null","<p></p>","null","","","","","","","",""
"","image","249","406280","0.0-229.0-0.0","""event"",""trial"",""time""
""fullscreenenter"",""0"",""2295""
","
","
","""event"",""trial"",""time""
""fullscreenenter"",""0"",""2295""
","
","1171.7999992370605","run_exp/static/images/Set 6_rs/129b.jpg","66","","","","","","test","TL","1"
"","show_choice","250","406787","0.0-229.0-1.0","""event"",""trial"",""time""
""fullscreenenter"",""0"",""2295""
","
","
","""event"",""trial"",""time""
""fullscreenenter"",""0"",""2295""
","
","null","run_exp/static/images/Set 6_rs/129b.jpg","null","","","","","","test","TL",""
"","html-keyboard-response","251","407289","0.0-229.0-2.0","""event"",""trial"",""time""
""fullscreenenter"",""0"",""2295""
","
","
","""event"",""trial"",""time""
""fullscreenenter"",""0"",""2295""
","
","null","<p></p>","null","","","","","","","",""
"","image","252","408568","0.0-230.0-0.0","""event"",""trial"",""time""
""fullscreenenter"",""0"",""2295""
","
","
","""event"",""trial"",""time""
""fullscreenenter"",""0"",""2295""
","
","1278.1000003814697","run_exp/static/images/Set 6_rs/111b.jpg","66","","","","","","test","TL","3"
"","show_choice","253","409073","0.0-230.0-1.0","""event"",""trial"",""time""
""fullscreenenter"",""0"",""2295""
","
","
","""event"",""trial"",""time""
""fullscreenenter"",""0"",""2295""
","
","null","run_exp/static/images/Set 6_rs/111b.jpg","null","","","","","","test","TL",""
"","html-keyboard-response","254","409588","0.0-230.0-2.0","""event"",""trial"",""time""
""fullscreenenter"",""0"",""2295""
","
","
","""event"",""trial"",""time""
""fullscreenenter"",""0"",""2295""
","
","null","<p></p>","null","","","","","","","",""
"","image","255","410712","0.0-231.0-0.0","""event"",""trial"",""time""
""fullscreenenter"",""0"",""2295""
","
","
","""event"",""trial"",""time""
""fullscreenenter"",""0"",""2295""
","
","1123.1999988555908","run_exp/static/images/Set 6_rs/188a.jpg","78","","","","","","test","TF","3"
"","show_choice","256","411221","0.0-231.0-1.0","""event"",""trial"",""time""
""fullscreenenter"",""0"",""2295""
","
","
","""event"",""trial"",""time""
""fullscreenenter"",""0"",""2295""
","
","null","run_exp/static/images/Set 6_rs/188a.jpg","null","","","","","","test","TF",""
"","html-keyboard-response","257","411722","0.0-231.0-2.0","""event"",""trial"",""time""
""fullscreenenter"",""0"",""2295""
","
","
","""event"",""trial"",""time""
""fullscreenenter"",""0"",""2295""
","
","null","<p></p>","null","","","","","","","",""
"","image","258","412616","0.0-232.0-0.0","""event"",""trial"",""time""
""fullscreenenter"",""0"",""2295""
","
","
","""event"",""trial"",""time""
""fullscreenenter"",""0"",""2295""
","
","893","run_exp/static/images/Set 6_rs/056a.jpg","78","","","","","","test","TF","3"
"","show_choice","259","413121","0.0-232.0-1.0","""event"",""trial"",""time""
""fullscreenenter"",""0"",""2295""
","
","
","""event"",""trial"",""time""
""fullscreenenter"",""0"",""2295""
","
","null","run_exp/static/images/Set 6_rs/056a.jpg","null","","","","","","test","TF",""
"","html-keyboard-response","260","413622","0.0-232.0-2.0","""event"",""trial"",""time""
""fullscreenenter"",""0"",""2295""
","
","
","""event"",""trial"",""time""
""fullscreenenter"",""0"",""2295""
","
","null","<p></p>","null","","","","","","","",""
"","image","261","414360","0.0-233.0-0.0","""event"",""trial"",""time""
""fullscreenenter"",""0"",""2295""
","
","
","""event"",""trial"",""time""
""fullscreenenter"",""0"",""2295""
","
","736.9000015258789","run_exp/static/images/Set 6_rs/100a.jpg","78","","","","","","test","TF","2"
"","show_choice","262","414871","0.0-233.0-1.0","""event"",""trial"",""time""
""fullscreenenter"",""0"",""2295""
","
","
","""event"",""trial"",""time""
""fullscreenenter"",""0"",""2295""
","
","null","run_exp/static/images/Set 6_rs/100a.jpg","null","","","","","","test","TF",""
"","html-keyboard-response","263","415388","0.0-233.0-2.0","""event"",""trial"",""time""
""fullscreenenter"",""0"",""2295""
","
","
","""event"",""trial"",""time""
""fullscreenenter"",""0"",""2295""
","
","null","<p></p>","null","","","","","","","",""
"","image","264","416184","0.0-234.0-0.0","""event"",""trial"",""time""
""fullscreenenter"",""0"",""2295""
","
","
","""event"",""trial"",""time""
""fullscreenenter"",""0"",""2295""
","
","795.3000011444092","run_exp/static/images/Set 6_rs/035a.jpg","78","","","","","","test","TF","4"
"","show_choice","265","416689","0.0-234.0-1.0","""event"",""trial"",""time""
""fullscreenenter"",""0"",""2295""
","
","
","""event"",""trial"",""time""
""fullscreenenter"",""0"",""2295""
","
","null","run_exp/static/images/Set 6_rs/035a.jpg","null","","","","","","test","TF",""
"","html-keyboard-response","266","417205","0.0-234.0-2.0","""event"",""trial"",""time""
""fullscreenenter"",""0"",""2295""
","
","
","""event"",""trial"",""time""
""fullscreenenter"",""0"",""2295""
","
","null","<p></p>","null","","","","","","","",""
"","image","267","418328","0.0-235.0-0.0","""event"",""trial"",""time""
""fullscreenenter"",""0"",""2295""
","
","
","""event"",""trial"",""time""
""fullscreenenter"",""0"",""2295""
","
","1122.6000003814697","run_exp/static/images/Set 6_rs/079b.jpg","66","","","","","","test","TL","5"
"","show_choice","268","418841","0.0-235.0-1.0","""event"",""trial"",""time""
""fullscreenenter"",""0"",""2295""
","
","
","""event"",""trial"",""time""
""fullscreenenter"",""0"",""2295""
","
","null","run_exp/static/images/Set 6_rs/079b.jpg","null","","","","","","test","TL",""
"","html-keyboard-response","269","419356","0.0-235.0-2.0","""event"",""trial"",""time""
""fullscreenenter"",""0"",""2295""
","
","
","""event"",""trial"",""time""
""fullscreenenter"",""0"",""2295""
","
","null","<p></p>","null","","","","","","","",""
"","image","270","420312","0.0-236.0-0.0","""event"",""trial"",""time""
""fullscreenenter"",""0"",""2295""
","
","
","""event"",""trial"",""time""
""fullscreenenter"",""0"",""2295""
","
","955.6000003814697","run_exp/static/images/Set 6_rs/190a.jpg","78","","","","","","test","TF","3"
"","show_choice","271","420821","0.0-236.0-1.0","""event"",""trial"",""time""
""fullscreenenter"",""0"",""2295""
","
","
","""event"",""trial"",""time""
""fullscreenenter"",""0"",""2295""
","
","null","run_exp/static/images/Set 6_rs/190a.jpg","null","","","","","","test","TF",""
"","html-keyboard-response","272","421322","0.0-236.0-2.0","""event"",""trial"",""time""
""fullscreenenter"",""0"",""2295""
","
","
","""event"",""trial"",""time""
""fullscreenenter"",""0"",""2295""
","
","null","<p></p>","null","","","","","","","",""
"","image","273","422776","0.0-237.0-0.0","""event"",""trial"",""time""
""fullscreenenter"",""0"",""2295""
","
","
","""event"",""trial"",""time""
""fullscreenenter"",""0"",""2295""
","
","1453","run_exp/static/images/Set 6_rs/019b.jpg","66","","","","","","test","TL","2"
"","show_choice","274","423287","0.0-237.0-1.0","""event"",""trial"",""time""
""fullscreenenter"",""0"",""2295""
","
","
","""event"",""trial"",""time""
""fullscreenenter"",""0"",""2295""
","
","null","run_exp/static/images/Set 6_rs/019b.jpg","null","","","","","","test","TL",""
"","html-keyboard-response","275","423789","0.0-237.0-2.0","""event"",""trial"",""time""
""fullscreenenter"",""0"",""2295""
","
","
","""event"",""trial"",""time""
""fullscreenenter"",""0"",""2295""
","
","null","<p></p>","null","","","","","","","",""
"","image","276","424696","0.0-238.0-0.0","""event"",""trial"",""time""
""fullscreenenter"",""0"",""2295""
","
","
","""event"",""trial"",""time""
""fullscreenenter"",""0"",""2295""
","
","906.1000003814697","run_exp/static/images/Set 6_rs/021a.jpg","78","","","","","","test","TF","2"
"","show_choice","277","425205","0.0-238.0-1.0","""event"",""trial"",""time""
""fullscreenenter"",""0"",""2295""
","
","
","""event"",""trial"",""time""
""fullscreenenter"",""0"",""2295""
","
","null","run_exp/static/images/Set 6_rs/021a.jpg","null","","","","","","test","TF",""
"","html-keyboard-response","278","425721","0.0-238.0-2.0","""event"",""trial"",""time""
""fullscreenenter"",""0"",""2295""
","
","
","""event"",""trial"",""time""
""fullscreenenter"",""0"",""2295""
","
","null","<p></p>","null","","","","","","","",""
"","image","279","426616","0.0-239.0-0.0","""event"",""trial"",""time""
""fullscreenenter"",""0"",""2295""
","
","
","""event"",""trial"",""time""
""fullscreenenter"",""0"",""2295""
","
","894.2000007629395","run_exp/static/images/Set 6_rs/131a.jpg","86","","","","","","test","TR","5"
"","show_choice","280","427121","0.0-239.0-1.0","""event"",""trial"",""time""
""fullscreenenter"",""0"",""2295""
","
","
","""event"",""trial"",""time""
""fullscreenenter"",""0"",""2295""
","
","null","run_exp/static/images/Set 6_rs/131a.jpg","null","","","","","","test","TR",""
"","html-keyboard-response","281","427622","0.0-239.0-2.0","""event"",""trial"",""time""
""fullscreenenter"",""0"",""2295""
","
","
","""event"",""trial"",""time""
""fullscreenenter"",""0"",""2295""
","
","null","<p></p>","null","","","","","","","",""
"","image","282","428632","0.0-240.0-0.0","""event"",""trial"",""time""
""fullscreenenter"",""0"",""2295""
","
","
","""event"",""trial"",""time""
""fullscreenenter"",""0"",""2295""
","
","1008.9000015258789","run_exp/static/images/Set 6_rs/176a.jpg","78","","","","","","test","TF","4"
"","show_choice","283","429136","0.0-240.0-1.0","""event"",""trial"",""time""
""fullscreenenter"",""0"",""2295""
","
","
","""event"",""trial"",""time""
""fullscreenenter"",""0"",""2295""
","
","null","run_exp/static/images/Set 6_rs/176a.jpg","null","","","","","","test","TF",""
"","html-keyboard-response","284","429639","0.0-240.0-2.0","""event"",""trial"",""time""
""fullscreenenter"",""0"",""2295""
","
","
","""event"",""trial"",""time""
""fullscreenenter"",""0"",""2295""
","
","null","<p></p>","null","","","","","","","",""
"","image","285","430472","0.0-241.0-0.0","""event"",""trial"",""time""
""fullscreenenter"",""0"",""2295""
","
","
","""event"",""trial"",""time""
""fullscreenenter"",""0"",""2295""
","
","832.2000007629395","run_exp/static/images/Set 6_rs/186a.jpg","86","","","","","","test","TR","5"
"","show_choice","286","430988","0.0-241.0-1.0","""event"",""trial"",""time""
""fullscreenenter"",""0"",""2295""
","
","
","""event"",""trial"",""time""
""fullscreenenter"",""0"",""2295""
","
","null","run_exp/static/images/Set 6_rs/186a.jpg","null","","","","","","test","TR",""
"","html-keyboard-response","287","431505","0.0-241.0-2.0","""event"",""trial"",""time""
""fullscreenenter"",""0"",""2295""
","
","
","""event"",""trial"",""time""
""fullscreenenter"",""0"",""2295""
","
","null","<p></p>","null","","","","","","","",""
"","image","288","432408","0.0-242.0-0.0","""event"",""trial"",""time""
""fullscreenenter"",""0"",""2295""
","
","
","""event"",""trial"",""time""
""fullscreenenter"",""0"",""2295""
","
","902.6000003814697","run_exp/static/images/Set 6_rs/061a.jpg","78","","","","","","test","TR","5"
"","show_choice","289","432921","0.0-242.0-1.0","""event"",""trial"",""time""
""fullscreenenter"",""0"",""2295""
","
","
","""event"",""trial"",""time""
""fullscreenenter"",""0"",""2295""
","
","null","run_exp/static/images/Set 6_rs/061a.jpg","null","","","","","","test","TR",""
"","html-keyboard-response","290","433438","0.0-242.0-2.0","""event"",""trial"",""time""
""fullscreenenter"",""0"",""2295""
","
","
","""event"",""trial"",""time""
""fullscreenenter"",""0"",""2295""
","
","null","<p></p>","null","","","","","","","",""
"","image","291","434328","0.0-243.0-0.0","""event"",""trial"",""time""
""fullscreenenter"",""0"",""2295""
","
","
","""event"",""trial"",""time""
""fullscreenenter"",""0"",""2295""
","
","889.3999996185303","run_exp/static/images/Set 6_rs/117b.jpg","86","","","","","","test","TL","5"
"","show_choice","292","434838","0.0-243.0-1.0","""event"",""trial"",""time""
""fullscreenenter"",""0"",""2295""
","
","
","""event"",""trial"",""time""
""fullscreenenter"",""0"",""2295""
","
","null","run_exp/static/images/Set 6_rs/117b.jpg","null","","","","","","test","TL",""
"","html-keyboard-response","293","435346","0.0-243.0-2.0","""event"",""trial"",""time""
""fullscreenenter"",""0"",""2295""
","
","
","""event"",""trial"",""time""
""fullscreenenter"",""0"",""2295""
","
","null","<p></p>","null","","","","","","","",""
"","image","294","436888","0.0-244.0-0.0","""event"",""trial"",""time""
""fullscreenenter"",""0"",""2295""
","
","
","""event"",""trial"",""time""
""fullscreenenter"",""0"",""2295""
","
","1540.900001525879","run_exp/static/images/Set 6_rs/171a.jpg","78","","","","","","test","TF","1"
"","show_choice","295","437390","0.0-244.0-1.0","""event"",""trial"",""time""
""fullscreenenter"",""0"",""2295""
","
","
","""event"",""trial"",""time""
""fullscreenenter"",""0"",""2295""
","
","null","run_exp/static/images/Set 6_rs/171a.jpg","null","","","","","","test","TF",""
"","html-keyboard-response","296","437905","0.0-244.0-2.0","""event"",""trial"",""time""
""fullscreenenter"",""0"",""2295""
","
","
","""event"",""trial"",""time""
""fullscreenenter"",""0"",""2295""
","
","null","<p></p>","null","","","","","","","",""
"","image","297","439288","0.0-245.0-0.0","""event"",""trial"",""time""
""fullscreenenter"",""0"",""2295""
","
","
","""event"",""trial"",""time""
""fullscreenenter"",""0"",""2295""
","
","1382.6000003814697","run_exp/static/images/Set 6_rs/191b.jpg","86","","","","","","test","TL","2"
"","show_choice","298","439794","0.0-245.0-1.0","""event"",""trial"",""time""
""fullscreenenter"",""0"",""2295""
","
","
","""event"",""trial"",""time""
""fullscreenenter"",""0"",""2295""
","
","null","run_exp/static/images/Set 6_rs/191b.jpg","null","","","","","","test","TL",""
"","html-keyboard-response","299","440295","0.0-245.0-2.0","""event"",""trial"",""time""
""fullscreenenter"",""0"",""2295""
","
","
","""event"",""trial"",""time""
""fullscreenenter"",""0"",""2295""
","
","null","<p></p>","null","","","","","","","",""
"","image","300","441448","0.0-246.0-0.0","""event"",""trial"",""time""
""fullscreenenter"",""0"",""2295""
","
","
","""event"",""trial"",""time""
""fullscreenenter"",""0"",""2295""
","
","1152.1000003814697","run_exp/static/images/Set 6_rs/097a.jpg","78","","","","","","test","TF","5"
"","show_choice","301","441955","0.0-246.0-1.0","""event"",""trial"",""time""
""fullscreenenter"",""0"",""2295""
","
","
","""event"",""trial"",""time""
""fullscreenenter"",""0"",""2295""
","
","null","run_exp/static/images/Set 6_rs/097a.jpg","null","","","","","","test","TF",""
"","html-keyboard-response","302","442470","0.0-246.0-2.0","""event"",""trial"",""time""
""fullscreenenter"",""0"",""2295""
","
","
","""event"",""trial"",""time""
""fullscreenenter"",""0"",""2295""
","
","null","<p></p>","null","","","","","","","",""
"","image","303","443560","0.0-247.0-0.0","""event"",""trial"",""time""
""fullscreenenter"",""0"",""2295""
","
","
","""event"",""trial"",""time""
""fullscreenenter"",""0"",""2295""
","
","1088.6000003814697","run_exp/static/images/Set 6_rs/008b.jpg","86","","","","","","test","TL","2"
"","show_choice","304","444072","0.0-247.0-1.0","""event"",""trial"",""time""
""fullscreenenter"",""0"",""2295""
","
","
","""event"",""trial"",""time""
""fullscreenenter"",""0"",""2295""
","
","null","run_exp/static/images/Set 6_rs/008b.jpg","null","","","","","","test","TL",""
"","html-keyboard-response","305","444588","0.0-247.0-2.0","""event"",""trial"",""time""
""fullscreenenter"",""0"",""2295""
","
","
","""event"",""trial"",""time""
""fullscreenenter"",""0"",""2295""
","
","null","<p></p>","null","","","","","","","",""
"","image","306","445592","0.0-248.0-0.0","""event"",""trial"",""time""
""fullscreenenter"",""0"",""2295""
","
","
","""event"",""trial"",""time""
""fullscreenenter"",""0"",""2295""
","
","1003.2000007629395","run_exp/static/images/Set 6_rs/014b.jpg","66","","","","","","test","TL","5"
"","show_choice","307","446105","0.0-248.0-1.0","""event"",""trial"",""time""
""fullscreenenter"",""0"",""2295""
","
","
","""event"",""trial"",""time""
""fullscreenenter"",""0"",""2295""
","
","null","run_exp/static/images/Set 6_rs/014b.jpg","null","","","","","","test","TL",""
"","html-keyboard-response","308","446606","0.0-248.0-2.0","""event"",""trial"",""time""
""fullscreenenter"",""0"",""2295""
","
","
","""event"",""trial"",""time""
""fullscreenenter"",""0"",""2295""
","
","null","<p></p>","null","","","","","","","",""
"","image","309","447704","0.0-249.0-0.0","""event"",""trial"",""time""
""fullscreenenter"",""0"",""2295""
","
","
","""event"",""trial"",""time""
""fullscreenenter"",""0"",""2295""
","
","1097.5","run_exp/static/images/Set 6_rs/057b.jpg","86","","","","","","test","TL","1"
"","show_choice","310","448206","0.0-249.0-1.0","""event"",""trial"",""time""
""fullscreenenter"",""0"",""2295""
","
","
","""event"",""trial"",""time""
""fullscreenenter"",""0"",""2295""
","
","null","run_exp/static/images/Set 6_rs/057b.jpg","null","","","","","","test","TL",""
"","html-keyboard-response","311","448721","0.0-249.0-2.0","""event"",""trial"",""time""
""fullscreenenter"",""0"",""2295""
","
","
","""event"",""trial"",""time""
""fullscreenenter"",""0"",""2295""
","
","null","<p></p>","null","","","","","","","",""
"","image","312","450104","0.0-250.0-0.0","""event"",""trial"",""time""
""fullscreenenter"",""0"",""2295""
","
","
","""event"",""trial"",""time""
""fullscreenenter"",""0"",""2295""
","
","1382.2000007629395","run_exp/static/images/Set 6_rs/140a.jpg","78","","","","","","test","TF","1"
"","show_choice","313","450605","0.0-250.0-1.0","""event"",""trial"",""time""
""fullscreenenter"",""0"",""2295""
","
","
","""event"",""trial"",""time""
""fullscreenenter"",""0"",""2295""
","
","null","run_exp/static/images/Set 6_rs/140a.jpg","null","","","","","","test","TF",""
"","html-keyboard-response","314","451121","0.0-250.0-2.0","""event"",""trial"",""time""
""fullscreenenter"",""0"",""2295""
","
","
","""event"",""trial"",""time""
""fullscreenenter"",""0"",""2295""
","
","null","<p></p>","null","","","","","","","",""
"","image","315","452360","0.0-251.0-0.0","""event"",""trial"",""time""
""fullscreenenter"",""0"",""2295""
","
","
","""event"",""trial"",""time""
""fullscreenenter"",""0"",""2295""
","
","1237.8999996185303","run_exp/static/images/Set 6_rs/085b.jpg","66","","","","","","test","TL","1"
"","show_choice","316","452872","0.0-251.0-1.0","""event"",""trial"",""time""
""fullscreenenter"",""0"",""2295""
","
","
","""event"",""trial"",""time""
""fullscreenenter"",""0"",""2295""
","
","null","run_exp/static/images/Set 6_rs/085b.jpg","null","","","","","","test","TL",""
"","html-keyboard-response","317","453388","0.0-251.0-2.0","""event"",""trial"",""time""
""fullscreenenter"",""0"",""2295""
","
","
","""event"",""trial"",""time""
""fullscreenenter"",""0"",""2295""
","
","null","<p></p>","null","","","","","","","",""
"","image","318","454664","0.0-252.0-0.0","""event"",""trial"",""time""
""fullscreenenter"",""0"",""2295""
","
","
","""event"",""trial"",""time""
""fullscreenenter"",""0"",""2295""
","
","1274.7999992370605","run_exp/static/images/Set 6_rs/064a.jpg","86","","","","","","test","TR","5"
"","show_choice","319","455171","0.0-252.0-1.0","""event"",""trial"",""time""
""fullscreenenter"",""0"",""2295""
","
","
","""event"",""trial"",""time""
""fullscreenenter"",""0"",""2295""
","
","null","run_exp/static/images/Set 6_rs/064a.jpg","null","","","","","","test","TR",""
"","html-keyboard-response","320","455674","0.0-252.0-2.0","""event"",""trial"",""time""
""fullscreenenter"",""0"",""2295""
","
","
","""event"",""trial"",""time""
""fullscreenenter"",""0"",""2295""
","
","null","<p></p>","null","","","","","","","",""
"","image","321","456504","0.0-253.0-0.0","""event"",""trial"",""time""
""fullscreenenter"",""0"",""2295""
","
","
","""event"",""trial"",""time""
""fullscreenenter"",""0"",""2295""
","
","829","run_exp/static/images/Set 6_rs/126a.jpg","86","","","","","","test","TR","2"
"","show_choice","322","457005","0.0-253.0-1.0","""event"",""trial"",""time""
""fullscreenenter"",""0"",""2295""
","
","
","""event"",""trial"",""time""
""fullscreenenter"",""0"",""2295""
","
","null","run_exp/static/images/Set 6_rs/126a.jpg","null","","","","","","test","TR",""
"","html-keyboard-response","323","457521","0.0-253.0-2.0","""event"",""trial"",""time""
""fullscreenenter"",""0"",""2295""
","
","
","""event"",""trial"",""time""
""fullscreenenter"",""0"",""2295""
","
","null","<p></p>","null","","","","","","","",""
"","image","324","458152","0.0-254.0-0.0","""event"",""trial"",""time""
""fullscreenenter"",""0"",""2295""
","
","
","""event"",""trial"",""time""
""fullscreenenter"",""0"",""2295""
","
","629.7999992370605","run_exp/static/images/Set 6_rs/178a.jpg","86","","","","","","test","TR","3"
"","show_choice","325","458656","0.0-254.0-1.0","""event"",""trial"",""time""
""fullscreenenter"",""0"",""2295""
","
","
","""event"",""trial"",""time""
""fullscreenenter"",""0"",""2295""
","
","null","run_exp/static/images/Set 6_rs/178a.jpg","null","","","","","","test","TR",""
"","html-keyboard-response","326","459157","0.0-254.0-2.0","""event"",""trial"",""time""
""fullscreenenter"",""0"",""2295""
","
","
","""event"",""trial"",""time""
""fullscreenenter"",""0"",""2295""
","
","null","<p></p>","null","","","","","","","",""
"","image","327","459752","0.0-255.0-0.0","""event"",""trial"",""time""
""fullscreenenter"",""0"",""2295""
","
","
","""event"",""trial"",""time""
""fullscreenenter"",""0"",""2295""
","
","594.5","run_exp/static/images/Set 6_rs/024a.jpg","86","","","","","","test","TR","5"
"","show_choice","328","460254","0.0-255.0-1.0","""event"",""trial"",""time""
""fullscreenenter"",""0"",""2295""
","
","
","""event"",""trial"",""time""
""fullscreenenter"",""0"",""2295""
","
","null","run_exp/static/images/Set 6_rs/024a.jpg","null","","","","","","test","TR",""
"","html-keyboard-response","329","460756","0.0-255.0-2.0","""event"",""trial"",""time""
""fullscreenenter"",""0"",""2295""
","
","
","""event"",""trial"",""time""
""fullscreenenter"",""0"",""2295""
","
","null","<p></p>","null","","","","","","","",""
"","image","330","461400","0.0-256.0-0.0","""event"",""trial"",""time""
""fullscreenenter"",""0"",""2295""
","
","
","""event"",""trial"",""time""
""fullscreenenter"",""0"",""2295""
","
","642.8999996185303","run_exp/static/images/Set 6_rs/166a.jpg","86","","","","","","test","TR","1"
"","show_choice","331","461904","0.0-256.0-1.0","""event"",""trial"",""time""
""fullscreenenter"",""0"",""2295""
","
","
","""event"",""trial"",""time""
""fullscreenenter"",""0"",""2295""
","
","null","run_exp/static/images/Set 6_rs/166a.jpg","null","","","","","","test","TR",""
"","html-keyboard-response","332","462406","0.0-256.0-2.0","""event"",""trial"",""time""
""fullscreenenter"",""0"",""2295""
","
","
","""event"",""trial"",""time""
""fullscreenenter"",""0"",""2295""
","
","null","<p></p>","null","","","","","","","",""
"","image","333","463368","0.0-257.0-0.0","""event"",""trial"",""time""
""fullscreenenter"",""0"",""2295""
","
","
","""event"",""trial"",""time""
""fullscreenenter"",""0"",""2295""
","
","961.3999996185303","run_exp/static/images/Set 6_rs/062b.jpg","86","","","","","","test","TL","1"
"","show_choice","334","463872","0.0-257.0-1.0","""event"",""trial"",""time""
""fullscreenenter"",""0"",""2295""
","
","
","""event"",""trial"",""time""
""fullscreenenter"",""0"",""2295""
","
","null","run_exp/static/images/Set 6_rs/062b.jpg","null","","","","","","test","TL",""
"","html-keyboard-response","335","464388","0.0-257.0-2.0","""event"",""trial"",""time""
""fullscreenenter"",""0"",""2295""
","
","
","""event"",""trial"",""time""
""fullscreenenter"",""0"",""2295""
","
","null","<p></p>","null","","","","","","","",""
"","image","336","465352","0.0-258.0-0.0","""event"",""trial"",""time""
""fullscreenenter"",""0"",""2295""
","
","
","""event"",""trial"",""time""
""fullscreenenter"",""0"",""2295""
","
","963.2999992370605","run_exp/static/images/Set 6_rs/005a.jpg","78","","","","","","test","TF","5"
"","show_choice","337","465856","0.0-258.0-1.0","""event"",""trial"",""time""
""fullscreenenter"",""0"",""2295""
","
","
","""event"",""trial"",""time""
""fullscreenenter"",""0"",""2295""
","
","null","run_exp/static/images/Set 6_rs/005a.jpg","null","","","","","","test","TF",""
"","html-keyboard-response","338","466371","0.0-258.0-2.0","""event"",""trial"",""time""
""fullscreenenter"",""0"",""2295""
","
","
","""event"",""trial"",""time""
""fullscreenenter"",""0"",""2295""
","
","null","<p></p>","null","","","","","","","",""
"","image","339","467000","0.0-259.0-0.0","""event"",""trial"",""time""
""fullscreenenter"",""0"",""2295""
","
","
","""event"",""trial"",""time""
""fullscreenenter"",""0"",""2295""
","
","627.8000011444092","run_exp/static/images/Set 6_rs/187a.jpg","86","","","","","","test","TR","3"
"","show_choice","340","467514","0.0-259.0-1.0","""event"",""trial"",""time""
""fullscreenenter"",""0"",""2295""
","
","
","""event"",""trial"",""time""
""fullscreenenter"",""0"",""2295""
","
","null","run_exp/static/images/Set 6_rs/187a.jpg","null","","","","","","test","TR",""
