"success","trial_type","trial_index","time_elapsed","internal_node_id","interactions","blur_events","focus_events","fullscreenenter_events","fullscreenexit_events","rt","stimulus","key_press","subject_id","participant_id","age","gender","prompt","phase","condition","lure_bin"
"true","fullscreen","0","2292","0.0-0.0","""event"",""trial"",""time""
""fullscreenenter"",""0"",""1305""
","
","
","""event"",""trial"",""time""
""fullscreenenter"",""0"",""1305""
","
","","","","","","","","","","",""
"","pavlovia","1","2304","0.0-1.0","""event"",""trial"",""time""
""fullscreenenter"",""0"",""1305""
""blur"",""2"",""32961""
""focus"",""2"",""36859""
","""event"",""trial"",""time""
""blur"",""2"",""32961""
","""event"",""trial"",""time""
""focus"",""2"",""36859""
","""event"",""trial"",""time""
""fullscreenenter"",""0"",""1305""
","
","","","","","","","","","","",""
"","welcome","2","37103","0.0-2.0","""event"",""trial"",""time""
""fullscreenenter"",""0"",""1305""
""blur"",""2"",""32961""
""focus"",""2"",""36859""
","""event"",""trial"",""time""
""blur"",""2"",""32961""
","""event"",""trial"",""time""
""focus"",""2"",""36859""
","""event"",""trial"",""time""
""fullscreenenter"",""0"",""1305""
","
","null","run_exp/static/audio/clip_1_welcome.m4a","null","536","423","20","Female","<div class='center'><p>Welcome to the third part of the study! First, you'll be shown pictures of items one at a time. For each picture, you have to decide if the item is typically found indoors or outdoors.</p><p>If you think it's usually found indoors, then press <b>v</b> key on your keyboard. If you think it's usually found outdoors, then press the <b>n</b> key.There will be reminders on the screen to help you remember which keys to press. </p><p>If you're not sure whether the item is an indoor item or an outdoor item, go ahead and take a guess but try your best not to skip that choice. </p></div>","","",""
"","html-keyboard-response","3","40624","0.0-3.0","""event"",""trial"",""time""
""fullscreenenter"",""0"",""1305""
""blur"",""2"",""32961""
""focus"",""2"",""36859""
","""event"",""trial"",""time""
""blur"",""2"",""32961""
","""event"",""trial"",""time""
""focus"",""2"",""36859""
","""event"",""trial"",""time""
""fullscreenenter"",""0"",""1305""
","
","3516.7599999986123","<div class='center'><p>Welcome to the third part of the study! First, you'll be shown pictures of items one at a time. For each picture, you have to decide if the item is typically found indoors or outdoors.</p><p>If you think it's usually found indoors, then press <b>v</b> key on your keyboard. If you think it's usually found outdoors, then press the <b>n</b> key.There will be reminders on the screen to help you remember which keys to press. </p><p>If you're not sure whether the item is an indoor item or an outdoor item, go ahead and take a guess but try your best not to skip that choice. </p><div><p><b>[Press the space bar to continue]</b></p></div>","32","","","","","","","",""
"","image","4","42631","0.0-4.0","""event"",""trial"",""time""
""fullscreenenter"",""0"",""1305""
""blur"",""2"",""32961""
""focus"",""2"",""36859""
","""event"",""trial"",""time""
""blur"",""2"",""32961""
","""event"",""trial"",""time""
""focus"",""2"",""36859""
","""event"",""trial"",""time""
""fullscreenenter"",""0"",""1305""
","
","null","run_exp/static/images/Set 6_rs/062a.jpg","null","","","","","","learn","SL",""
"","show_choice","5","44641","0.0-5.0","""event"",""trial"",""time""
""fullscreenenter"",""0"",""1305""
""blur"",""2"",""32961""
""focus"",""2"",""36859""
","""event"",""trial"",""time""
""blur"",""2"",""32961""
","""event"",""trial"",""time""
""focus"",""2"",""36859""
","""event"",""trial"",""time""
""fullscreenenter"",""0"",""1305""
","
","null","run_exp/static/images/blank.png","null","","","","","","learn","SL",""
"","html-keyboard-response","6","45152","0.0-6.0","""event"",""trial"",""time""
""fullscreenenter"",""0"",""1305""
""blur"",""2"",""32961""
""focus"",""2"",""36859""
","""event"",""trial"",""time""
""blur"",""2"",""32961""
","""event"",""trial"",""time""
""focus"",""2"",""36859""
","""event"",""trial"",""time""
""fullscreenenter"",""0"",""1305""
","
","null","<p></p>","null","","","","","","","",""
"","image","7","46254","0.0-7.0","""event"",""trial"",""time""
""fullscreenenter"",""0"",""1305""
""blur"",""2"",""32961""
""focus"",""2"",""36859""
","""event"",""trial"",""time""
""blur"",""2"",""32961""
","""event"",""trial"",""time""
""focus"",""2"",""36859""
","""event"",""trial"",""time""
""fullscreenenter"",""0"",""1305""
","
","1098.2100000001083","run_exp/static/images/Set 6_rs/122a.jpg","86","","","","","","learn","SR",""
"","show_choice","8","47171","0.0-8.0","""event"",""trial"",""time""
""fullscreenenter"",""0"",""1305""
""blur"",""2"",""32961""
""focus"",""2"",""36859""
","""event"",""trial"",""time""
""blur"",""2"",""32961""
","""event"",""trial"",""time""
""focus"",""2"",""36859""
","""event"",""trial"",""time""
""fullscreenenter"",""0"",""1305""
","
","null","run_exp/static/images/Set 6_rs/122a.jpg","null","","","","","","learn","SR",""
"","html-keyboard-response","9","47672","0.0-9.0","""event"",""trial"",""time""
""fullscreenenter"",""0"",""1305""
""blur"",""2"",""32961""
""focus"",""2"",""36859""
","""event"",""trial"",""time""
""blur"",""2"",""32961""
","""event"",""trial"",""time""
""focus"",""2"",""36859""
","""event"",""trial"",""time""
""fullscreenenter"",""0"",""1305""
","
","null","<p></p>","null","","","","","","","",""
"","image","10","48552","0.0-10.0","""event"",""trial"",""time""
""fullscreenenter"",""0"",""1305""
""blur"",""2"",""32961""
""focus"",""2"",""36859""
","""event"",""trial"",""time""
""blur"",""2"",""32961""
","""event"",""trial"",""time""
""focus"",""2"",""36859""
","""event"",""trial"",""time""
""fullscreenenter"",""0"",""1305""
","
","875.30500000139","run_exp/static/images/Set 6_rs/112a.jpg","86","","","","","","learn","SR",""
"","show_choice","11","49680","0.0-11.0","""event"",""trial"",""time""
""fullscreenenter"",""0"",""1305""
""blur"",""2"",""32961""
""focus"",""2"",""36859""
","""event"",""trial"",""time""
""blur"",""2"",""32961""
","""event"",""trial"",""time""
""focus"",""2"",""36859""
","""event"",""trial"",""time""
""fullscreenenter"",""0"",""1305""
","
","null","run_exp/static/images/Set 6_rs/112a.jpg","null","","","","","","learn","SR",""
"","html-keyboard-response","12","50198","0.0-12.0","""event"",""trial"",""time""
""fullscreenenter"",""0"",""1305""
""blur"",""2"",""32961""
""focus"",""2"",""36859""
","""event"",""trial"",""time""
""blur"",""2"",""32961""
","""event"",""trial"",""time""
""focus"",""2"",""36859""
","""event"",""trial"",""time""
""fullscreenenter"",""0"",""1305""
","
","null","<p></p>","null","","","","","","","",""
"","image","13","50934","0.0-13.0","""event"",""trial"",""time""
""fullscreenenter"",""0"",""1305""
""blur"",""2"",""32961""
""focus"",""2"",""36859""
","""event"",""trial"",""time""
""blur"",""2"",""32961""
","""event"",""trial"",""time""
""focus"",""2"",""36859""
","""event"",""trial"",""time""
""fullscreenenter"",""0"",""1305""
","
","733.4399999999732","run_exp/static/images/Set 6_rs/095a.jpg","86","","","","","","learn","SL",""
"","show_choice","14","52204","0.0-14.0","""event"",""trial"",""time""
""fullscreenenter"",""0"",""1305""
""blur"",""2"",""32961""
""focus"",""2"",""36859""
","""event"",""trial"",""time""
""blur"",""2"",""32961""
","""event"",""trial"",""time""
""focus"",""2"",""36859""
","""event"",""trial"",""time""
""fullscreenenter"",""0"",""1305""
","
","null","run_exp/static/images/Set 6_rs/095a.jpg","null","","","","","","learn","SL",""
"","html-keyboard-response","15","52714","0.0-15.0","""event"",""trial"",""time""
""fullscreenenter"",""0"",""1305""
""blur"",""2"",""32961""
""focus"",""2"",""36859""
","""event"",""trial"",""time""
""blur"",""2"",""32961""
","""event"",""trial"",""time""
""focus"",""2"",""36859""
","""event"",""trial"",""time""
""fullscreenenter"",""0"",""1305""
","
","null","<p></p>","null","","","","","","","",""
"","image","16","53436","0.0-16.0","""event"",""trial"",""time""
""fullscreenenter"",""0"",""1305""
""blur"",""2"",""32961""
""focus"",""2"",""36859""
","""event"",""trial"",""time""
""blur"",""2"",""32961""
","""event"",""trial"",""time""
""focus"",""2"",""36859""
","""event"",""trial"",""time""
""fullscreenenter"",""0"",""1305""
","
","719.4099999978789","run_exp/static/images/Set 6_rs/117a.jpg","86","","","","","","learn","SL",""
"","show_choice","17","54721","0.0-17.0","""event"",""trial"",""time""
""fullscreenenter"",""0"",""1305""
""blur"",""2"",""32961""
""focus"",""2"",""36859""
","""event"",""trial"",""time""
""blur"",""2"",""32961""
","""event"",""trial"",""time""
""focus"",""2"",""36859""
","""event"",""trial"",""time""
""fullscreenenter"",""0"",""1305""
","
","null","run_exp/static/images/Set 6_rs/117a.jpg","null","","","","","","learn","SL",""
"","html-keyboard-response","18","55223","0.0-18.0","""event"",""trial"",""time""
""fullscreenenter"",""0"",""1305""
""blur"",""2"",""32961""
""focus"",""2"",""36859""
","""event"",""trial"",""time""
""blur"",""2"",""32961""
","""event"",""trial"",""time""
""focus"",""2"",""36859""
","""event"",""trial"",""time""
""fullscreenenter"",""0"",""1305""
","
","null","<p></p>","null","","","","","","","",""
"","image","19","55941","0.0-19.0","""event"",""trial"",""time""
""fullscreenenter"",""0"",""1305""
""blur"",""2"",""32961""
""focus"",""2"",""36859""
","""event"",""trial"",""time""
""blur"",""2"",""32961""
","""event"",""trial"",""time""
""focus"",""2"",""36859""
","""event"",""trial"",""time""
""fullscreenenter"",""0"",""1305""
","
","716.7199999967124","run_exp/static/images/Set 6_rs/055a.jpg","78","","","","","","learn","SL",""
"","show_choice","20","57242","0.0-20.0","""event"",""trial"",""time""
""fullscreenenter"",""0"",""1305""
""blur"",""2"",""32961""
""focus"",""2"",""36859""
","""event"",""trial"",""time""
""blur"",""2"",""32961""
","""event"",""trial"",""time""
""focus"",""2"",""36859""
","""event"",""trial"",""time""
""fullscreenenter"",""0"",""1305""
","
","null","run_exp/static/images/Set 6_rs/055a.jpg","null","","","","","","learn","SL",""
"","html-keyboard-response","21","57750","0.0-21.0","""event"",""trial"",""time""
""fullscreenenter"",""0"",""1305""
""blur"",""2"",""32961""
""focus"",""2"",""36859""
","""event"",""trial"",""time""
""blur"",""2"",""32961""
","""event"",""trial"",""time""
""focus"",""2"",""36859""
","""event"",""trial"",""time""
""fullscreenenter"",""0"",""1305""
","
","null","<p></p>","null","","","","","","","",""
"","image","22","58589","0.0-22.0","""event"",""trial"",""time""
""fullscreenenter"",""0"",""1305""
""blur"",""2"",""32961""
""focus"",""2"",""36859""
","""event"",""trial"",""time""
""blur"",""2"",""32961""
","""event"",""trial"",""time""
""focus"",""2"",""36859""
","""event"",""trial"",""time""
""fullscreenenter"",""0"",""1305""
","
","836.3050000007206","run_exp/static/images/Set 6_rs/023a.jpg","86","","","","","","learn","SR",""
"","show_choice","23","59758","0.0-23.0","""event"",""trial"",""time""
""fullscreenenter"",""0"",""1305""
""blur"",""2"",""32961""
""focus"",""2"",""36859""
","""event"",""trial"",""time""
""blur"",""2"",""32961""
","""event"",""trial"",""time""
""focus"",""2"",""36859""
","""event"",""trial"",""time""
""fullscreenenter"",""0"",""1305""
","
","null","run_exp/static/images/Set 6_rs/023a.jpg","null","","","","","","learn","SR",""
"","html-keyboard-response","24","60272","0.0-24.0","""event"",""trial"",""time""
""fullscreenenter"",""0"",""1305""
""blur"",""2"",""32961""
""focus"",""2"",""36859""
","""event"",""trial"",""time""
""blur"",""2"",""32961""
","""event"",""trial"",""time""
""focus"",""2"",""36859""
","""event"",""trial"",""time""
""fullscreenenter"",""0"",""1305""
","
","null","<p></p>","null","","","","","","","",""
"","image","25","61062","0.0-25.0","""event"",""trial"",""time""
""fullscreenenter"",""0"",""1305""
""blur"",""2"",""32961""
""focus"",""2"",""36859""
","""event"",""trial"",""time""
""blur"",""2"",""32961""
","""event"",""trial"",""time""
""focus"",""2"",""36859""
","""event"",""trial"",""time""
""fullscreenenter"",""0"",""1305""
","
","787.1249999989232","run_exp/static/images/Set 6_rs/036a.jpg","86","","","","","","learn","SL",""
"","show_choice","26","62291","0.0-26.0","""event"",""trial"",""time""
""fullscreenenter"",""0"",""1305""
""blur"",""2"",""32961""
""focus"",""2"",""36859""
","""event"",""trial"",""time""
""blur"",""2"",""32961""
","""event"",""trial"",""time""
""focus"",""2"",""36859""
","""event"",""trial"",""time""
""fullscreenenter"",""0"",""1305""
","
","null","run_exp/static/images/Set 6_rs/036a.jpg","null","","","","","","learn","SL",""
"","html-keyboard-response","27","62805","0.0-27.0","""event"",""trial"",""time""
""fullscreenenter"",""0"",""1305""
""blur"",""2"",""32961""
""focus"",""2"",""36859""
","""event"",""trial"",""time""
""blur"",""2"",""32961""
","""event"",""trial"",""time""
""focus"",""2"",""36859""
","""event"",""trial"",""time""
""fullscreenenter"",""0"",""1305""
","
","null","<p></p>","null","","","","","","","",""
"","image","28","63572","0.0-28.0","""event"",""trial"",""time""
""fullscreenenter"",""0"",""1305""
""blur"",""2"",""32961""
""focus"",""2"",""36859""
","""event"",""trial"",""time""
""blur"",""2"",""32961""
","""event"",""trial"",""time""
""focus"",""2"",""36859""
","""event"",""trial"",""time""
""fullscreenenter"",""0"",""1305""
","
","764.5599999996193","run_exp/static/images/Set 6_rs/079a.jpg","86","","","","","","learn","SL",""
"","show_choice","29","64813","0.0-29.0","""event"",""trial"",""time""
""fullscreenenter"",""0"",""1305""
""blur"",""2"",""32961""
""focus"",""2"",""36859""
","""event"",""trial"",""time""
""blur"",""2"",""32961""
","""event"",""trial"",""time""
""focus"",""2"",""36859""
","""event"",""trial"",""time""
""fullscreenenter"",""0"",""1305""
","
","null","run_exp/static/images/Set 6_rs/079a.jpg","null","","","","","","learn","SL",""
"","html-keyboard-response","30","65417","0.0-30.0","""event"",""trial"",""time""
""fullscreenenter"",""0"",""1305""
""blur"",""2"",""32961""
""focus"",""2"",""36859""
","""event"",""trial"",""time""
""blur"",""2"",""32961""
","""event"",""trial"",""time""
""focus"",""2"",""36859""
","""event"",""trial"",""time""
""fullscreenenter"",""0"",""1305""
","
","null","<p></p>","null","","","","","","","",""
"","image","31","66079","0.0-31.0","""event"",""trial"",""time""
""fullscreenenter"",""0"",""1305""
""blur"",""2"",""32961""
""focus"",""2"",""36859""
","""event"",""trial"",""time""
""blur"",""2"",""32961""
","""event"",""trial"",""time""
""focus"",""2"",""36859""
","""event"",""trial"",""time""
""fullscreenenter"",""0"",""1305""
","
","653.809999999794","run_exp/static/images/Set 6_rs/131a.jpg","86","","","","","","learn","SR",""
"","show_choice","32","67434","0.0-32.0","""event"",""trial"",""time""
""fullscreenenter"",""0"",""1305""
""blur"",""2"",""32961""
""focus"",""2"",""36859""
","""event"",""trial"",""time""
""blur"",""2"",""32961""
","""event"",""trial"",""time""
""focus"",""2"",""36859""
","""event"",""trial"",""time""
""fullscreenenter"",""0"",""1305""
","
","null","run_exp/static/images/Set 6_rs/131a.jpg","null","","","","","","learn","SR",""
"","html-keyboard-response","33","67943","0.0-33.0","""event"",""trial"",""time""
""fullscreenenter"",""0"",""1305""
""blur"",""2"",""32961""
""focus"",""2"",""36859""
","""event"",""trial"",""time""
""blur"",""2"",""32961""
","""event"",""trial"",""time""
""focus"",""2"",""36859""
","""event"",""trial"",""time""
""fullscreenenter"",""0"",""1305""
","
","null","<p></p>","null","","","","","","","",""
"","image","34","69117","0.0-34.0","""event"",""trial"",""time""
""fullscreenenter"",""0"",""1305""
""blur"",""2"",""32961""
""focus"",""2"",""36859""
","""event"",""trial"",""time""
""blur"",""2"",""32961""
","""event"",""trial"",""time""
""focus"",""2"",""36859""
","""event"",""trial"",""time""
""fullscreenenter"",""0"",""1305""
","
","1171.2850000003527","run_exp/static/images/Set 6_rs/150a.jpg","78","","","","","","learn","SR",""
"","show_choice","35","69951","0.0-35.0","""event"",""trial"",""time""
""fullscreenenter"",""0"",""1305""
""blur"",""2"",""32961""
""focus"",""2"",""36859""
","""event"",""trial"",""time""
""blur"",""2"",""32961""
","""event"",""trial"",""time""
""focus"",""2"",""36859""
","""event"",""trial"",""time""
""fullscreenenter"",""0"",""1305""
","
","null","run_exp/static/images/Set 6_rs/150a.jpg","null","","","","","","learn","SR",""
"","html-keyboard-response","36","70455","0.0-36.0","""event"",""trial"",""time""
""fullscreenenter"",""0"",""1305""
""blur"",""2"",""32961""
""focus"",""2"",""36859""
","""event"",""trial"",""time""
""blur"",""2"",""32961""
","""event"",""trial"",""time""
""focus"",""2"",""36859""
","""event"",""trial"",""time""
""fullscreenenter"",""0"",""1305""
","
","null","<p></p>","null","","","","","","","",""
"","image","37","71093","0.0-37.0","""event"",""trial"",""time""
""fullscreenenter"",""0"",""1305""
""blur"",""2"",""32961""
""focus"",""2"",""36859""
","""event"",""trial"",""time""
""blur"",""2"",""32961""
","""event"",""trial"",""time""
""focus"",""2"",""36859""
","""event"",""trial"",""time""
""fullscreenenter"",""0"",""1305""
","
","636.1749999996391","run_exp/static/images/Set 6_rs/187a.jpg","86","","","","","","learn","SR",""
"","show_choice","38","72470","0.0-38.0","""event"",""trial"",""time""
""fullscreenenter"",""0"",""1305""
""blur"",""2"",""32961""
""focus"",""2"",""36859""
","""event"",""trial"",""time""
""blur"",""2"",""32961""
","""event"",""trial"",""time""
""focus"",""2"",""36859""
","""event"",""trial"",""time""
""fullscreenenter"",""0"",""1305""
","
","null","run_exp/static/images/Set 6_rs/187a.jpg","null","","","","","","learn","SR",""
"","html-keyboard-response","39","72987","0.0-39.0","""event"",""trial"",""time""
""fullscreenenter"",""0"",""1305""
""blur"",""2"",""32961""
""focus"",""2"",""36859""
","""event"",""trial"",""time""
""blur"",""2"",""32961""
","""event"",""trial"",""time""
""focus"",""2"",""36859""
","""event"",""trial"",""time""
""fullscreenenter"",""0"",""1305""
","
","null","<p></p>","null","","","","","","","",""
"","image","40","73837","0.0-40.0","""event"",""trial"",""time""
""fullscreenenter"",""0"",""1305""
""blur"",""2"",""32961""
""focus"",""2"",""36859""
","""event"",""trial"",""time""
""blur"",""2"",""32961""
","""event"",""trial"",""time""
""focus"",""2"",""36859""
","""event"",""trial"",""time""
""fullscreenenter"",""0"",""1305""
","
","848.1549999996787","run_exp/static/images/Set 6_rs/007a.jpg","86","","","","","","learn","SR",""
"","show_choice","41","74996","0.0-41.0","""event"",""trial"",""time""
""fullscreenenter"",""0"",""1305""
""blur"",""2"",""32961""
""focus"",""2"",""36859""
","""event"",""trial"",""time""
""blur"",""2"",""32961""
","""event"",""trial"",""time""
""focus"",""2"",""36859""
","""event"",""trial"",""time""
""fullscreenenter"",""0"",""1305""
","
","null","run_exp/static/images/Set 6_rs/007a.jpg","null","","","","","","learn","SR",""
"","html-keyboard-response","42","75505","0.0-42.0","""event"",""trial"",""time""
""fullscreenenter"",""0"",""1305""
""blur"",""2"",""32961""
""focus"",""2"",""36859""
","""event"",""trial"",""time""
""blur"",""2"",""32961""
","""event"",""trial"",""time""
""focus"",""2"",""36859""
","""event"",""trial"",""time""
""fullscreenenter"",""0"",""1305""
","
","null","<p></p>","null","","","","","","","",""
"","image","43","76965","0.0-43.0","""event"",""trial"",""time""
""fullscreenenter"",""0"",""1305""
""blur"",""2"",""32961""
""focus"",""2"",""36859""
","""event"",""trial"",""time""
""blur"",""2"",""32961""
","""event"",""trial"",""time""
""focus"",""2"",""36859""
","""event"",""trial"",""time""
""fullscreenenter"",""0"",""1305""
","
","1457.2800000023562","run_exp/static/images/Set 6_rs/116a.jpg","78","","","","","","learn","SL",""
"","show_choice","44","77514","0.0-44.0","""event"",""trial"",""time""
""fullscreenenter"",""0"",""1305""
""blur"",""2"",""32961""
""focus"",""2"",""36859""
","""event"",""trial"",""time""
""blur"",""2"",""32961""
","""event"",""trial"",""time""
""focus"",""2"",""36859""
","""event"",""trial"",""time""
""fullscreenenter"",""0"",""1305""
","
","null","run_exp/static/images/Set 6_rs/116a.jpg","null","","","","","","learn","SL",""
"","html-keyboard-response","45","78028","0.0-45.0","""event"",""trial"",""time""
""fullscreenenter"",""0"",""1305""
""blur"",""2"",""32961""
""focus"",""2"",""36859""
","""event"",""trial"",""time""
""blur"",""2"",""32961""
","""event"",""trial"",""time""
""focus"",""2"",""36859""
","""event"",""trial"",""time""
""fullscreenenter"",""0"",""1305""
","
","null","<p></p>","null","","","","","","","",""
"","image","46","79093","0.0-46.0","""event"",""trial"",""time""
""fullscreenenter"",""0"",""1305""
""blur"",""2"",""32961""
""focus"",""2"",""36859""
","""event"",""trial"",""time""
""blur"",""2"",""32961""
","""event"",""trial"",""time""
""focus"",""2"",""36859""
","""event"",""trial"",""time""
""fullscreenenter"",""0"",""1305""
","
","1062.934999998106","run_exp/static/images/Set 6_rs/167a.jpg","86","","","","","","learn","SL",""
"","show_choice","47","80041","0.0-47.0","""event"",""trial"",""time""
""fullscreenenter"",""0"",""1305""
""blur"",""2"",""32961""
""focus"",""2"",""36859""
","""event"",""trial"",""time""
""blur"",""2"",""32961""
","""event"",""trial"",""time""
""focus"",""2"",""36859""
","""event"",""trial"",""time""
""fullscreenenter"",""0"",""1305""
","
","null","run_exp/static/images/Set 6_rs/167a.jpg","null","","","","","","learn","SL",""
"","html-keyboard-response","48","80555","0.0-48.0","""event"",""trial"",""time""
""fullscreenenter"",""0"",""1305""
""blur"",""2"",""32961""
""focus"",""2"",""36859""
","""event"",""trial"",""time""
""blur"",""2"",""32961""
","""event"",""trial"",""time""
""focus"",""2"",""36859""
","""event"",""trial"",""time""
""fullscreenenter"",""0"",""1305""
","
","null","<p></p>","null","","","","","","","",""
"","image","49","81222","0.0-49.0","""event"",""trial"",""time""
""fullscreenenter"",""0"",""1305""
""blur"",""2"",""32961""
""focus"",""2"",""36859""
","""event"",""trial"",""time""
""blur"",""2"",""32961""
","""event"",""trial"",""time""
""focus"",""2"",""36859""
","""event"",""trial"",""time""
""fullscreenenter"",""0"",""1305""
","
","664.1099999978906","run_exp/static/images/Set 6_rs/045a.jpg","78","","","","","","learn","SR",""
"","show_choice","50","82570","0.0-50.0","""event"",""trial"",""time""
""fullscreenenter"",""0"",""1305""
""blur"",""2"",""32961""
""focus"",""2"",""36859""
","""event"",""trial"",""time""
""blur"",""2"",""32961""
","""event"",""trial"",""time""
""focus"",""2"",""36859""
","""event"",""trial"",""time""
""fullscreenenter"",""0"",""1305""
","
","null","run_exp/static/images/Set 6_rs/045a.jpg","null","","","","","","learn","SR",""
"","html-keyboard-response","51","83086","0.0-51.0","""event"",""trial"",""time""
""fullscreenenter"",""0"",""1305""
""blur"",""2"",""32961""
""focus"",""2"",""36859""
","""event"",""trial"",""time""
""blur"",""2"",""32961""
","""event"",""trial"",""time""
""focus"",""2"",""36859""
","""event"",""trial"",""time""
""fullscreenenter"",""0"",""1305""
","
","null","<p></p>","null","","","","","","","",""
"","image","52","84085","0.0-52.0","""event"",""trial"",""time""
""fullscreenenter"",""0"",""1305""
""blur"",""2"",""32961""
""focus"",""2"",""36859""
","""event"",""trial"",""time""
""blur"",""2"",""32961""
","""event"",""trial"",""time""
""focus"",""2"",""36859""
","""event"",""trial"",""time""
""fullscreenenter"",""0"",""1305""
","
","996.3150000003225","run_exp/static/images/Set 6_rs/138a.jpg","78","","","","","","learn","SL",""
"","show_choice","53","85103","0.0-53.0","""event"",""trial"",""time""
""fullscreenenter"",""0"",""1305""
""blur"",""2"",""32961""
""focus"",""2"",""36859""
","""event"",""trial"",""time""
""blur"",""2"",""32961""
","""event"",""trial"",""time""
""focus"",""2"",""36859""
","""event"",""trial"",""time""
""fullscreenenter"",""0"",""1305""
","
","null","run_exp/static/images/Set 6_rs/138a.jpg","null","","","","","","learn","SL",""
"","html-keyboard-response","54","85606","0.0-54.0","""event"",""trial"",""time""
""fullscreenenter"",""0"",""1305""
""blur"",""2"",""32961""
""focus"",""2"",""36859""
","""event"",""trial"",""time""
""blur"",""2"",""32961""
","""event"",""trial"",""time""
""focus"",""2"",""36859""
","""event"",""trial"",""time""
""fullscreenenter"",""0"",""1305""
","
","null","<p></p>","null","","","","","","","",""
"","image","55","86309","0.0-55.0","""event"",""trial"",""time""
""fullscreenenter"",""0"",""1305""
""blur"",""2"",""32961""
""focus"",""2"",""36859""
","""event"",""trial"",""time""
""blur"",""2"",""32961""
","""event"",""trial"",""time""
""focus"",""2"",""36859""
","""event"",""trial"",""time""
""fullscreenenter"",""0"",""1305""
","
","696.6150000007474","run_exp/static/images/Set 6_rs/014a.jpg","86","","","","","","learn","SL",""
"","show_choice","56","87615","0.0-56.0","""event"",""trial"",""time""
""fullscreenenter"",""0"",""1305""
""blur"",""2"",""32961""
""focus"",""2"",""36859""
","""event"",""trial"",""time""
""blur"",""2"",""32961""
","""event"",""trial"",""time""
""focus"",""2"",""36859""
","""event"",""trial"",""time""
""fullscreenenter"",""0"",""1305""
","
","null","run_exp/static/images/Set 6_rs/014a.jpg","null","","","","","","learn","SL",""
"","html-keyboard-response","57","88126","0.0-57.0","""event"",""trial"",""time""
""fullscreenenter"",""0"",""1305""
""blur"",""2"",""32961""
""focus"",""2"",""36859""
","""event"",""trial"",""time""
""blur"",""2"",""32961""
","""event"",""trial"",""time""
""focus"",""2"",""36859""
","""event"",""trial"",""time""
""fullscreenenter"",""0"",""1305""
","
","null","<p></p>","null","","","","","","","",""
"","image","58","88917","0.0-58.0","""event"",""trial"",""time""
""fullscreenenter"",""0"",""1305""
""blur"",""2"",""32961""
""focus"",""2"",""36859""
","""event"",""trial"",""time""
""blur"",""2"",""32961""
","""event"",""trial"",""time""
""focus"",""2"",""36859""
","""event"",""trial"",""time""
""fullscreenenter"",""0"",""1305""
","
","788.2250000002387","run_exp/static/images/Set 6_rs/186a.jpg","86","","","","","","learn","SR",""
"","show_choice","59","90132","0.0-59.0","""event"",""trial"",""time""
""fullscreenenter"",""0"",""1305""
""blur"",""2"",""32961""
""focus"",""2"",""36859""
","""event"",""trial"",""time""
""blur"",""2"",""32961""
","""event"",""trial"",""time""
""focus"",""2"",""36859""
","""event"",""trial"",""time""
""fullscreenenter"",""0"",""1305""
","
","null","run_exp/static/images/Set 6_rs/186a.jpg","null","","","","","","learn","SR",""
"","html-keyboard-response","60","90633","0.0-60.0","""event"",""trial"",""time""
""fullscreenenter"",""0"",""1305""
""blur"",""2"",""32961""
""focus"",""2"",""36859""
","""event"",""trial"",""time""
""blur"",""2"",""32961""
","""event"",""trial"",""time""
""focus"",""2"",""36859""
","""event"",""trial"",""time""
""fullscreenenter"",""0"",""1305""
","
","null","<p></p>","null","","","","","","","",""
"","image","61","91365","0.0-61.0","""event"",""trial"",""time""
""fullscreenenter"",""0"",""1305""
""blur"",""2"",""32961""
""focus"",""2"",""36859""
","""event"",""trial"",""time""
""blur"",""2"",""32961""
","""event"",""trial"",""time""
""focus"",""2"",""36859""
","""event"",""trial"",""time""
""fullscreenenter"",""0"",""1305""
","
","729.6449999994365","run_exp/static/images/Set 6_rs/141a.jpg","78","","","","","","learn","SR",""
"","show_choice","62","92640","0.0-62.0","""event"",""trial"",""time""
""fullscreenenter"",""0"",""1305""
""blur"",""2"",""32961""
""focus"",""2"",""36859""
","""event"",""trial"",""time""
""blur"",""2"",""32961""
","""event"",""trial"",""time""
""focus"",""2"",""36859""
","""event"",""trial"",""time""
""fullscreenenter"",""0"",""1305""
","
","null","run_exp/static/images/Set 6_rs/141a.jpg","null","","","","","","learn","SR",""
"","html-keyboard-response","63","93156","0.0-63.0","""event"",""trial"",""time""
""fullscreenenter"",""0"",""1305""
""blur"",""2"",""32961""
""focus"",""2"",""36859""
","""event"",""trial"",""time""
""blur"",""2"",""32961""
","""event"",""trial"",""time""
""focus"",""2"",""36859""
","""event"",""trial"",""time""
""fullscreenenter"",""0"",""1305""
","
","null","<p></p>","null","","","","","","","",""
"","image","64","94230","0.0-64.0","""event"",""trial"",""time""
""fullscreenenter"",""0"",""1305""
""blur"",""2"",""32961""
""focus"",""2"",""36859""
","""event"",""trial"",""time""
""blur"",""2"",""32961""
","""event"",""trial"",""time""
""focus"",""2"",""36859""
","""event"",""trial"",""time""
""fullscreenenter"",""0"",""1305""
","
","1071.4499999994587","run_exp/static/images/Set 6_rs/111a.jpg","86","","","","","","learn","SL",""
"","show_choice","65","95175","0.0-65.0","""event"",""trial"",""time""
""fullscreenenter"",""0"",""1305""
""blur"",""2"",""32961""
""focus"",""2"",""36859""
","""event"",""trial"",""time""
""blur"",""2"",""32961""
","""event"",""trial"",""time""
""focus"",""2"",""36859""
","""event"",""trial"",""time""
""fullscreenenter"",""0"",""1305""
","
","null","run_exp/static/images/Set 6_rs/111a.jpg","null","","","","","","learn","SL",""
"","html-keyboard-response","66","95678","0.0-66.0","""event"",""trial"",""time""
""fullscreenenter"",""0"",""1305""
""blur"",""2"",""32961""
""focus"",""2"",""36859""
","""event"",""trial"",""time""
""blur"",""2"",""32961""
","""event"",""trial"",""time""
""focus"",""2"",""36859""
","""event"",""trial"",""time""
""fullscreenenter"",""0"",""1305""
","
","null","<p></p>","null","","","","","","","",""
"","image","67","96398","0.0-67.0","""event"",""trial"",""time""
""fullscreenenter"",""0"",""1305""
""blur"",""2"",""32961""
""focus"",""2"",""36859""
","""event"",""trial"",""time""
""blur"",""2"",""32961""
","""event"",""trial"",""time""
""focus"",""2"",""36859""
","""event"",""trial"",""time""
""fullscreenenter"",""0"",""1305""
","
","717.3000000002503","run_exp/static/images/Set 6_rs/071a.jpg","86","","","","","","learn","SL",""
"","show_choice","68","97682","0.0-68.0","""event"",""trial"",""time""
""fullscreenenter"",""0"",""1305""
""blur"",""2"",""32961""
""focus"",""2"",""36859""
","""event"",""trial"",""time""
""blur"",""2"",""32961""
","""event"",""trial"",""time""
""focus"",""2"",""36859""
","""event"",""trial"",""time""
""fullscreenenter"",""0"",""1305""
","
","null","run_exp/static/images/Set 6_rs/071a.jpg","null","","","","","","learn","SL",""
"","html-keyboard-response","69","98191","0.0-69.0","""event"",""trial"",""time""
""fullscreenenter"",""0"",""1305""
""blur"",""2"",""32961""
""focus"",""2"",""36859""
","""event"",""trial"",""time""
""blur"",""2"",""32961""
","""event"",""trial"",""time""
""focus"",""2"",""36859""
","""event"",""trial"",""time""
""fullscreenenter"",""0"",""1305""
","
","null","<p></p>","null","","","","","","","",""
"","image","70","98982","0.0-70.0","""event"",""trial"",""time""
""fullscreenenter"",""0"",""1305""
""blur"",""2"",""32961""
""focus"",""2"",""36859""
","""event"",""trial"",""time""
""blur"",""2"",""32961""
","""event"",""trial"",""time""
""focus"",""2"",""36859""
","""event"",""trial"",""time""
""fullscreenenter"",""0"",""1305""
","
","788.4699999995064","run_exp/static/images/Set 6_rs/169a.jpg","78","","","","","","learn","SR",""
"","show_choice","71","100196","0.0-71.0","""event"",""trial"",""time""
""fullscreenenter"",""0"",""1305""
""blur"",""2"",""32961""
""focus"",""2"",""36859""
","""event"",""trial"",""time""
""blur"",""2"",""32961""
","""event"",""trial"",""time""
""focus"",""2"",""36859""
","""event"",""trial"",""time""
""fullscreenenter"",""0"",""1305""
","
","null","run_exp/static/images/Set 6_rs/169a.jpg","null","","","","","","learn","SR",""
"","html-keyboard-response","72","100711","0.0-72.0","""event"",""trial"",""time""
""fullscreenenter"",""0"",""1305""
""blur"",""2"",""32961""
""focus"",""2"",""36859""
","""event"",""trial"",""time""
""blur"",""2"",""32961""
","""event"",""trial"",""time""
""focus"",""2"",""36859""
","""event"",""trial"",""time""
""fullscreenenter"",""0"",""1305""
","
","null","<p></p>","null","","","","","","","",""
"","image","73","101830","0.0-73.0","""event"",""trial"",""time""
""fullscreenenter"",""0"",""1305""
""blur"",""2"",""32961""
""focus"",""2"",""36859""
","""event"",""trial"",""time""
""blur"",""2"",""32961""
","""event"",""trial"",""time""
""focus"",""2"",""36859""
","""event"",""trial"",""time""
""fullscreenenter"",""0"",""1305""
","
","1116.5750000000116","run_exp/static/images/Set 6_rs/075a.jpg","86","","","","","","learn","SR",""
"","show_choice","74","102725","0.0-74.0","""event"",""trial"",""time""
""fullscreenenter"",""0"",""1305""
""blur"",""2"",""32961""
""focus"",""2"",""36859""
","""event"",""trial"",""time""
""blur"",""2"",""32961""
","""event"",""trial"",""time""
""focus"",""2"",""36859""
","""event"",""trial"",""time""
""fullscreenenter"",""0"",""1305""
","
","null","run_exp/static/images/Set 6_rs/075a.jpg","null","","","","","","learn","SR",""
"","html-keyboard-response","75","103235","0.0-75.0","""event"",""trial"",""time""
""fullscreenenter"",""0"",""1305""
""blur"",""2"",""32961""
""focus"",""2"",""36859""
","""event"",""trial"",""time""
""blur"",""2"",""32961""
","""event"",""trial"",""time""
""focus"",""2"",""36859""
","""event"",""trial"",""time""
""fullscreenenter"",""0"",""1305""
","
","null","<p></p>","null","","","","","","","",""
"","image","76","104342","0.0-76.0","""event"",""trial"",""time""
""fullscreenenter"",""0"",""1305""
""blur"",""2"",""32961""
""focus"",""2"",""36859""
","""event"",""trial"",""time""
""blur"",""2"",""32961""
","""event"",""trial"",""time""
""focus"",""2"",""36859""
","""event"",""trial"",""time""
""fullscreenenter"",""0"",""1305""
","
","1103.659999997035","run_exp/static/images/Set 6_rs/024a.jpg","86","","","","","","learn","SR",""
"","show_choice","77","105241","0.0-77.0","""event"",""trial"",""time""
""fullscreenenter"",""0"",""1305""
""blur"",""2"",""32961""
""focus"",""2"",""36859""
","""event"",""trial"",""time""
""blur"",""2"",""32961""
","""event"",""trial"",""time""
""focus"",""2"",""36859""
","""event"",""trial"",""time""
""fullscreenenter"",""0"",""1305""
","
","null","run_exp/static/images/Set 6_rs/024a.jpg","null","","","","","","learn","SR",""
"","html-keyboard-response","78","105756","0.0-78.0","""event"",""trial"",""time""
""fullscreenenter"",""0"",""1305""
""blur"",""2"",""32961""
""focus"",""2"",""36859""
","""event"",""trial"",""time""
""blur"",""2"",""32961""
","""event"",""trial"",""time""
""focus"",""2"",""36859""
","""event"",""trial"",""time""
""fullscreenenter"",""0"",""1305""
","
","null","<p></p>","null","","","","","","","",""
"","image","79","106486","0.0-79.0","""event"",""trial"",""time""
""fullscreenenter"",""0"",""1305""
""blur"",""2"",""32961""
""focus"",""2"",""36859""
","""event"",""trial"",""time""
""blur"",""2"",""32961""
","""event"",""trial"",""time""
""focus"",""2"",""36859""
","""event"",""trial"",""time""
""fullscreenenter"",""0"",""1305""
","
","727.3849999983213","run_exp/static/images/Set 6_rs/154a.jpg","78","","","","","","learn","SR",""
"","show_choice","80","107773","0.0-80.0","""event"",""trial"",""time""
""fullscreenenter"",""0"",""1305""
""blur"",""2"",""32961""
""focus"",""2"",""36859""
","""event"",""trial"",""time""
""blur"",""2"",""32961""
","""event"",""trial"",""time""
""focus"",""2"",""36859""
","""event"",""trial"",""time""
""fullscreenenter"",""0"",""1305""
","
","null","run_exp/static/images/Set 6_rs/154a.jpg","null","","","","","","learn","SR",""
"","html-keyboard-response","81","108289","0.0-81.0","""event"",""trial"",""time""
""fullscreenenter"",""0"",""1305""
""blur"",""2"",""32961""
""focus"",""2"",""36859""
","""event"",""trial"",""time""
""blur"",""2"",""32961""
","""event"",""trial"",""time""
""focus"",""2"",""36859""
","""event"",""trial"",""time""
""fullscreenenter"",""0"",""1305""
","
","null","<p></p>","null","","","","","","","",""
"","image","82","109173","0.0-82.0","""event"",""trial"",""time""
""fullscreenenter"",""0"",""1305""
""blur"",""2"",""32961""
""focus"",""2"",""36859""
","""event"",""trial"",""time""
""blur"",""2"",""32961""
","""event"",""trial"",""time""
""focus"",""2"",""36859""
","""event"",""trial"",""time""
""fullscreenenter"",""0"",""1305""
","
","882.1499999976368","run_exp/static/images/Set 6_rs/091a.jpg","78","","","","","","learn","SL",""
"","show_choice","83","110299","0.0-83.0","""event"",""trial"",""time""
""fullscreenenter"",""0"",""1305""
""blur"",""2"",""32961""
""focus"",""2"",""36859""
","""event"",""trial"",""time""
""blur"",""2"",""32961""
","""event"",""trial"",""time""
""focus"",""2"",""36859""
","""event"",""trial"",""time""
""fullscreenenter"",""0"",""1305""
","
","null","run_exp/static/images/Set 6_rs/091a.jpg","null","","","","","","learn","SL",""
"","html-keyboard-response","84","110806","0.0-84.0","""event"",""trial"",""time""
""fullscreenenter"",""0"",""1305""
""blur"",""2"",""32961""
""focus"",""2"",""36859""
","""event"",""trial"",""time""
""blur"",""2"",""32961""
","""event"",""trial"",""time""
""focus"",""2"",""36859""
","""event"",""trial"",""time""
""fullscreenenter"",""0"",""1305""
","
","null","<p></p>","null","","","","","","","",""
"","image","85","111510","0.0-85.0","""event"",""trial"",""time""
""fullscreenenter"",""0"",""1305""
""blur"",""2"",""32961""
""focus"",""2"",""36859""
","""event"",""trial"",""time""
""blur"",""2"",""32961""
","""event"",""trial"",""time""
""focus"",""2"",""36859""
","""event"",""trial"",""time""
""fullscreenenter"",""0"",""1305""
","
","700.9300000026997","run_exp/static/images/Set 6_rs/152a.jpg","86","","","","","","learn","SR",""
"","show_choice","86","112824","0.0-86.0","""event"",""trial"",""time""
""fullscreenenter"",""0"",""1305""
""blur"",""2"",""32961""
""focus"",""2"",""36859""
","""event"",""trial"",""time""
""blur"",""2"",""32961""
","""event"",""trial"",""time""
""focus"",""2"",""36859""
","""event"",""trial"",""time""
""fullscreenenter"",""0"",""1305""
","
","null","run_exp/static/images/Set 6_rs/152a.jpg","null","","","","","","learn","SR",""
"","html-keyboard-response","87","113339","0.0-87.0","""event"",""trial"",""time""
""fullscreenenter"",""0"",""1305""
""blur"",""2"",""32961""
""focus"",""2"",""36859""
","""event"",""trial"",""time""
""blur"",""2"",""32961""
","""event"",""trial"",""time""
""focus"",""2"",""36859""
","""event"",""trial"",""time""
""fullscreenenter"",""0"",""1305""
","
","null","<p></p>","null","","","","","","","",""
"","image","88","114302","0.0-88.0","""event"",""trial"",""time""
""fullscreenenter"",""0"",""1305""
""blur"",""2"",""32961""
""focus"",""2"",""36859""
","""event"",""trial"",""time""
""blur"",""2"",""32961""
","""event"",""trial"",""time""
""focus"",""2"",""36859""
","""event"",""trial"",""time""
""fullscreenenter"",""0"",""1305""
","
","960.5550000014773","run_exp/static/images/Set 6_rs/050a.jpg","86","","","","","","learn","SL",""
"","show_choice","89","115354","0.0-89.0","""event"",""trial"",""time""
""fullscreenenter"",""0"",""1305""
""blur"",""2"",""32961""
""focus"",""2"",""36859""
","""event"",""trial"",""time""
""blur"",""2"",""32961""
","""event"",""trial"",""time""
""focus"",""2"",""36859""
","""event"",""trial"",""time""
""fullscreenenter"",""0"",""1305""
","
","null","run_exp/static/images/Set 6_rs/050a.jpg","null","","","","","","learn","SL",""
"","html-keyboard-response","90","115857","0.0-90.0","""event"",""trial"",""time""
""fullscreenenter"",""0"",""1305""
""blur"",""2"",""32961""
""focus"",""2"",""36859""
","""event"",""trial"",""time""
""blur"",""2"",""32961""
","""event"",""trial"",""time""
""focus"",""2"",""36859""
","""event"",""trial"",""time""
""fullscreenenter"",""0"",""1305""
","
","null","<p></p>","null","","","","","","","",""
"","image","91","116686","0.0-91.0","""event"",""trial"",""time""
""fullscreenenter"",""0"",""1305""
""blur"",""2"",""32961""
""focus"",""2"",""36859""
","""event"",""trial"",""time""
""blur"",""2"",""32961""
","""event"",""trial"",""time""
""focus"",""2"",""36859""
","""event"",""trial"",""time""
""fullscreenenter"",""0"",""1305""
","
","826.6399999993155","run_exp/static/images/Set 6_rs/019a.jpg","86","","","","","","learn","SL",""
"","show_choice","92","117861","0.0-92.0","""event"",""trial"",""time""
""fullscreenenter"",""0"",""1305""
""blur"",""2"",""32961""
""focus"",""2"",""36859""
","""event"",""trial"",""time""
""blur"",""2"",""32961""
","""event"",""trial"",""time""
""focus"",""2"",""36859""
","""event"",""trial"",""time""
""fullscreenenter"",""0"",""1305""
","
","null","run_exp/static/images/Set 6_rs/019a.jpg","null","","","","","","learn","SL",""
"","html-keyboard-response","93","118373","0.0-93.0","""event"",""trial"",""time""
""fullscreenenter"",""0"",""1305""
""blur"",""2"",""32961""
""focus"",""2"",""36859""
","""event"",""trial"",""time""
""blur"",""2"",""32961""
","""event"",""trial"",""time""
""focus"",""2"",""36859""
","""event"",""trial"",""time""
""fullscreenenter"",""0"",""1305""
","
","null","<p></p>","null","","","","","","","",""
"","image","94","119045","0.0-94.0","""event"",""trial"",""time""
""fullscreenenter"",""0"",""1305""
""blur"",""2"",""32961""
""focus"",""2"",""36859""
","""event"",""trial"",""time""
""blur"",""2"",""32961""
","""event"",""trial"",""time""
""focus"",""2"",""36859""
","""event"",""trial"",""time""
""fullscreenenter"",""0"",""1305""
","
","670.7050000004529","run_exp/static/images/Set 6_rs/123a.jpg","78","","","","","","learn","SL",""
"","show_choice","95","120383","0.0-95.0","""event"",""trial"",""time""
""fullscreenenter"",""0"",""1305""
""blur"",""2"",""32961""
""focus"",""2"",""36859""
","""event"",""trial"",""time""
""blur"",""2"",""32961""
","""event"",""trial"",""time""
""focus"",""2"",""36859""
","""event"",""trial"",""time""
""fullscreenenter"",""0"",""1305""
","
","null","run_exp/static/images/Set 6_rs/123a.jpg","null","","","","","","learn","SL",""
"","html-keyboard-response","96","120889","0.0-96.0","""event"",""trial"",""time""
""fullscreenenter"",""0"",""1305""
""blur"",""2"",""32961""
""focus"",""2"",""36859""
","""event"",""trial"",""time""
""blur"",""2"",""32961""
","""event"",""trial"",""time""
""focus"",""2"",""36859""
","""event"",""trial"",""time""
""fullscreenenter"",""0"",""1305""
","
","null","<p></p>","null","","","","","","","",""
"","image","97","121766","0.0-97.0","""event"",""trial"",""time""
""fullscreenenter"",""0"",""1305""
""blur"",""2"",""32961""
""focus"",""2"",""36859""
","""event"",""trial"",""time""
""blur"",""2"",""32961""
","""event"",""trial"",""time""
""focus"",""2"",""36859""
","""event"",""trial"",""time""
""fullscreenenter"",""0"",""1305""
","
","874.69499999861","run_exp/static/images/Set 6_rs/108a.jpg","78","","","","","","learn","SR",""
"","show_choice","98","122907","0.0-98.0","""event"",""trial"",""time""
""fullscreenenter"",""0"",""1305""
""blur"",""2"",""32961""
""focus"",""2"",""36859""
","""event"",""trial"",""time""
""blur"",""2"",""32961""
","""event"",""trial"",""time""
""focus"",""2"",""36859""
","""event"",""trial"",""time""
""fullscreenenter"",""0"",""1305""
","
","null","run_exp/static/images/Set 6_rs/108a.jpg","null","","","","","","learn","SR",""
"","html-keyboard-response","99","123423","0.0-99.0","""event"",""trial"",""time""
""fullscreenenter"",""0"",""1305""
""blur"",""2"",""32961""
""focus"",""2"",""36859""
","""event"",""trial"",""time""
""blur"",""2"",""32961""
","""event"",""trial"",""time""
""focus"",""2"",""36859""
","""event"",""trial"",""time""
""fullscreenenter"",""0"",""1305""
","
","null","<p></p>","null","","","","","","","",""
"","image","100","124173","0.0-100.0","""event"",""trial"",""time""
""fullscreenenter"",""0"",""1305""
""blur"",""2"",""32961""
""focus"",""2"",""36859""
","""event"",""trial"",""time""
""blur"",""2"",""32961""
","""event"",""trial"",""time""
""focus"",""2"",""36859""
","""event"",""trial"",""time""
""fullscreenenter"",""0"",""1305""
","
","748.5799999994924","run_exp/static/images/Set 6_rs/166a.jpg","86","","","","","","learn","SR",""
"","show_choice","101","125440","0.0-101.0","""event"",""trial"",""time""
""fullscreenenter"",""0"",""1305""
""blur"",""2"",""32961""
""focus"",""2"",""36859""
","""event"",""trial"",""time""
""blur"",""2"",""32961""
","""event"",""trial"",""time""
""focus"",""2"",""36859""
","""event"",""trial"",""time""
""fullscreenenter"",""0"",""1305""
","
","null","run_exp/static/images/Set 6_rs/166a.jpg","null","","","","","","learn","SR",""
"","html-keyboard-response","102","125956","0.0-102.0","""event"",""trial"",""time""
""fullscreenenter"",""0"",""1305""
""blur"",""2"",""32961""
""focus"",""2"",""36859""
","""event"",""trial"",""time""
""blur"",""2"",""32961""
","""event"",""trial"",""time""
""focus"",""2"",""36859""
","""event"",""trial"",""time""
""fullscreenenter"",""0"",""1305""
","
","null","<p></p>","null","","","","","","","",""
"","image","103","126790","0.0-103.0","""event"",""trial"",""time""
""fullscreenenter"",""0"",""1305""
""blur"",""2"",""32961""
""focus"",""2"",""36859""
","""event"",""trial"",""time""
""blur"",""2"",""32961""
","""event"",""trial"",""time""
""focus"",""2"",""36859""
","""event"",""trial"",""time""
""fullscreenenter"",""0"",""1305""
","
","831.849999998667","run_exp/static/images/Set 6_rs/025a.jpg","78","","","","","","learn","SL",""
"","show_choice","104","127962","0.0-104.0","""event"",""trial"",""time""
""fullscreenenter"",""0"",""1305""
""blur"",""2"",""32961""
""focus"",""2"",""36859""
","""event"",""trial"",""time""
""blur"",""2"",""32961""
","""event"",""trial"",""time""
""focus"",""2"",""36859""
","""event"",""trial"",""time""
""fullscreenenter"",""0"",""1305""
","
","null","run_exp/static/images/Set 6_rs/025a.jpg","null","","","","","","learn","SL",""
"","html-keyboard-response","105","128472","0.0-105.0","""event"",""trial"",""time""
""fullscreenenter"",""0"",""1305""
""blur"",""2"",""32961""
""focus"",""2"",""36859""
","""event"",""trial"",""time""
""blur"",""2"",""32961""
","""event"",""trial"",""time""
""focus"",""2"",""36859""
","""event"",""trial"",""time""
""fullscreenenter"",""0"",""1305""
","
","null","<p></p>","null","","","","","","","",""
"","image","106","129550","0.0-106.0","""event"",""trial"",""time""
""fullscreenenter"",""0"",""1305""
""blur"",""2"",""32961""
""focus"",""2"",""36859""
","""event"",""trial"",""time""
""blur"",""2"",""32961""
","""event"",""trial"",""time""
""focus"",""2"",""36859""
","""event"",""trial"",""time""
""fullscreenenter"",""0"",""1305""
","
","1076.404999999795","run_exp/static/images/Set 6_rs/012a.jpg","86","","","","","","learn","SR",""
"","show_choice","107","130478","0.0-107.0","""event"",""trial"",""time""
""fullscreenenter"",""0"",""1305""
""blur"",""2"",""32961""
""focus"",""2"",""36859""
","""event"",""trial"",""time""
""blur"",""2"",""32961""
","""event"",""trial"",""time""
""focus"",""2"",""36859""
","""event"",""trial"",""time""
""fullscreenenter"",""0"",""1305""
","
","null","run_exp/static/images/Set 6_rs/012a.jpg","null","","","","","","learn","SR",""
"","html-keyboard-response","108","130980","0.0-108.0","""event"",""trial"",""time""
""fullscreenenter"",""0"",""1305""
""blur"",""2"",""32961""
""focus"",""2"",""36859""
","""event"",""trial"",""time""
""blur"",""2"",""32961""
","""event"",""trial"",""time""
""focus"",""2"",""36859""
","""event"",""trial"",""time""
""fullscreenenter"",""0"",""1305""
","
","null","<p></p>","null","","","","","","","",""
"","image","109","131885","0.0-109.0","""event"",""trial"",""time""
""fullscreenenter"",""0"",""1305""
""blur"",""2"",""32961""
""focus"",""2"",""36859""
","""event"",""trial"",""time""
""blur"",""2"",""32961""
","""event"",""trial"",""time""
""focus"",""2"",""36859""
","""event"",""trial"",""time""
""fullscreenenter"",""0"",""1305""
","
","903.2699999988836","run_exp/static/images/Set 6_rs/006a.jpg","86","","","","","","learn","SL",""
"","show_choice","110","132984","0.0-110.0","""event"",""trial"",""time""
""fullscreenenter"",""0"",""1305""
""blur"",""2"",""32961""
""focus"",""2"",""36859""
","""event"",""trial"",""time""
""blur"",""2"",""32961""
","""event"",""trial"",""time""
""focus"",""2"",""36859""
","""event"",""trial"",""time""
""fullscreenenter"",""0"",""1305""
","
","null","run_exp/static/images/Set 6_rs/006a.jpg","null","","","","","","learn","SL",""
"","html-keyboard-response","111","133491","0.0-111.0","""event"",""trial"",""time""
""fullscreenenter"",""0"",""1305""
""blur"",""2"",""32961""
""focus"",""2"",""36859""
","""event"",""trial"",""time""
""blur"",""2"",""32961""
","""event"",""trial"",""time""
""focus"",""2"",""36859""
","""event"",""trial"",""time""
""fullscreenenter"",""0"",""1305""
","
","null","<p></p>","null","","","","","","","",""
"","image","112","134269","0.0-112.0","""event"",""trial"",""time""
""fullscreenenter"",""0"",""1305""
""blur"",""2"",""32961""
""focus"",""2"",""36859""
","""event"",""trial"",""time""
""blur"",""2"",""32961""
","""event"",""trial"",""time""
""focus"",""2"",""36859""
","""event"",""trial"",""time""
""fullscreenenter"",""0"",""1305""
","
","776.6749999973399","run_exp/static/images/Set 6_rs/076a.jpg","78","","","","","","learn","SR",""
"","show_choice","113","135505","0.0-113.0","""event"",""trial"",""time""
""fullscreenenter"",""0"",""1305""
""blur"",""2"",""32961""
""focus"",""2"",""36859""
","""event"",""trial"",""time""
""blur"",""2"",""32961""
","""event"",""trial"",""time""
""focus"",""2"",""36859""
","""event"",""trial"",""time""
""fullscreenenter"",""0"",""1305""
","
","null","run_exp/static/images/Set 6_rs/076a.jpg","null","","","","","","learn","SR",""
"","html-keyboard-response","114","136006","0.0-114.0","""event"",""trial"",""time""
""fullscreenenter"",""0"",""1305""
""blur"",""2"",""32961""
""focus"",""2"",""36859""
","""event"",""trial"",""time""
""blur"",""2"",""32961""
","""event"",""trial"",""time""
""focus"",""2"",""36859""
","""event"",""trial"",""time""
""fullscreenenter"",""0"",""1305""
","
","null","<p></p>","null","","","","","","","",""
"","image","115","137174","0.0-115.0","""event"",""trial"",""time""
""fullscreenenter"",""0"",""1305""
""blur"",""2"",""32961""
""focus"",""2"",""36859""
","""event"",""trial"",""time""
""blur"",""2"",""32961""
","""event"",""trial"",""time""
""focus"",""2"",""36859""
","""event"",""trial"",""time""
""fullscreenenter"",""0"",""1305""
","
","1165.290000000823","run_exp/static/images/Set 6_rs/057a.jpg","86","","","","","","learn","SL",""
"","show_choice","116","138019","0.0-116.0","""event"",""trial"",""time""
""fullscreenenter"",""0"",""1305""
""blur"",""2"",""32961""
""focus"",""2"",""36859""
","""event"",""trial"",""time""
""blur"",""2"",""32961""
","""event"",""trial"",""time""
""focus"",""2"",""36859""
","""event"",""trial"",""time""
""fullscreenenter"",""0"",""1305""
","
","null","run_exp/static/images/Set 6_rs/057a.jpg","null","","","","","","learn","SL",""
"","html-keyboard-response","117","138524","0.0-117.0","""event"",""trial"",""time""
""fullscreenenter"",""0"",""1305""
""blur"",""2"",""32961""
""focus"",""2"",""36859""
","""event"",""trial"",""time""
""blur"",""2"",""32961""
","""event"",""trial"",""time""
""focus"",""2"",""36859""
","""event"",""trial"",""time""
""fullscreenenter"",""0"",""1305""
","
","null","<p></p>","null","","","","","","","",""
"","image","118","139390","0.0-118.0","""event"",""trial"",""time""
""fullscreenenter"",""0"",""1305""
""blur"",""2"",""32961""
""focus"",""2"",""36859""
","""event"",""trial"",""time""
""blur"",""2"",""32961""
","""event"",""trial"",""time""
""focus"",""2"",""36859""
","""event"",""trial"",""time""
""fullscreenenter"",""0"",""1305""
","
","863.710000001447","run_exp/static/images/Set 6_rs/017a.jpg","78","","","","","","learn","SL",""
"","show_choice","119","140543","0.0-119.0","""event"",""trial"",""time""
""fullscreenenter"",""0"",""1305""
""blur"",""2"",""32961""
""focus"",""2"",""36859""
","""event"",""trial"",""time""
""blur"",""2"",""32961""
","""event"",""trial"",""time""
""focus"",""2"",""36859""
","""event"",""trial"",""time""
""fullscreenenter"",""0"",""1305""
","
","null","run_exp/static/images/Set 6_rs/017a.jpg","null","","","","","","learn","SL",""
"","html-keyboard-response","120","141045","0.0-120.0","""event"",""trial"",""time""
""fullscreenenter"",""0"",""1305""
""blur"",""2"",""32961""
""focus"",""2"",""36859""
","""event"",""trial"",""time""
""blur"",""2"",""32961""
","""event"",""trial"",""time""
""focus"",""2"",""36859""
","""event"",""trial"",""time""
""fullscreenenter"",""0"",""1305""
","
","null","<p></p>","null","","","","","","","",""
"","image","121","142109","0.0-121.0","""event"",""trial"",""time""
""fullscreenenter"",""0"",""1305""
""blur"",""2"",""32961""
""focus"",""2"",""36859""
","""event"",""trial"",""time""
""blur"",""2"",""32961""
","""event"",""trial"",""time""
""focus"",""2"",""36859""
","""event"",""trial"",""time""
""fullscreenenter"",""0"",""1305""
","
","1062.354999998206","run_exp/static/images/Set 6_rs/134a.jpg","86","","","","","","learn","SR",""
"","show_choice","122","143056","0.0-122.0","""event"",""trial"",""time""
""fullscreenenter"",""0"",""1305""
""blur"",""2"",""32961""
""focus"",""2"",""36859""
","""event"",""trial"",""time""
""blur"",""2"",""32961""
","""event"",""trial"",""time""
""focus"",""2"",""36859""
","""event"",""trial"",""time""
""fullscreenenter"",""0"",""1305""
","
","null","run_exp/static/images/Set 6_rs/134a.jpg","null","","","","","","learn","SR",""
"","html-keyboard-response","123","143572","0.0-123.0","""event"",""trial"",""time""
""fullscreenenter"",""0"",""1305""
""blur"",""2"",""32961""
""focus"",""2"",""36859""
","""event"",""trial"",""time""
""blur"",""2"",""32961""
","""event"",""trial"",""time""
""focus"",""2"",""36859""
","""event"",""trial"",""time""
""fullscreenenter"",""0"",""1305""
","
","null","<p></p>","null","","","","","","","",""
"","image","124","144542","0.0-124.0","""event"",""trial"",""time""
""fullscreenenter"",""0"",""1305""
""blur"",""2"",""32961""
""focus"",""2"",""36859""
","""event"",""trial"",""time""
""blur"",""2"",""32961""
","""event"",""trial"",""time""
""focus"",""2"",""36859""
","""event"",""trial"",""time""
""fullscreenenter"",""0"",""1305""
","
","967.6399999989371","run_exp/static/images/Set 6_rs/008a.jpg","86","","","","","","learn","SL",""
"","show_choice","125","145591","0.0-125.0","""event"",""trial"",""time""
""fullscreenenter"",""0"",""1305""
""blur"",""2"",""32961""
""focus"",""2"",""36859""
","""event"",""trial"",""time""
""blur"",""2"",""32961""
","""event"",""trial"",""time""
""focus"",""2"",""36859""
","""event"",""trial"",""time""
""fullscreenenter"",""0"",""1305""
","
","null","run_exp/static/images/Set 6_rs/008a.jpg","null","","","","","","learn","SL",""
"","html-keyboard-response","126","146106","0.0-126.0","""event"",""trial"",""time""
""fullscreenenter"",""0"",""1305""
""blur"",""2"",""32961""
""focus"",""2"",""36859""
","""event"",""trial"",""time""
""blur"",""2"",""32961""
","""event"",""trial"",""time""
""focus"",""2"",""36859""
","""event"",""trial"",""time""
""fullscreenenter"",""0"",""1305""
","
","null","<p></p>","null","","","","","","","",""
"","image","127","147005","0.0-127.0","""event"",""trial"",""time""
""fullscreenenter"",""0"",""1305""
""blur"",""2"",""32961""
""focus"",""2"",""36859""
","""event"",""trial"",""time""
""blur"",""2"",""32961""
","""event"",""trial"",""time""
""focus"",""2"",""36859""
","""event"",""trial"",""time""
""fullscreenenter"",""0"",""1305""
","
","896.7149999989488","run_exp/static/images/Set 6_rs/010a.jpg","86","","","","","","learn","SR",""
"","show_choice","128","148116","0.0-128.0","""event"",""trial"",""time""
""fullscreenenter"",""0"",""1305""
""blur"",""2"",""32961""
""focus"",""2"",""36859""
","""event"",""trial"",""time""
""blur"",""2"",""32961""
","""event"",""trial"",""time""
""focus"",""2"",""36859""
","""event"",""trial"",""time""
""fullscreenenter"",""0"",""1305""
","
","null","run_exp/static/images/Set 6_rs/010a.jpg","null","","","","","","learn","SR",""
"","html-keyboard-response","129","148622","0.0-129.0","""event"",""trial"",""time""
""fullscreenenter"",""0"",""1305""
""blur"",""2"",""32961""
""focus"",""2"",""36859""
","""event"",""trial"",""time""
""blur"",""2"",""32961""
","""event"",""trial"",""time""
""focus"",""2"",""36859""
","""event"",""trial"",""time""
""fullscreenenter"",""0"",""1305""
","
","null","<p></p>","null","","","","","","","",""
"","image","130","149614","0.0-130.0","""event"",""trial"",""time""
""fullscreenenter"",""0"",""1305""
""blur"",""2"",""32961""
""focus"",""2"",""36859""
","""event"",""trial"",""time""
""blur"",""2"",""32961""
","""event"",""trial"",""time""
""focus"",""2"",""36859""
","""event"",""trial"",""time""
""fullscreenenter"",""0"",""1305""
","
","989.7400000008929","run_exp/static/images/Set 6_rs/074a.jpg","86","","","","","","learn","SL",""
"","show_choice","131","150627","0.0-131.0","""event"",""trial"",""time""
""fullscreenenter"",""0"",""1305""
""blur"",""2"",""32961""
""focus"",""2"",""36859""
","""event"",""trial"",""time""
""blur"",""2"",""32961""
","""event"",""trial"",""time""
""focus"",""2"",""36859""
","""event"",""trial"",""time""
""fullscreenenter"",""0"",""1305""
","
","null","run_exp/static/images/Set 6_rs/074a.jpg","null","","","","","","learn","SL",""
"","html-keyboard-response","132","151129","0.0-132.0","""event"",""trial"",""time""
""fullscreenenter"",""0"",""1305""
""blur"",""2"",""32961""
""focus"",""2"",""36859""
","""event"",""trial"",""time""
""blur"",""2"",""32961""
","""event"",""trial"",""time""
""focus"",""2"",""36859""
","""event"",""trial"",""time""
""fullscreenenter"",""0"",""1305""
","
","null","<p></p>","null","","","","","","","",""
"","image","133","151782","0.0-133.0","""event"",""trial"",""time""
""fullscreenenter"",""0"",""1305""
""blur"",""2"",""32961""
""focus"",""2"",""36859""
","""event"",""trial"",""time""
""blur"",""2"",""32961""
","""event"",""trial"",""time""
""focus"",""2"",""36859""
","""event"",""trial"",""time""
""fullscreenenter"",""0"",""1305""
","
","650.485000001936","run_exp/static/images/Set 6_rs/178a.jpg","78","","","","","","learn","SR",""
"","show_choice","134","153137","0.0-134.0","""event"",""trial"",""time""
""fullscreenenter"",""0"",""1305""
""blur"",""2"",""32961""
""focus"",""2"",""36859""
","""event"",""trial"",""time""
""blur"",""2"",""32961""
","""event"",""trial"",""time""
""focus"",""2"",""36859""
","""event"",""trial"",""time""
""fullscreenenter"",""0"",""1305""
","
","null","run_exp/static/images/Set 6_rs/178a.jpg","null","","","","","","learn","SR",""
"","html-keyboard-response","135","153647","0.0-135.0","""event"",""trial"",""time""
""fullscreenenter"",""0"",""1305""
""blur"",""2"",""32961""
""focus"",""2"",""36859""
","""event"",""trial"",""time""
""blur"",""2"",""32961""
","""event"",""trial"",""time""
""focus"",""2"",""36859""
","""event"",""trial"",""time""
""fullscreenenter"",""0"",""1305""
","
","null","<p></p>","null","","","","","","","",""
"","image","136","154510","0.0-136.0","""event"",""trial"",""time""
""fullscreenenter"",""0"",""1305""
""blur"",""2"",""32961""
""focus"",""2"",""36859""
","""event"",""trial"",""time""
""blur"",""2"",""32961""
","""event"",""trial"",""time""
""focus"",""2"",""36859""
","""event"",""trial"",""time""
""fullscreenenter"",""0"",""1305""
","
","860.9700000015437","run_exp/static/images/Set 6_rs/129a.jpg","86","","","","","","learn","SL",""
"","show_choice","137","155664","0.0-137.0","""event"",""trial"",""time""
""fullscreenenter"",""0"",""1305""
""blur"",""2"",""32961""
""focus"",""2"",""36859""
","""event"",""trial"",""time""
""blur"",""2"",""32961""
","""event"",""trial"",""time""
""focus"",""2"",""36859""
","""event"",""trial"",""time""
""fullscreenenter"",""0"",""1305""
","
","null","run_exp/static/images/Set 6_rs/129a.jpg","null","","","","","","learn","SL",""
"","html-keyboard-response","138","156173","0.0-138.0","""event"",""trial"",""time""
""fullscreenenter"",""0"",""1305""
""blur"",""2"",""32961""
""focus"",""2"",""36859""
","""event"",""trial"",""time""
""blur"",""2"",""32961""
","""event"",""trial"",""time""
""focus"",""2"",""36859""
","""event"",""trial"",""time""
""fullscreenenter"",""0"",""1305""
","
","null","<p></p>","null","","","","","","","",""
"","image","139","157166","0.0-139.0","""event"",""trial"",""time""
""fullscreenenter"",""0"",""1305""
""blur"",""2"",""32961""
""focus"",""2"",""36859""
","""event"",""trial"",""time""
""blur"",""2"",""32961""
","""event"",""trial"",""time""
""focus"",""2"",""36859""
","""event"",""trial"",""time""
""fullscreenenter"",""0"",""1305""
","
","990.894999999","run_exp/static/images/Set 6_rs/089a.jpg","86","","","","","","learn","SL",""
"","show_choice","140","158184","0.0-140.0","""event"",""trial"",""time""
""fullscreenenter"",""0"",""1305""
""blur"",""2"",""32961""
""focus"",""2"",""36859""
","""event"",""trial"",""time""
""blur"",""2"",""32961""
","""event"",""trial"",""time""
""focus"",""2"",""36859""
","""event"",""trial"",""time""
""fullscreenenter"",""0"",""1305""
","
","null","run_exp/static/images/Set 6_rs/089a.jpg","null","","","","","","learn","SL",""
"","html-keyboard-response","141","158691","0.0-141.0","""event"",""trial"",""time""
""fullscreenenter"",""0"",""1305""
""blur"",""2"",""32961""
""focus"",""2"",""36859""
","""event"",""trial"",""time""
""blur"",""2"",""32961""
","""event"",""trial"",""time""
""focus"",""2"",""36859""
","""event"",""trial"",""time""
""fullscreenenter"",""0"",""1305""
","
","null","<p></p>","null","","","","","","","",""
"","image","142","159390","0.0-142.0","""event"",""trial"",""time""
""fullscreenenter"",""0"",""1305""
""blur"",""2"",""32961""
""focus"",""2"",""36859""
","""event"",""trial"",""time""
""blur"",""2"",""32961""
","""event"",""trial"",""time""
""focus"",""2"",""36859""
","""event"",""trial"",""time""
""fullscreenenter"",""0"",""1305""
","
","697.055000000546","run_exp/static/images/Set 6_rs/132a.jpg","86","","","","","","learn","SR",""
"","show_choice","143","160704","0.0-143.0","""event"",""trial"",""time""
""fullscreenenter"",""0"",""1305""
""blur"",""2"",""32961""
""focus"",""2"",""36859""
","""event"",""trial"",""time""
""blur"",""2"",""32961""
","""event"",""trial"",""time""
""focus"",""2"",""36859""
","""event"",""trial"",""time""
""fullscreenenter"",""0"",""1305""
","
","null","run_exp/static/images/Set 6_rs/132a.jpg","null","","","","","","learn","SR",""
"","html-keyboard-response","144","161208","0.0-144.0","""event"",""trial"",""time""
""fullscreenenter"",""0"",""1305""
""blur"",""2"",""32961""
""focus"",""2"",""36859""
","""event"",""trial"",""time""
""blur"",""2"",""32961""
","""event"",""trial"",""time""
""focus"",""2"",""36859""
","""event"",""trial"",""time""
""fullscreenenter"",""0"",""1305""
","
","null","<p></p>","null","","","","","","","",""
"","image","145","162879","0.0-145.0","""event"",""trial"",""time""
""fullscreenenter"",""0"",""1305""
""blur"",""2"",""32961""
""focus"",""2"",""36859""
","""event"",""trial"",""time""
""blur"",""2"",""32961""
","""event"",""trial"",""time""
""focus"",""2"",""36859""
","""event"",""trial"",""time""
""fullscreenenter"",""0"",""1305""
","
","1669.0549999984796","run_exp/static/images/Set 6_rs/172a.jpg","78","","","","","","learn","SR",""
"","show_choice","146","163212","0.0-146.0","""event"",""trial"",""time""
""fullscreenenter"",""0"",""1305""
""blur"",""2"",""32961""
""focus"",""2"",""36859""
","""event"",""trial"",""time""
""blur"",""2"",""32961""
","""event"",""trial"",""time""
""focus"",""2"",""36859""
","""event"",""trial"",""time""
""fullscreenenter"",""0"",""1305""
","
","null","run_exp/static/images/Set 6_rs/172a.jpg","null","","","","","","learn","SR",""
"","html-keyboard-response","147","163714","0.0-147.0","""event"",""trial"",""time""
""fullscreenenter"",""0"",""1305""
""blur"",""2"",""32961""
""focus"",""2"",""36859""
","""event"",""trial"",""time""
""blur"",""2"",""32961""
","""event"",""trial"",""time""
""focus"",""2"",""36859""
","""event"",""trial"",""time""
""fullscreenenter"",""0"",""1305""
","
","null","<p></p>","null","","","","","","","",""
"","image","148","164526","0.0-148.0","""event"",""trial"",""time""
""fullscreenenter"",""0"",""1305""
""blur"",""2"",""32961""
""focus"",""2"",""36859""
","""event"",""trial"",""time""
""blur"",""2"",""32961""
","""event"",""trial"",""time""
""focus"",""2"",""36859""
","""event"",""trial"",""time""
""fullscreenenter"",""0"",""1305""
","
","810.4749999984051","run_exp/static/images/Set 6_rs/168a.jpg","78","","","","","","learn","SL",""
"","show_choice","149","165727","0.0-149.0","""event"",""trial"",""time""
""fullscreenenter"",""0"",""1305""
""blur"",""2"",""32961""
""focus"",""2"",""36859""
","""event"",""trial"",""time""
""blur"",""2"",""32961""
","""event"",""trial"",""time""
""focus"",""2"",""36859""
","""event"",""trial"",""time""
""fullscreenenter"",""0"",""1305""
","
","null","run_exp/static/images/Set 6_rs/168a.jpg","null","","","","","","learn","SL",""
"","html-keyboard-response","150","166240","0.0-150.0","""event"",""trial"",""time""
""fullscreenenter"",""0"",""1305""
""blur"",""2"",""32961""
""focus"",""2"",""36859""
","""event"",""trial"",""time""
""blur"",""2"",""32961""
","""event"",""trial"",""time""
""focus"",""2"",""36859""
","""event"",""trial"",""time""
""fullscreenenter"",""0"",""1305""
","
","null","<p></p>","null","","","","","","","",""
"","image","151","166742","0.0-151.0","""event"",""trial"",""time""
""fullscreenenter"",""0"",""1305""
""blur"",""2"",""32961""
""focus"",""2"",""36859""
""blur"",""152"",""168016""
","""event"",""trial"",""time""
""blur"",""2"",""32961""
""blur"",""152"",""168016""
","""event"",""trial"",""time""
""focus"",""2"",""36859""
","""event"",""trial"",""time""
""fullscreenenter"",""0"",""1305""
","
","499.3350000004284","run_exp/static/images/Set 6_rs/073a.jpg","86","","","","","","learn","SL",""
"","show_choice","152","168249","0.0-152.0","""event"",""trial"",""time""
""fullscreenenter"",""0"",""1305""
""blur"",""2"",""32961""
""focus"",""2"",""36859""
""blur"",""152"",""168016""
","""event"",""trial"",""time""
""blur"",""2"",""32961""
""blur"",""152"",""168016""
","""event"",""trial"",""time""
""focus"",""2"",""36859""
","""event"",""trial"",""time""
""fullscreenenter"",""0"",""1305""
","
","null","run_exp/static/images/Set 6_rs/073a.jpg","null","","","","","","learn","SL",""
"","html-keyboard-response","153","168750","0.0-153.0","""event"",""trial"",""time""
""fullscreenenter"",""0"",""1305""
""blur"",""2"",""32961""
""focus"",""2"",""36859""
""blur"",""152"",""168016""
","""event"",""trial"",""time""
""blur"",""2"",""32961""
""blur"",""152"",""168016""
","""event"",""trial"",""time""
""focus"",""2"",""36859""
","""event"",""trial"",""time""
""fullscreenenter"",""0"",""1305""
","
","null","<p></p>","null","","","","","","","",""
"","image","154","170768","0.0-154.0","""event"",""trial"",""time""
""fullscreenenter"",""0"",""1305""
""blur"",""2"",""32961""
""focus"",""2"",""36859""
""blur"",""152"",""168016""
","""event"",""trial"",""time""
""blur"",""2"",""32961""
""blur"",""152"",""168016""
","""event"",""trial"",""time""
""focus"",""2"",""36859""
","""event"",""trial"",""time""
""fullscreenenter"",""0"",""1305""
","
","null","run_exp/static/images/Set 6_rs/061a.jpg","null","","","","","","learn","SR",""
"","show_choice","155","172775","0.0-155.0","""event"",""trial"",""time""
""fullscreenenter"",""0"",""1305""
""blur"",""2"",""32961""
""focus"",""2"",""36859""
""blur"",""152"",""168016""
","""event"",""trial"",""time""
""blur"",""2"",""32961""
""blur"",""152"",""168016""
","""event"",""trial"",""time""
""focus"",""2"",""36859""
","""event"",""trial"",""time""
""fullscreenenter"",""0"",""1305""
","
","null","run_exp/static/images/blank.png","null","","","","","","learn","SR",""
"","html-keyboard-response","156","173291","0.0-156.0","""event"",""trial"",""time""
""fullscreenenter"",""0"",""1305""
""blur"",""2"",""32961""
""focus"",""2"",""36859""
""blur"",""152"",""168016""
","""event"",""trial"",""time""
""blur"",""2"",""32961""
""blur"",""152"",""168016""
","""event"",""trial"",""time""
""focus"",""2"",""36859""
","""event"",""trial"",""time""
""fullscreenenter"",""0"",""1305""
","
","null","<p></p>","null","","","","","","","",""
"","image","157","175294","0.0-157.0","""event"",""trial"",""time""
""fullscreenenter"",""0"",""1305""
""blur"",""2"",""32961""
""focus"",""2"",""36859""
""blur"",""152"",""168016""
""focus"",""158"",""176793""
","""event"",""trial"",""time""
""blur"",""2"",""32961""
""blur"",""152"",""168016""
","""event"",""trial"",""time""
""focus"",""2"",""36859""
""focus"",""158"",""176793""
","""event"",""trial"",""time""
""fullscreenenter"",""0"",""1305""
","
","null","run_exp/static/images/Set 6_rs/177a.jpg","null","","","","","","learn","SR",""
"","show_choice","158","177302","0.0-158.0","""event"",""trial"",""time""
""fullscreenenter"",""0"",""1305""
""blur"",""2"",""32961""
""focus"",""2"",""36859""
""blur"",""152"",""168016""
""focus"",""158"",""176793""
","""event"",""trial"",""time""
""blur"",""2"",""32961""
""blur"",""152"",""168016""
","""event"",""trial"",""time""
""focus"",""2"",""36859""
""focus"",""158"",""176793""
","""event"",""trial"",""time""
""fullscreenenter"",""0"",""1305""
","
","null","run_exp/static/images/blank.png","null","","","","","","learn","SR",""
"","html-keyboard-response","159","177805","0.0-159.0","""event"",""trial"",""time""
""fullscreenenter"",""0"",""1305""
""blur"",""2"",""32961""
""focus"",""2"",""36859""
""blur"",""152"",""168016""
""focus"",""158"",""176793""
","""event"",""trial"",""time""
""blur"",""2"",""32961""
""blur"",""152"",""168016""
","""event"",""trial"",""time""
""focus"",""2"",""36859""
""focus"",""158"",""176793""
","""event"",""trial"",""time""
""fullscreenenter"",""0"",""1305""
","
","null","<p></p>","null","","","","","","","",""
"","image","160","178334","0.0-160.0","""event"",""trial"",""time""
""fullscreenenter"",""0"",""1305""
""blur"",""2"",""32961""
""focus"",""2"",""36859""
""blur"",""152"",""168016""
""focus"",""158"",""176793""
","""event"",""trial"",""time""
""blur"",""2"",""32961""
""blur"",""152"",""168016""
","""event"",""trial"",""time""
""focus"",""2"",""36859""
""focus"",""158"",""176793""
","""event"",""trial"",""time""
""fullscreenenter"",""0"",""1305""
","
","527.2550000008778","run_exp/static/images/Set 6_rs/070a.jpg","78","","","","","","learn","SR",""
"","show_choice","161","179817","0.0-161.0","""event"",""trial"",""time""
""fullscreenenter"",""0"",""1305""
""blur"",""2"",""32961""
""focus"",""2"",""36859""
""blur"",""152"",""168016""
""focus"",""158"",""176793""
","""event"",""trial"",""time""
""blur"",""2"",""32961""
""blur"",""152"",""168016""
","""event"",""trial"",""time""
""focus"",""2"",""36859""
""focus"",""158"",""176793""
","""event"",""trial"",""time""
""fullscreenenter"",""0"",""1305""
","
","null","run_exp/static/images/Set 6_rs/070a.jpg","null","","","","","","learn","SR",""
"","html-keyboard-response","162","180329","0.0-162.0","""event"",""trial"",""time""
""fullscreenenter"",""0"",""1305""
""blur"",""2"",""32961""
""focus"",""2"",""36859""
""blur"",""152"",""168016""
""focus"",""158"",""176793""
","""event"",""trial"",""time""
""blur"",""2"",""32961""
""blur"",""152"",""168016""
","""event"",""trial"",""time""
""focus"",""2"",""36859""
""focus"",""158"",""176793""
","""event"",""trial"",""time""
""fullscreenenter"",""0"",""1305""
","
","null","<p></p>","null","","","","","","","",""
"","image","163","180838","0.0-163.0","""event"",""trial"",""time""
""fullscreenenter"",""0"",""1305""
""blur"",""2"",""32961""
""focus"",""2"",""36859""
""blur"",""152"",""168016""
""focus"",""158"",""176793""
""blur"",""164"",""181232""
","""event"",""trial"",""time""
""blur"",""2"",""32961""
""blur"",""152"",""168016""
""blur"",""164"",""181232""
","""event"",""trial"",""time""
""focus"",""2"",""36859""
""focus"",""158"",""176793""
","""event"",""trial"",""time""
""fullscreenenter"",""0"",""1305""
","
","507.1600000010221","run_exp/static/images/Set 6_rs/063a.jpg","86","","","","","","learn","SR",""
"","show_choice","164","182344","0.0-164.0","""event"",""trial"",""time""
""fullscreenenter"",""0"",""1305""
""blur"",""2"",""32961""
""focus"",""2"",""36859""
""blur"",""152"",""168016""
""focus"",""158"",""176793""
""blur"",""164"",""181232""
","""event"",""trial"",""time""
""blur"",""2"",""32961""
""blur"",""152"",""168016""
""blur"",""164"",""181232""
","""event"",""trial"",""time""
""focus"",""2"",""36859""
""focus"",""158"",""176793""
","""event"",""trial"",""time""
""fullscreenenter"",""0"",""1305""
","
","null","run_exp/static/images/Set 6_rs/063a.jpg","null","","","","","","learn","SR",""
"","html-keyboard-response","165","182846","0.0-165.0","""event"",""trial"",""time""
""fullscreenenter"",""0"",""1305""
""blur"",""2"",""32961""
""focus"",""2"",""36859""
""blur"",""152"",""168016""
""focus"",""158"",""176793""
""blur"",""164"",""181232""
""focus"",""166"",""184601""
","""event"",""trial"",""time""
""blur"",""2"",""32961""
""blur"",""152"",""168016""
""blur"",""164"",""181232""
","""event"",""trial"",""time""
""focus"",""2"",""36859""
""focus"",""158"",""176793""
""focus"",""166"",""184601""
","""event"",""trial"",""time""
""fullscreenenter"",""0"",""1305""
","
","null","<p></p>","null","","","","","","","",""
"","image","166","184849","0.0-166.0","""event"",""trial"",""time""
""fullscreenenter"",""0"",""1305""
""blur"",""2"",""32961""
""focus"",""2"",""36859""
""blur"",""152"",""168016""
""focus"",""158"",""176793""
""blur"",""164"",""181232""
""focus"",""166"",""184601""
""blur"",""167"",""186606""
","""event"",""trial"",""time""
""blur"",""2"",""32961""
""blur"",""152"",""168016""
""blur"",""164"",""181232""
""blur"",""167"",""186606""
","""event"",""trial"",""time""
""focus"",""2"",""36859""
""focus"",""158"",""176793""
""focus"",""166"",""184601""
","""event"",""trial"",""time""
""fullscreenenter"",""0"",""1305""
","
","null","run_exp/static/images/Set 6_rs/085a.jpg","null","","","","","","learn","SL",""
"","show_choice","167","186865","0.0-167.0","""event"",""trial"",""time""
""fullscreenenter"",""0"",""1305""
""blur"",""2"",""32961""
""focus"",""2"",""36859""
""blur"",""152"",""168016""
""focus"",""158"",""176793""
""blur"",""164"",""181232""
""focus"",""166"",""184601""
""blur"",""167"",""186606""
","""event"",""trial"",""time""
""blur"",""2"",""32961""
""blur"",""152"",""168016""
""blur"",""164"",""181232""
""blur"",""167"",""186606""
","""event"",""trial"",""time""
""focus"",""2"",""36859""
""focus"",""158"",""176793""
""focus"",""166"",""184601""
","""event"",""trial"",""time""
""fullscreenenter"",""0"",""1305""
","
","null","run_exp/static/images/blank.png","null","","","","","","learn","SL",""
"","html-keyboard-response","168","187367","0.0-168.0","""event"",""trial"",""time""
""fullscreenenter"",""0"",""1305""
""blur"",""2"",""32961""
""focus"",""2"",""36859""
""blur"",""152"",""168016""
""focus"",""158"",""176793""
""blur"",""164"",""181232""
""focus"",""166"",""184601""
""blur"",""167"",""186606""
","""event"",""trial"",""time""
""blur"",""2"",""32961""
""blur"",""152"",""168016""
""blur"",""164"",""181232""
""blur"",""167"",""186606""
","""event"",""trial"",""time""
""focus"",""2"",""36859""
""focus"",""158"",""176793""
""focus"",""166"",""184601""
","""event"",""trial"",""time""
""fullscreenenter"",""0"",""1305""
","
","null","<p></p>","null","","","","","","","",""
"","image","169","189376","0.0-169.0","""event"",""trial"",""time""
""fullscreenenter"",""0"",""1305""
""blur"",""2"",""32961""
""focus"",""2"",""36859""
""blur"",""152"",""168016""
""focus"",""158"",""176793""
""blur"",""164"",""181232""
""focus"",""166"",""184601""
""blur"",""167"",""186606""
","""event"",""trial"",""time""
""blur"",""2"",""32961""
""blur"",""152"",""168016""
""blur"",""164"",""181232""
""blur"",""167"",""186606""
","""event"",""trial"",""time""
""focus"",""2"",""36859""
""focus"",""158"",""176793""
""focus"",""166"",""184601""
","""event"",""trial"",""time""
""fullscreenenter"",""0"",""1305""
","
","null","run_exp/static/images/Set 6_rs/088a.jpg","null","","","","","","learn","SR",""
"","show_choice","170","191381","0.0-170.0","""event"",""trial"",""time""
""fullscreenenter"",""0"",""1305""
""blur"",""2"",""32961""
""focus"",""2"",""36859""
""blur"",""152"",""168016""
""focus"",""158"",""176793""
""blur"",""164"",""181232""
""focus"",""166"",""184601""
""blur"",""167"",""186606""
","""event"",""trial"",""time""
""blur"",""2"",""32961""
""blur"",""152"",""168016""
""blur"",""164"",""181232""
""blur"",""167"",""186606""
","""event"",""trial"",""time""
""focus"",""2"",""36859""
""focus"",""158"",""176793""
""focus"",""166"",""184601""
","""event"",""trial"",""time""
""fullscreenenter"",""0"",""1305""
","
","null","run_exp/static/images/blank.png","null","","","","","","learn","SR",""
"","html-keyboard-response","171","191894","0.0-171.0","""event"",""trial"",""time""
""fullscreenenter"",""0"",""1305""
""blur"",""2"",""32961""
""focus"",""2"",""36859""
""blur"",""152"",""168016""
""focus"",""158"",""176793""
""blur"",""164"",""181232""
""focus"",""166"",""184601""
""blur"",""167"",""186606""
","""event"",""trial"",""time""
""blur"",""2"",""32961""
""blur"",""152"",""168016""
""blur"",""164"",""181232""
""blur"",""167"",""186606""
","""event"",""trial"",""time""
""focus"",""2"",""36859""
""focus"",""158"",""176793""
""focus"",""166"",""184601""
","""event"",""trial"",""time""
""fullscreenenter"",""0"",""1305""
","
","null","<p></p>","null","","","","","","","",""
"","image","172","193898","0.0-172.0","""event"",""trial"",""time""
""fullscreenenter"",""0"",""1305""
""blur"",""2"",""32961""
""focus"",""2"",""36859""
""blur"",""152"",""168016""
""focus"",""158"",""176793""
""blur"",""164"",""181232""
""focus"",""166"",""184601""
""blur"",""167"",""186606""
""focus"",""173"",""195445""
","""event"",""trial"",""time""
""blur"",""2"",""32961""
""blur"",""152"",""168016""
""blur"",""164"",""181232""
""blur"",""167"",""186606""
","""event"",""trial"",""time""
""focus"",""2"",""36859""
""focus"",""158"",""176793""
""focus"",""166"",""184601""
""focus"",""173"",""195445""
","""event"",""trial"",""time""
""fullscreenenter"",""0"",""1305""
","
","null","run_exp/static/images/Set 6_rs/016a.jpg","null","","","","","","learn","SL",""
"","show_choice","173","195901","0.0-173.0","""event"",""trial"",""time""
""fullscreenenter"",""0"",""1305""
""blur"",""2"",""32961""
""focus"",""2"",""36859""
""blur"",""152"",""168016""
""focus"",""158"",""176793""
""blur"",""164"",""181232""
""focus"",""166"",""184601""
""blur"",""167"",""186606""
""focus"",""173"",""195445""
","""event"",""trial"",""time""
""blur"",""2"",""32961""
""blur"",""152"",""168016""
""blur"",""164"",""181232""
""blur"",""167"",""186606""
","""event"",""trial"",""time""
""focus"",""2"",""36859""
""focus"",""158"",""176793""
""focus"",""166"",""184601""
""focus"",""173"",""195445""
","""event"",""trial"",""time""
""fullscreenenter"",""0"",""1305""
","
","null","run_exp/static/images/blank.png","null","","","","","","learn","SL",""
"","html-keyboard-response","174","196413","0.0-174.0","""event"",""trial"",""time""
""fullscreenenter"",""0"",""1305""
""blur"",""2"",""32961""
""focus"",""2"",""36859""
""blur"",""152"",""168016""
""focus"",""158"",""176793""
""blur"",""164"",""181232""
""focus"",""166"",""184601""
""blur"",""167"",""186606""
""focus"",""173"",""195445""
","""event"",""trial"",""time""
""blur"",""2"",""32961""
""blur"",""152"",""168016""
""blur"",""164"",""181232""
""blur"",""167"",""186606""
","""event"",""trial"",""time""
""focus"",""2"",""36859""
""focus"",""158"",""176793""
""focus"",""166"",""184601""
""focus"",""173"",""195445""
","""event"",""trial"",""time""
""fullscreenenter"",""0"",""1305""
","
","null","<p></p>","null","","","","","","","",""
"","image","175","197926","0.0-175.0","""event"",""trial"",""time""
""fullscreenenter"",""0"",""1305""
""blur"",""2"",""32961""
""focus"",""2"",""36859""
""blur"",""152"",""168016""
""focus"",""158"",""176793""
""blur"",""164"",""181232""
""focus"",""166"",""184601""
""blur"",""167"",""186606""
""focus"",""173"",""195445""
","""event"",""trial"",""time""
""blur"",""2"",""32961""
""blur"",""152"",""168016""
""blur"",""164"",""181232""
""blur"",""167"",""186606""
","""event"",""trial"",""time""
""focus"",""2"",""36859""
""focus"",""158"",""176793""
""focus"",""166"",""184601""
""focus"",""173"",""195445""
","""event"",""trial"",""time""
""fullscreenenter"",""0"",""1305""
","
","1510.7000000025437","run_exp/static/images/Set 6_rs/191a.jpg","86","","","","","","learn","SL",""
"","show_choice","176","198424","0.0-176.0","""event"",""trial"",""time""
""fullscreenenter"",""0"",""1305""
""blur"",""2"",""32961""
""focus"",""2"",""36859""
""blur"",""152"",""168016""
""focus"",""158"",""176793""
""blur"",""164"",""181232""
""focus"",""166"",""184601""
""blur"",""167"",""186606""
""focus"",""173"",""195445""
","""event"",""trial"",""time""
""blur"",""2"",""32961""
""blur"",""152"",""168016""
""blur"",""164"",""181232""
""blur"",""167"",""186606""
","""event"",""trial"",""time""
""focus"",""2"",""36859""
""focus"",""158"",""176793""
""focus"",""166"",""184601""
""focus"",""173"",""195445""
","""event"",""trial"",""time""
""fullscreenenter"",""0"",""1305""
","
","null","run_exp/static/images/Set 6_rs/191a.jpg","null","","","","","","learn","SL",""
"","html-keyboard-response","177","198925","0.0-177.0","""event"",""trial"",""time""
""fullscreenenter"",""0"",""1305""
""blur"",""2"",""32961""
""focus"",""2"",""36859""
""blur"",""152"",""168016""
""focus"",""158"",""176793""
""blur"",""164"",""181232""
""focus"",""166"",""184601""
""blur"",""167"",""186606""
""focus"",""173"",""195445""
","""event"",""trial"",""time""
""blur"",""2"",""32961""
""blur"",""152"",""168016""
""blur"",""164"",""181232""
""blur"",""167"",""186606""
","""event"",""trial"",""time""
""focus"",""2"",""36859""
""focus"",""158"",""176793""
""focus"",""166"",""184601""
""focus"",""173"",""195445""
","""event"",""trial"",""time""
""fullscreenenter"",""0"",""1305""
","
","null","<p></p>","null","","","","","","","",""
"","image","178","199422","0.0-178.0","""event"",""trial"",""time""
""fullscreenenter"",""0"",""1305""
""blur"",""2"",""32961""
""focus"",""2"",""36859""
""blur"",""152"",""168016""
""focus"",""158"",""176793""
""blur"",""164"",""181232""
""focus"",""166"",""184601""
""blur"",""167"",""186606""
""focus"",""173"",""195445""
","""event"",""trial"",""time""
""blur"",""2"",""32961""
""blur"",""152"",""168016""
""blur"",""164"",""181232""
""blur"",""167"",""186606""
","""event"",""trial"",""time""
""focus"",""2"",""36859""
""focus"",""158"",""176793""
""focus"",""166"",""184601""
""focus"",""173"",""195445""
","""event"",""trial"",""time""
""fullscreenenter"",""0"",""1305""
","
","494.4450000002689","run_exp/static/images/Set 6_rs/064a.jpg","78","","","","","","learn","SR",""
"","show_choice","179","200944","0.0-179.0","""event"",""trial"",""time""
""fullscreenenter"",""0"",""1305""
""blur"",""2"",""32961""
""focus"",""2"",""36859""
""blur"",""152"",""168016""
""focus"",""158"",""176793""
""blur"",""164"",""181232""
""focus"",""166"",""184601""
""blur"",""167"",""186606""
""focus"",""173"",""195445""
","""event"",""trial"",""time""
""blur"",""2"",""32961""
""blur"",""152"",""168016""
""blur"",""164"",""181232""
""blur"",""167"",""186606""
","""event"",""trial"",""time""
""focus"",""2"",""36859""
""focus"",""158"",""176793""
""focus"",""166"",""184601""
""focus"",""173"",""195445""
","""event"",""trial"",""time""
""fullscreenenter"",""0"",""1305""
","
","null","run_exp/static/images/Set 6_rs/064a.jpg","null","","","","","","learn","SR",""
"","html-keyboard-response","180","201457","0.0-180.0","""event"",""trial"",""time""
""fullscreenenter"",""0"",""1305""
""blur"",""2"",""32961""
""focus"",""2"",""36859""
""blur"",""152"",""168016""
""focus"",""158"",""176793""
""blur"",""164"",""181232""
""focus"",""166"",""184601""
""blur"",""167"",""186606""
""focus"",""173"",""195445""
","""event"",""trial"",""time""
""blur"",""2"",""32961""
""blur"",""152"",""168016""
""blur"",""164"",""181232""
""blur"",""167"",""186606""
","""event"",""trial"",""time""
""focus"",""2"",""36859""
""focus"",""158"",""176793""
""focus"",""166"",""184601""
""focus"",""173"",""195445""
","""event"",""trial"",""time""
""fullscreenenter"",""0"",""1305""
","
","null","<p></p>","null","","","","","","","",""
"","image","181","202078","0.0-181.0","""event"",""trial"",""time""
""fullscreenenter"",""0"",""1305""
""blur"",""2"",""32961""
""focus"",""2"",""36859""
""blur"",""152"",""168016""
""focus"",""158"",""176793""
""blur"",""164"",""181232""
""focus"",""166"",""184601""
""blur"",""167"",""186606""
""focus"",""173"",""195445""
","""event"",""trial"",""time""
""blur"",""2"",""32961""
""blur"",""152"",""168016""
""blur"",""164"",""181232""
""blur"",""167"",""186606""
","""event"",""trial"",""time""
""focus"",""2"",""36859""
""focus"",""158"",""176793""
""focus"",""166"",""184601""
""focus"",""173"",""195445""
","""event"",""trial"",""time""
""fullscreenenter"",""0"",""1305""
","
","619.2550000014307","run_exp/static/images/Set 6_rs/066a.jpg","86","","","","","","learn","SL",""
"","show_choice","182","203465","0.0-182.0","""event"",""trial"",""time""
""fullscreenenter"",""0"",""1305""
""blur"",""2"",""32961""
""focus"",""2"",""36859""
""blur"",""152"",""168016""
""focus"",""158"",""176793""
""blur"",""164"",""181232""
""focus"",""166"",""184601""
""blur"",""167"",""186606""
""focus"",""173"",""195445""
","""event"",""trial"",""time""
""blur"",""2"",""32961""
""blur"",""152"",""168016""
""blur"",""164"",""181232""
""blur"",""167"",""186606""
","""event"",""trial"",""time""
""focus"",""2"",""36859""
""focus"",""158"",""176793""
""focus"",""166"",""184601""
""focus"",""173"",""195445""
","""event"",""trial"",""time""
""fullscreenenter"",""0"",""1305""
","
","null","run_exp/static/images/Set 6_rs/066a.jpg","null","","","","","","learn","SL",""
"","html-keyboard-response","183","203981","0.0-183.0","""event"",""trial"",""time""
""fullscreenenter"",""0"",""1305""
""blur"",""2"",""32961""
""focus"",""2"",""36859""
""blur"",""152"",""168016""
""focus"",""158"",""176793""
""blur"",""164"",""181232""
""focus"",""166"",""184601""
""blur"",""167"",""186606""
""focus"",""173"",""195445""
","""event"",""trial"",""time""
""blur"",""2"",""32961""
""blur"",""152"",""168016""
""blur"",""164"",""181232""
""blur"",""167"",""186606""
","""event"",""trial"",""time""
""focus"",""2"",""36859""
""focus"",""158"",""176793""
""focus"",""166"",""184601""
""focus"",""173"",""195445""
","""event"",""trial"",""time""
""fullscreenenter"",""0"",""1305""
","
","null","<p></p>","null","","","","","","","",""
"","image","184","204510","0.0-184.0","""event"",""trial"",""time""
""fullscreenenter"",""0"",""1305""
""blur"",""2"",""32961""
""focus"",""2"",""36859""
""blur"",""152"",""168016""
""focus"",""158"",""176793""
""blur"",""164"",""181232""
""focus"",""166"",""184601""
""blur"",""167"",""186606""
""focus"",""173"",""195445""
","""event"",""trial"",""time""
""blur"",""2"",""32961""
""blur"",""152"",""168016""
""blur"",""164"",""181232""
""blur"",""167"",""186606""
","""event"",""trial"",""time""
""focus"",""2"",""36859""
""focus"",""158"",""176793""
""focus"",""166"",""184601""
""focus"",""173"",""195445""
","""event"",""trial"",""time""
""fullscreenenter"",""0"",""1305""
","
","526.5699999981734","run_exp/static/images/Set 6_rs/181a.jpg","78","","","","","","learn","SL",""
"","show_choice","185","205992","0.0-185.0","""event"",""trial"",""time""
""fullscreenenter"",""0"",""1305""
""blur"",""2"",""32961""
""focus"",""2"",""36859""
""blur"",""152"",""168016""
""focus"",""158"",""176793""
""blur"",""164"",""181232""
""focus"",""166"",""184601""
""blur"",""167"",""186606""
""focus"",""173"",""195445""
","""event"",""trial"",""time""
""blur"",""2"",""32961""
""blur"",""152"",""168016""
""blur"",""164"",""181232""
""blur"",""167"",""186606""
","""event"",""trial"",""time""
""focus"",""2"",""36859""
""focus"",""158"",""176793""
""focus"",""166"",""184601""
""focus"",""173"",""195445""
","""event"",""trial"",""time""
""fullscreenenter"",""0"",""1305""
","
","null","run_exp/static/images/Set 6_rs/181a.jpg","null","","","","","","learn","SL",""
"","html-keyboard-response","186","206506","0.0-186.0","""event"",""trial"",""time""
""fullscreenenter"",""0"",""1305""
""blur"",""2"",""32961""
""focus"",""2"",""36859""
""blur"",""152"",""168016""
""focus"",""158"",""176793""
""blur"",""164"",""181232""
""focus"",""166"",""184601""
""blur"",""167"",""186606""
""focus"",""173"",""195445""
","""event"",""trial"",""time""
""blur"",""2"",""32961""
""blur"",""152"",""168016""
""blur"",""164"",""181232""
""blur"",""167"",""186606""
","""event"",""trial"",""time""
""focus"",""2"",""36859""
""focus"",""158"",""176793""
""focus"",""166"",""184601""
""focus"",""173"",""195445""
","""event"",""trial"",""time""
""fullscreenenter"",""0"",""1305""
","
","null","<p></p>","null","","","","","","","",""
"","image","187","207327","0.0-187.0","""event"",""trial"",""time""
""fullscreenenter"",""0"",""1305""
""blur"",""2"",""32961""
""focus"",""2"",""36859""
""blur"",""152"",""168016""
""focus"",""158"",""176793""
""blur"",""164"",""181232""
""focus"",""166"",""184601""
""blur"",""167"",""186606""
""focus"",""173"",""195445""
","""event"",""trial"",""time""
""blur"",""2"",""32961""
""blur"",""152"",""168016""
""blur"",""164"",""181232""
""blur"",""167"",""186606""
","""event"",""trial"",""time""
""focus"",""2"",""36859""
""focus"",""158"",""176793""
""focus"",""166"",""184601""
""focus"",""173"",""195445""
","""event"",""trial"",""time""
""fullscreenenter"",""0"",""1305""
","
","817.9149999996298","run_exp/static/images/Set 6_rs/144a.jpg","86","","","","","","learn","SL",""
"","show_choice","188","208512","0.0-188.0","""event"",""trial"",""time""
""fullscreenenter"",""0"",""1305""
""blur"",""2"",""32961""
""focus"",""2"",""36859""
""blur"",""152"",""168016""
""focus"",""158"",""176793""
""blur"",""164"",""181232""
""focus"",""166"",""184601""
""blur"",""167"",""186606""
""focus"",""173"",""195445""
","""event"",""trial"",""time""
""blur"",""2"",""32961""
""blur"",""152"",""168016""
""blur"",""164"",""181232""
""blur"",""167"",""186606""
","""event"",""trial"",""time""
""focus"",""2"",""36859""
""focus"",""158"",""176793""
""focus"",""166"",""184601""
""focus"",""173"",""195445""
","""event"",""trial"",""time""
""fullscreenenter"",""0"",""1305""
","
","null","run_exp/static/images/Set 6_rs/144a.jpg","null","","","","","","learn","SL",""
"","html-keyboard-response","189","209023","0.0-189.0","""event"",""trial"",""time""
""fullscreenenter"",""0"",""1305""
""blur"",""2"",""32961""
""focus"",""2"",""36859""
""blur"",""152"",""168016""
""focus"",""158"",""176793""
""blur"",""164"",""181232""
""focus"",""166"",""184601""
""blur"",""167"",""186606""
""focus"",""173"",""195445""
","""event"",""trial"",""time""
""blur"",""2"",""32961""
""blur"",""152"",""168016""
""blur"",""164"",""181232""
""blur"",""167"",""186606""
","""event"",""trial"",""time""
""focus"",""2"",""36859""
""focus"",""158"",""176793""
""focus"",""166"",""184601""
""focus"",""173"",""195445""
","""event"",""trial"",""time""
""fullscreenenter"",""0"",""1305""
","
","null","<p></p>","null","","","","","","","",""
"","image","190","209702","0.0-190.0","""event"",""trial"",""time""
""fullscreenenter"",""0"",""1305""
""blur"",""2"",""32961""
""focus"",""2"",""36859""
""blur"",""152"",""168016""
""focus"",""158"",""176793""
""blur"",""164"",""181232""
""focus"",""166"",""184601""
""blur"",""167"",""186606""
""focus"",""173"",""195445""
","""event"",""trial"",""time""
""blur"",""2"",""32961""
""blur"",""152"",""168016""
""blur"",""164"",""181232""
""blur"",""167"",""186606""
","""event"",""trial"",""time""
""focus"",""2"",""36859""
""focus"",""158"",""176793""
""focus"",""166"",""184601""
""focus"",""173"",""195445""
","""event"",""trial"",""time""
""fullscreenenter"",""0"",""1305""
","
","676.7299999992247","run_exp/static/images/Set 6_rs/126a.jpg","78","","","","","","learn","SR",""
"","show_choice","191","211036","0.0-191.0","""event"",""trial"",""time""
""fullscreenenter"",""0"",""1305""
""blur"",""2"",""32961""
""focus"",""2"",""36859""
""blur"",""152"",""168016""
""focus"",""158"",""176793""
""blur"",""164"",""181232""
""focus"",""166"",""184601""
""blur"",""167"",""186606""
""focus"",""173"",""195445""
","""event"",""trial"",""time""
""blur"",""2"",""32961""
""blur"",""152"",""168016""
""blur"",""164"",""181232""
""blur"",""167"",""186606""
","""event"",""trial"",""time""
""focus"",""2"",""36859""
""focus"",""158"",""176793""
""focus"",""166"",""184601""
""focus"",""173"",""195445""
","""event"",""trial"",""time""
""fullscreenenter"",""0"",""1305""
","
","null","run_exp/static/images/Set 6_rs/126a.jpg","null","","","","","","learn","SR",""
"","html-keyboard-response","192","211541","0.0-192.0","""event"",""trial"",""time""
""fullscreenenter"",""0"",""1305""
""blur"",""2"",""32961""
""focus"",""2"",""36859""
""blur"",""152"",""168016""
""focus"",""158"",""176793""
""blur"",""164"",""181232""
""focus"",""166"",""184601""
""blur"",""167"",""186606""
""focus"",""173"",""195445""
","""event"",""trial"",""time""
""blur"",""2"",""32961""
""blur"",""152"",""168016""
""blur"",""164"",""181232""
""blur"",""167"",""186606""
","""event"",""trial"",""time""
""focus"",""2"",""36859""
""focus"",""158"",""176793""
""focus"",""166"",""184601""
""focus"",""173"",""195445""
","""event"",""trial"",""time""
""fullscreenenter"",""0"",""1305""
","
","null","<p></p>","null","","","","","","","",""
"","image","193","212174","0.0-193.0","""event"",""trial"",""time""
""fullscreenenter"",""0"",""1305""
""blur"",""2"",""32961""
""focus"",""2"",""36859""
""blur"",""152"",""168016""
""focus"",""158"",""176793""
""blur"",""164"",""181232""
""focus"",""166"",""184601""
""blur"",""167"",""186606""
""focus"",""173"",""195445""
","""event"",""trial"",""time""
""blur"",""2"",""32961""
""blur"",""152"",""168016""
""blur"",""164"",""181232""
""blur"",""167"",""186606""
","""event"",""trial"",""time""
""focus"",""2"",""36859""
""focus"",""158"",""176793""
""focus"",""166"",""184601""
""focus"",""173"",""195445""
","""event"",""trial"",""time""
""fullscreenenter"",""0"",""1305""
","
","630.4949999976088","run_exp/static/images/Set 6_rs/121a.jpg","78","","","","","","learn","SR",""
"","show_choice","194","213558","0.0-194.0","""event"",""trial"",""time""
""fullscreenenter"",""0"",""1305""
""blur"",""2"",""32961""
""focus"",""2"",""36859""
""blur"",""152"",""168016""
""focus"",""158"",""176793""
""blur"",""164"",""181232""
""focus"",""166"",""184601""
""blur"",""167"",""186606""
""focus"",""173"",""195445""
","""event"",""trial"",""time""
""blur"",""2"",""32961""
""blur"",""152"",""168016""
""blur"",""164"",""181232""
""blur"",""167"",""186606""
","""event"",""trial"",""time""
""focus"",""2"",""36859""
""focus"",""158"",""176793""
""focus"",""166"",""184601""
""focus"",""173"",""195445""
","""event"",""trial"",""time""
""fullscreenenter"",""0"",""1305""
","
","null","run_exp/static/images/Set 6_rs/121a.jpg","null","","","","","","learn","SR",""
"","html-keyboard-response","195","214074","0.0-195.0","""event"",""trial"",""time""
""fullscreenenter"",""0"",""1305""
""blur"",""2"",""32961""
""focus"",""2"",""36859""
""blur"",""152"",""168016""
""focus"",""158"",""176793""
""blur"",""164"",""181232""
""focus"",""166"",""184601""
""blur"",""167"",""186606""
""focus"",""173"",""195445""
","""event"",""trial"",""time""
""blur"",""2"",""32961""
""blur"",""152"",""168016""
""blur"",""164"",""181232""
""blur"",""167"",""186606""
","""event"",""trial"",""time""
""focus"",""2"",""36859""
""focus"",""158"",""176793""
""focus"",""166"",""184601""
""focus"",""173"",""195445""
","""event"",""trial"",""time""
""fullscreenenter"",""0"",""1305""
","
","null","<p></p>","null","","","","","","","",""
"","test_intro","196","251116","0.0-196.0","""event"",""trial"",""time""
""fullscreenenter"",""0"",""1305""
""blur"",""2"",""32961""
""focus"",""2"",""36859""
""blur"",""152"",""168016""
""focus"",""158"",""176793""
""blur"",""164"",""181232""
""focus"",""166"",""184601""
""blur"",""167"",""186606""
""focus"",""173"",""195445""
","""event"",""trial"",""time""
""blur"",""2"",""32961""
""blur"",""152"",""168016""
""blur"",""164"",""181232""
""blur"",""167"",""186606""
","""event"",""trial"",""time""
""focus"",""2"",""36859""
""focus"",""158"",""176793""
""focus"",""166"",""184601""
""focus"",""173"",""195445""
","""event"",""trial"",""time""
""fullscreenenter"",""0"",""1305""
","
