"success","trial_type","trial_index","time_elapsed","internal_node_id","interactions","blur_events","focus_events","fullscreenenter_events","fullscreenexit_events","rt","stimulus","key_press","subject_id","participant_id","age","gender","prompt","phase","condition","lure_bin"
"true","fullscreen","0","4613","0.0-0.0","""event"",""trial"",""time""
""fullscreenenter"",""0"",""3629""
","
","
","""event"",""trial"",""time""
""fullscreenenter"",""0"",""3629""
","
","","","","","","","","","","",""
"","pavlovia","1","4636","0.0-1.0","""event"",""trial"",""time""
""fullscreenenter"",""0"",""3629""
","
","
","""event"",""trial"",""time""
""fullscreenenter"",""0"",""3629""
","
","","","","","","","","","","",""
"","welcome","2","39484","0.0-2.0","""event"",""trial"",""time""
""fullscreenenter"",""0"",""3629""
","
","
","""event"",""trial"",""time""
""fullscreenenter"",""0"",""3629""
","
","null","run_exp/static/audio/clip_1_welcome.m4a","null","541","71","17","Female","<div class='center'><p>Welcome to the third part of the study! First, you'll be shown pictures of items one at a time. For each picture, you have to decide if the item is typically found indoors or outdoors.</p><p>If you think it's usually found indoors, then press <b>v</b> key on your keyboard. If you think it's usually found outdoors, then press the <b>n</b> key.There will be reminders on the screen to help you remember which keys to press. </p><p>If you're not sure whether the item is an indoor item or an outdoor item, go ahead and take a guess but try your best not to skip that choice. </p></div>","","",""
"","html-keyboard-response","3","40237","0.0-3.0","""event"",""trial"",""time""
""fullscreenenter"",""0"",""3629""
","
","
","""event"",""trial"",""time""
""fullscreenenter"",""0"",""3629""
","
","749.6000000089407","<div class='center'><p>Welcome to the third part of the study! First, you'll be shown pictures of items one at a time. For each picture, you have to decide if the item is typically found indoors or outdoors.</p><p>If you think it's usually found indoors, then press <b>v</b> key on your keyboard. If you think it's usually found outdoors, then press the <b>n</b> key.There will be reminders on the screen to help you remember which keys to press. </p><p>If you're not sure whether the item is an indoor item or an outdoor item, go ahead and take a guess but try your best not to skip that choice. </p><div><p><b>[Press the space bar to continue]</b></p></div>","32","","","","","","","",""
"","image","4","41323","0.0-4.0","""event"",""trial"",""time""
""fullscreenenter"",""0"",""3629""
","
","
","""event"",""trial"",""time""
""fullscreenenter"",""0"",""3629""
","
","1084.2000000029802","run_exp/static/images/Set 6_rs/152a.jpg","86","","","","","","learn","SR",""
"","show_choice","5","42241","0.0-5.0","""event"",""trial"",""time""
""fullscreenenter"",""0"",""3629""
","
","
","""event"",""trial"",""time""
""fullscreenenter"",""0"",""3629""
","
","null","run_exp/static/images/Set 6_rs/152a.jpg","null","","","","","","learn","SR",""
"","html-keyboard-response","6","42742","0.0-6.0","""event"",""trial"",""time""
""fullscreenenter"",""0"",""3629""
","
","
","""event"",""trial"",""time""
""fullscreenenter"",""0"",""3629""
","
","null","<p></p>","null","","","","","","","",""
"","image","7","43513","0.0-7.0","""event"",""trial"",""time""
""fullscreenenter"",""0"",""3629""
","
","
","""event"",""trial"",""time""
""fullscreenenter"",""0"",""3629""
","
","769.7000000029802","run_exp/static/images/Set 6_rs/134a.jpg","86","","","","","","learn","SR",""
"","show_choice","8","44745","0.0-8.0","""event"",""trial"",""time""
""fullscreenenter"",""0"",""3629""
","
","
","""event"",""trial"",""time""
""fullscreenenter"",""0"",""3629""
","
","null","run_exp/static/images/Set 6_rs/134a.jpg","null","","","","","","learn","SR",""
"","html-keyboard-response","9","45246","0.0-9.0","""event"",""trial"",""time""
""fullscreenenter"",""0"",""3629""
","
","
","""event"",""trial"",""time""
""fullscreenenter"",""0"",""3629""
","
","null","<p></p>","null","","","","","","","",""
"","image","10","46017","0.0-10.0","""event"",""trial"",""time""
""fullscreenenter"",""0"",""3629""
","
","
","""event"",""trial"",""time""
""fullscreenenter"",""0"",""3629""
","
","770.0999999940395","run_exp/static/images/Set 6_rs/117a.jpg","86","","","","","","learn","SL",""
"","show_choice","11","47248","0.0-11.0","""event"",""trial"",""time""
""fullscreenenter"",""0"",""3629""
","
","
","""event"",""trial"",""time""
""fullscreenenter"",""0"",""3629""
","
","null","run_exp/static/images/Set 6_rs/117a.jpg","null","","","","","","learn","SL",""
"","html-keyboard-response","12","47750","0.0-12.0","""event"",""trial"",""time""
""fullscreenenter"",""0"",""3629""
","
","
","""event"",""trial"",""time""
""fullscreenenter"",""0"",""3629""
","
","null","<p></p>","null","","","","","","","",""
"","image","13","48708","0.0-13.0","""event"",""trial"",""time""
""fullscreenenter"",""0"",""3629""
","
","
","""event"",""trial"",""time""
""fullscreenenter"",""0"",""3629""
","
","956","run_exp/static/images/Set 6_rs/168a.jpg","86","","","","","","learn","SL",""
"","show_choice","14","49754","0.0-14.0","""event"",""trial"",""time""
""fullscreenenter"",""0"",""3629""
","
","
","""event"",""trial"",""time""
""fullscreenenter"",""0"",""3629""
","
","null","run_exp/static/images/Set 6_rs/168a.jpg","null","","","","","","learn","SL",""
"","html-keyboard-response","15","50255","0.0-15.0","""event"",""trial"",""time""
""fullscreenenter"",""0"",""3629""
","
","
","""event"",""trial"",""time""
""fullscreenenter"",""0"",""3629""
","
","null","<p></p>","null","","","","","","","",""
"","image","16","50792","0.0-16.0","""event"",""trial"",""time""
""fullscreenenter"",""0"",""3629""
","
","
","""event"",""trial"",""time""
""fullscreenenter"",""0"",""3629""
","
","535.1000000089407","run_exp/static/images/Set 6_rs/064a.jpg","86","","","","","","learn","SR",""
"","show_choice","17","52257","0.0-17.0","""event"",""trial"",""time""
""fullscreenenter"",""0"",""3629""
","
","
","""event"",""trial"",""time""
""fullscreenenter"",""0"",""3629""
","
","null","run_exp/static/images/Set 6_rs/064a.jpg","null","","","","","","learn","SR",""
"","html-keyboard-response","18","52758","0.0-18.0","""event"",""trial"",""time""
""fullscreenenter"",""0"",""3629""
","
","
","""event"",""trial"",""time""
""fullscreenenter"",""0"",""3629""
","
","null","<p></p>","null","","","","","","","",""
"","image","19","53795","0.0-19.0","""event"",""trial"",""time""
""fullscreenenter"",""0"",""3629""
","
","
","""event"",""trial"",""time""
""fullscreenenter"",""0"",""3629""
","
","1035.0999999940395","run_exp/static/images/Set 6_rs/008a.jpg","78","","","","","","learn","SL",""
"","show_choice","20","54761","0.0-20.0","""event"",""trial"",""time""
""fullscreenenter"",""0"",""3629""
","
","
","""event"",""trial"",""time""
""fullscreenenter"",""0"",""3629""
","
","null","run_exp/static/images/Set 6_rs/008a.jpg","null","","","","","","learn","SL",""
"","html-keyboard-response","21","55263","0.0-21.0","""event"",""trial"",""time""
""fullscreenenter"",""0"",""3629""
","
","
","""event"",""trial"",""time""
""fullscreenenter"",""0"",""3629""
","
","null","<p></p>","null","","","","","","","",""
"","image","22","56006","0.0-22.0","""event"",""trial"",""time""
""fullscreenenter"",""0"",""3629""
","
","
","""event"",""trial"",""time""
""fullscreenenter"",""0"",""3629""
","
","741.4000000059605","run_exp/static/images/Set 6_rs/166a.jpg","86","","","","","","learn","SR",""
"","show_choice","23","57265","0.0-23.0","""event"",""trial"",""time""
""fullscreenenter"",""0"",""3629""
","
","
","""event"",""trial"",""time""
""fullscreenenter"",""0"",""3629""
","
","null","run_exp/static/images/Set 6_rs/166a.jpg","null","","","","","","learn","SR",""
"","html-keyboard-response","24","57766","0.0-24.0","""event"",""trial"",""time""
""fullscreenenter"",""0"",""3629""
","
","
","""event"",""trial"",""time""
""fullscreenenter"",""0"",""3629""
","
","null","<p></p>","null","","","","","","","",""
"","image","25","58420","0.0-25.0","""event"",""trial"",""time""
""fullscreenenter"",""0"",""3629""
","
","
","""event"",""trial"",""time""
""fullscreenenter"",""0"",""3629""
","
","652.5999999940395","run_exp/static/images/Set 6_rs/016a.jpg","86","","","","","","learn","SL",""
"","show_choice","26","59769","0.0-26.0","""event"",""trial"",""time""
""fullscreenenter"",""0"",""3629""
","
","
","""event"",""trial"",""time""
""fullscreenenter"",""0"",""3629""
","
","null","run_exp/static/images/Set 6_rs/016a.jpg","null","","","","","","learn","SL",""
"","html-keyboard-response","27","60271","0.0-27.0","""event"",""trial"",""time""
""fullscreenenter"",""0"",""3629""
","
","
","""event"",""trial"",""time""
""fullscreenenter"",""0"",""3629""
","
","null","<p></p>","null","","","","","","","",""
"","image","28","61337","0.0-28.0","""event"",""trial"",""time""
""fullscreenenter"",""0"",""3629""
","
","
","""event"",""trial"",""time""
""fullscreenenter"",""0"",""3629""
","
","1065.1000000089407","run_exp/static/images/Set 6_rs/121a.jpg","86","","","","","","learn","SR",""
"","show_choice","29","62273","0.0-29.0","""event"",""trial"",""time""
""fullscreenenter"",""0"",""3629""
","
","
","""event"",""trial"",""time""
""fullscreenenter"",""0"",""3629""
","
","null","run_exp/static/images/Set 6_rs/121a.jpg","null","","","","","","learn","SR",""
"","html-keyboard-response","30","62774","0.0-30.0","""event"",""trial"",""time""
""fullscreenenter"",""0"",""3629""
","
","
","""event"",""trial"",""time""
""fullscreenenter"",""0"",""3629""
","
","null","<p></p>","null","","","","","","","",""
"","image","31","63699","0.0-31.0","""event"",""trial"",""time""
""fullscreenenter"",""0"",""3629""
","
","
","""event"",""trial"",""time""
""fullscreenenter"",""0"",""3629""
","
","923.3000000119209","run_exp/static/images/Set 6_rs/131a.jpg","86","","","","","","learn","SR",""
"","show_choice","32","64776","0.0-32.0","""event"",""trial"",""time""
""fullscreenenter"",""0"",""3629""
","
","
","""event"",""trial"",""time""
""fullscreenenter"",""0"",""3629""
","
","null","run_exp/static/images/Set 6_rs/131a.jpg","null","","","","","","learn","SR",""
"","html-keyboard-response","33","65279","0.0-33.0","""event"",""trial"",""time""
""fullscreenenter"",""0"",""3629""
","
","
","""event"",""trial"",""time""
""fullscreenenter"",""0"",""3629""
","
","null","<p></p>","null","","","","","","","",""
"","image","34","65920","0.0-34.0","""event"",""trial"",""time""
""fullscreenenter"",""0"",""3629""
","
","
","""event"",""trial"",""time""
""fullscreenenter"",""0"",""3629""
","
","640.5","run_exp/static/images/Set 6_rs/057a.jpg","86","","","","","","learn","SL",""
"","show_choice","35","67281","0.0-35.0","""event"",""trial"",""time""
""fullscreenenter"",""0"",""3629""
","
","
","""event"",""trial"",""time""
""fullscreenenter"",""0"",""3629""
","
","null","run_exp/static/images/Set 6_rs/057a.jpg","null","","","","","","learn","SL",""
"","html-keyboard-response","36","67783","0.0-36.0","""event"",""trial"",""time""
""fullscreenenter"",""0"",""3629""
","
","
","""event"",""trial"",""time""
""fullscreenenter"",""0"",""3629""
","
","null","<p></p>","null","","","","","","","",""
"","image","37","68755","0.0-37.0","""event"",""trial"",""time""
""fullscreenenter"",""0"",""3629""
","
","
","""event"",""trial"",""time""
""fullscreenenter"",""0"",""3629""
","
","970.8999999910593","run_exp/static/images/Set 6_rs/191a.jpg","86","","","","","","learn","SL",""
"","show_choice","38","69786","0.0-38.0","""event"",""trial"",""time""
""fullscreenenter"",""0"",""3629""
","
","
","""event"",""trial"",""time""
""fullscreenenter"",""0"",""3629""
","
","null","run_exp/static/images/Set 6_rs/191a.jpg","null","","","","","","learn","SL",""
"","html-keyboard-response","39","70287","0.0-39.0","""event"",""trial"",""time""
""fullscreenenter"",""0"",""3629""
","
","
","""event"",""trial"",""time""
""fullscreenenter"",""0"",""3629""
","
","null","<p></p>","null","","","","","","","",""
"","image","40","71134","0.0-40.0","""event"",""trial"",""time""
""fullscreenenter"",""0"",""3629""
","
","
","""event"",""trial"",""time""
""fullscreenenter"",""0"",""3629""
","
","845.2999999970198","run_exp/static/images/Set 6_rs/178a.jpg","78","","","","","","learn","SR",""
"","show_choice","41","72289","0.0-41.0","""event"",""trial"",""time""
""fullscreenenter"",""0"",""3629""
","
","
","""event"",""trial"",""time""
""fullscreenenter"",""0"",""3629""
","
","null","run_exp/static/images/Set 6_rs/178a.jpg","null","","","","","","learn","SR",""
"","html-keyboard-response","42","72790","0.0-42.0","""event"",""trial"",""time""
""fullscreenenter"",""0"",""3629""
","
","
","""event"",""trial"",""time""
""fullscreenenter"",""0"",""3629""
","
","null","<p></p>","null","","","","","","","",""
"","image","43","73676","0.0-43.0","""event"",""trial"",""time""
""fullscreenenter"",""0"",""3629""
","
","
","""event"",""trial"",""time""
""fullscreenenter"",""0"",""3629""
","
","884.3000000119209","run_exp/static/images/Set 6_rs/138a.jpg","78","","","","","","learn","SL",""
"","show_choice","44","74793","0.0-44.0","""event"",""trial"",""time""
""fullscreenenter"",""0"",""3629""
","
","
","""event"",""trial"",""time""
""fullscreenenter"",""0"",""3629""
","
","null","run_exp/static/images/Set 6_rs/138a.jpg","null","","","","","","learn","SL",""
"","html-keyboard-response","45","75294","0.0-45.0","""event"",""trial"",""time""
""fullscreenenter"",""0"",""3629""
","
","
","""event"",""trial"",""time""
""fullscreenenter"",""0"",""3629""
","
","null","<p></p>","null","","","","","","","",""
"","image","46","76652","0.0-46.0","""event"",""trial"",""time""
""fullscreenenter"",""0"",""3629""
","
","
","""event"",""trial"",""time""
""fullscreenenter"",""0"",""3629""
","
","1356.1000000089407","run_exp/static/images/Set 6_rs/063a.jpg","78","","","","","","learn","SR",""
"","show_choice","47","77296","0.0-47.0","""event"",""trial"",""time""
""fullscreenenter"",""0"",""3629""
","
","
","""event"",""trial"",""time""
""fullscreenenter"",""0"",""3629""
","
","null","run_exp/static/images/Set 6_rs/063a.jpg","null","","","","","","learn","SR",""
"","html-keyboard-response","48","77797","0.0-48.0","""event"",""trial"",""time""
""fullscreenenter"",""0"",""3629""
","
","
","""event"",""trial"",""time""
""fullscreenenter"",""0"",""3629""
","
","null","<p></p>","null","","","","","","","",""
"","image","49","78996","0.0-49.0","""event"",""trial"",""time""
""fullscreenenter"",""0"",""3629""
","
","
","""event"",""trial"",""time""
""fullscreenenter"",""0"",""3629""
","
","1197.199999988079","run_exp/static/images/Set 6_rs/187a.jpg","78","","","","","","learn","SR",""
"","show_choice","50","79799","0.0-50.0","""event"",""trial"",""time""
""fullscreenenter"",""0"",""3629""
","
","
","""event"",""trial"",""time""
""fullscreenenter"",""0"",""3629""
","
","null","run_exp/static/images/Set 6_rs/187a.jpg","null","","","","","","learn","SR",""
"","html-keyboard-response","51","80301","0.0-51.0","""event"",""trial"",""time""
""fullscreenenter"",""0"",""3629""
","
","
","""event"",""trial"",""time""
""fullscreenenter"",""0"",""3629""
","
","null","<p></p>","null","","","","","","","",""
"","image","52","81121","0.0-52.0","""event"",""trial"",""time""
""fullscreenenter"",""0"",""3629""
","
","
","""event"",""trial"",""time""
""fullscreenenter"",""0"",""3629""
","
","818.7999999970198","run_exp/static/images/Set 6_rs/014a.jpg","86","","","","","","learn","SL",""
"","show_choice","53","82303","0.0-53.0","""event"",""trial"",""time""
""fullscreenenter"",""0"",""3629""
","
","
","""event"",""trial"",""time""
""fullscreenenter"",""0"",""3629""
","
","null","run_exp/static/images/Set 6_rs/014a.jpg","null","","","","","","learn","SL",""
"","html-keyboard-response","54","82805","0.0-54.0","""event"",""trial"",""time""
""fullscreenenter"",""0"",""3629""
","
","
","""event"",""trial"",""time""
""fullscreenenter"",""0"",""3629""
","
","null","<p></p>","null","","","","","","","",""
"","image","55","83637","0.0-55.0","""event"",""trial"",""time""
""fullscreenenter"",""0"",""3629""
","
","
","""event"",""trial"",""time""
""fullscreenenter"",""0"",""3629""
","
","830.3999999910593","run_exp/static/images/Set 6_rs/062a.jpg","86","","","","","","learn","SL",""
"","show_choice","56","84807","0.0-56.0","""event"",""trial"",""time""
""fullscreenenter"",""0"",""3629""
","
","
","""event"",""trial"",""time""
""fullscreenenter"",""0"",""3629""
","
","null","run_exp/static/images/Set 6_rs/062a.jpg","null","","","","","","learn","SL",""
"","html-keyboard-response","57","85309","0.0-57.0","""event"",""trial"",""time""
""fullscreenenter"",""0"",""3629""
","
","
","""event"",""trial"",""time""
""fullscreenenter"",""0"",""3629""
","
","null","<p></p>","null","","","","","","","",""
"","image","58","85976","0.0-58.0","""event"",""trial"",""time""
""fullscreenenter"",""0"",""3629""
","
","
","""event"",""trial"",""time""
""fullscreenenter"",""0"",""3629""
","
","666.5","run_exp/static/images/Set 6_rs/112a.jpg","86","","","","","","learn","SR",""
"","show_choice","59","87311","0.0-59.0","""event"",""trial"",""time""
""fullscreenenter"",""0"",""3629""
","
","
","""event"",""trial"",""time""
""fullscreenenter"",""0"",""3629""
","
","null","run_exp/static/images/Set 6_rs/112a.jpg","null","","","","","","learn","SR",""
"","html-keyboard-response","60","87812","0.0-60.0","""event"",""trial"",""time""
""fullscreenenter"",""0"",""3629""
","
","
","""event"",""trial"",""time""
""fullscreenenter"",""0"",""3629""
","
","null","<p></p>","null","","","","","","","",""
"","image","61","88675","0.0-61.0","""event"",""trial"",""time""
""fullscreenenter"",""0"",""3629""
","
","
","""event"",""trial"",""time""
""fullscreenenter"",""0"",""3629""
","
","861.7000000029802","run_exp/static/images/Set 6_rs/116a.jpg","78","","","","","","learn","SL",""
"","show_choice","62","89815","0.0-62.0","""event"",""trial"",""time""
""fullscreenenter"",""0"",""3629""
","
","
","""event"",""trial"",""time""
""fullscreenenter"",""0"",""3629""
","
","null","run_exp/static/images/Set 6_rs/116a.jpg","null","","","","","","learn","SL",""
"","html-keyboard-response","63","90317","0.0-63.0","""event"",""trial"",""time""
""fullscreenenter"",""0"",""3629""
","
","
","""event"",""trial"",""time""
""fullscreenenter"",""0"",""3629""
","
","null","<p></p>","null","","","","","","","",""
"","image","64","91060","0.0-64.0","""event"",""trial"",""time""
""fullscreenenter"",""0"",""3629""
","
","
","""event"",""trial"",""time""
""fullscreenenter"",""0"",""3629""
","
","741.8000000119209","run_exp/static/images/Set 6_rs/111a.jpg","86","","","","","","learn","SL",""
"","show_choice","65","92319","0.0-65.0","""event"",""trial"",""time""
""fullscreenenter"",""0"",""3629""
","
","
","""event"",""trial"",""time""
""fullscreenenter"",""0"",""3629""
","
","null","run_exp/static/images/Set 6_rs/111a.jpg","null","","","","","","learn","SL",""
"","html-keyboard-response","66","92820","0.0-66.0","""event"",""trial"",""time""
""fullscreenenter"",""0"",""3629""
","
","
","""event"",""trial"",""time""
""fullscreenenter"",""0"",""3629""
","
","null","<p></p>","null","","","","","","","",""
"","image","67","93480","0.0-67.0","""event"",""trial"",""time""
""fullscreenenter"",""0"",""3629""
","
","
","""event"",""trial"",""time""
""fullscreenenter"",""0"",""3629""
","
","657.8999999910593","run_exp/static/images/Set 6_rs/025a.jpg","78","","","","","","learn","SL",""
"","show_choice","68","94823","0.0-68.0","""event"",""trial"",""time""
""fullscreenenter"",""0"",""3629""
","
","
","""event"",""trial"",""time""
""fullscreenenter"",""0"",""3629""
","
","null","run_exp/static/images/Set 6_rs/025a.jpg","null","","","","","","learn","SL",""
"","html-keyboard-response","69","95325","0.0-69.0","""event"",""trial"",""time""
""fullscreenenter"",""0"",""3629""
","
","
","""event"",""trial"",""time""
""fullscreenenter"",""0"",""3629""
","
","null","<p></p>","null","","","","","","","",""
"","image","70","95968","0.0-70.0","""event"",""trial"",""time""
""fullscreenenter"",""0"",""3629""
","
","
","""event"",""trial"",""time""
""fullscreenenter"",""0"",""3629""
","
","641.8000000119209","run_exp/static/images/Set 6_rs/132a.jpg","86","","","","","","learn","SR",""
"","show_choice","71","97327","0.0-71.0","""event"",""trial"",""time""
""fullscreenenter"",""0"",""3629""
","
","
","""event"",""trial"",""time""
""fullscreenenter"",""0"",""3629""
","
","null","run_exp/static/images/Set 6_rs/132a.jpg","null","","","","","","learn","SR",""
"","html-keyboard-response","72","97829","0.0-72.0","""event"",""trial"",""time""
""fullscreenenter"",""0"",""3629""
","
","
","""event"",""trial"",""time""
""fullscreenenter"",""0"",""3629""
","
","null","<p></p>","null","","","","","","","",""
"","image","73","99017","0.0-73.0","""event"",""trial"",""time""
""fullscreenenter"",""0"",""3629""
","
","
","""event"",""trial"",""time""
""fullscreenenter"",""0"",""3629""
","
","1187.0999999940395","run_exp/static/images/Set 6_rs/045a.jpg","86","","","","","","learn","SR",""
"","show_choice","74","99831","0.0-74.0","""event"",""trial"",""time""
""fullscreenenter"",""0"",""3629""
","
","
","""event"",""trial"",""time""
""fullscreenenter"",""0"",""3629""
","
","null","run_exp/static/images/Set 6_rs/045a.jpg","null","","","","","","learn","SR",""
"","html-keyboard-response","75","100333","0.0-75.0","""event"",""trial"",""time""
""fullscreenenter"",""0"",""3629""
","
","
","""event"",""trial"",""time""
""fullscreenenter"",""0"",""3629""
","
","null","<p></p>","null","","","","","","","",""
"","image","76","101085","0.0-76.0","""event"",""trial"",""time""
""fullscreenenter"",""0"",""3629""
","
","
","""event"",""trial"",""time""
""fullscreenenter"",""0"",""3629""
","
","750.5","run_exp/static/images/Set 6_rs/088a.jpg","86","","","","","","learn","SR",""
"","show_choice","77","102336","0.0-77.0","""event"",""trial"",""time""
""fullscreenenter"",""0"",""3629""
","
","
","""event"",""trial"",""time""
""fullscreenenter"",""0"",""3629""
","
","null","run_exp/static/images/Set 6_rs/088a.jpg","null","","","","","","learn","SR",""
"","html-keyboard-response","78","102838","0.0-78.0","""event"",""trial"",""time""
""fullscreenenter"",""0"",""3629""
","
","
","""event"",""trial"",""time""
""fullscreenenter"",""0"",""3629""
","
","null","<p></p>","null","","","","","","","",""
"","image","79","103376","0.0-79.0","""event"",""trial"",""time""
""fullscreenenter"",""0"",""3629""
","
","
","""event"",""trial"",""time""
""fullscreenenter"",""0"",""3629""
","
","537.2000000029802","run_exp/static/images/Set 6_rs/024a.jpg","86","","","","","","learn","SR",""
"","show_choice","80","104840","0.0-80.0","""event"",""trial"",""time""
""fullscreenenter"",""0"",""3629""
","
","
","""event"",""trial"",""time""
""fullscreenenter"",""0"",""3629""
","
","null","run_exp/static/images/Set 6_rs/024a.jpg","null","","","","","","learn","SR",""
"","html-keyboard-response","81","105341","0.0-81.0","""event"",""trial"",""time""
""fullscreenenter"",""0"",""3629""
","
","
","""event"",""trial"",""time""
""fullscreenenter"",""0"",""3629""
","
","null","<p></p>","null","","","","","","","",""
"","image","82","106248","0.0-82.0","""event"",""trial"",""time""
""fullscreenenter"",""0"",""3629""
","
","
","""event"",""trial"",""time""
""fullscreenenter"",""0"",""3629""
","
","905.9000000059605","run_exp/static/images/Set 6_rs/006a.jpg","86","","","","","","learn","SL",""
"","show_choice","83","107344","0.0-83.0","""event"",""trial"",""time""
""fullscreenenter"",""0"",""3629""
","
","
","""event"",""trial"",""time""
""fullscreenenter"",""0"",""3629""
","
","null","run_exp/static/images/Set 6_rs/006a.jpg","null","","","","","","learn","SL",""
"","html-keyboard-response","84","107845","0.0-84.0","""event"",""trial"",""time""
""fullscreenenter"",""0"",""3629""
","
","
","""event"",""trial"",""time""
""fullscreenenter"",""0"",""3629""
","
","null","<p></p>","null","","","","","","","",""
"","image","85","108503","0.0-85.0","""event"",""trial"",""time""
""fullscreenenter"",""0"",""3629""
","
","
","""event"",""trial"",""time""
""fullscreenenter"",""0"",""3629""
","
","656.6999999880791","run_exp/static/images/Set 6_rs/070a.jpg","86","","","","","","learn","SR",""
"","show_choice","86","109847","0.0-86.0","""event"",""trial"",""time""
""fullscreenenter"",""0"",""3629""
","
","
","""event"",""trial"",""time""
""fullscreenenter"",""0"",""3629""
","
","null","run_exp/static/images/Set 6_rs/070a.jpg","null","","","","","","learn","SR",""
"","html-keyboard-response","87","110348","0.0-87.0","""event"",""trial"",""time""
""fullscreenenter"",""0"",""3629""
","
","
","""event"",""trial"",""time""
""fullscreenenter"",""0"",""3629""
","
","null","<p></p>","null","","","","","","","",""
"","image","88","111090","0.0-88.0","""event"",""trial"",""time""
""fullscreenenter"",""0"",""3629""
","
","
","""event"",""trial"",""time""
""fullscreenenter"",""0"",""3629""
","
","740.2000000029802","run_exp/static/images/Set 6_rs/073a.jpg","86","","","","","","learn","SL",""
"","show_choice","89","112350","0.0-89.0","""event"",""trial"",""time""
""fullscreenenter"",""0"",""3629""
","
","
","""event"",""trial"",""time""
""fullscreenenter"",""0"",""3629""
","
","null","run_exp/static/images/Set 6_rs/073a.jpg","null","","","","","","learn","SL",""
"","html-keyboard-response","90","112851","0.0-90.0","""event"",""trial"",""time""
""fullscreenenter"",""0"",""3629""
","
","
","""event"",""trial"",""time""
""fullscreenenter"",""0"",""3629""
","
","null","<p></p>","null","","","","","","","",""
"","image","91","113522","0.0-91.0","""event"",""trial"",""time""
""fullscreenenter"",""0"",""3629""
","
","
","""event"",""trial"",""time""
""fullscreenenter"",""0"",""3629""
","
","669.5","run_exp/static/images/Set 6_rs/181a.jpg","78","","","","","","learn","SL",""
"","show_choice","92","114854","0.0-92.0","""event"",""trial"",""time""
""fullscreenenter"",""0"",""3629""
","
","
","""event"",""trial"",""time""
""fullscreenenter"",""0"",""3629""
","
","null","run_exp/static/images/Set 6_rs/181a.jpg","null","","","","","","learn","SL",""
"","html-keyboard-response","93","115356","0.0-93.0","""event"",""trial"",""time""
""fullscreenenter"",""0"",""3629""
","
","
","""event"",""trial"",""time""
""fullscreenenter"",""0"",""3629""
","
","null","<p></p>","null","","","","","","","",""
"","image","94","115918","0.0-94.0","""event"",""trial"",""time""
""fullscreenenter"",""0"",""3629""
","
","
","""event"",""trial"",""time""
""fullscreenenter"",""0"",""3629""
","
","561.2999999970198","run_exp/static/images/Set 6_rs/154a.jpg","86","","","","","","learn","SR",""
"","show_choice","95","117358","0.0-95.0","""event"",""trial"",""time""
""fullscreenenter"",""0"",""3629""
","
","
","""event"",""trial"",""time""
""fullscreenenter"",""0"",""3629""
","
","null","run_exp/static/images/Set 6_rs/154a.jpg","null","","","","","","learn","SR",""
"","html-keyboard-response","96","117859","0.0-96.0","""event"",""trial"",""time""
""fullscreenenter"",""0"",""3629""
","
","
","""event"",""trial"",""time""
""fullscreenenter"",""0"",""3629""
","
","null","<p></p>","null","","","","","","","",""
"","image","97","118492","0.0-97.0","""event"",""trial"",""time""
""fullscreenenter"",""0"",""3629""
","
","
","""event"",""trial"",""time""
""fullscreenenter"",""0"",""3629""
","
","631.1999999880791","run_exp/static/images/Set 6_rs/186a.jpg","86","","","","","","learn","SR",""
"","show_choice","98","119862","0.0-98.0","""event"",""trial"",""time""
""fullscreenenter"",""0"",""3629""
","
","
","""event"",""trial"",""time""
""fullscreenenter"",""0"",""3629""
","
","null","run_exp/static/images/Set 6_rs/186a.jpg","null","","","","","","learn","SR",""
"","html-keyboard-response","99","120363","0.0-99.0","""event"",""trial"",""time""
""fullscreenenter"",""0"",""3629""
","
","
","""event"",""trial"",""time""
""fullscreenenter"",""0"",""3629""
","
","null","<p></p>","null","","","","","","","",""
"","image","100","121280","0.0-100.0","""event"",""trial"",""time""
""fullscreenenter"",""0"",""3629""
","
","
","""event"",""trial"",""time""
""fullscreenenter"",""0"",""3629""
","
","915.7999999970198","run_exp/static/images/Set 6_rs/141a.jpg","86","","","","","","learn","SR",""
"","show_choice","101","122365","0.0-101.0","""event"",""trial"",""time""
""fullscreenenter"",""0"",""3629""
","
","
","""event"",""trial"",""time""
""fullscreenenter"",""0"",""3629""
","
","null","run_exp/static/images/Set 6_rs/141a.jpg","null","","","","","","learn","SR",""
"","html-keyboard-response","102","122866","0.0-102.0","""event"",""trial"",""time""
""fullscreenenter"",""0"",""3629""
","
","
","""event"",""trial"",""time""
""fullscreenenter"",""0"",""3629""
","
","null","<p></p>","null","","","","","","","",""
"","image","103","123484","0.0-103.0","""event"",""trial"",""time""
""fullscreenenter"",""0"",""3629""
","
","
","""event"",""trial"",""time""
""fullscreenenter"",""0"",""3629""
","
","616.5","run_exp/static/images/Set 6_rs/012a.jpg","86","","","","","","learn","SR",""
"","show_choice","104","124868","0.0-104.0","""event"",""trial"",""time""
""fullscreenenter"",""0"",""3629""
","
","
","""event"",""trial"",""time""
""fullscreenenter"",""0"",""3629""
","
","null","run_exp/static/images/Set 6_rs/012a.jpg","null","","","","","","learn","SR",""
"","html-keyboard-response","105","125370","0.0-105.0","""event"",""trial"",""time""
""fullscreenenter"",""0"",""3629""
","
","
","""event"",""trial"",""time""
""fullscreenenter"",""0"",""3629""
","
","null","<p></p>","null","","","","","","","",""
"","image","106","126765","0.0-106.0","""event"",""trial"",""time""
""fullscreenenter"",""0"",""3629""
","
","
","""event"",""trial"",""time""
""fullscreenenter"",""0"",""3629""
","
","1393.7000000029802","run_exp/static/images/Set 6_rs/061a.jpg","78","","","","","","learn","SR",""
"","show_choice","107","127372","0.0-107.0","""event"",""trial"",""time""
""fullscreenenter"",""0"",""3629""
","
","
","""event"",""trial"",""time""
""fullscreenenter"",""0"",""3629""
","
","null","run_exp/static/images/Set 6_rs/061a.jpg","null","","","","","","learn","SR",""
"","html-keyboard-response","108","127874","0.0-108.0","""event"",""trial"",""time""
""fullscreenenter"",""0"",""3629""
","
","
","""event"",""trial"",""time""
""fullscreenenter"",""0"",""3629""
","
","null","<p></p>","null","","","","","","","",""
"","image","109","128808","0.0-109.0","""event"",""trial"",""time""
""fullscreenenter"",""0"",""3629""
","
","
","""event"",""trial"",""time""
""fullscreenenter"",""0"",""3629""
","
","932.3000000119209","run_exp/static/images/Set 6_rs/126a.jpg","78","","","","","","learn","SR",""
"","show_choice","110","129877","0.0-110.0","""event"",""trial"",""time""
""fullscreenenter"",""0"",""3629""
","
","
","""event"",""trial"",""time""
""fullscreenenter"",""0"",""3629""
","
","null","run_exp/static/images/Set 6_rs/126a.jpg","null","","","","","","learn","SR",""
"","html-keyboard-response","111","130378","0.0-111.0","""event"",""trial"",""time""
""fullscreenenter"",""0"",""3629""
","
","
","""event"",""trial"",""time""
""fullscreenenter"",""0"",""3629""
","
","null","<p></p>","null","","","","","","","",""
"","image","112","131334","0.0-112.0","""event"",""trial"",""time""
""fullscreenenter"",""0"",""3629""
","
","
","""event"",""trial"",""time""
""fullscreenenter"",""0"",""3629""
","
","954.8000000119209","run_exp/static/images/Set 6_rs/074a.jpg","78","","","","","","learn","SL",""
"","show_choice","113","132381","0.0-113.0","""event"",""trial"",""time""
""fullscreenenter"",""0"",""3629""
","
","
","""event"",""trial"",""time""
""fullscreenenter"",""0"",""3629""
","
","null","run_exp/static/images/Set 6_rs/074a.jpg","null","","","","","","learn","SL",""
"","html-keyboard-response","114","132882","0.0-114.0","""event"",""trial"",""time""
""fullscreenenter"",""0"",""3629""
","
","
","""event"",""trial"",""time""
""fullscreenenter"",""0"",""3629""
","
","null","<p></p>","null","","","","","","","",""
"","image","115","133495","0.0-115.0","""event"",""trial"",""time""
""fullscreenenter"",""0"",""3629""
","
","
","""event"",""trial"",""time""
""fullscreenenter"",""0"",""3629""
","
","611.5","run_exp/static/images/Set 6_rs/050a.jpg","86","","","","","","learn","SL",""
"","show_choice","116","134884","0.0-116.0","""event"",""trial"",""time""
""fullscreenenter"",""0"",""3629""
","
","
","""event"",""trial"",""time""
""fullscreenenter"",""0"",""3629""
","
","null","run_exp/static/images/Set 6_rs/050a.jpg","null","","","","","","learn","SL",""
"","html-keyboard-response","117","135386","0.0-117.0","""event"",""trial"",""time""
""fullscreenenter"",""0"",""3629""
","
","
","""event"",""trial"",""time""
""fullscreenenter"",""0"",""3629""
","
","null","<p></p>","null","","","","","","","",""
"","image","118","136468","0.0-118.0","""event"",""trial"",""time""
""fullscreenenter"",""0"",""3629""
","
","
","""event"",""trial"",""time""
""fullscreenenter"",""0"",""3629""
","
","1080.7999999970198","run_exp/static/images/Set 6_rs/167a.jpg","86","","","","","","learn","SL",""
"","show_choice","119","137389","0.0-119.0","""event"",""trial"",""time""
""fullscreenenter"",""0"",""3629""
","
","
","""event"",""trial"",""time""
""fullscreenenter"",""0"",""3629""
","
","null","run_exp/static/images/Set 6_rs/167a.jpg","null","","","","","","learn","SL",""
"","html-keyboard-response","120","137890","0.0-120.0","""event"",""trial"",""time""
""fullscreenenter"",""0"",""3629""
","
","
","""event"",""trial"",""time""
""fullscreenenter"",""0"",""3629""
","
","null","<p></p>","null","","","","","","","",""
"","image","121","138945","0.0-121.0","""event"",""trial"",""time""
""fullscreenenter"",""0"",""3629""
","
","
","""event"",""trial"",""time""
""fullscreenenter"",""0"",""3629""
","
","1052.9000000059605","run_exp/static/images/Set 6_rs/177a.jpg","78","","","","","","learn","SR",""
"","show_choice","122","139894","0.0-122.0","""event"",""trial"",""time""
""fullscreenenter"",""0"",""3629""
","
","
","""event"",""trial"",""time""
""fullscreenenter"",""0"",""3629""
","
","null","run_exp/static/images/Set 6_rs/177a.jpg","null","","","","","","learn","SR",""
"","html-keyboard-response","123","140395","0.0-123.0","""event"",""trial"",""time""
""fullscreenenter"",""0"",""3629""
","
","
","""event"",""trial"",""time""
""fullscreenenter"",""0"",""3629""
","
","null","<p></p>","null","","","","","","","",""
"","image","124","141012","0.0-124.0","""event"",""trial"",""time""
""fullscreenenter"",""0"",""3629""
","
","
","""event"",""trial"",""time""
""fullscreenenter"",""0"",""3629""
","
","616.0999999940395","run_exp/static/images/Set 6_rs/172a.jpg","86","","","","","","learn","SR",""
"","show_choice","125","142397","0.0-125.0","""event"",""trial"",""time""
""fullscreenenter"",""0"",""3629""
","
","
","""event"",""trial"",""time""
""fullscreenenter"",""0"",""3629""
","
","null","run_exp/static/images/Set 6_rs/172a.jpg","null","","","","","","learn","SR",""
"","html-keyboard-response","126","142898","0.0-126.0","""event"",""trial"",""time""
""fullscreenenter"",""0"",""3629""
","
","
","""event"",""trial"",""time""
""fullscreenenter"",""0"",""3629""
","
","null","<p></p>","null","","","","","","","",""
"","image","127","143840","0.0-127.0","""event"",""trial"",""time""
""fullscreenenter"",""0"",""3629""
","
","
","""event"",""trial"",""time""
""fullscreenenter"",""0"",""3629""
","
","940.5999999940395","run_exp/static/images/Set 6_rs/066a.jpg","78","","","","","","learn","SL",""
"","show_choice","128","144901","0.0-128.0","""event"",""trial"",""time""
""fullscreenenter"",""0"",""3629""
","
","
","""event"",""trial"",""time""
""fullscreenenter"",""0"",""3629""
","
","null","run_exp/static/images/Set 6_rs/066a.jpg","null","","","","","","learn","SL",""
"","html-keyboard-response","129","145402","0.0-129.0","""event"",""trial"",""time""
""fullscreenenter"",""0"",""3629""
","
","
","""event"",""trial"",""time""
""fullscreenenter"",""0"",""3629""
","
","null","<p></p>","null","","","","","","","",""
"","image","130","146174","0.0-130.0","""event"",""trial"",""time""
""fullscreenenter"",""0"",""3629""
","
","
","""event"",""trial"",""time""
""fullscreenenter"",""0"",""3629""
","
","771.2000000029802","run_exp/static/images/Set 6_rs/095a.jpg","86","","","","","","learn","SL",""
"","show_choice","131","147405","0.0-131.0","""event"",""trial"",""time""
""fullscreenenter"",""0"",""3629""
","
","
","""event"",""trial"",""time""
""fullscreenenter"",""0"",""3629""
","
","null","run_exp/static/images/Set 6_rs/095a.jpg","null","","","","","","learn","SL",""
"","html-keyboard-response","132","147907","0.0-132.0","""event"",""trial"",""time""
""fullscreenenter"",""0"",""3629""
","
","
","""event"",""trial"",""time""
""fullscreenenter"",""0"",""3629""
","
","null","<p></p>","null","","","","","","","",""
"","image","133","148486","0.0-133.0","""event"",""trial"",""time""
""fullscreenenter"",""0"",""3629""
","
","
","""event"",""trial"",""time""
""fullscreenenter"",""0"",""3629""
","
","577.4000000059605","run_exp/static/images/Set 6_rs/007a.jpg","86","","","","","","learn","SR",""
"","show_choice","134","149910","0.0-134.0","""event"",""trial"",""time""
""fullscreenenter"",""0"",""3629""
","
","
","""event"",""trial"",""time""
""fullscreenenter"",""0"",""3629""
","
","null","run_exp/static/images/Set 6_rs/007a.jpg","null","","","","","","learn","SR",""
"","html-keyboard-response","135","150411","0.0-135.0","""event"",""trial"",""time""
""fullscreenenter"",""0"",""3629""
","
","
","""event"",""trial"",""time""
""fullscreenenter"",""0"",""3629""
","
","null","<p></p>","null","","","","","","","",""
"","image","136","151585","0.0-136.0","""event"",""trial"",""time""
""fullscreenenter"",""0"",""3629""
","
","
","""event"",""trial"",""time""
""fullscreenenter"",""0"",""3629""
","
","1173.2000000029802","run_exp/static/images/Set 6_rs/017a.jpg","78","","","","","","learn","SL",""
"","show_choice","137","152413","0.0-137.0","""event"",""trial"",""time""
""fullscreenenter"",""0"",""3629""
","
","
","""event"",""trial"",""time""
""fullscreenenter"",""0"",""3629""
","
","null","run_exp/static/images/Set 6_rs/017a.jpg","null","","","","","","learn","SL",""
"","html-keyboard-response","138","152914","0.0-138.0","""event"",""trial"",""time""
""fullscreenenter"",""0"",""3629""
","
","
","""event"",""trial"",""time""
""fullscreenenter"",""0"",""3629""
","
","null","<p></p>","null","","","","","","","",""
"","image","139","153838","0.0-139.0","""event"",""trial"",""time""
""fullscreenenter"",""0"",""3629""
","
","
","""event"",""trial"",""time""
""fullscreenenter"",""0"",""3629""
","
","921.6000000089407","run_exp/static/images/Set 6_rs/144a.jpg","86","","","","","","learn","SL",""
"","show_choice","140","154918","0.0-140.0","""event"",""trial"",""time""
""fullscreenenter"",""0"",""3629""
","
","
","""event"",""trial"",""time""
""fullscreenenter"",""0"",""3629""
","
","null","run_exp/static/images/Set 6_rs/144a.jpg","null","","","","","","learn","SL",""
"","html-keyboard-response","141","155419","0.0-141.0","""event"",""trial"",""time""
""fullscreenenter"",""0"",""3629""
","
","
","""event"",""trial"",""time""
""fullscreenenter"",""0"",""3629""
","
","null","<p></p>","null","","","","","","","",""
"","image","142","156046","0.0-142.0","""event"",""trial"",""time""
""fullscreenenter"",""0"",""3629""
","
","
","""event"",""trial"",""time""
""fullscreenenter"",""0"",""3629""
","
","625.5","run_exp/static/images/Set 6_rs/071a.jpg","86","","","","","","learn","SL",""
"","show_choice","143","157422","0.0-143.0","""event"",""trial"",""time""
""fullscreenenter"",""0"",""3629""
","
","
","""event"",""trial"",""time""
""fullscreenenter"",""0"",""3629""
","
","null","run_exp/static/images/Set 6_rs/071a.jpg","null","","","","","","learn","SL",""
"","html-keyboard-response","144","157923","0.0-144.0","""event"",""trial"",""time""
""fullscreenenter"",""0"",""3629""
","
","
","""event"",""trial"",""time""
""fullscreenenter"",""0"",""3629""
","
","null","<p></p>","null","","","","","","","",""
"","image","145","159007","0.0-145.0","""event"",""trial"",""time""
""fullscreenenter"",""0"",""3629""
","
","
","""event"",""trial"",""time""
""fullscreenenter"",""0"",""3629""
","
","1082.4000000059605","run_exp/static/images/Set 6_rs/079a.jpg","86","","","","","","learn","SL",""
"","show_choice","146","159926","0.0-146.0","""event"",""trial"",""time""
""fullscreenenter"",""0"",""3629""
","
","
","""event"",""trial"",""time""
""fullscreenenter"",""0"",""3629""
","
","null","run_exp/static/images/Set 6_rs/079a.jpg","null","","","","","","learn","SL",""
"","html-keyboard-response","147","160427","0.0-147.0","""event"",""trial"",""time""
""fullscreenenter"",""0"",""3629""
","
","
","""event"",""trial"",""time""
""fullscreenenter"",""0"",""3629""
","
","null","<p></p>","null","","","","","","","",""
"","image","148","161411","0.0-148.0","""event"",""trial"",""time""
""fullscreenenter"",""0"",""3629""
","
","
","""event"",""trial"",""time""
""fullscreenenter"",""0"",""3629""
","
","981.9000000059605","run_exp/static/images/Set 6_rs/055a.jpg","86","","","","","","learn","SL",""
"","show_choice","149","162430","0.0-149.0","""event"",""trial"",""time""
""fullscreenenter"",""0"",""3629""
","
","
","""event"",""trial"",""time""
""fullscreenenter"",""0"",""3629""
","
","null","run_exp/static/images/Set 6_rs/055a.jpg","null","","","","","","learn","SL",""
"","html-keyboard-response","150","162931","0.0-150.0","""event"",""trial"",""time""
""fullscreenenter"",""0"",""3629""
","
","
","""event"",""trial"",""time""
""fullscreenenter"",""0"",""3629""
","
","null","<p></p>","null","","","","","","","",""
"","image","151","163904","0.0-151.0","""event"",""trial"",""time""
""fullscreenenter"",""0"",""3629""
","
","
","""event"",""trial"",""time""
""fullscreenenter"",""0"",""3629""
","
","971.2000000029802","run_exp/static/images/Set 6_rs/150a.jpg","86","","","","","","learn","SR",""
"","show_choice","152","164934","0.0-152.0","""event"",""trial"",""time""
""fullscreenenter"",""0"",""3629""
","
","
","""event"",""trial"",""time""
""fullscreenenter"",""0"",""3629""
","
","null","run_exp/static/images/Set 6_rs/150a.jpg","null","","","","","","learn","SR",""
"","html-keyboard-response","153","165436","0.0-153.0","""event"",""trial"",""time""
""fullscreenenter"",""0"",""3629""
","
","
","""event"",""trial"",""time""
""fullscreenenter"",""0"",""3629""
","
","null","<p></p>","null","","","","","","","",""
"","image","154","166218","0.0-154.0","""event"",""trial"",""time""
""fullscreenenter"",""0"",""3629""
","
","
","""event"",""trial"",""time""
""fullscreenenter"",""0"",""3629""
","
","780.5","run_exp/static/images/Set 6_rs/076a.jpg","78","","","","","","learn","SR",""
"","show_choice","155","167439","0.0-155.0","""event"",""trial"",""time""
""fullscreenenter"",""0"",""3629""
","
","
","""event"",""trial"",""time""
""fullscreenenter"",""0"",""3629""
","
","null","run_exp/static/images/Set 6_rs/076a.jpg","null","","","","","","learn","SR",""
"","html-keyboard-response","156","167940","0.0-156.0","""event"",""trial"",""time""
""fullscreenenter"",""0"",""3629""
","
","
","""event"",""trial"",""time""
""fullscreenenter"",""0"",""3629""
","
","null","<p></p>","null","","","","","","","",""
"","image","157","168537","0.0-157.0","""event"",""trial"",""time""
""fullscreenenter"",""0"",""3629""
","
","
","""event"",""trial"",""time""
""fullscreenenter"",""0"",""3629""
","
","595.1999999880791","run_exp/static/images/Set 6_rs/075a.jpg","86","","","","","","learn","SR",""
"","show_choice","158","169942","0.0-158.0","""event"",""trial"",""time""
""fullscreenenter"",""0"",""3629""
","
","
","""event"",""trial"",""time""
""fullscreenenter"",""0"",""3629""
","
","null","run_exp/static/images/Set 6_rs/075a.jpg","null","","","","","","learn","SR",""
"","html-keyboard-response","159","170444","0.0-159.0","""event"",""trial"",""time""
""fullscreenenter"",""0"",""3629""
","
","
","""event"",""trial"",""time""
""fullscreenenter"",""0"",""3629""
","
","null","<p></p>","null","","","","","","","",""
"","image","160","171600","0.0-160.0","""event"",""trial"",""time""
""fullscreenenter"",""0"",""3629""
","
","
","""event"",""trial"",""time""
""fullscreenenter"",""0"",""3629""
","
","1155","run_exp/static/images/Set 6_rs/108a.jpg","78","","","","","","learn","SR",""
"","show_choice","161","172446","0.0-161.0","""event"",""trial"",""time""
""fullscreenenter"",""0"",""3629""
","
","
","""event"",""trial"",""time""
""fullscreenenter"",""0"",""3629""
","
","null","run_exp/static/images/Set 6_rs/108a.jpg","null","","","","","","learn","SR",""
"","html-keyboard-response","162","172948","0.0-162.0","""event"",""trial"",""time""
""fullscreenenter"",""0"",""3629""
","
","
","""event"",""trial"",""time""
""fullscreenenter"",""0"",""3629""
","
","null","<p></p>","null","","","","","","","",""
"","image","163","174002","0.0-163.0","""event"",""trial"",""time""
""fullscreenenter"",""0"",""3629""
","
","
","""event"",""trial"",""time""
""fullscreenenter"",""0"",""3629""
","
","1052.699999988079","run_exp/static/images/Set 6_rs/085a.jpg","78","","","","","","learn","SL",""
"","show_choice","164","174951","0.0-164.0","""event"",""trial"",""time""
""fullscreenenter"",""0"",""3629""
","
","
","""event"",""trial"",""time""
""fullscreenenter"",""0"",""3629""
","
","null","run_exp/static/images/Set 6_rs/085a.jpg","null","","","","","","learn","SL",""
"","html-keyboard-response","165","175452","0.0-165.0","""event"",""trial"",""time""
""fullscreenenter"",""0"",""3629""
","
","
","""event"",""trial"",""time""
""fullscreenenter"",""0"",""3629""
","
","null","<p></p>","null","","","","","","","",""
"","image","166","176769","0.0-166.0","""event"",""trial"",""time""
""fullscreenenter"",""0"",""3629""
","
","
","""event"",""trial"",""time""
""fullscreenenter"",""0"",""3629""
","
","1316","run_exp/static/images/Set 6_rs/169a.jpg","78","","","","","","learn","SR",""
"","show_choice","167","177455","0.0-167.0","""event"",""trial"",""time""
""fullscreenenter"",""0"",""3629""
","
","
","""event"",""trial"",""time""
""fullscreenenter"",""0"",""3629""
","
","null","run_exp/static/images/Set 6_rs/169a.jpg","null","","","","","","learn","SR",""
"","html-keyboard-response","168","177956","0.0-168.0","""event"",""trial"",""time""
""fullscreenenter"",""0"",""3629""
","
","
","""event"",""trial"",""time""
""fullscreenenter"",""0"",""3629""
","
","null","<p></p>","null","","","","","","","",""
"","image","169","179022","0.0-169.0","""event"",""trial"",""time""
""fullscreenenter"",""0"",""3629""
","
","
","""event"",""trial"",""time""
""fullscreenenter"",""0"",""3629""
","
","1064","run_exp/static/images/Set 6_rs/129a.jpg","86","","","","","","learn","SL",""
"","show_choice","170","179960","0.0-170.0","""event"",""trial"",""time""
""fullscreenenter"",""0"",""3629""
","
","
","""event"",""trial"",""time""
""fullscreenenter"",""0"",""3629""
","
","null","run_exp/static/images/Set 6_rs/129a.jpg","null","","","","","","learn","SL",""
"","html-keyboard-response","171","180461","0.0-171.0","""event"",""trial"",""time""
""fullscreenenter"",""0"",""3629""
","
","
","""event"",""trial"",""time""
""fullscreenenter"",""0"",""3629""
","
","null","<p></p>","null","","","","","","","",""
"","image","172","181490","0.0-172.0","""event"",""trial"",""time""
""fullscreenenter"",""0"",""3629""
","
","
","""event"",""trial"",""time""
""fullscreenenter"",""0"",""3629""
","
","1027.5","run_exp/static/images/Set 6_rs/089a.jpg","86","","","","","","learn","SL",""
"","show_choice","173","182464","0.0-173.0","""event"",""trial"",""time""
""fullscreenenter"",""0"",""3629""
","
","
","""event"",""trial"",""time""
""fullscreenenter"",""0"",""3629""
","
","null","run_exp/static/images/Set 6_rs/089a.jpg","null","","","","","","learn","SL",""
"","html-keyboard-response","174","182966","0.0-174.0","""event"",""trial"",""time""
""fullscreenenter"",""0"",""3629""
","
","
","""event"",""trial"",""time""
""fullscreenenter"",""0"",""3629""
","
","null","<p></p>","null","","","","","","","",""
"","image","175","183734","0.0-175.0","""event"",""trial"",""time""
""fullscreenenter"",""0"",""3629""
","
","
","""event"",""trial"",""time""
""fullscreenenter"",""0"",""3629""
","
","767","run_exp/static/images/Set 6_rs/019a.jpg","86","","","","","","learn","SL",""
"","show_choice","176","184969","0.0-176.0","""event"",""trial"",""time""
""fullscreenenter"",""0"",""3629""
","
","
","""event"",""trial"",""time""
""fullscreenenter"",""0"",""3629""
","
","null","run_exp/static/images/Set 6_rs/019a.jpg","null","","","","","","learn","SL",""
"","html-keyboard-response","177","185470","0.0-177.0","""event"",""trial"",""time""
""fullscreenenter"",""0"",""3629""
","
","
","""event"",""trial"",""time""
""fullscreenenter"",""0"",""3629""
","
","null","<p></p>","null","","","","","","","",""
"","image","178","186521","0.0-178.0","""event"",""trial"",""time""
""fullscreenenter"",""0"",""3629""
","
","
","""event"",""trial"",""time""
""fullscreenenter"",""0"",""3629""
","
","1048.7999999970198","run_exp/static/images/Set 6_rs/010a.jpg","86","","","","","","learn","SR",""
"","show_choice","179","187474","0.0-179.0","""event"",""trial"",""time""
""fullscreenenter"",""0"",""3629""
","
","
","""event"",""trial"",""time""
""fullscreenenter"",""0"",""3629""
","
","null","run_exp/static/images/Set 6_rs/010a.jpg","null","","","","","","learn","SR",""
"","html-keyboard-response","180","187975","0.0-180.0","""event"",""trial"",""time""
""fullscreenenter"",""0"",""3629""
","
","
","""event"",""trial"",""time""
""fullscreenenter"",""0"",""3629""
","
","null","<p></p>","null","","","","","","","",""
"","image","181","188861","0.0-181.0","""event"",""trial"",""time""
""fullscreenenter"",""0"",""3629""
","
","
","""event"",""trial"",""time""
""fullscreenenter"",""0"",""3629""
","
","884.9000000059605","run_exp/static/images/Set 6_rs/123a.jpg","78","","","","","","learn","SL",""
"","show_choice","182","189978","0.0-182.0","""event"",""trial"",""time""
""fullscreenenter"",""0"",""3629""
","
","
","""event"",""trial"",""time""
""fullscreenenter"",""0"",""3629""
","
","null","run_exp/static/images/Set 6_rs/123a.jpg","null","","","","","","learn","SL",""
"","html-keyboard-response","183","190479","0.0-183.0","""event"",""trial"",""time""
""fullscreenenter"",""0"",""3629""
","
","
","""event"",""trial"",""time""
""fullscreenenter"",""0"",""3629""
","
","null","<p></p>","null","","","","","","","",""
"","image","184","191302","0.0-184.0","""event"",""trial"",""time""
""fullscreenenter"",""0"",""3629""
","
","
","""event"",""trial"",""time""
""fullscreenenter"",""0"",""3629""
","
","820.5999999940395","run_exp/static/images/Set 6_rs/122a.jpg","78","","","","","","learn","SR",""
"","show_choice","185","192482","0.0-185.0","""event"",""trial"",""time""
""fullscreenenter"",""0"",""3629""
","
","
","""event"",""trial"",""time""
""fullscreenenter"",""0"",""3629""
","
","null","run_exp/static/images/Set 6_rs/122a.jpg","null","","","","","","learn","SR",""
"","html-keyboard-response","186","192984","0.0-186.0","""event"",""trial"",""time""
""fullscreenenter"",""0"",""3629""
","
","
","""event"",""trial"",""time""
""fullscreenenter"",""0"",""3629""
","
","null","<p></p>","null","","","","","","","",""
"","image","187","193798","0.0-187.0","""event"",""trial"",""time""
""fullscreenenter"",""0"",""3629""
","
","
","""event"",""trial"",""time""
""fullscreenenter"",""0"",""3629""
","
","813.2000000029802","run_exp/static/images/Set 6_rs/023a.jpg","86","","","","","","learn","SR",""
"","show_choice","188","194988","0.0-188.0","""event"",""trial"",""time""
""fullscreenenter"",""0"",""3629""
","
","
","""event"",""trial"",""time""
""fullscreenenter"",""0"",""3629""
","
","null","run_exp/static/images/Set 6_rs/023a.jpg","null","","","","","","learn","SR",""
"","html-keyboard-response","189","195489","0.0-189.0","""event"",""trial"",""time""
""fullscreenenter"",""0"",""3629""
","
","
","""event"",""trial"",""time""
""fullscreenenter"",""0"",""3629""
","
","null","<p></p>","null","","","","","","","",""
"","image","190","196699","0.0-190.0","""event"",""trial"",""time""
""fullscreenenter"",""0"",""3629""
","
","
","""event"",""trial"",""time""
""fullscreenenter"",""0"",""3629""
","
","1208.3999999910593","run_exp/static/images/Set 6_rs/036a.jpg","86","","","","","","learn","SL",""
"","show_choice","191","197492","0.0-191.0","""event"",""trial"",""time""
""fullscreenenter"",""0"",""3629""
","
","
","""event"",""trial"",""time""
""fullscreenenter"",""0"",""3629""
","
","null","run_exp/static/images/Set 6_rs/036a.jpg","null","","","","","","learn","SL",""
"","html-keyboard-response","192","197994","0.0-192.0","""event"",""trial"",""time""
""fullscreenenter"",""0"",""3629""
","
","
","""event"",""trial"",""time""
""fullscreenenter"",""0"",""3629""
","
","null","<p></p>","null","","","","","","","",""
"","image","193","199253","0.0-193.0","""event"",""trial"",""time""
""fullscreenenter"",""0"",""3629""
","
","
","""event"",""trial"",""time""
""fullscreenenter"",""0"",""3629""
","
","1258.4000000059605","run_exp/static/images/Set 6_rs/091a.jpg","78","","","","","","learn","SL",""
"","show_choice","194","199997","0.0-194.0","""event"",""trial"",""time""
""fullscreenenter"",""0"",""3629""
","
","
","""event"",""trial"",""time""
""fullscreenenter"",""0"",""3629""
","
","null","run_exp/static/images/Set 6_rs/091a.jpg","null","","","","","","learn","SL",""
"","html-keyboard-response","195","200498","0.0-195.0","""event"",""trial"",""time""
""fullscreenenter"",""0"",""3629""
","
","
","""event"",""trial"",""time""
""fullscreenenter"",""0"",""3629""
","
","null","<p></p>","null","","","","","","","",""
"","test_intro","196","237479","0.0-196.0","""event"",""trial"",""time""
""fullscreenenter"",""0"",""3629""
","
","
","""event"",""trial"",""time""
""fullscreenenter"",""0"",""3629""
","
","null","run_exp/static/audio/clip_2_memory.m4a","null","","","","","<div class='center'><p>Now, lets see how much you remember about the items you just saw.  For each item, you need to indicate if it was <b>old</b> by pressing the <b>v</b> key, <b>similar</b> by pressing the <b>b</b> key, or <b>new</b> by pressing the <b>n</b> key.</p><p>Old refers to an item that you saw before in the indoor/outdoor game that you just played, new refers to an item you have <b>not</b> seen before within the indoor/outdoor game, and similar refers to an item that is similar to an item youve seen before but is not exactly the same. </p><p>Before we begin, lets go over some brief demonstrations to make sure you understand.</p></div>","","",""
"","html-keyboard-response","197","238598","0.0-197.0","""event"",""trial"",""time""
""fullscreenenter"",""0"",""3629""
","
","
","""event"",""trial"",""time""
""fullscreenenter"",""0"",""3629""
","
","1116.2999999970198","<div class='center'><p>Now, lets see how much you remember about the items you just saw.  For each item, you need to indicate if it was <b>old</b> by pressing the <b>v</b> key, <b>similar</b> by pressing the <b>b</b> key, or <b>new</b> by pressing the <b>n</b> key.</p><p>Old refers to an item that you saw before in the indoor/outdoor game that you just played, new refers to an item you have <b>not</b> seen before within the indoor/outdoor game, and similar refers to an item that is similar to an item youve seen before but is not exactly the same. </p><p>Before we begin, lets go over some brief demonstrations to make sure you understand.</p><div><p><b>[Press the space bar to continue]</b></p></div>","32","","","","","","","",""
"","items","198","246102","0.0-198.0","""event"",""trial"",""time""
""fullscreenenter"",""0"",""3629""
","
","
","""event"",""trial"",""time""
""fullscreenenter"",""0"",""3629""
","
","null","run_exp/static/audio/clip_3_items.m4a","null","","","","","","","",""
"","mop","199","250609","0.0-199.0","""event"",""trial"",""time""
""fullscreenenter"",""0"",""3629""
","
","
","""event"",""trial"",""time""
""fullscreenenter"",""0"",""3629""
","
","null","run_exp/static/audio/clip_4_mop.m4a","null","","","","","","","",""
"","baseball","200","254111","0.0-200.0","""event"",""trial"",""time""
""fullscreenenter"",""0"",""3629""
","
","
","""event"",""trial"",""time""
""fullscreenenter"",""0"",""3629""
","
","null","run_exp/static/audio/clip_5_baseball.m4a","null","","","","","","","",""
"","trumpet","201","257622","0.0-201.0","""event"",""trial"",""time""
""fullscreenenter"",""0"",""3629""
","
","
","""event"",""trial"",""time""
""fullscreenenter"",""0"",""3629""
","
","null","run_exp/static/audio/clip_6_trumpet.m4a","null","","","","","","","",""
"","gummies","202","261124","0.0-202.0","""event"",""trial"",""time""
""fullscreenenter"",""0"",""3629""
","
","
","""event"",""trial"",""time""
""fullscreenenter"",""0"",""3629""
","
","null","run_exp/static/audio/clip_7_gummies.m4a","null","","","","","","","",""
"","osn","203","265626","0.0-203.0","""event"",""trial"",""time""
""fullscreenenter"",""0"",""3629""
","
","
","""event"",""trial"",""time""
""fullscreenenter"",""0"",""3629""
","
","null","run_exp/static/audio/clip_8_osn.m4a","null","","","","","","","",""
"","old_1","204","272132","0.0-204.0","""event"",""trial"",""time""
""fullscreenenter"",""0"",""3629""
","
","
","""event"",""trial"",""time""
""fullscreenenter"",""0"",""3629""
","
","null","run_exp/static/audio/clip_9_old_trumpet.m4a","null","","","","","","","",""
"","new_1","205","279636","0.0-205.0","""event"",""trial"",""time""
""fullscreenenter"",""0"",""3629""
","
","
","""event"",""trial"",""time""
""fullscreenenter"",""0"",""3629""
","
","null","run_exp/static/audio/clip_10_new_balloon.m4a","null","","","","","","","",""
"","similar_1a","206","284140","0.0-206.0","""event"",""trial"",""time""
""fullscreenenter"",""0"",""3629""
","
","
","""event"",""trial"",""time""
""fullscreenenter"",""0"",""3629""
","
","null","run_exp/static/audio/clip_11a_similar_mop.m4a","null","","","","","","","",""
"","similar_1b","207","290643","0.0-207.0","""event"",""trial"",""time""
""fullscreenenter"",""0"",""3629""
","
","
","""event"",""trial"",""time""
""fullscreenenter"",""0"",""3629""
","
","null","run_exp/static/audio/clip_11b_similar_mop.m4a","null","","","","","","","",""
"","new_2","208","294146","0.0-208.0","""event"",""trial"",""time""
""fullscreenenter"",""0"",""3629""
","
","
","""event"",""trial"",""time""
""fullscreenenter"",""0"",""3629""
","
","null","run_exp/static/audio/clip_12_new_stoplight.m4a","null","","","","","","","",""
"","old_2","209","297648","0.0-209.0","""event"",""trial"",""time""
""fullscreenenter"",""0"",""3629""
","
","
","""event"",""trial"",""time""
""fullscreenenter"",""0"",""3629""
","
","null","run_exp/static/audio/clip_13_old_baseball.m4a","null","","","","","","","",""
"","similar_2a","210","301152","0.0-210.0","""event"",""trial"",""time""
""fullscreenenter"",""0"",""3629""
","
","
","""event"",""trial"",""time""
""fullscreenenter"",""0"",""3629""
","
","null","run_exp/static/audio/clip_14a_similar_gummies.m4a","null","","","","","","","",""
"","similar_2b","211","308655","0.0-211.0","""event"",""trial"",""time""
""fullscreenenter"",""0"",""3629""
","
","
","""event"",""trial"",""time""
""fullscreenenter"",""0"",""3629""
","
","null","run_exp/static/audio/clip_14b_similar_gummies.m4a","null","","","","","","","",""
"","practice","212","350972","0.0-212.0","""event"",""trial"",""time""
""fullscreenenter"",""0"",""3629""
","
","
","""event"",""trial"",""time""
""fullscreenenter"",""0"",""3629""
","
","null","run_exp/static/audio/clip_15_practice.m4a","null","","","","","<div class='center'><p>Lets practice a little to make sure you understand the difference between new, similar, and old. Lets say you saw these three items in the indoor/outdoor game.</p><p> Try your best to remember these images because youll soon be tested on them in a practice game. In the practice game, youll be shown images and youll have to say if they are old (one of the three images belows), similar (similar to one of the images below but not exactly the same), or new (are not one of the images below nor similar to them).</p><p>Once you press the space bar youll be shown these images again but one at time. Then youll begin the practice game.</p><p><img src='run_exp/static/images/tutorial/test/three_indoor_outdoor.png' height='300'></p></div>","","",""
"","html-keyboard-response","213","351467","0.0-213.0","""event"",""trial"",""time""
""fullscreenenter"",""0"",""3629""
","
","
","""event"",""trial"",""time""
""fullscreenenter"",""0"",""3629""
","
","493.3999999910593","<div class='center'><p>Lets practice a little to make sure you understand the difference between new, similar, and old. Lets say you saw these three items in the indoor/outdoor game.</p><p> Try your best to remember these images because youll soon be tested on them in a practice game. In the practice game, youll be shown images and youll have to say if they are old (one of the three images belows), similar (similar to one of the images below but not exactly the same), or new (are not one of the images below nor similar to them).</p><p>Once you press the space bar youll be shown these images again but one at time. Then youll begin the practice game.</p><p><img src='run_exp/static/images/tutorial/test/three_indoor_outdoor.png' height='300'></p><div><p><b>[Press the space bar to continue]</b></p></div>","32","","","","","","","",""
"","planet","214","353469","0.0-214.0","""event"",""trial"",""time""
""fullscreenenter"",""0"",""3629""
","
","
","""event"",""trial"",""time""
""fullscreenenter"",""0"",""3629""
","
","null","run_exp/static/images/tutorial/test/008a.jpg","null","","","","","","","",""
"","boot","215","355471","0.0-215.0","""event"",""trial"",""time""
""fullscreenenter"",""0"",""3629""
","
","
","""event"",""trial"",""time""
""fullscreenenter"",""0"",""3629""
","
","null","run_exp/static/images/tutorial/test/011a.jpg","null","","","","","","","",""
"","lemon","216","357472","0.0-216.0","""event"",""trial"",""time""
""fullscreenenter"",""0"",""3629""
","
","
","""event"",""trial"",""time""
""fullscreenenter"",""0"",""3629""
","
","null","run_exp/static/images/tutorial/test/018a.jpg","null","","","","","","","",""
"","practice_q1","217","361434","0.0-217.0","""event"",""trial"",""time""
""fullscreenenter"",""0"",""3629""
","
","
","""event"",""trial"",""time""
""fullscreenenter"",""0"",""3629""
","
","3958.1000000089407","run_exp/static/audio/clip_16_practice_question.m4a","78","","","","","","","",""
"","correct","218","363517","0.0-218.0-0.0","""event"",""trial"",""time""
""fullscreenenter"",""0"",""3629""
","
","
","""event"",""trial"",""time""
""fullscreenenter"",""0"",""3629""
","
","null","run_exp/static/audio/clip_17_correct.m4a","null","","","","","<div class='center'><p>That's correct!</p></div>","","",""
"","html-keyboard-response","219","364376","0.0-218.0-1.0","""event"",""trial"",""time""
""fullscreenenter"",""0"",""3629""
","
","
","""event"",""trial"",""time""
""fullscreenenter"",""0"",""3629""
","
","857.1999999880791","<div class='center'><p>That's correct!</p><div><p><b>[Press the space bar to continue]</b></p></div>","32","","","","","","","",""
"","practice_q2","220","365764","0.0-218.0-2.0","""event"",""trial"",""time""
""fullscreenenter"",""0"",""3629""
","
","
","""event"",""trial"",""time""
""fullscreenenter"",""0"",""3629""
","
","1385.3999999910593","run_exp/static/audio/clip_16_practice_question.m4a","86","","","","","","","",""
"","correct","221","367868","0.0-219.0-0.0","""event"",""trial"",""time""
""fullscreenenter"",""0"",""3629""
","
","
","""event"",""trial"",""time""
""fullscreenenter"",""0"",""3629""
","
","null","run_exp/static/audio/clip_17_correct.m4a","null","","","","","<div class='center'><p>That's correct!</p></div>","","",""
"","html-keyboard-response","222","368492","0.0-219.0-1.0","""event"",""trial"",""time""
""fullscreenenter"",""0"",""3629""
","
","
","""event"",""trial"",""time""
""fullscreenenter"",""0"",""3629""
","
","622.6999999880791","<div class='center'><p>That's correct!</p><div><p><b>[Press the space bar to continue]</b></p></div>","32","","","","","","","",""
"","practice_q3","223","369277","0.0-219.0-2.0","""event"",""trial"",""time""
""fullscreenenter"",""0"",""3629""
","
","
","""event"",""trial"",""time""
""fullscreenenter"",""0"",""3629""
","
","777.6000000089407","run_exp/static/audio/clip_16_practice_question.m4a","66","","","","","","","",""
"","correct","224","371622","0.0-220.0-0.0","""event"",""trial"",""time""
""fullscreenenter"",""0"",""3629""
","
","
","""event"",""trial"",""time""
""fullscreenenter"",""0"",""3629""
","
","null","run_exp/static/audio/clip_17_correct.m4a","null","","","","","<div class='center'><p>That's correct!</p></div>","","",""
"","html-keyboard-response","225","372118","0.0-220.0-1.0","""event"",""trial"",""time""
""fullscreenenter"",""0"",""3629""
","
","
","""event"",""trial"",""time""
""fullscreenenter"",""0"",""3629""
","
","494.59999999403954","<div class='center'><p>That's correct!</p><div><p><b>[Press the space bar to continue]</b></p></div>","32","","","","","","","",""
"","begin_text","226","390738","0.0-221.0-0.0","""event"",""trial"",""time""
""fullscreenenter"",""0"",""3629""
","
","
","""event"",""trial"",""time""
""fullscreenenter"",""0"",""3629""
","
","null","run_exp/static/audio/clip_22_begin_test.m4a","null","","","","","<div class='center'><p>On to the real game where well test your memory of items from the indoor/outdoor game. For each item, you need to indicate if the item is <b>old</b> by pressing the <b>v</b> key, <b>similar</b> by pressing the <b>b</b> key, or <b>new</b> by pressing the <b>n</b> key. </p></div>","","",""
"","html-keyboard-response","227","392584","0.0-221.0-1.0","""event"",""trial"",""time""
""fullscreenenter"",""0"",""3629""
","
","
","""event"",""trial"",""time""
""fullscreenenter"",""0"",""3629""
","
","1843.2999999970198","<div class='center'><p>On to the real game where well test your memory of items from the indoor/outdoor game. For each item, you need to indicate if the item is <b>old</b> by pressing the <b>v</b> key, <b>similar</b> by pressing the <b>b</b> key, or <b>new</b> by pressing the <b>n</b> key. </p><div><p><b>[Press the space bar to continue]</b></p></div>","32","","","","","","","",""
"","image","228","394649","0.0-222.0-0.0","""event"",""trial"",""time""
""fullscreenenter"",""0"",""3629""
","
","
","""event"",""trial"",""time""
""fullscreenenter"",""0"",""3629""
","
","2063","run_exp/static/images/Set 6_rs/166a.jpg","66","","","","","","test","TR","1"
"","show_choice","229","395152","0.0-222.0-1.0","""event"",""trial"",""time""
""fullscreenenter"",""0"",""3629""
","
","
","""event"",""trial"",""time""
""fullscreenenter"",""0"",""3629""
","
","null","run_exp/static/images/Set 6_rs/166a.jpg","null","","","","","","test","TR",""
"","html-keyboard-response","230","395653","0.0-222.0-2.0","""event"",""trial"",""time""
""fullscreenenter"",""0"",""3629""
","
","
","""event"",""trial"",""time""
""fullscreenenter"",""0"",""3629""
","
","null","<p></p>","null","","","","","","","",""
"","image","231","398143","0.0-223.0-0.0","""event"",""trial"",""time""
""fullscreenenter"",""0"",""3629""
","
","
","""event"",""trial"",""time""
""fullscreenenter"",""0"",""3629""
","
","2488","run_exp/static/images/Set 6_rs/105a.jpg","66","","","","","","test","TF","5"
"","show_choice","232","398645","0.0-223.0-1.0","""event"",""trial"",""time""
""fullscreenenter"",""0"",""3629""
","
","
","""event"",""trial"",""time""
""fullscreenenter"",""0"",""3629""
","
","null","run_exp/static/images/Set 6_rs/105a.jpg","null","","","","","","test","TF",""
"","html-keyboard-response","233","399147","0.0-223.0-2.0","""event"",""trial"",""time""
""fullscreenenter"",""0"",""3629""
","
","
","""event"",""trial"",""time""
""fullscreenenter"",""0"",""3629""
","
","null","<p></p>","null","","","","","","","",""
"","image","234","401169","0.0-224.0-0.0","""event"",""trial"",""time""
""fullscreenenter"",""0"",""3629""
","
","
","""event"",""trial"",""time""
""fullscreenenter"",""0"",""3629""
","
","2019.7999999970198","run_exp/static/images/Set 6_rs/061a.jpg","86","","","","","","test","TR","5"
"","show_choice","235","401671","0.0-224.0-1.0","""event"",""trial"",""time""
""fullscreenenter"",""0"",""3629""
","
","
","""event"",""trial"",""time""
""fullscreenenter"",""0"",""3629""
","
","null","run_exp/static/images/Set 6_rs/061a.jpg","null","","","","","","test","TR",""
"","html-keyboard-response","236","402173","0.0-224.0-2.0","""event"",""trial"",""time""
""fullscreenenter"",""0"",""3629""
","
","
","""event"",""trial"",""time""
""fullscreenenter"",""0"",""3629""
","
","null","<p></p>","null","","","","","","","",""
"","image","237","403787","0.0-225.0-0.0","""event"",""trial"",""time""
""fullscreenenter"",""0"",""3629""
","
","
","""event"",""trial"",""time""
""fullscreenenter"",""0"",""3629""
","
","1612.5999999940395","run_exp/static/images/Set 6_rs/118a.jpg","78","","","","","","test","TF","5"
"","show_choice","238","404291","0.0-225.0-1.0","""event"",""trial"",""time""
""fullscreenenter"",""0"",""3629""
","
","
","""event"",""trial"",""time""
""fullscreenenter"",""0"",""3629""
","
","null","run_exp/static/images/Set 6_rs/118a.jpg","null","","","","","","test","TF",""
"","html-keyboard-response","239","404793","0.0-225.0-2.0","""event"",""trial"",""time""
""fullscreenenter"",""0"",""3629""
","
","
","""event"",""trial"",""time""
""fullscreenenter"",""0"",""3629""
","
","null","<p></p>","null","","","","","","","",""
"","image","240","406040","0.0-226.0-0.0","""event"",""trial"",""time""
""fullscreenenter"",""0"",""3629""
","
","
","""event"",""trial"",""time""
""fullscreenenter"",""0"",""3629""
","
","1245","run_exp/static/images/Set 6_rs/075a.jpg","86","","","","","","test","TR","1"
"","show_choice","241","406542","0.0-226.0-1.0","""event"",""trial"",""time""
""fullscreenenter"",""0"",""3629""
","
","
","""event"",""trial"",""time""
""fullscreenenter"",""0"",""3629""
","
","null","run_exp/static/images/Set 6_rs/075a.jpg","null","","","","","","test","TR",""
"","html-keyboard-response","242","407044","0.0-226.0-2.0","""event"",""trial"",""time""
""fullscreenenter"",""0"",""3629""
","
","
","""event"",""trial"",""time""
""fullscreenenter"",""0"",""3629""
","
","null","<p></p>","null","","","","","","","",""
"","image","243","408778","0.0-227.0-0.0","""event"",""trial"",""time""
""fullscreenenter"",""0"",""3629""
","
","
","""event"",""trial"",""time""
""fullscreenenter"",""0"",""3629""
","
","1731.7999999970198","run_exp/static/images/Set 6_rs/176a.jpg","78","","","","","","test","TF","4"
"","show_choice","244","409280","0.0-227.0-1.0","""event"",""trial"",""time""
""fullscreenenter"",""0"",""3629""
","
","
","""event"",""trial"",""time""
""fullscreenenter"",""0"",""3629""
","
","null","run_exp/static/images/Set 6_rs/176a.jpg","null","","","","","","test","TF",""
"","html-keyboard-response","245","409782","0.0-227.0-2.0","""event"",""trial"",""time""
""fullscreenenter"",""0"",""3629""
","
","
","""event"",""trial"",""time""
""fullscreenenter"",""0"",""3629""
","
","null","<p></p>","null","","","","","","","",""
"","image","246","410935","0.0-228.0-0.0","""event"",""trial"",""time""
""fullscreenenter"",""0"",""3629""
","
","
","""event"",""trial"",""time""
""fullscreenenter"",""0"",""3629""
","
","1151.7999999970198","run_exp/static/images/Set 6_rs/097a.jpg","78","","","","","","test","TF","5"
"","show_choice","247","411437","0.0-228.0-1.0","""event"",""trial"",""time""
""fullscreenenter"",""0"",""3629""
","
","
","""event"",""trial"",""time""
""fullscreenenter"",""0"",""3629""
","
","null","run_exp/static/images/Set 6_rs/097a.jpg","null","","","","","","test","TF",""
"","html-keyboard-response","248","411939","0.0-228.0-2.0","""event"",""trial"",""time""
""fullscreenenter"",""0"",""3629""
","
","
","""event"",""trial"",""time""
""fullscreenenter"",""0"",""3629""
","
","null","<p></p>","null","","","","","","","",""
"","image","249","413784","0.0-229.0-0.0","""event"",""trial"",""time""
""fullscreenenter"",""0"",""3629""
","
","
","""event"",""trial"",""time""
""fullscreenenter"",""0"",""3629""
","
","1843.5","run_exp/static/images/Set 6_rs/056a.jpg","78","","","","","","test","TF","3"
"","show_choice","250","414287","0.0-229.0-1.0","""event"",""trial"",""time""
""fullscreenenter"",""0"",""3629""
","
","
","""event"",""trial"",""time""
""fullscreenenter"",""0"",""3629""
","
","null","run_exp/static/images/Set 6_rs/056a.jpg","null","","","","","","test","TF",""
"","html-keyboard-response","251","414788","0.0-229.0-2.0","""event"",""trial"",""time""
""fullscreenenter"",""0"",""3629""
","
","
","""event"",""trial"",""time""
""fullscreenenter"",""0"",""3629""
","
","null","<p></p>","null","","","","","","","",""
"","image","252","417228","0.0-230.0-0.0","""event"",""trial"",""time""
""fullscreenenter"",""0"",""3629""
","
","
","""event"",""trial"",""time""
""fullscreenenter"",""0"",""3629""
","
","2438.199999988079","run_exp/static/images/Set 6_rs/089b.jpg","86","","","","","","test","TL","4"
"","show_choice","253","417731","0.0-230.0-1.0","""event"",""trial"",""time""
""fullscreenenter"",""0"",""3629""
","
","
","""event"",""trial"",""time""
""fullscreenenter"",""0"",""3629""
","
","null","run_exp/static/images/Set 6_rs/089b.jpg","null","","","","","","test","TL",""
"","html-keyboard-response","254","418233","0.0-230.0-2.0","""event"",""trial"",""time""
""fullscreenenter"",""0"",""3629""
","
","
","""event"",""trial"",""time""
""fullscreenenter"",""0"",""3629""
","
","null","<p></p>","null","","","","","","","",""
"","image","255","419483","0.0-231.0-0.0","""event"",""trial"",""time""
""fullscreenenter"",""0"",""3629""
","
","
","""event"",""trial"",""time""
""fullscreenenter"",""0"",""3629""
","
","1248.4000000059605","run_exp/static/images/Set 6_rs/109a.jpg","78","","","","","","test","TF","5"
"","show_choice","256","419985","0.0-231.0-1.0","""event"",""trial"",""time""
""fullscreenenter"",""0"",""3629""
","
","
","""event"",""trial"",""time""
""fullscreenenter"",""0"",""3629""
","
","null","run_exp/static/images/Set 6_rs/109a.jpg","null","","","","","","test","TF",""
"","html-keyboard-response","257","420487","0.0-231.0-2.0","""event"",""trial"",""time""
""fullscreenenter"",""0"",""3629""
","
","
","""event"",""trial"",""time""
""fullscreenenter"",""0"",""3629""
","
","null","<p></p>","null","","","","","","","",""
"","image","258","421415","0.0-232.0-0.0","""event"",""trial"",""time""
""fullscreenenter"",""0"",""3629""
","
","
","""event"",""trial"",""time""
""fullscreenenter"",""0"",""3629""
","
","926.2000000029802","run_exp/static/images/Set 6_rs/022a.jpg","78","","","","","","test","TF","4"
"","show_choice","259","421917","0.0-232.0-1.0","""event"",""trial"",""time""
""fullscreenenter"",""0"",""3629""
","
","
","""event"",""trial"",""time""
""fullscreenenter"",""0"",""3629""
","
","null","run_exp/static/images/Set 6_rs/022a.jpg","null","","","","","","test","TF",""
"","html-keyboard-response","260","422419","0.0-232.0-2.0","""event"",""trial"",""time""
""fullscreenenter"",""0"",""3629""
","
","
","""event"",""trial"",""time""
""fullscreenenter"",""0"",""3629""
","
","null","<p></p>","null","","","","","","","",""
"","image","261","424891","0.0-233.0-0.0","""event"",""trial"",""time""
""fullscreenenter"",""0"",""3629""
","
","
","""event"",""trial"",""time""
""fullscreenenter"",""0"",""3629""
","
","2469.5999999940395","run_exp/static/images/Set 6_rs/131a.jpg","86","","","","","","test","TR","5"
"","show_choice","262","425393","0.0-233.0-1.0","""event"",""trial"",""time""
""fullscreenenter"",""0"",""3629""
","
","
","""event"",""trial"",""time""
""fullscreenenter"",""0"",""3629""
","
","null","run_exp/static/images/Set 6_rs/131a.jpg","null","","","","","","test","TR",""
"","html-keyboard-response","263","425895","0.0-233.0-2.0","""event"",""trial"",""time""
""fullscreenenter"",""0"",""3629""
","
","
","""event"",""trial"",""time""
""fullscreenenter"",""0"",""3629""
","
","null","<p></p>","null","","","","","","","",""
"","image","264","427212","0.0-234.0-0.0","""event"",""trial"",""time""
""fullscreenenter"",""0"",""3629""
","
","
","""event"",""trial"",""time""
""fullscreenenter"",""0"",""3629""
","
","1316","run_exp/static/images/Set 6_rs/057b.jpg","86","","","","","","test","TL","1"
"","show_choice","265","427715","0.0-234.0-1.0","""event"",""trial"",""time""
""fullscreenenter"",""0"",""3629""
","
","
","""event"",""trial"",""time""
""fullscreenenter"",""0"",""3629""
","
","null","run_exp/static/images/Set 6_rs/057b.jpg","null","","","","","","test","TL",""
"","html-keyboard-response","266","428217","0.0-234.0-2.0","""event"",""trial"",""time""
""fullscreenenter"",""0"",""3629""
","
","
","""event"",""trial"",""time""
""fullscreenenter"",""0"",""3629""
","
","null","<p></p>","null","","","","","","","",""
"","image","267","429511","0.0-235.0-0.0","""event"",""trial"",""time""
""fullscreenenter"",""0"",""3629""
","
","
","""event"",""trial"",""time""
""fullscreenenter"",""0"",""3629""
","
","1292.300000011921","run_exp/static/images/Set 6_rs/050b.jpg","66","","","","","","test","TL","3"
"","show_choice","268","430013","0.0-235.0-1.0","""event"",""trial"",""time""
""fullscreenenter"",""0"",""3629""
","
","
","""event"",""trial"",""time""
""fullscreenenter"",""0"",""3629""
","
","null","run_exp/static/images/Set 6_rs/050b.jpg","null","","","","","","test","TL",""
"","html-keyboard-response","269","430515","0.0-235.0-2.0","""event"",""trial"",""time""
""fullscreenenter"",""0"",""3629""
","
","
","""event"",""trial"",""time""
""fullscreenenter"",""0"",""3629""
","
","null","<p></p>","null","","","","","","","",""
"","image","270","431922","0.0-236.0-0.0","""event"",""trial"",""time""
""fullscreenenter"",""0"",""3629""
","
","
","""event"",""trial"",""time""
""fullscreenenter"",""0"",""3629""
","
","1405.7000000029802","run_exp/static/images/Set 6_rs/123b.jpg","86","","","","","","test","TL","2"
"","show_choice","271","432424","0.0-236.0-1.0","""event"",""trial"",""time""
""fullscreenenter"",""0"",""3629""
","
","
","""event"",""trial"",""time""
""fullscreenenter"",""0"",""3629""
","
","null","run_exp/static/images/Set 6_rs/123b.jpg","null","","","","","","test","TL",""
"","html-keyboard-response","272","432926","0.0-236.0-2.0","""event"",""trial"",""time""
""fullscreenenter"",""0"",""3629""
","
","
","""event"",""trial"",""time""
""fullscreenenter"",""0"",""3629""
","
","null","<p></p>","null","","","","","","","",""
"","image","273","433957","0.0-237.0-0.0","""event"",""trial"",""time""
""fullscreenenter"",""0"",""3629""
","
","
","""event"",""trial"",""time""
""fullscreenenter"",""0"",""3629""
","
","1028.9000000059605","run_exp/static/images/Set 6_rs/112a.jpg","86","","","","","","test","TR","5"
"","show_choice","274","434459","0.0-237.0-1.0","""event"",""trial"",""time""
""fullscreenenter"",""0"",""3629""
","
","
","""event"",""trial"",""time""
""fullscreenenter"",""0"",""3629""
","
","null","run_exp/static/images/Set 6_rs/112a.jpg","null","","","","","","test","TR",""
"","html-keyboard-response","275","434961","0.0-237.0-2.0","""event"",""trial"",""time""
""fullscreenenter"",""0"",""3629""
","
","
","""event"",""trial"",""time""
""fullscreenenter"",""0"",""3629""
","
","null","<p></p>","null","","","","","","","",""
"","image","276","435914","0.0-238.0-0.0","""event"",""trial"",""time""
""fullscreenenter"",""0"",""3629""
","
","
","""event"",""trial"",""time""
""fullscreenenter"",""0"",""3629""
","
","951.2000000029802","run_exp/static/images/Set 6_rs/065a.jpg","78","","","","","","test","TF","3"
"","show_choice","277","436416","0.0-238.0-1.0","""event"",""trial"",""time""
""fullscreenenter"",""0"",""3629""
","
","
","""event"",""trial"",""time""
""fullscreenenter"",""0"",""3629""
","
","null","run_exp/static/images/Set 6_rs/065a.jpg","null","","","","","","test","TF",""
"","html-keyboard-response","278","436918","0.0-238.0-2.0","""event"",""trial"",""time""
""fullscreenenter"",""0"",""3629""
","
","
","""event"",""trial"",""time""
""fullscreenenter"",""0"",""3629""
","
","null","<p></p>","null","","","","","","","",""
"","image","279","437864","0.0-239.0-0.0","""event"",""trial"",""time""
""fullscreenenter"",""0"",""3629""
","
","
","""event"",""trial"",""time""
""fullscreenenter"",""0"",""3629""
","
","944.5","run_exp/static/images/Set 6_rs/170a.jpg","78","","","","","","test","TF","2"
"","show_choice","280","438366","0.0-239.0-1.0","""event"",""trial"",""time""
""fullscreenenter"",""0"",""3629""
","
","
","""event"",""trial"",""time""
""fullscreenenter"",""0"",""3629""
","
","null","run_exp/static/images/Set 6_rs/170a.jpg","null","","","","","","test","TF",""
"","html-keyboard-response","281","438868","0.0-239.0-2.0","""event"",""trial"",""time""
""fullscreenenter"",""0"",""3629""
","
","
","""event"",""trial"",""time""
""fullscreenenter"",""0"",""3629""
","
","null","<p></p>","null","","","","","","","",""
"","image","282","440773","0.0-240.0-0.0","""event"",""trial"",""time""
""fullscreenenter"",""0"",""3629""
","
","
","""event"",""trial"",""time""
""fullscreenenter"",""0"",""3629""
","
","1903.8999999910593","run_exp/static/images/Set 6_rs/079b.jpg","66","","","","","","test","TL","5"
"","show_choice","283","441275","0.0-240.0-1.0","""event"",""trial"",""time""
""fullscreenenter"",""0"",""3629""
","
","
","""event"",""trial"",""time""
""fullscreenenter"",""0"",""3629""
","
","null","run_exp/static/images/Set 6_rs/079b.jpg","null","","","","","","test","TL",""
"","html-keyboard-response","284","441777","0.0-240.0-2.0","""event"",""trial"",""time""
""fullscreenenter"",""0"",""3629""
","
","
","""event"",""trial"",""time""
""fullscreenenter"",""0"",""3629""
","
","null","<p></p>","null","","","","","","","",""
"","image","285","443086","0.0-241.0-0.0","""event"",""trial"",""time""
""fullscreenenter"",""0"",""3629""
","
","
","""event"",""trial"",""time""
""fullscreenenter"",""0"",""3629""
","
","1307.5","run_exp/static/images/Set 6_rs/008b.jpg","86","","","","","","test","TL","2"
"","show_choice","286","443589","0.0-241.0-1.0","""event"",""trial"",""time""
""fullscreenenter"",""0"",""3629""
","
","
","""event"",""trial"",""time""
""fullscreenenter"",""0"",""3629""
","
","null","run_exp/static/images/Set 6_rs/008b.jpg","null","","","","","","test","TL",""
"","html-keyboard-response","287","444091","0.0-241.0-2.0","""event"",""trial"",""time""
""fullscreenenter"",""0"",""3629""
","
","
","""event"",""trial"",""time""
""fullscreenenter"",""0"",""3629""
","
","null","<p></p>","null","","","","","","","",""
"","image","288","445057","0.0-242.0-0.0","""event"",""trial"",""time""
""fullscreenenter"",""0"",""3629""
","
","
","""event"",""trial"",""time""
""fullscreenenter"",""0"",""3629""
","
","964.7999999970198","run_exp/static/images/Set 6_rs/121a.jpg","86","","","","","","test","TR","4"
"","show_choice","289","445559","0.0-242.0-1.0","""event"",""trial"",""time""
""fullscreenenter"",""0"",""3629""
","
","
","""event"",""trial"",""time""
""fullscreenenter"",""0"",""3629""
","
","null","run_exp/static/images/Set 6_rs/121a.jpg","null","","","","","","test","TR",""
"","html-keyboard-response","290","446061","0.0-242.0-2.0","""event"",""trial"",""time""
""fullscreenenter"",""0"",""3629""
","
","
","""event"",""trial"",""time""
""fullscreenenter"",""0"",""3629""
","
","null","<p></p>","null","","","","","","","",""
"","image","291","446728","0.0-243.0-0.0","""event"",""trial"",""time""
""fullscreenenter"",""0"",""3629""
","
","
","""event"",""trial"",""time""
""fullscreenenter"",""0"",""3629""
","
","665.5","run_exp/static/images/Set 6_rs/024a.jpg","86","","","","","","test","TR","5"
"","show_choice","292","447230","0.0-243.0-1.0","""event"",""trial"",""time""
""fullscreenenter"",""0"",""3629""
","
","
","""event"",""trial"",""time""
""fullscreenenter"",""0"",""3629""
","
","null","run_exp/static/images/Set 6_rs/024a.jpg","null","","","","","","test","TR",""
"","html-keyboard-response","293","447731","0.0-243.0-2.0","""event"",""trial"",""time""
""fullscreenenter"",""0"",""3629""
","
","
","""event"",""trial"",""time""
""fullscreenenter"",""0"",""3629""
","
","null","<p></p>","null","","","","","","","",""
"","image","294","448984","0.0-244.0-0.0","""event"",""trial"",""time""
""fullscreenenter"",""0"",""3629""
","
","
","""event"",""trial"",""time""
""fullscreenenter"",""0"",""3629""
","
","1251.2000000029802","run_exp/static/images/Set 6_rs/171a.jpg","66","","","","","","test","TF","1"
"","show_choice","295","449486","0.0-244.0-1.0","""event"",""trial"",""time""
""fullscreenenter"",""0"",""3629""
","
","
","""event"",""trial"",""time""
""fullscreenenter"",""0"",""3629""
","
","null","run_exp/static/images/Set 6_rs/171a.jpg","null","","","","","","test","TF",""
"","html-keyboard-response","296","449987","0.0-244.0-2.0","""event"",""trial"",""time""
""fullscreenenter"",""0"",""3629""
","
","
","""event"",""trial"",""time""
""fullscreenenter"",""0"",""3629""
","
","null","<p></p>","null","","","","","","","",""
"","image","297","450813","0.0-245.0-0.0","""event"",""trial"",""time""
""fullscreenenter"",""0"",""3629""
","
","
","""event"",""trial"",""time""
""fullscreenenter"",""0"",""3629""
","
","823.9000000059605","run_exp/static/images/Set 6_rs/078a.jpg","78","","","","","","test","TF","1"
"","show_choice","298","451315","0.0-245.0-1.0","""event"",""trial"",""time""
""fullscreenenter"",""0"",""3629""
","
","
","""event"",""trial"",""time""
""fullscreenenter"",""0"",""3629""
","
","null","run_exp/static/images/Set 6_rs/078a.jpg","null","","","","","","test","TF",""
"","html-keyboard-response","299","451816","0.0-245.0-2.0","""event"",""trial"",""time""
""fullscreenenter"",""0"",""3629""
","
","
","""event"",""trial"",""time""
""fullscreenenter"",""0"",""3629""
","
","null","<p></p>","null","","","","","","","",""
"","image","300","452841","0.0-246.0-0.0","""event"",""trial"",""time""
""fullscreenenter"",""0"",""3629""
","
","
","""event"",""trial"",""time""
""fullscreenenter"",""0"",""3629""
","
","1022.2999999970198","run_exp/static/images/Set 6_rs/150a.jpg","86","","","","","","test","TR","1"
"","show_choice","301","453342","0.0-246.0-1.0","""event"",""trial"",""time""
""fullscreenenter"",""0"",""3629""
","
","
","""event"",""trial"",""time""
""fullscreenenter"",""0"",""3629""
","
","null","run_exp/static/images/Set 6_rs/150a.jpg","null","","","","","","test","TR",""
"","html-keyboard-response","302","453844","0.0-246.0-2.0","""event"",""trial"",""time""
""fullscreenenter"",""0"",""3629""
","
","
","""event"",""trial"",""time""
""fullscreenenter"",""0"",""3629""
","
","null","<p></p>","null","","","","","","","",""
"","image","303","454658","0.0-247.0-0.0","""event"",""trial"",""time""
""fullscreenenter"",""0"",""3629""
","
","
","""event"",""trial"",""time""
""fullscreenenter"",""0"",""3629""
","
","812.7000000029802","run_exp/static/images/Set 6_rs/074b.jpg","86","","","","","","test","TL","4"
"","show_choice","304","455161","0.0-247.0-1.0","""event"",""trial"",""time""
""fullscreenenter"",""0"",""3629""
","
","
","""event"",""trial"",""time""
""fullscreenenter"",""0"",""3629""
","
","null","run_exp/static/images/Set 6_rs/074b.jpg","null","","","","","","test","TL",""
"","html-keyboard-response","305","455662","0.0-247.0-2.0","""event"",""trial"",""time""
""fullscreenenter"",""0"",""3629""
","
","
","""event"",""trial"",""time""
""fullscreenenter"",""0"",""3629""
","
","null","<p></p>","null","","","","","","","",""
"","image","306","456733","0.0-248.0-0.0","""event"",""trial"",""time""
""fullscreenenter"",""0"",""3629""
","
","
","""event"",""trial"",""time""
""fullscreenenter"",""0"",""3629""
","
","1069.4000000059605","run_exp/static/images/Set 6_rs/016b.jpg","86","","","","","","test","TL","1"
"","show_choice","307","457234","0.0-248.0-1.0","""event"",""trial"",""time""
""fullscreenenter"",""0"",""3629""
","
","
","""event"",""trial"",""time""
""fullscreenenter"",""0"",""3629""
","
","null","run_exp/static/images/Set 6_rs/016b.jpg","null","","","","","","test","TL",""
"","html-keyboard-response","308","457736","0.0-248.0-2.0","""event"",""trial"",""time""
""fullscreenenter"",""0"",""3629""
","
","
","""event"",""trial"",""time""
""fullscreenenter"",""0"",""3629""
","
","null","<p></p>","null","","","","","","","",""
"","image","309","459005","0.0-249.0-0.0","""event"",""trial"",""time""
""fullscreenenter"",""0"",""3629""
","
","
","""event"",""trial"",""time""
""fullscreenenter"",""0"",""3629""
","
","1268","run_exp/static/images/Set 6_rs/048a.jpg","66","","","","","","test","TF","4"
"","show_choice","310","459507","0.0-249.0-1.0","""event"",""trial"",""time""
""fullscreenenter"",""0"",""3629""
","
","
","""event"",""trial"",""time""
""fullscreenenter"",""0"",""3629""
","
","null","run_exp/static/images/Set 6_rs/048a.jpg","null","","","","","","test","TF",""
"","html-keyboard-response","311","460008","0.0-249.0-2.0","""event"",""trial"",""time""
""fullscreenenter"",""0"",""3629""
","
","
","""event"",""trial"",""time""
""fullscreenenter"",""0"",""3629""
","
","null","<p></p>","null","","","","","","","",""
"","image","312","461068","0.0-250.0-0.0","""event"",""trial"",""time""
""fullscreenenter"",""0"",""3629""
","
","
","""event"",""trial"",""time""
""fullscreenenter"",""0"",""3629""
","
","1058.2000000029802","run_exp/static/images/Set 6_rs/168b.jpg","66","","","","","","test","TL","3"
"","show_choice","313","461570","0.0-250.0-1.0","""event"",""trial"",""time""
""fullscreenenter"",""0"",""3629""
","
","
","""event"",""trial"",""time""
""fullscreenenter"",""0"",""3629""
","
","null","run_exp/static/images/Set 6_rs/168b.jpg","null","","","","","","test","TL",""
"","html-keyboard-response","314","462072","0.0-250.0-2.0","""event"",""trial"",""time""
""fullscreenenter"",""0"",""3629""
","
","
","""event"",""trial"",""time""
""fullscreenenter"",""0"",""3629""
","
","null","<p></p>","null","","","","","","","",""
"","image","315","463400","0.0-251.0-0.0","""event"",""trial"",""time""
""fullscreenenter"",""0"",""3629""
","
","
","""event"",""trial"",""time""
""fullscreenenter"",""0"",""3629""
","
","1326.699999988079","run_exp/static/images/Set 6_rs/071b.jpg","86","","","","","","test","TL","4"
"","show_choice","316","463902","0.0-251.0-1.0","""event"",""trial"",""time""
""fullscreenenter"",""0"",""3629""
","
","
","""event"",""trial"",""time""
""fullscreenenter"",""0"",""3629""
","
","null","run_exp/static/images/Set 6_rs/071b.jpg","null","","","","","","test","TL",""
"","html-keyboard-response","317","464404","0.0-251.0-2.0","""event"",""trial"",""time""
""fullscreenenter"",""0"",""3629""
","
","
","""event"",""trial"",""time""
""fullscreenenter"",""0"",""3629""
","
","null","<p></p>","null","","","","","","","",""
"","image","318","466130","0.0-252.0-0.0","""event"",""trial"",""time""
""fullscreenenter"",""0"",""3629""
","
","
","""event"",""trial"",""time""
""fullscreenenter"",""0"",""3629""
","
","1724.5","run_exp/static/images/Set 6_rs/117b.jpg","86","","","","","","test","TL","5"
"","show_choice","319","466632","0.0-252.0-1.0","""event"",""trial"",""time""
""fullscreenenter"",""0"",""3629""
","
","
","""event"",""trial"",""time""
""fullscreenenter"",""0"",""3629""
","
","null","run_exp/static/images/Set 6_rs/117b.jpg","null","","","","","","test","TL",""
"","html-keyboard-response","320","467134","0.0-252.0-2.0","""event"",""trial"",""time""
""fullscreenenter"",""0"",""3629""
","
","
","""event"",""trial"",""time""
""fullscreenenter"",""0"",""3629""
","
","null","<p></p>","null","","","","","","","",""
"","image","321","468394","0.0-253.0-0.0","""event"",""trial"",""time""
""fullscreenenter"",""0"",""3629""
","
","
","""event"",""trial"",""time""
""fullscreenenter"",""0"",""3629""
","
","1257.7999999970198","run_exp/static/images/Set 6_rs/014b.jpg","66","","","","","","test","TL","5"
"","show_choice","322","468895","0.0-253.0-1.0","""event"",""trial"",""time""
""fullscreenenter"",""0"",""3629""
","
","
","""event"",""trial"",""time""
""fullscreenenter"",""0"",""3629""
","
","null","run_exp/static/images/Set 6_rs/014b.jpg","null","","","","","","test","TL",""
"","html-keyboard-response","323","469397","0.0-253.0-2.0","""event"",""trial"",""time""
""fullscreenenter"",""0"",""3629""
","
","
","""event"",""trial"",""time""
""fullscreenenter"",""0"",""3629""
","
","null","<p></p>","null","","","","","","","",""
"","image","324","470695","0.0-254.0-0.0","""event"",""trial"",""time""
""fullscreenenter"",""0"",""3629""
","
","
","""event"",""trial"",""time""
""fullscreenenter"",""0"",""3629""
","
","1297.3999999910593","run_exp/static/images/Set 6_rs/108a.jpg","86","","","","","","test","TR","5"
"","show_choice","325","471197","0.0-254.0-1.0","""event"",""trial"",""time""
""fullscreenenter"",""0"",""3629""
","
","
","""event"",""trial"",""time""
""fullscreenenter"",""0"",""3629""
","
","null","run_exp/static/images/Set 6_rs/108a.jpg","null","","","","","","test","TR",""
"","html-keyboard-response","326","471698","0.0-254.0-2.0","""event"",""trial"",""time""
""fullscreenenter"",""0"",""3629""
","
","
","""event"",""trial"",""time""
""fullscreenenter"",""0"",""3629""
","
","null","<p></p>","null","","","","","","","",""
"","image","327","472556","0.0-255.0-0.0","""event"",""trial"",""time""
""fullscreenenter"",""0"",""3629""
","
","
","""event"",""trial"",""time""
""fullscreenenter"",""0"",""3629""
","
","856.2000000029802","run_exp/static/images/Set 6_rs/090a.jpg","78","","","","","","test","TF","5"
"","show_choice","328","473057","0.0-255.0-1.0","""event"",""trial"",""time""
""fullscreenenter"",""0"",""3629""
","
","
","""event"",""trial"",""time""
""fullscreenenter"",""0"",""3629""
","
","null","run_exp/static/images/Set 6_rs/090a.jpg","null","","","","","","test","TF",""
"","html-keyboard-response","329","473559","0.0-255.0-2.0","""event"",""trial"",""time""
""fullscreenenter"",""0"",""3629""
","
","
","""event"",""trial"",""time""
""fullscreenenter"",""0"",""3629""
","
","null","<p></p>","null","","","","","","","",""
"","image","330","474827","0.0-256.0-0.0","""event"",""trial"",""time""
""fullscreenenter"",""0"",""3629""
","
","
","""event"",""trial"",""time""
""fullscreenenter"",""0"",""3629""
","
","1267.2000000029802","run_exp/static/images/Set 6_rs/116b.jpg","66","","","","","","test","TL","2"
"","show_choice","331","475329","0.0-256.0-1.0","""event"",""trial"",""time""
""fullscreenenter"",""0"",""3629""
","
","
","""event"",""trial"",""time""
""fullscreenenter"",""0"",""3629""
","
","null","run_exp/static/images/Set 6_rs/116b.jpg","null","","","","","","test","TL",""
"","html-keyboard-response","332","475831","0.0-256.0-2.0","""event"",""trial"",""time""
""fullscreenenter"",""0"",""3629""
","
","
","""event"",""trial"",""time""
""fullscreenenter"",""0"",""3629""
","
","null","<p></p>","null","","","","","","","",""
"","image","333","477376","0.0-257.0-0.0","""event"",""trial"",""time""
""fullscreenenter"",""0"",""3629""
","
","
","""event"",""trial"",""time""
""fullscreenenter"",""0"",""3629""
","
","1543.7000000029802","run_exp/static/images/Set 6_rs/047a.jpg","78","","","","","","test","TF","3"
"","show_choice","334","477877","0.0-257.0-1.0","""event"",""trial"",""time""
""fullscreenenter"",""0"",""3629""
","
","
","""event"",""trial"",""time""
""fullscreenenter"",""0"",""3629""
","
","null","run_exp/static/images/Set 6_rs/047a.jpg","null","","","","","","test","TF",""
"","html-keyboard-response","335","478379","0.0-257.0-2.0","""event"",""trial"",""time""
""fullscreenenter"",""0"",""3629""
","
","
","""event"",""trial"",""time""
""fullscreenenter"",""0"",""3629""
","
","null","<p></p>","null","","","","","","","",""
"","image","336","479383","0.0-258.0-0.0","""event"",""trial"",""time""
""fullscreenenter"",""0"",""3629""
","
","
","""event"",""trial"",""time""
""fullscreenenter"",""0"",""3629""
","
","1002","run_exp/static/images/Set 6_rs/095b.jpg","86","","","","","","test","TL","5"
"","show_choice","337","479885","0.0-258.0-1.0","""event"",""trial"",""time""
""fullscreenenter"",""0"",""3629""
","
","
","""event"",""trial"",""time""
""fullscreenenter"",""0"",""3629""
","
","null","run_exp/static/images/Set 6_rs/095b.jpg","null","","","","","","test","TL",""
"","html-keyboard-response","338","480387","0.0-258.0-2.0","""event"",""trial"",""time""
""fullscreenenter"",""0"",""3629""
","
","
","""event"",""trial"",""time""
""fullscreenenter"",""0"",""3629""
","
","null","<p></p>","null","","","","","","","",""
"","image","339","482680","0.0-259.0-0.0","""event"",""trial"",""time""
""fullscreenenter"",""0"",""3629""
","
","
","""event"",""trial"",""time""
""fullscreenenter"",""0"",""3629""
","
","2292","run_exp/static/images/Set 6_rs/100a.jpg","66","","","","","","test","TF","2"
"","show_choice","340","483182","0.0-259.0-1.0","""event"",""trial"",""time""
""fullscreenenter"",""0"",""3629""
","
","
","""event"",""trial"",""time""
""fullscreenenter"",""0"",""3629""
","
","null","run_exp/static/images/Set 6_rs/100a.jpg","null","","","","","","test","TF",""
"","html-keyboard-response","341","483683","0.0-259.0-2.0","""event"",""trial"",""time""
