"success","trial_type","trial_index","time_elapsed","internal_node_id","interactions","blur_events","focus_events","fullscreenenter_events","fullscreenexit_events","rt","stimulus","key_press","subject_id","participant_id","age","gender","prompt","phase","condition","lure_bin"
"true","fullscreen","0","6404","0.0-0.0","""event"",""trial"",""time""
""fullscreenenter"",""0"",""5420""
","
","
","""event"",""trial"",""time""
""fullscreenenter"",""0"",""5420""
","
","","","","","","","","","","",""
"","pavlovia","1","6407","0.0-1.0","""event"",""trial"",""time""
""fullscreenenter"",""0"",""5420""
","
","
","""event"",""trial"",""time""
""fullscreenenter"",""0"",""5420""
","
","","","","","","","","","","",""
"","welcome","2","41306","0.0-2.0","""event"",""trial"",""time""
""fullscreenenter"",""0"",""5420""
","
","
","""event"",""trial"",""time""
""fullscreenenter"",""0"",""5420""
","
","null","run_exp/static/audio/clip_1_welcome.m4a","null","495","709","16","Male","<div class='center'><p>Welcome to the third part of the study! First, you'll be shown pictures of items one at a time. For each picture, you have to decide if the item is typically found indoors or outdoors.</p><p>If you think it's usually found indoors, then press <b>v</b> key on your keyboard. If you think it's usually found outdoors, then press the <b>n</b> key.There will be reminders on the screen to help you remember which keys to press. </p><p>If you're not sure whether the item is an indoor item or an outdoor item, go ahead and take a guess but try your best not to skip that choice. </p></div>","","",""
"","html-keyboard-response","3","42902","0.0-3.0","""event"",""trial"",""time""
""fullscreenenter"",""0"",""5420""
","
","
","""event"",""trial"",""time""
""fullscreenenter"",""0"",""5420""
","
","1593.7999999523163","<div class='center'><p>Welcome to the third part of the study! First, you'll be shown pictures of items one at a time. For each picture, you have to decide if the item is typically found indoors or outdoors.</p><p>If you think it's usually found indoors, then press <b>v</b> key on your keyboard. If you think it's usually found outdoors, then press the <b>n</b> key.There will be reminders on the screen to help you remember which keys to press. </p><p>If you're not sure whether the item is an indoor item or an outdoor item, go ahead and take a guess but try your best not to skip that choice. </p><div><p><b>[Press the space bar to continue]</b></p></div>","32","","","","","","","",""
"","image","4","44252","0.0-4.0","""event"",""trial"",""time""
""fullscreenenter"",""0"",""5420""
","
","
","""event"",""trial"",""time""
""fullscreenenter"",""0"",""5420""
","
","1348.6000000238419","run_exp/static/images/Set 6_rs/071a.jpg","86","","","","","","learn","SL",""
"","show_choice","5","44914","0.0-5.0","""event"",""trial"",""time""
""fullscreenenter"",""0"",""5420""
","
","
","""event"",""trial"",""time""
""fullscreenenter"",""0"",""5420""
","
","null","run_exp/static/images/Set 6_rs/071a.jpg","null","","","","","","learn","SL",""
"","html-keyboard-response","6","45429","0.0-6.0","""event"",""trial"",""time""
""fullscreenenter"",""0"",""5420""
","
","
","""event"",""trial"",""time""
""fullscreenenter"",""0"",""5420""
","
","null","<p></p>","null","","","","","","","",""
"","image","7","46598","0.0-7.0","""event"",""trial"",""time""
""fullscreenenter"",""0"",""5420""
","
","
","""event"",""trial"",""time""
""fullscreenenter"",""0"",""5420""
","
","1168.5","run_exp/static/images/Set 6_rs/138a.jpg","78","","","","","","learn","SL",""
"","show_choice","8","47445","0.0-8.0","""event"",""trial"",""time""
""fullscreenenter"",""0"",""5420""
","
","
","""event"",""trial"",""time""
""fullscreenenter"",""0"",""5420""
","
","null","run_exp/static/images/Set 6_rs/138a.jpg","null","","","","","","learn","SL",""
"","html-keyboard-response","9","47960","0.0-9.0","""event"",""trial"",""time""
""fullscreenenter"",""0"",""5420""
","
","
","""event"",""trial"",""time""
""fullscreenenter"",""0"",""5420""
","
","null","<p></p>","null","","","","","","","",""
"","image","10","48799","0.0-10.0","""event"",""trial"",""time""
""fullscreenenter"",""0"",""5420""
","
","
","""event"",""trial"",""time""
""fullscreenenter"",""0"",""5420""
","
","838","run_exp/static/images/Set 6_rs/024a.jpg","86","","","","","","learn","SR",""
"","show_choice","11","49964","0.0-11.0","""event"",""trial"",""time""
""fullscreenenter"",""0"",""5420""
","
","
","""event"",""trial"",""time""
""fullscreenenter"",""0"",""5420""
","
","null","run_exp/static/images/Set 6_rs/024a.jpg","null","","","","","","learn","SR",""
"","html-keyboard-response","12","50481","0.0-12.0","""event"",""trial"",""time""
""fullscreenenter"",""0"",""5420""
","
","
","""event"",""trial"",""time""
""fullscreenenter"",""0"",""5420""
","
","null","<p></p>","null","","","","","","","",""
"","image","13","51615","0.0-13.0","""event"",""trial"",""time""
""fullscreenenter"",""0"",""5420""
","
","
","""event"",""trial"",""time""
""fullscreenenter"",""0"",""5420""
","
","1132.7999999523163","run_exp/static/images/Set 6_rs/131a.jpg","86","","","","","","learn","SR",""
"","show_choice","14","52503","0.0-14.0","""event"",""trial"",""time""
""fullscreenenter"",""0"",""5420""
","
","
","""event"",""trial"",""time""
""fullscreenenter"",""0"",""5420""
","
","null","run_exp/static/images/Set 6_rs/131a.jpg","null","","","","","","learn","SR",""
"","html-keyboard-response","15","53015","0.0-15.0","""event"",""trial"",""time""
""fullscreenenter"",""0"",""5420""
","
","
","""event"",""trial"",""time""
""fullscreenenter"",""0"",""5420""
","
","null","<p></p>","null","","","","","","","",""
"","image","16","53691","0.0-16.0","""event"",""trial"",""time""
""fullscreenenter"",""0"",""5420""
","
","
","""event"",""trial"",""time""
""fullscreenenter"",""0"",""5420""
","
","674.9000000953674","run_exp/static/images/Set 6_rs/172a.jpg","78","","","","","","learn","SR",""
"","show_choice","17","55037","0.0-17.0","""event"",""trial"",""time""
""fullscreenenter"",""0"",""5420""
","
","
","""event"",""trial"",""time""
""fullscreenenter"",""0"",""5420""
","
","null","run_exp/static/images/Set 6_rs/172a.jpg","null","","","","","","learn","SR",""
"","html-keyboard-response","18","55542","0.0-18.0","""event"",""trial"",""time""
""fullscreenenter"",""0"",""5420""
","
","
","""event"",""trial"",""time""
""fullscreenenter"",""0"",""5420""
","
","null","<p></p>","null","","","","","","","",""
"","image","19","56483","0.0-19.0","""event"",""trial"",""time""
""fullscreenenter"",""0"",""5420""
","
","
","""event"",""trial"",""time""
""fullscreenenter"",""0"",""5420""
","
","940.6000000238419","run_exp/static/images/Set 6_rs/074a.jpg","78","","","","","","learn","SL",""
"","show_choice","20","57548","0.0-20.0","""event"",""trial"",""time""
""fullscreenenter"",""0"",""5420""
","
","
","""event"",""trial"",""time""
""fullscreenenter"",""0"",""5420""
","
","null","run_exp/static/images/Set 6_rs/074a.jpg","null","","","","","","learn","SL",""
"","html-keyboard-response","21","58052","0.0-21.0","""event"",""trial"",""time""
""fullscreenenter"",""0"",""5420""
","
","
","""event"",""trial"",""time""
""fullscreenenter"",""0"",""5420""
","
","null","<p></p>","null","","","","","","","",""
"","image","22","59668","0.0-22.0","""event"",""trial"",""time""
""fullscreenenter"",""0"",""5420""
","
","
","""event"",""trial"",""time""
""fullscreenenter"",""0"",""5420""
","
","1615.3000000715256","run_exp/static/images/Set 6_rs/025a.jpg","78","","","","","","learn","SL",""
"","show_choice","23","60059","0.0-23.0","""event"",""trial"",""time""
""fullscreenenter"",""0"",""5420""
","
","
","""event"",""trial"",""time""
""fullscreenenter"",""0"",""5420""
","
","null","run_exp/static/images/Set 6_rs/025a.jpg","null","","","","","","learn","SL",""
"","html-keyboard-response","24","60566","0.0-24.0","""event"",""trial"",""time""
""fullscreenenter"",""0"",""5420""
","
","
","""event"",""trial"",""time""
""fullscreenenter"",""0"",""5420""
","
","null","<p></p>","null","","","","","","","",""
"","image","25","61265","0.0-25.0","""event"",""trial"",""time""
""fullscreenenter"",""0"",""5420""
","
","
","""event"",""trial"",""time""
""fullscreenenter"",""0"",""5420""
","
","698.3999999761581","run_exp/static/images/Set 6_rs/007a.jpg","86","","","","","","learn","SR",""
"","show_choice","26","62580","0.0-26.0","""event"",""trial"",""time""
""fullscreenenter"",""0"",""5420""
","
","
","""event"",""trial"",""time""
""fullscreenenter"",""0"",""5420""
","
","null","run_exp/static/images/Set 6_rs/007a.jpg","null","","","","","","learn","SR",""
"","html-keyboard-response","27","63084","0.0-27.0","""event"",""trial"",""time""
""fullscreenenter"",""0"",""5420""
","
","
","""event"",""trial"",""time""
""fullscreenenter"",""0"",""5420""
","
","null","<p></p>","null","","","","","","","",""
"","image","28","64227","0.0-28.0","""event"",""trial"",""time""
""fullscreenenter"",""0"",""5420""
","
","
","""event"",""trial"",""time""
""fullscreenenter"",""0"",""5420""
","
","1141.5","run_exp/static/images/Set 6_rs/141a.jpg","78","","","","","","learn","SR",""
"","show_choice","29","65089","0.0-29.0","""event"",""trial"",""time""
""fullscreenenter"",""0"",""5420""
","
","
","""event"",""trial"",""time""
""fullscreenenter"",""0"",""5420""
","
","null","run_exp/static/images/Set 6_rs/141a.jpg","null","","","","","","learn","SR",""
"","html-keyboard-response","30","65600","0.0-30.0","""event"",""trial"",""time""
""fullscreenenter"",""0"",""5420""
","
","
","""event"",""trial"",""time""
""fullscreenenter"",""0"",""5420""
","
","null","<p></p>","null","","","","","","","",""
"","image","31","66241","0.0-31.0","""event"",""trial"",""time""
""fullscreenenter"",""0"",""5420""
","
","
","""event"",""trial"",""time""
""fullscreenenter"",""0"",""5420""
","
","641","run_exp/static/images/Set 6_rs/095a.jpg","86","","","","","","learn","SL",""
"","show_choice","32","67609","0.0-32.0","""event"",""trial"",""time""
""fullscreenenter"",""0"",""5420""
","
","
","""event"",""trial"",""time""
""fullscreenenter"",""0"",""5420""
","
","null","run_exp/static/images/Set 6_rs/095a.jpg","null","","","","","","learn","SL",""
"","html-keyboard-response","33","68115","0.0-33.0","""event"",""trial"",""time""
""fullscreenenter"",""0"",""5420""
","
","
","""event"",""trial"",""time""
""fullscreenenter"",""0"",""5420""
","
","null","<p></p>","null","","","","","","","",""
"","image","34","69265","0.0-34.0","""event"",""trial"",""time""
""fullscreenenter"",""0"",""5420""
","
","
","""event"",""trial"",""time""
""fullscreenenter"",""0"",""5420""
","
","1149.3999999761581","run_exp/static/images/Set 6_rs/012a.jpg","86","","","","","","learn","SR",""
"","show_choice","35","70126","0.0-35.0","""event"",""trial"",""time""
""fullscreenenter"",""0"",""5420""
","
","
","""event"",""trial"",""time""
""fullscreenenter"",""0"",""5420""
","
","null","run_exp/static/images/Set 6_rs/012a.jpg","null","","","","","","learn","SR",""
"","html-keyboard-response","36","70636","0.0-36.0","""event"",""trial"",""time""
""fullscreenenter"",""0"",""5420""
","
","
","""event"",""trial"",""time""
""fullscreenenter"",""0"",""5420""
","
","null","<p></p>","null","","","","","","","",""
"","image","37","71629","0.0-37.0","""event"",""trial"",""time""
""fullscreenenter"",""0"",""5420""
","
","
","""event"",""trial"",""time""
""fullscreenenter"",""0"",""5420""
","
","992.3000000715256","run_exp/static/images/Set 6_rs/126a.jpg","78","","","","","","learn","SR",""
"","show_choice","38","72652","0.0-38.0","""event"",""trial"",""time""
""fullscreenenter"",""0"",""5420""
","
","
","""event"",""trial"",""time""
""fullscreenenter"",""0"",""5420""
","
","null","run_exp/static/images/Set 6_rs/126a.jpg","null","","","","","","learn","SR",""
"","html-keyboard-response","39","73165","0.0-39.0","""event"",""trial"",""time""
""fullscreenenter"",""0"",""5420""
","
","
","""event"",""trial"",""time""
""fullscreenenter"",""0"",""5420""
","
","null","<p></p>","null","","","","","","","",""
"","image","40","74553","0.0-40.0","""event"",""trial"",""time""
""fullscreenenter"",""0"",""5420""
","
","
","""event"",""trial"",""time""
""fullscreenenter"",""0"",""5420""
","
","1387.5","run_exp/static/images/Set 6_rs/122a.jpg","86","","","","","","learn","SR",""
"","show_choice","41","75175","0.0-41.0","""event"",""trial"",""time""
""fullscreenenter"",""0"",""5420""
","
","
","""event"",""trial"",""time""
""fullscreenenter"",""0"",""5420""
","
","null","run_exp/static/images/Set 6_rs/122a.jpg","null","","","","","","learn","SR",""
"","html-keyboard-response","42","75681","0.0-42.0","""event"",""trial"",""time""
""fullscreenenter"",""0"",""5420""
","
","
","""event"",""trial"",""time""
""fullscreenenter"",""0"",""5420""
","
","null","<p></p>","null","","","","","","","",""
"","image","43","76566","0.0-43.0","""event"",""trial"",""time""
""fullscreenenter"",""0"",""5420""
","
","
","""event"",""trial"",""time""
""fullscreenenter"",""0"",""5420""
","
","884","run_exp/static/images/Set 6_rs/186a.jpg","86","","","","","","learn","SR",""
"","show_choice","44","77691","0.0-44.0","""event"",""trial"",""time""
""fullscreenenter"",""0"",""5420""
","
","
","""event"",""trial"",""time""
""fullscreenenter"",""0"",""5420""
","
","null","run_exp/static/images/Set 6_rs/186a.jpg","null","","","","","","learn","SR",""
"","html-keyboard-response","45","78197","0.0-45.0","""event"",""trial"",""time""
""fullscreenenter"",""0"",""5420""
","
","
","""event"",""trial"",""time""
""fullscreenenter"",""0"",""5420""
","
","null","<p></p>","null","","","","","","","",""
"","image","46","79182","0.0-46.0","""event"",""trial"",""time""
""fullscreenenter"",""0"",""5420""
","
","
","""event"",""trial"",""time""
""fullscreenenter"",""0"",""5420""
","
","983.1999999284744","run_exp/static/images/Set 6_rs/055a.jpg","86","","","","","","learn","SL",""
"","show_choice","47","80213","0.0-47.0","""event"",""trial"",""time""
""fullscreenenter"",""0"",""5420""
","
","
","""event"",""trial"",""time""
""fullscreenenter"",""0"",""5420""
","
","null","run_exp/static/images/Set 6_rs/055a.jpg","null","","","","","","learn","SL",""
"","html-keyboard-response","48","80730","0.0-48.0","""event"",""trial"",""time""
""fullscreenenter"",""0"",""5420""
","
","
","""event"",""trial"",""time""
""fullscreenenter"",""0"",""5420""
","
","null","<p></p>","null","","","","","","","",""
"","image","49","81427","0.0-49.0","""event"",""trial"",""time""
""fullscreenenter"",""0"",""5420""
","
","
","""event"",""trial"",""time""
""fullscreenenter"",""0"",""5420""
","
","696.2999999523163","run_exp/static/images/Set 6_rs/075a.jpg","86","","","","","","learn","SR",""
"","show_choice","50","82744","0.0-50.0","""event"",""trial"",""time""
""fullscreenenter"",""0"",""5420""
","
","
","""event"",""trial"",""time""
""fullscreenenter"",""0"",""5420""
","
","null","run_exp/static/images/Set 6_rs/075a.jpg","null","","","","","","learn","SR",""
"","html-keyboard-response","51","83247","0.0-51.0","""event"",""trial"",""time""
""fullscreenenter"",""0"",""5420""
","
","
","""event"",""trial"",""time""
""fullscreenenter"",""0"",""5420""
","
","null","<p></p>","null","","","","","","","",""
"","image","52","84198","0.0-52.0","""event"",""trial"",""time""
""fullscreenenter"",""0"",""5420""
","
","
","""event"",""trial"",""time""
""fullscreenenter"",""0"",""5420""
","
","950.1000000238419","run_exp/static/images/Set 6_rs/132a.jpg","78","","","","","","learn","SR",""
"","show_choice","53","85252","0.0-53.0","""event"",""trial"",""time""
""fullscreenenter"",""0"",""5420""
","
","
","""event"",""trial"",""time""
""fullscreenenter"",""0"",""5420""
","
","null","run_exp/static/images/Set 6_rs/132a.jpg","null","","","","","","learn","SR",""
"","html-keyboard-response","54","85757","0.0-54.0","""event"",""trial"",""time""
""fullscreenenter"",""0"",""5420""
","
","
","""event"",""trial"",""time""
""fullscreenenter"",""0"",""5420""
","
","null","<p></p>","null","","","","","","","",""
"","image","55","87174","0.0-55.0","""event"",""trial"",""time""
""fullscreenenter"",""0"",""5420""
","
","
","""event"",""trial"",""time""
""fullscreenenter"",""0"",""5420""
","
","1415.7999999523163","run_exp/static/images/Set 6_rs/117a.jpg","86","","","","","","learn","SL",""
"","show_choice","56","87774","0.0-56.0","""event"",""trial"",""time""
""fullscreenenter"",""0"",""5420""
","
","
","""event"",""trial"",""time""
""fullscreenenter"",""0"",""5420""
","
","null","run_exp/static/images/Set 6_rs/117a.jpg","null","","","","","","learn","SL",""
"","html-keyboard-response","57","88277","0.0-57.0","""event"",""trial"",""time""
""fullscreenenter"",""0"",""5420""
","
","
","""event"",""trial"",""time""
""fullscreenenter"",""0"",""5420""
","
","null","<p></p>","null","","","","","","","",""
"","image","58","89322","0.0-58.0","""event"",""trial"",""time""
""fullscreenenter"",""0"",""5420""
","
","
","""event"",""trial"",""time""
""fullscreenenter"",""0"",""5420""
","
","1043.6999999284744","run_exp/static/images/Set 6_rs/178a.jpg","78","","","","","","learn","SR",""
"","show_choice","59","90281","0.0-59.0","""event"",""trial"",""time""
""fullscreenenter"",""0"",""5420""
","
","
","""event"",""trial"",""time""
""fullscreenenter"",""0"",""5420""
","
","null","run_exp/static/images/Set 6_rs/178a.jpg","null","","","","","","learn","SR",""
"","html-keyboard-response","60","90796","0.0-60.0","""event"",""trial"",""time""
""fullscreenenter"",""0"",""5420""
","
","
","""event"",""trial"",""time""
""fullscreenenter"",""0"",""5420""
","
","null","<p></p>","null","","","","","","","",""
"","image","61","92300","0.0-61.0","""event"",""trial"",""time""
""fullscreenenter"",""0"",""5420""
","
","
","""event"",""trial"",""time""
""fullscreenenter"",""0"",""5420""
","
","1502.6999999284744","run_exp/static/images/Set 6_rs/088a.jpg","78","","","","","","learn","SR",""
"","show_choice","62","92812","0.0-62.0","""event"",""trial"",""time""
""fullscreenenter"",""0"",""5420""
","
","
","""event"",""trial"",""time""
""fullscreenenter"",""0"",""5420""
","
","null","run_exp/static/images/Set 6_rs/088a.jpg","null","","","","","","learn","SR",""
"","html-keyboard-response","63","93324","0.0-63.0","""event"",""trial"",""time""
""fullscreenenter"",""0"",""5420""
","
","
","""event"",""trial"",""time""
""fullscreenenter"",""0"",""5420""
","
","null","<p></p>","null","","","","","","","",""
"","image","64","94363","0.0-64.0","""event"",""trial"",""time""
""fullscreenenter"",""0"",""5420""
","
","
","""event"",""trial"",""time""
""fullscreenenter"",""0"",""5420""
","
","1037.2000000476837","run_exp/static/images/Set 6_rs/070a.jpg","86","","","","","","learn","SR",""
"","show_choice","65","95331","0.0-65.0","""event"",""trial"",""time""
""fullscreenenter"",""0"",""5420""
","
","
","""event"",""trial"",""time""
""fullscreenenter"",""0"",""5420""
","
","null","run_exp/static/images/Set 6_rs/070a.jpg","null","","","","","","learn","SR",""
"","html-keyboard-response","66","95845","0.0-66.0","""event"",""trial"",""time""
""fullscreenenter"",""0"",""5420""
","
","
","""event"",""trial"",""time""
""fullscreenenter"",""0"",""5420""
","
","null","<p></p>","null","","","","","","","",""
"","image","67","96863","0.0-67.0","""event"",""trial"",""time""
""fullscreenenter"",""0"",""5420""
","
","
","""event"",""trial"",""time""
""fullscreenenter"",""0"",""5420""
","
","1017.1000000238419","run_exp/static/images/Set 6_rs/061a.jpg","78","","","","","","learn","SR",""
"","show_choice","68","97861","0.0-68.0","""event"",""trial"",""time""
""fullscreenenter"",""0"",""5420""
","
","
","""event"",""trial"",""time""
""fullscreenenter"",""0"",""5420""
","
","null","run_exp/static/images/Set 6_rs/061a.jpg","null","","","","","","learn","SR",""
"","html-keyboard-response","69","98378","0.0-69.0","""event"",""trial"",""time""
""fullscreenenter"",""0"",""5420""
","
","
","""event"",""trial"",""time""
""fullscreenenter"",""0"",""5420""
","
","null","<p></p>","null","","","","","","","",""
"","image","70","99336","0.0-70.0","""event"",""trial"",""time""
""fullscreenenter"",""0"",""5420""
","
","
","""event"",""trial"",""time""
""fullscreenenter"",""0"",""5420""
","
","957.6000000238419","run_exp/static/images/Set 6_rs/045a.jpg","86","","","","","","learn","SR",""
"","show_choice","71","100391","0.0-71.0","""event"",""trial"",""time""
""fullscreenenter"",""0"",""5420""
","
","
","""event"",""trial"",""time""
""fullscreenenter"",""0"",""5420""
","
","null","run_exp/static/images/Set 6_rs/045a.jpg","null","","","","","","learn","SR",""
"","html-keyboard-response","72","100894","0.0-72.0","""event"",""trial"",""time""
""fullscreenenter"",""0"",""5420""
","
","
","""event"",""trial"",""time""
""fullscreenenter"",""0"",""5420""
","
","null","<p></p>","null","","","","","","","",""
"","image","73","101976","0.0-73.0","""event"",""trial"",""time""
""fullscreenenter"",""0"",""5420""
","
","
","""event"",""trial"",""time""
""fullscreenenter"",""0"",""5420""
","
","1080.5999999046326","run_exp/static/images/Set 6_rs/019a.jpg","86","","","","","","learn","SL",""
"","show_choice","74","102900","0.0-74.0","""event"",""trial"",""time""
""fullscreenenter"",""0"",""5420""
","
","
","""event"",""trial"",""time""
""fullscreenenter"",""0"",""5420""
","
","null","run_exp/static/images/Set 6_rs/019a.jpg","null","","","","","","learn","SL",""
"","html-keyboard-response","75","103409","0.0-75.0","""event"",""trial"",""time""
""fullscreenenter"",""0"",""5420""
","
","
","""event"",""trial"",""time""
""fullscreenenter"",""0"",""5420""
","
","null","<p></p>","null","","","","","","","",""
"","image","76","104092","0.0-76.0","""event"",""trial"",""time""
""fullscreenenter"",""0"",""5420""
","
","
","""event"",""trial"",""time""
""fullscreenenter"",""0"",""5420""
","
","681.3000000715256","run_exp/static/images/Set 6_rs/079a.jpg","86","","","","","","learn","SL",""
"","show_choice","77","105417","0.0-77.0","""event"",""trial"",""time""
""fullscreenenter"",""0"",""5420""
","
","
","""event"",""trial"",""time""
""fullscreenenter"",""0"",""5420""
","
","null","run_exp/static/images/Set 6_rs/079a.jpg","null","","","","","","learn","SL",""
"","html-keyboard-response","78","105926","0.0-78.0","""event"",""trial"",""time""
""fullscreenenter"",""0"",""5420""
","
","
","""event"",""trial"",""time""
""fullscreenenter"",""0"",""5420""
","
","null","<p></p>","null","","","","","","","",""
"","image","79","107521","0.0-79.0","""event"",""trial"",""time""
""fullscreenenter"",""0"",""5420""
","
","
","""event"",""trial"",""time""
""fullscreenenter"",""0"",""5420""
","
","1593.7000000476837","run_exp/static/images/Set 6_rs/091a.jpg","78","","","","","","learn","SL",""
"","show_choice","80","107933","0.0-80.0","""event"",""trial"",""time""
""fullscreenenter"",""0"",""5420""
","
","
","""event"",""trial"",""time""
""fullscreenenter"",""0"",""5420""
","
","null","run_exp/static/images/Set 6_rs/091a.jpg","null","","","","","","learn","SL",""
"","html-keyboard-response","81","108434","0.0-81.0","""event"",""trial"",""time""
""fullscreenenter"",""0"",""5420""
","
","
","""event"",""trial"",""time""
""fullscreenenter"",""0"",""5420""
","
","null","<p></p>","null","","","","","","","",""
"","image","82","109362","0.0-82.0","""event"",""trial"",""time""
""fullscreenenter"",""0"",""5420""
","
","
","""event"",""trial"",""time""
""fullscreenenter"",""0"",""5420""
","
","927.1999999284744","run_exp/static/images/Set 6_rs/064a.jpg","78","","","","","","learn","SR",""
"","show_choice","83","110439","0.0-83.0","""event"",""trial"",""time""
""fullscreenenter"",""0"",""5420""
","
","
","""event"",""trial"",""time""
""fullscreenenter"",""0"",""5420""
","
","null","run_exp/static/images/Set 6_rs/064a.jpg","null","","","","","","learn","SR",""
"","html-keyboard-response","84","110944","0.0-84.0","""event"",""trial"",""time""
""fullscreenenter"",""0"",""5420""
","
","
","""event"",""trial"",""time""
""fullscreenenter"",""0"",""5420""
","
","null","<p></p>","null","","","","","","","",""
"","image","85","112660","0.0-85.0","""event"",""trial"",""time""
""fullscreenenter"",""0"",""5420""
","
","
","""event"",""trial"",""time""
""fullscreenenter"",""0"",""5420""
","
","1714.6000000238419","run_exp/static/images/Set 6_rs/191a.jpg","78","","","","","","learn","SL",""
"","show_choice","86","112956","0.0-86.0","""event"",""trial"",""time""
""fullscreenenter"",""0"",""5420""
","
","
","""event"",""trial"",""time""
""fullscreenenter"",""0"",""5420""
","
","null","run_exp/static/images/Set 6_rs/191a.jpg","null","","","","","","learn","SL",""
"","html-keyboard-response","87","113460","0.0-87.0","""event"",""trial"",""time""
""fullscreenenter"",""0"",""5420""
","
","
","""event"",""trial"",""time""
""fullscreenenter"",""0"",""5420""
","
","null","<p></p>","null","","","","","","","",""
"","image","88","114336","0.0-88.0","""event"",""trial"",""time""
""fullscreenenter"",""0"",""5420""
","
","
","""event"",""trial"",""time""
""fullscreenenter"",""0"",""5420""
","
","874.7000000476837","run_exp/static/images/Set 6_rs/123a.jpg","78","","","","","","learn","SL",""
"","show_choice","89","115465","0.0-89.0","""event"",""trial"",""time""
""fullscreenenter"",""0"",""5420""
","
","
","""event"",""trial"",""time""
""fullscreenenter"",""0"",""5420""
","
","null","run_exp/static/images/Set 6_rs/123a.jpg","null","","","","","","learn","SL",""
"","html-keyboard-response","90","115974","0.0-90.0","""event"",""trial"",""time""
""fullscreenenter"",""0"",""5420""
","
","
","""event"",""trial"",""time""
""fullscreenenter"",""0"",""5420""
","
","null","<p></p>","null","","","","","","","",""
"","image","91","117389","0.0-91.0","""event"",""trial"",""time""
""fullscreenenter"",""0"",""5420""
","
","
","""event"",""trial"",""time""
""fullscreenenter"",""0"",""5420""
","
","1413.6999999284744","run_exp/static/images/Set 6_rs/017a.jpg","86","","","","","","learn","SL",""
"","show_choice","92","117986","0.0-92.0","""event"",""trial"",""time""
""fullscreenenter"",""0"",""5420""
","
","
","""event"",""trial"",""time""
""fullscreenenter"",""0"",""5420""
","
","null","run_exp/static/images/Set 6_rs/017a.jpg","null","","","","","","learn","SL",""
"","html-keyboard-response","93","118490","0.0-93.0","""event"",""trial"",""time""
""fullscreenenter"",""0"",""5420""
","
","
","""event"",""trial"",""time""
""fullscreenenter"",""0"",""5420""
","
","null","<p></p>","null","","","","","","","",""
"","image","94","120031","0.0-94.0","""event"",""trial"",""time""
""fullscreenenter"",""0"",""5420""
","
","
","""event"",""trial"",""time""
""fullscreenenter"",""0"",""5420""
","
","1540.5","run_exp/static/images/Set 6_rs/066a.jpg","86","","","","","","learn","SL",""
"","show_choice","95","120494","0.0-95.0","""event"",""trial"",""time""
""fullscreenenter"",""0"",""5420""
","
","
","""event"",""trial"",""time""
""fullscreenenter"",""0"",""5420""
","
","null","run_exp/static/images/Set 6_rs/066a.jpg","null","","","","","","learn","SL",""
"","html-keyboard-response","96","121007","0.0-96.0","""event"",""trial"",""time""
""fullscreenenter"",""0"",""5420""
","
","
","""event"",""trial"",""time""
""fullscreenenter"",""0"",""5420""
","
","null","<p></p>","null","","","","","","","",""
"","image","97","121890","0.0-97.0","""event"",""trial"",""time""
""fullscreenenter"",""0"",""5420""
","
","
","""event"",""trial"",""time""
""fullscreenenter"",""0"",""5420""
","
","881.1000000238419","run_exp/static/images/Set 6_rs/129a.jpg","86","","","","","","learn","SL",""
"","show_choice","98","123015","0.0-98.0","""event"",""trial"",""time""
""fullscreenenter"",""0"",""5420""
","
","
","""event"",""trial"",""time""
""fullscreenenter"",""0"",""5420""
","
","null","run_exp/static/images/Set 6_rs/129a.jpg","null","","","","","","learn","SL",""
"","html-keyboard-response","99","123524","0.0-99.0","""event"",""trial"",""time""
""fullscreenenter"",""0"",""5420""
","
","
","""event"",""trial"",""time""
""fullscreenenter"",""0"",""5420""
","
","null","<p></p>","null","","","","","","","",""
"","image","100","125539","0.0-100.0","""event"",""trial"",""time""
""fullscreenenter"",""0"",""5420""
","
","
","""event"",""trial"",""time""
""fullscreenenter"",""0"",""5420""
","
","null","run_exp/static/images/Set 6_rs/166a.jpg","null","","","","","","learn","SR",""
"","show_choice","101","127550","0.0-101.0","""event"",""trial"",""time""
""fullscreenenter"",""0"",""5420""
","
","
","""event"",""trial"",""time""
""fullscreenenter"",""0"",""5420""
","
","null","run_exp/static/images/blank.png","null","","","","","","learn","SR",""
"","html-keyboard-response","102","128055","0.0-102.0","""event"",""trial"",""time""
""fullscreenenter"",""0"",""5420""
","
","
","""event"",""trial"",""time""
""fullscreenenter"",""0"",""5420""
","
","null","<p></p>","null","","","","","","","",""
"","image","103","128770","0.0-103.0","""event"",""trial"",""time""
""fullscreenenter"",""0"",""5420""
","
","
","""event"",""trial"",""time""
""fullscreenenter"",""0"",""5420""
","
","714.3000000715256","run_exp/static/images/Set 6_rs/036a.jpg","78","","","","","","learn","SL",""
"","show_choice","104","130070","0.0-104.0","""event"",""trial"",""time""
""fullscreenenter"",""0"",""5420""
","
","
","""event"",""trial"",""time""
""fullscreenenter"",""0"",""5420""
","
","null","run_exp/static/images/Set 6_rs/036a.jpg","null","","","","","","learn","SL",""
"","html-keyboard-response","105","130574","0.0-105.0","""event"",""trial"",""time""
""fullscreenenter"",""0"",""5420""
","
","
","""event"",""trial"",""time""
""fullscreenenter"",""0"",""5420""
","
","null","<p></p>","null","","","","","","","",""
"","image","106","131425","0.0-106.0","""event"",""trial"",""time""
""fullscreenenter"",""0"",""5420""
","
","
","""event"",""trial"",""time""
""fullscreenenter"",""0"",""5420""
","
","850.3000000715256","run_exp/static/images/Set 6_rs/076a.jpg","78","","","","","","learn","SR",""
"","show_choice","107","132580","0.0-107.0","""event"",""trial"",""time""
""fullscreenenter"",""0"",""5420""
","
","
","""event"",""trial"",""time""
""fullscreenenter"",""0"",""5420""
","
","null","run_exp/static/images/Set 6_rs/076a.jpg","null","","","","","","learn","SR",""
"","html-keyboard-response","108","133091","0.0-108.0","""event"",""trial"",""time""
""fullscreenenter"",""0"",""5420""
","
","
","""event"",""trial"",""time""
""fullscreenenter"",""0"",""5420""
","
","null","<p></p>","null","","","","","","","",""
"","image","109","134803","0.0-109.0","""event"",""trial"",""time""
""fullscreenenter"",""0"",""5420""
","
","
","""event"",""trial"",""time""
""fullscreenenter"",""0"",""5420""
","
","1710.5","run_exp/static/images/Set 6_rs/167a.jpg","86","","","","","","learn","SL",""
"","show_choice","110","135102","0.0-110.0","""event"",""trial"",""time""
""fullscreenenter"",""0"",""5420""
","
","
","""event"",""trial"",""time""
""fullscreenenter"",""0"",""5420""
","
","null","run_exp/static/images/Set 6_rs/167a.jpg","null","","","","","","learn","SL",""
"","html-keyboard-response","111","135606","0.0-111.0","""event"",""trial"",""time""
""fullscreenenter"",""0"",""5420""
","
","
","""event"",""trial"",""time""
""fullscreenenter"",""0"",""5420""
","
","null","<p></p>","null","","","","","","","",""
"","image","112","136511","0.0-112.0","""event"",""trial"",""time""
""fullscreenenter"",""0"",""5420""
","
","
","""event"",""trial"",""time""
""fullscreenenter"",""0"",""5420""
","
","904.6000000238419","run_exp/static/images/Set 6_rs/016a.jpg","86","","","","","","learn","SL",""
"","show_choice","113","137615","0.0-113.0","""event"",""trial"",""time""
""fullscreenenter"",""0"",""5420""
","
","
","""event"",""trial"",""time""
""fullscreenenter"",""0"",""5420""
","
","null","run_exp/static/images/Set 6_rs/016a.jpg","null","","","","","","learn","SL",""
"","html-keyboard-response","114","138120","0.0-114.0","""event"",""trial"",""time""
""fullscreenenter"",""0"",""5420""
","
","
","""event"",""trial"",""time""
""fullscreenenter"",""0"",""5420""
","
","null","<p></p>","null","","","","","","","",""
"","image","115","138701","0.0-115.0","""event"",""trial"",""time""
""fullscreenenter"",""0"",""5420""
","
","
","""event"",""trial"",""time""
""fullscreenenter"",""0"",""5420""
","
","579.5999999046326","run_exp/static/images/Set 6_rs/187a.jpg","86","","","","","","learn","SR",""
"","show_choice","116","140127","0.0-116.0","""event"",""trial"",""time""
""fullscreenenter"",""0"",""5420""
","
","
","""event"",""trial"",""time""
""fullscreenenter"",""0"",""5420""
","
","null","run_exp/static/images/Set 6_rs/187a.jpg","null","","","","","","learn","SR",""
"","html-keyboard-response","117","140636","0.0-117.0","""event"",""trial"",""time""
""fullscreenenter"",""0"",""5420""
","
","
","""event"",""trial"",""time""
""fullscreenenter"",""0"",""5420""
","
","null","<p></p>","null","","","","","","","",""
"","image","118","142592","0.0-118.0","""event"",""trial"",""time""
""fullscreenenter"",""0"",""5420""
","
","
","""event"",""trial"",""time""
""fullscreenenter"",""0"",""5420""
","
","1954.8999999761581","run_exp/static/images/Set 6_rs/108a.jpg","86","","","","","","learn","SR",""
"","show_choice","119","142650","0.0-119.0","""event"",""trial"",""time""
""fullscreenenter"",""0"",""5420""
","
","
","""event"",""trial"",""time""
""fullscreenenter"",""0"",""5420""
","
","null","run_exp/static/images/Set 6_rs/108a.jpg","null","","","","","","learn","SR",""
"","html-keyboard-response","120","143153","0.0-120.0","""event"",""trial"",""time""
""fullscreenenter"",""0"",""5420""
","
","
","""event"",""trial"",""time""
""fullscreenenter"",""0"",""5420""
","
","null","<p></p>","null","","","","","","","",""
"","image","121","144306","0.0-121.0","""event"",""trial"",""time""
""fullscreenenter"",""0"",""5420""
","
","
","""event"",""trial"",""time""
""fullscreenenter"",""0"",""5420""
","
","1150.8999999761581","run_exp/static/images/Set 6_rs/169a.jpg","78","","","","","","learn","SR",""
"","show_choice","122","145163","0.0-122.0","""event"",""trial"",""time""
""fullscreenenter"",""0"",""5420""
","
","
","""event"",""trial"",""time""
""fullscreenenter"",""0"",""5420""
","
","null","run_exp/static/images/Set 6_rs/169a.jpg","null","","","","","","learn","SR",""
"","html-keyboard-response","123","145666","0.0-123.0","""event"",""trial"",""time""
""fullscreenenter"",""0"",""5420""
","
","
","""event"",""trial"",""time""
""fullscreenenter"",""0"",""5420""
","
","null","<p></p>","null","","","","","","","",""
"","image","124","146901","0.0-124.0","""event"",""trial"",""time""
""fullscreenenter"",""0"",""5420""
","
","
","""event"",""trial"",""time""
""fullscreenenter"",""0"",""5420""
","
","1233.1999999284744","run_exp/static/images/Set 6_rs/152a.jpg","78","","","","","","learn","SR",""
"","show_choice","125","147670","0.0-125.0","""event"",""trial"",""time""
""fullscreenenter"",""0"",""5420""
","
","
","""event"",""trial"",""time""
""fullscreenenter"",""0"",""5420""
","
","null","run_exp/static/images/Set 6_rs/152a.jpg","null","","","","","","learn","SR",""
"","html-keyboard-response","126","148186","0.0-126.0","""event"",""trial"",""time""
""fullscreenenter"",""0"",""5420""
","
","
","""event"",""trial"",""time""
""fullscreenenter"",""0"",""5420""
","
","null","<p></p>","null","","","","","","","",""
"","image","127","149081","0.0-127.0","""event"",""trial"",""time""
""fullscreenenter"",""0"",""5420""
","
","
","""event"",""trial"",""time""
""fullscreenenter"",""0"",""5420""
","
","894.3999999761581","run_exp/static/images/Set 6_rs/063a.jpg","86","","","","","","learn","SR",""
"","show_choice","128","150196","0.0-128.0","""event"",""trial"",""time""
""fullscreenenter"",""0"",""5420""
","
","
","""event"",""trial"",""time""
""fullscreenenter"",""0"",""5420""
","
","null","run_exp/static/images/Set 6_rs/063a.jpg","null","","","","","","learn","SR",""
"","html-keyboard-response","129","150702","0.0-129.0","""event"",""trial"",""time""
""fullscreenenter"",""0"",""5420""
","
","
","""event"",""trial"",""time""
""fullscreenenter"",""0"",""5420""
","
","null","<p></p>","null","","","","","","","",""
"","image","130","152107","0.0-130.0","""event"",""trial"",""time""
""fullscreenenter"",""0"",""5420""
","
","
","""event"",""trial"",""time""
""fullscreenenter"",""0"",""5420""
","
","1404.1999999284744","run_exp/static/images/Set 6_rs/062a.jpg","86","","","","","","learn","SL",""
"","show_choice","131","152712","0.0-131.0","""event"",""trial"",""time""
""fullscreenenter"",""0"",""5420""
","
","
","""event"",""trial"",""time""
""fullscreenenter"",""0"",""5420""
","
","null","run_exp/static/images/Set 6_rs/062a.jpg","null","","","","","","learn","SL",""
"","html-keyboard-response","132","153218","0.0-132.0","""event"",""trial"",""time""
""fullscreenenter"",""0"",""5420""
","
","
","""event"",""trial"",""time""
""fullscreenenter"",""0"",""5420""
","
","null","<p></p>","null","","","","","","","",""
"","image","133","153931","0.0-133.0","""event"",""trial"",""time""
""fullscreenenter"",""0"",""5420""
","
","
","""event"",""trial"",""time""
""fullscreenenter"",""0"",""5420""
","
","712.1000000238419","run_exp/static/images/Set 6_rs/006a.jpg","86","","","","","","learn","SL",""
"","show_choice","134","155233","0.0-134.0","""event"",""trial"",""time""
""fullscreenenter"",""0"",""5420""
","
","
","""event"",""trial"",""time""
""fullscreenenter"",""0"",""5420""
","
","null","run_exp/static/images/Set 6_rs/006a.jpg","null","","","","","","learn","SL",""
"","html-keyboard-response","135","155736","0.0-135.0","""event"",""trial"",""time""
""fullscreenenter"",""0"",""5420""
","
","
","""event"",""trial"",""time""
""fullscreenenter"",""0"",""5420""
","
","null","<p></p>","null","","","","","","","",""
"","image","136","156539","0.0-136.0","""event"",""trial"",""time""
""fullscreenenter"",""0"",""5420""
","
","
","""event"",""trial"",""time""
""fullscreenenter"",""0"",""5420""
","
","802.7000000476837","run_exp/static/images/Set 6_rs/073a.jpg","86","","","","","","learn","SL",""
"","show_choice","137","157739","0.0-137.0","""event"",""trial"",""time""
""fullscreenenter"",""0"",""5420""
","
","
","""event"",""trial"",""time""
""fullscreenenter"",""0"",""5420""
","
","null","run_exp/static/images/Set 6_rs/073a.jpg","null","","","","","","learn","SL",""
"","html-keyboard-response","138","158251","0.0-138.0","""event"",""trial"",""time""
""fullscreenenter"",""0"",""5420""
","
","
","""event"",""trial"",""time""
""fullscreenenter"",""0"",""5420""
","
","null","<p></p>","null","","","","","","","",""
"","image","139","159834","0.0-139.0","""event"",""trial"",""time""
""fullscreenenter"",""0"",""5420""
","
","
","""event"",""trial"",""time""
""fullscreenenter"",""0"",""5420""
","
","1582","run_exp/static/images/Set 6_rs/014a.jpg","86","","","","","","learn","SL",""
"","show_choice","140","160257","0.0-140.0","""event"",""trial"",""time""
""fullscreenenter"",""0"",""5420""
","
","
","""event"",""trial"",""time""
""fullscreenenter"",""0"",""5420""
","
","null","run_exp/static/images/Set 6_rs/014a.jpg","null","","","","","","learn","SL",""
"","html-keyboard-response","141","160767","0.0-141.0","""event"",""trial"",""time""
""fullscreenenter"",""0"",""5420""
","
","
","""event"",""trial"",""time""
""fullscreenenter"",""0"",""5420""
","
","null","<p></p>","null","","","","","","","",""
"","image","142","161973","0.0-142.0","""event"",""trial"",""time""
""fullscreenenter"",""0"",""5420""
","
","
","""event"",""trial"",""time""
""fullscreenenter"",""0"",""5420""
","
","1204.7000000476837","run_exp/static/images/Set 6_rs/023a.jpg","86","","","","","","learn","SR",""
"","show_choice","143","162780","0.0-143.0","""event"",""trial"",""time""
""fullscreenenter"",""0"",""5420""
","
","
","""event"",""trial"",""time""
""fullscreenenter"",""0"",""5420""
","
","null","run_exp/static/images/Set 6_rs/023a.jpg","null","","","","","","learn","SR",""
"","html-keyboard-response","144","163285","0.0-144.0","""event"",""trial"",""time""
""fullscreenenter"",""0"",""5420""
","
","
","""event"",""trial"",""time""
""fullscreenenter"",""0"",""5420""
","
","null","<p></p>","null","","","","","","","",""
"","image","145","163898","0.0-145.0","""event"",""trial"",""time""
""fullscreenenter"",""0"",""5420""
","
","
","""event"",""trial"",""time""
""fullscreenenter"",""0"",""5420""
","
","612","run_exp/static/images/Set 6_rs/181a.jpg","78","","","","","","learn","SL",""
"","show_choice","146","165291","0.0-146.0","""event"",""trial"",""time""
""fullscreenenter"",""0"",""5420""
","
","
","""event"",""trial"",""time""
""fullscreenenter"",""0"",""5420""
","
","null","run_exp/static/images/Set 6_rs/181a.jpg","null","","","","","","learn","SL",""
"","html-keyboard-response","147","165794","0.0-147.0","""event"",""trial"",""time""
""fullscreenenter"",""0"",""5420""
","
","
","""event"",""trial"",""time""
""fullscreenenter"",""0"",""5420""
","
","null","<p></p>","null","","","","","","","",""
"","image","148","167089","0.0-148.0","""event"",""trial"",""time""
""fullscreenenter"",""0"",""5420""
","
","
","""event"",""trial"",""time""
""fullscreenenter"",""0"",""5420""
","
","1294.3000000715256","run_exp/static/images/Set 6_rs/111a.jpg","86","","","","","","learn","SL",""
"","show_choice","149","167802","0.0-149.0","""event"",""trial"",""time""
""fullscreenenter"",""0"",""5420""
","
","
","""event"",""trial"",""time""
""fullscreenenter"",""0"",""5420""
","
","null","run_exp/static/images/Set 6_rs/111a.jpg","null","","","","","","learn","SL",""
"","html-keyboard-response","150","168316","0.0-150.0","""event"",""trial"",""time""
""fullscreenenter"",""0"",""5420""
","
","
","""event"",""trial"",""time""
""fullscreenenter"",""0"",""5420""
","
","null","<p></p>","null","","","","","","","",""
"","image","151","169299","0.0-151.0","""event"",""trial"",""time""
""fullscreenenter"",""0"",""5420""
","
","
","""event"",""trial"",""time""
""fullscreenenter"",""0"",""5420""
","
","981","run_exp/static/images/Set 6_rs/154a.jpg","86","","","","","","learn","SR",""
"","show_choice","152","170331","0.0-152.0","""event"",""trial"",""time""
""fullscreenenter"",""0"",""5420""
","
","
","""event"",""trial"",""time""
""fullscreenenter"",""0"",""5420""
","
","null","run_exp/static/images/Set 6_rs/154a.jpg","null","","","","","","learn","SR",""
"","html-keyboard-response","153","170834","0.0-153.0","""event"",""trial"",""time""
""fullscreenenter"",""0"",""5420""
","
","
","""event"",""trial"",""time""
""fullscreenenter"",""0"",""5420""
","
","null","<p></p>","null","","","","","","","",""
"","image","154","172029","0.0-154.0","""event"",""trial"",""time""
""fullscreenenter"",""0"",""5420""
","
","
","""event"",""trial"",""time""
""fullscreenenter"",""0"",""5420""
","
","1193.1000000238419","run_exp/static/images/Set 6_rs/134a.jpg","86","","","","","","learn","SR",""
"","show_choice","155","172847","0.0-155.0","""event"",""trial"",""time""
""fullscreenenter"",""0"",""5420""
","
","
","""event"",""trial"",""time""
""fullscreenenter"",""0"",""5420""
","
","null","run_exp/static/images/Set 6_rs/134a.jpg","null","","","","","","learn","SR",""
"","html-keyboard-response","156","173350","0.0-156.0","""event"",""trial"",""time""
""fullscreenenter"",""0"",""5420""
","
","
","""event"",""trial"",""time""
""fullscreenenter"",""0"",""5420""
","
","null","<p></p>","null","","","","","","","",""
"","image","157","174189","0.0-157.0","""event"",""trial"",""time""
""fullscreenenter"",""0"",""5420""
","
","
","""event"",""trial"",""time""
""fullscreenenter"",""0"",""5420""
","
","836.5","run_exp/static/images/Set 6_rs/050a.jpg","86","","","","","","learn","SL",""
"","show_choice","158","175354","0.0-158.0","""event"",""trial"",""time""
""fullscreenenter"",""0"",""5420""
","
","
","""event"",""trial"",""time""
""fullscreenenter"",""0"",""5420""
","
","null","run_exp/static/images/Set 6_rs/050a.jpg","null","","","","","","learn","SL",""
"","html-keyboard-response","159","175864","0.0-159.0","""event"",""trial"",""time""
""fullscreenenter"",""0"",""5420""
","
","
","""event"",""trial"",""time""
""fullscreenenter"",""0"",""5420""
","
","null","<p></p>","null","","","","","","","",""
"","image","160","177363","0.0-160.0","""event"",""trial"",""time""
""fullscreenenter"",""0"",""5420""
","
","
","""event"",""trial"",""time""
""fullscreenenter"",""0"",""5420""
","
","1497.9000000953674","run_exp/static/images/Set 6_rs/168a.jpg","86","","","","","","learn","SL",""
"","show_choice","161","177881","0.0-161.0","""event"",""trial"",""time""
""fullscreenenter"",""0"",""5420""
","
","
","""event"",""trial"",""time""
""fullscreenenter"",""0"",""5420""
","
","null","run_exp/static/images/Set 6_rs/168a.jpg","null","","","","","","learn","SL",""
"","html-keyboard-response","162","178384","0.0-162.0","""event"",""trial"",""time""
""fullscreenenter"",""0"",""5420""
","
","
","""event"",""trial"",""time""
""fullscreenenter"",""0"",""5420""
","
","null","<p></p>","null","","","","","","","",""
"","image","163","179733","0.0-163.0","""event"",""trial"",""time""
""fullscreenenter"",""0"",""5420""
","
","
","""event"",""trial"",""time""
""fullscreenenter"",""0"",""5420""
","
","1348.2000000476837","run_exp/static/images/Set 6_rs/150a.jpg","86","","","","","","learn","SR",""
"","show_choice","164","180388","0.0-164.0","""event"",""trial"",""time""
""fullscreenenter"",""0"",""5420""
","
","
","""event"",""trial"",""time""
""fullscreenenter"",""0"",""5420""
","
","null","run_exp/static/images/Set 6_rs/150a.jpg","null","","","","","","learn","SR",""
"","html-keyboard-response","165","180897","0.0-165.0","""event"",""trial"",""time""
""fullscreenenter"",""0"",""5420""
","
","
","""event"",""trial"",""time""
""fullscreenenter"",""0"",""5420""
","
","null","<p></p>","null","","","","","","","",""
"","image","166","182884","0.0-166.0","""event"",""trial"",""time""
""fullscreenenter"",""0"",""5420""
","
","
","""event"",""trial"",""time""
""fullscreenenter"",""0"",""5420""
","
","1985","run_exp/static/images/Set 6_rs/085a.jpg","78","","","","","","learn","SL",""
"","show_choice","167","182901","0.0-167.0","""event"",""trial"",""time""
""fullscreenenter"",""0"",""5420""
","
","
","""event"",""trial"",""time""
""fullscreenenter"",""0"",""5420""
","
","null","run_exp/static/images/Set 6_rs/085a.jpg","null","","","","","","learn","SL",""
"","html-keyboard-response","168","183414","0.0-168.0","""event"",""trial"",""time""
""fullscreenenter"",""0"",""5420""
","
","
","""event"",""trial"",""time""
""fullscreenenter"",""0"",""5420""
","
","null","<p></p>","null","","","","","","","",""
"","image","169","184718","0.0-169.0","""event"",""trial"",""time""
""fullscreenenter"",""0"",""5420""
","
","
","""event"",""trial"",""time""
""fullscreenenter"",""0"",""5420""
","
","1303.1000000238419","run_exp/static/images/Set 6_rs/089a.jpg","86","","","","","","learn","SL",""
"","show_choice","170","185418","0.0-170.0","""event"",""trial"",""time""
""fullscreenenter"",""0"",""5420""
","
","
","""event"",""trial"",""time""
""fullscreenenter"",""0"",""5420""
","
","null","run_exp/static/images/Set 6_rs/089a.jpg","null","","","","","","learn","SL",""
"","html-keyboard-response","171","185933","0.0-171.0","""event"",""trial"",""time""
""fullscreenenter"",""0"",""5420""
","
","
","""event"",""trial"",""time""
""fullscreenenter"",""0"",""5420""
","
","null","<p></p>","null","","","","","","","",""
"","image","172","186788","0.0-172.0","""event"",""trial"",""time""
""fullscreenenter"",""0"",""5420""
","
","
","""event"",""trial"",""time""
""fullscreenenter"",""0"",""5420""
","
","853.8999999761581","run_exp/static/images/Set 6_rs/112a.jpg","86","","","","","","learn","SR",""
"","show_choice","173","187945","0.0-173.0","""event"",""trial"",""time""
""fullscreenenter"",""0"",""5420""
","
","
","""event"",""trial"",""time""
""fullscreenenter"",""0"",""5420""
","
","null","run_exp/static/images/Set 6_rs/112a.jpg","null","","","","","","learn","SR",""
"","html-keyboard-response","174","188448","0.0-174.0","""event"",""trial"",""time""
""fullscreenenter"",""0"",""5420""
","
","
","""event"",""trial"",""time""
""fullscreenenter"",""0"",""5420""
","
","null","<p></p>","null","","","","","","","",""
"","image","175","189251","0.0-175.0","""event"",""trial"",""time""
""fullscreenenter"",""0"",""5420""
","
","
","""event"",""trial"",""time""
""fullscreenenter"",""0"",""5420""
","
","801.2000000476837","run_exp/static/images/Set 6_rs/177a.jpg","78","","","","","","learn","SR",""
"","show_choice","176","190450","0.0-176.0","""event"",""trial"",""time""
""fullscreenenter"",""0"",""5420""
","
","
","""event"",""trial"",""time""
""fullscreenenter"",""0"",""5420""
","
","null","run_exp/static/images/Set 6_rs/177a.jpg","null","","","","","","learn","SR",""
"","html-keyboard-response","177","190962","0.0-177.0","""event"",""trial"",""time""
""fullscreenenter"",""0"",""5420""
","
","
","""event"",""trial"",""time""
""fullscreenenter"",""0"",""5420""
","
","null","<p></p>","null","","","","","","","",""
"","image","178","191774","0.0-178.0","""event"",""trial"",""time""
""fullscreenenter"",""0"",""5420""
","
","
","""event"",""trial"",""time""
""fullscreenenter"",""0"",""5420""
","
","810.3000000715256","run_exp/static/images/Set 6_rs/116a.jpg","86","","","","","","learn","SL",""
"","show_choice","179","192967","0.0-179.0","""event"",""trial"",""time""
""fullscreenenter"",""0"",""5420""
","
","
","""event"",""trial"",""time""
""fullscreenenter"",""0"",""5420""
","
","null","run_exp/static/images/Set 6_rs/116a.jpg","null","","","","","","learn","SL",""
"","html-keyboard-response","180","193479","0.0-180.0","""event"",""trial"",""time""
""fullscreenenter"",""0"",""5420""
","
","
","""event"",""trial"",""time""
""fullscreenenter"",""0"",""5420""
","
","null","<p></p>","null","","","","","","","",""
"","image","181","195495","0.0-181.0","""event"",""trial"",""time""
""fullscreenenter"",""0"",""5420""
","
","
","""event"",""trial"",""time""
""fullscreenenter"",""0"",""5420""
","
","null","run_exp/static/images/Set 6_rs/144a.jpg","null","","","","","","learn","SL",""
"","show_choice","182","197508","0.0-182.0","""event"",""trial"",""time""
""fullscreenenter"",""0"",""5420""
","
","
","""event"",""trial"",""time""
""fullscreenenter"",""0"",""5420""
","
","null","run_exp/static/images/blank.png","null","","","","","","learn","SL",""
"","html-keyboard-response","183","198013","0.0-183.0","""event"",""trial"",""time""
""fullscreenenter"",""0"",""5420""
","
","
","""event"",""trial"",""time""
""fullscreenenter"",""0"",""5420""
","
","null","<p></p>","null","","","","","","","",""
"","image","184","198727","0.0-184.0","""event"",""trial"",""time""
""fullscreenenter"",""0"",""5420""
","
","
","""event"",""trial"",""time""
""fullscreenenter"",""0"",""5420""
","
","711.8999999761581","run_exp/static/images/Set 6_rs/010a.jpg","86","","","","","","learn","SR",""
"","show_choice","185","200025","0.0-185.0","""event"",""trial"",""time""
""fullscreenenter"",""0"",""5420""
","
","
","""event"",""trial"",""time""
""fullscreenenter"",""0"",""5420""
","
","null","run_exp/static/images/Set 6_rs/010a.jpg","null","","","","","","learn","SR",""
"","html-keyboard-response","186","200529","0.0-186.0","""event"",""trial"",""time""
""fullscreenenter"",""0"",""5420""
","
","
","""event"",""trial"",""time""
""fullscreenenter"",""0"",""5420""
","
","null","<p></p>","null","","","","","","","",""
"","image","187","201106","0.0-187.0","""event"",""trial"",""time""
""fullscreenenter"",""0"",""5420""
","
","
","""event"",""trial"",""time""
""fullscreenenter"",""0"",""5420""
","
","575.5","run_exp/static/images/Set 6_rs/057a.jpg","86","","","","","","learn","SL",""
"","show_choice","188","202536","0.0-188.0","""event"",""trial"",""time""
""fullscreenenter"",""0"",""5420""
","
","
","""event"",""trial"",""time""
""fullscreenenter"",""0"",""5420""
","
","null","run_exp/static/images/Set 6_rs/057a.jpg","null","","","","","","learn","SL",""
"","html-keyboard-response","189","203044","0.0-189.0","""event"",""trial"",""time""
""fullscreenenter"",""0"",""5420""
","
","
","""event"",""trial"",""time""
""fullscreenenter"",""0"",""5420""
","
","null","<p></p>","null","","","","","","","",""
"","image","190","204201","0.0-190.0","""event"",""trial"",""time""
""fullscreenenter"",""0"",""5420""
","
","
","""event"",""trial"",""time""
""fullscreenenter"",""0"",""5420""
","
","1155.5999999046326","run_exp/static/images/Set 6_rs/121a.jpg","86","","","","","","learn","SR",""
"","show_choice","191","205054","0.0-191.0","""event"",""trial"",""time""
""fullscreenenter"",""0"",""5420""
","
","
","""event"",""trial"",""time""
""fullscreenenter"",""0"",""5420""
","
","null","run_exp/static/images/Set 6_rs/121a.jpg","null","","","","","","learn","SR",""
"","html-keyboard-response","192","205560","0.0-192.0","""event"",""trial"",""time""
""fullscreenenter"",""0"",""5420""
","
","
","""event"",""trial"",""time""
""fullscreenenter"",""0"",""5420""
","
","null","<p></p>","null","","","","","","","",""
"","image","193","206617","0.0-193.0","""event"",""trial"",""time""
""fullscreenenter"",""0"",""5420""
","
","
","""event"",""trial"",""time""
""fullscreenenter"",""0"",""5420""
","
","1056.1000000238419","run_exp/static/images/Set 6_rs/008a.jpg","86","","","","","","learn","SL",""
"","show_choice","194","207564","0.0-194.0","""event"",""trial"",""time""
""fullscreenenter"",""0"",""5420""
","
","
","""event"",""trial"",""time""
""fullscreenenter"",""0"",""5420""
","
","null","run_exp/static/images/Set 6_rs/008a.jpg","null","","","","","","learn","SL",""
"","html-keyboard-response","195","208076","0.0-195.0","""event"",""trial"",""time""
""fullscreenenter"",""0"",""5420""
","
","
","""event"",""trial"",""time""
""fullscreenenter"",""0"",""5420""
","
","null","<p></p>","null","","","","","","","",""
"","test_intro","196","245692","0.0-196.0","""event"",""trial"",""time""
""fullscreenenter"",""0"",""5420""
","
","
","""event"",""trial"",""time""
""fullscreenenter"",""0"",""5420""
","
","null","run_exp/static/audio/clip_2_memory.m4a","null","","","","","<div class='center'><p>Now, lets see how much you remember about the items you just saw.  For each item, you need to indicate if it was <b>old</b> by pressing the <b>v</b> key, <b>similar</b> by pressing the <b>b</b> key, or <b>new</b> by pressing the <b>n</b> key.</p><p>Old refers to an item that you saw before in the indoor/outdoor game that you just played, new refers to an item you have <b>not</b> seen before within the indoor/outdoor game, and similar refers to an item that is similar to an item youve seen before but is not exactly the same. </p><p>Before we begin, lets go over some brief demonstrations to make sure you understand.</p></div>","","",""
"","html-keyboard-response","197","245725","0.0-197.0","""event"",""trial"",""time""
""fullscreenenter"",""0"",""5420""
","
","
","""event"",""trial"",""time""
""fullscreenenter"",""0"",""5420""
","
","32.299999952316284","<div class='center'><p>Now, lets see how much you remember about the items you just saw.  For each item, you need to indicate if it was <b>old</b> by pressing the <b>v</b> key, <b>similar</b> by pressing the <b>b</b> key, or <b>new</b> by pressing the <b>n</b> key.</p><p>Old refers to an item that you saw before in the indoor/outdoor game that you just played, new refers to an item you have <b>not</b> seen before within the indoor/outdoor game, and similar refers to an item that is similar to an item youve seen before but is not exactly the same. </p><p>Before we begin, lets go over some brief demonstrations to make sure you understand.</p><div><p><b>[Press the space bar to continue]</b></p></div>","32","","","","","","","",""
"","items","198","253231","0.0-198.0","""event"",""trial"",""time""
""fullscreenenter"",""0"",""5420""
","
","
","""event"",""trial"",""time""
""fullscreenenter"",""0"",""5420""
","
","null","run_exp/static/audio/clip_3_items.m4a","null","","","","","","","",""
"","mop","199","257741","0.0-199.0","""event"",""trial"",""time""
""fullscreenenter"",""0"",""5420""
","
","
","""event"",""trial"",""time""
""fullscreenenter"",""0"",""5420""
","
","null","run_exp/static/audio/clip_4_mop.m4a","null","","","","","","","",""
"","baseball","200","261251","0.0-200.0","""event"",""trial"",""time""
""fullscreenenter"",""0"",""5420""
","
","
","""event"",""trial"",""time""
""fullscreenenter"",""0"",""5420""
","
","null","run_exp/static/audio/clip_5_baseball.m4a","null","","","","","","","",""
"","trumpet","201","264761","0.0-201.0","""event"",""trial"",""time""
""fullscreenenter"",""0"",""5420""
","
","
","""event"",""trial"",""time""
""fullscreenenter"",""0"",""5420""
","
","null","run_exp/static/audio/clip_6_trumpet.m4a","null","","","","","","","",""
"","gummies","202","268271","0.0-202.0","""event"",""trial"",""time""
""fullscreenenter"",""0"",""5420""
","
","
","""event"",""trial"",""time""
""fullscreenenter"",""0"",""5420""
","
","null","run_exp/static/audio/clip_7_gummies.m4a","null","","","","","","","",""
"","osn","203","272781","0.0-203.0","""event"",""trial"",""time""
""fullscreenenter"",""0"",""5420""
","
","
","""event"",""trial"",""time""
""fullscreenenter"",""0"",""5420""
","
","null","run_exp/static/audio/clip_8_osn.m4a","null","","","","","","","",""
"","old_1","204","279301","0.0-204.0","""event"",""trial"",""time""
""fullscreenenter"",""0"",""5420""
","
","
","""event"",""trial"",""time""
""fullscreenenter"",""0"",""5420""
","
","null","run_exp/static/audio/clip_9_old_trumpet.m4a","null","","","","","","","",""
"","new_1","205","286821","0.0-205.0","""event"",""trial"",""time""
""fullscreenenter"",""0"",""5420""
","
","
","""event"",""trial"",""time""
""fullscreenenter"",""0"",""5420""
","
","null","run_exp/static/audio/clip_10_new_balloon.m4a","null","","","","","","","",""
"","similar_1a","206","291331","0.0-206.0","""event"",""trial"",""time""
""fullscreenenter"",""0"",""5420""
","
","
","""event"",""trial"",""time""
""fullscreenenter"",""0"",""5420""
","
","null","run_exp/static/audio/clip_11a_similar_mop.m4a","null","","","","","","","",""
"","similar_1b","207","297841","0.0-207.0","""event"",""trial"",""time""
""fullscreenenter"",""0"",""5420""
","
","
","""event"",""trial"",""time""
""fullscreenenter"",""0"",""5420""
","
","null","run_exp/static/audio/clip_11b_similar_mop.m4a","null","","","","","","","",""
"","new_2","208","301361","0.0-208.0","""event"",""trial"",""time""
""fullscreenenter"",""0"",""5420""
","
","
","""event"",""trial"",""time""
""fullscreenenter"",""0"",""5420""
","
","null","run_exp/static/audio/clip_12_new_stoplight.m4a","null","","","","","","","",""
"","old_2","209","304882","0.0-209.0","""event"",""trial"",""time""
""fullscreenenter"",""0"",""5420""
","
","
","""event"",""trial"",""time""
""fullscreenenter"",""0"",""5420""
","
","null","run_exp/static/audio/clip_13_old_baseball.m4a","null","","","","","","","",""
"","similar_2a","210","308396","0.0-210.0","""event"",""trial"",""time""
""fullscreenenter"",""0"",""5420""
","
","
","""event"",""trial"",""time""
""fullscreenenter"",""0"",""5420""
","
","null","run_exp/static/audio/clip_14a_similar_gummies.m4a","null","","","","","","","",""
"","similar_2b","211","315908","0.0-211.0","""event"",""trial"",""time""
""fullscreenenter"",""0"",""5420""
","
","
","""event"",""trial"",""time""
""fullscreenenter"",""0"",""5420""
","
","null","run_exp/static/audio/clip_14b_similar_gummies.m4a","null","","","","","","","",""
"","practice","212","358014","0.0-212.0","""event"",""trial"",""time""
""fullscreenenter"",""0"",""5420""
","
","
","""event"",""trial"",""time""
""fullscreenenter"",""0"",""5420""
","
","null","run_exp/static/audio/clip_15_practice.m4a","null","","","","","<div class='center'><p>Lets practice a little to make sure you understand the difference between new, similar, and old. Lets say you saw these three items in the indoor/outdoor game.</p><p> Try your best to remember these images because youll soon be tested on them in a practice game. In the practice game, youll be shown images and youll have to say if they are old (one of the three images belows), similar (similar to one of the images below but not exactly the same), or new (are not one of the images below nor similar to them).</p><p>Once you press the space bar youll be shown these images again but one at time. Then youll begin the practice game.</p><p><img src='run_exp/static/images/tutorial/test/three_indoor_outdoor.png' height='300'></p></div>","","",""
"","html-keyboard-response","213","358840","0.0-213.0","""event"",""trial"",""time""
""fullscreenenter"",""0"",""5420""
","
","
","""event"",""trial"",""time""
""fullscreenenter"",""0"",""5420""
","
","822.7999999523163","<div class='center'><p>Lets practice a little to make sure you understand the difference between new, similar, and old. Lets say you saw these three items in the indoor/outdoor game.</p><p> Try your best to remember these images because youll soon be tested on them in a practice game. In the practice game, youll be shown images and youll have to say if they are old (one of the three images belows), similar (similar to one of the images below but not exactly the same), or new (are not one of the images below nor similar to them).</p><p>Once you press the space bar youll be shown these images again but one at time. Then youll begin the practice game.</p><p><img src='run_exp/static/images/tutorial/test/three_indoor_outdoor.png' height='300'></p><div><p><b>[Press the space bar to continue]</b></p></div>","32","","","","","","","",""
"","planet","214","360861","0.0-214.0","""event"",""trial"",""time""
""fullscreenenter"",""0"",""5420""
","
","
","""event"",""trial"",""time""
""fullscreenenter"",""0"",""5420""
","
","null","run_exp/static/images/tutorial/test/008a.jpg","null","","","","","","","",""
"","boot","215","362881","0.0-215.0","""event"",""trial"",""time""
""fullscreenenter"",""0"",""5420""
","
","
","""event"",""trial"",""time""
""fullscreenenter"",""0"",""5420""
","
","null","run_exp/static/images/tutorial/test/011a.jpg","null","","","","","","","",""
"","lemon","216","364902","0.0-216.0","""event"",""trial"",""time""
""fullscreenenter"",""0"",""5420""
","
","
","""event"",""trial"",""time""
""fullscreenenter"",""0"",""5420""
","
","null","run_exp/static/images/tutorial/test/018a.jpg","null","","","","","","","",""
"","practice_q1","217","370923","0.0-217.0","""event"",""trial"",""time""
""fullscreenenter"",""0"",""5420""
","
","
","""event"",""trial"",""time""
""fullscreenenter"",""0"",""5420""
","
","6020.399999976158","run_exp/static/audio/clip_16_practice_question.m4a","78","","","","","","","",""
"","correct","218","372831","0.0-218.0-0.0","""event"",""trial"",""time""
""fullscreenenter"",""0"",""5420""
","
","
","""event"",""trial"",""time""
""fullscreenenter"",""0"",""5420""
","
","null","run_exp/static/audio/clip_17_correct.m4a","null","","","","","<div class='center'><p>That's correct!</p></div>","","",""
"","html-keyboard-response","219","373704","0.0-218.0-1.0","""event"",""trial"",""time""
""fullscreenenter"",""0"",""5420""
","
","
","""event"",""trial"",""time""
""fullscreenenter"",""0"",""5420""
","
","871.5","<div class='center'><p>That's correct!</p><div><p><b>[Press the space bar to continue]</b></p></div>","32","","","","","","","",""
"","practice_q2","220","375647","0.0-218.0-2.0","""event"",""trial"",""time""
""fullscreenenter"",""0"",""5420""
","
","
","""event"",""trial"",""time""
""fullscreenenter"",""0"",""5420""
","
","1941.5","run_exp/static/audio/clip_16_practice_question.m4a","86","","","","","","","",""
"","correct","221","377533","0.0-219.0-0.0","""event"",""trial"",""time""
""fullscreenenter"",""0"",""5420""
","
","
","""event"",""trial"",""time""
""fullscreenenter"",""0"",""5420""
","
","null","run_exp/static/audio/clip_17_correct.m4a","null","","","","","<div class='center'><p>That's correct!</p></div>","","",""
"","html-keyboard-response","222","377983","0.0-219.0-1.0","""event"",""trial"",""time""
""fullscreenenter"",""0"",""5420""
","
","
","""event"",""trial"",""time""
""fullscreenenter"",""0"",""5420""
","
","448.7999999523163","<div class='center'><p>That's correct!</p><div><p><b>[Press the space bar to continue]</b></p></div>","32","","","","","","","",""
"","practice_q3","223","380163","0.0-219.0-2.0","""event"",""trial"",""time""
""fullscreenenter"",""0"",""5420""
","
","
","""event"",""trial"",""time""
""fullscreenenter"",""0"",""5420""
","
","2177.100000023842","run_exp/static/audio/clip_16_practice_question.m4a","86","","","","","","","",""
"","incorrect_q3","224","382893","0.0-220.0-0.0","""event"",""trial"",""time""
""fullscreenenter"",""0"",""5420""
","
","
","""event"",""trial"",""time""
""fullscreenenter"",""0"",""5420""
","
","null","run_exp/static/audio/clip_20_incorrect_similar.m4a","null","","","","","<div class='center'><p>Thats incorrect. Its similar.</p><p><img src='run_exp/static/images/tutorial/test/boot_comparison.png' height='300'></p></div>","","",""
"","html-keyboard-response","225","384155","0.0-220.0-1.0","""event"",""trial"",""time""
""fullscreenenter"",""0"",""5420""
","
","
","""event"",""trial"",""time""
""fullscreenenter"",""0"",""5420""
","
","1260.1000000238419","<div class='center'><p>Thats incorrect. Its similar.</p><p><img src='run_exp/static/images/tutorial/test/boot_comparison.png' height='300'></p><div><p><b>[Press the space bar to continue]</b></p></div>","32","","","","","","","",""
"","repeat","226","388893","0.0-221.0-0.0","""event"",""trial"",""time""
""fullscreenenter"",""0"",""5420""
","
","
","""event"",""trial"",""time""
""fullscreenenter"",""0"",""5420""
","
","null","run_exp/static/audio/clip_21_practice_again.m4a","null","","","","","<div class='center'><p>Oops. you missed at least one of these questions. Let's try practicing again. </p></div>","","",""
"","html-keyboard-response","227","389254","0.0-221.0-1.0","""event"",""trial"",""time""
""fullscreenenter"",""0"",""5420""
","
","
","""event"",""trial"",""time""
""fullscreenenter"",""0"",""5420""
","
","359.39999997615814","<div class='center'><p>Oops. you missed at least one of these questions. Let's try practicing again. </p><div><p><b>[Press the space bar to continue]</b></p></div>","32","","","","","","","",""
"","practice_q1","228","391253","0.0-221.0-2.0","""event"",""trial"",""time""
""fullscreenenter"",""0"",""5420""
","
","
","""event"",""trial"",""time""
""fullscreenenter"",""0"",""5420""
","
","1996.5","run_exp/static/audio/clip_16_practice_question.m4a","78","","","","","","","",""
"","correct","229","393153","0.0-222.0-0.0","""event"",""trial"",""time""
""fullscreenenter"",""0"",""5420""
","
","
","""event"",""trial"",""time""
""fullscreenenter"",""0"",""5420""
","
","null","run_exp/static/audio/clip_17_correct.m4a","null","","","","","<div class='center'><p>That's correct!</p></div>","","",""
"","html-keyboard-response","230","393757","0.0-222.0-1.0","""event"",""trial"",""time""
""fullscreenenter"",""0"",""5420""
","
","
","""event"",""trial"",""time""
""fullscreenenter"",""0"",""5420""
","
","602.3999999761581","<div class='center'><p>That's correct!</p><div><p><b>[Press the space bar to continue]</b></p></div>","32","","","","","","","",""
"","practice_q2","231","395444","0.0-222.0-2.0","""event"",""trial"",""time""
""fullscreenenter"",""0"",""5420""
","
","
","""event"",""trial"",""time""
""fullscreenenter"",""0"",""5420""
","
","1685.1000000238419","run_exp/static/audio/clip_16_practice_question.m4a","86","","","","","","","",""
"","correct","232","397333","0.0-223.0-0.0","""event"",""trial"",""time""
""fullscreenenter"",""0"",""5420""
","
","
","""event"",""trial"",""time""
""fullscreenenter"",""0"",""5420""
","
","null","run_exp/static/audio/clip_17_correct.m4a","null","","","","","<div class='center'><p>That's correct!</p></div>","","",""
"","html-keyboard-response","233","397783","0.0-223.0-1.0","""event"",""trial"",""time""
""fullscreenenter"",""0"",""5420""
","
","
","""event"",""trial"",""time""
""fullscreenenter"",""0"",""5420""
","
","448.2000000476837","<div class='center'><p>That's correct!</p><div><p><b>[Press the space bar to continue]</b></p></div>","32","","","","","","","",""
"","practice_q3","234","398626","0.0-223.0-2.0","""event"",""trial"",""time""
""fullscreenenter"",""0"",""5420""
","
","
","""event"",""trial"",""time""
""fullscreenenter"",""0"",""5420""
","
","840.7999999523163","run_exp/static/audio/clip_16_practice_question.m4a","66","","","","","","","",""
"","correct","235","400653","0.0-224.0-0.0","""event"",""trial"",""time""
""fullscreenenter"",""0"",""5420""
","
","
","""event"",""trial"",""time""
""fullscreenenter"",""0"",""5420""
","
","null","run_exp/static/audio/clip_17_correct.m4a","null","","","","","<div class='center'><p>That's correct!</p></div>","","",""
"","html-keyboard-response","236","401212","0.0-224.0-1.0","""event"",""trial"",""time""
""fullscreenenter"",""0"",""5420""
","
","
","""event"",""trial"",""time""
""fullscreenenter"",""0"",""5420""
","
","557.4000000953674","<div class='center'><p>That's correct!</p><div><p><b>[Press the space bar to continue]</b></p></div>","32","","","","","","","",""
"","begin_text","237","419673","0.0-225.0-0.0","""event"",""trial"",""time""
""fullscreenenter"",""0"",""5420""
","
","
","""event"",""trial"",""time""
""fullscreenenter"",""0"",""5420""
","
","null","run_exp/static/audio/clip_22_begin_test.m4a","null","","","","","<div class='center'><p>On to the real game where well test your memory of items from the indoor/outdoor game. For each item, you need to indicate if the item is <b>old</b> by pressing the <b>v</b> key, <b>similar</b> by pressing the <b>b</b> key, or <b>new</b> by pressing the <b>n</b> key. </p></div>","","",""
"","html-keyboard-response","238","420162","0.0-225.0-1.0","""event"",""trial"",""time""
""fullscreenenter"",""0"",""5420""
","
","
","""event"",""trial"",""time""
""fullscreenenter"",""0"",""5420""
","
","486.8000000715256","<div class='center'><p>On to the real game where well test your memory of items from the indoor/outdoor game. For each item, you need to indicate if the item is <b>old</b> by pressing the <b>v</b> key, <b>similar</b> by pressing the <b>b</b> key, or <b>new</b> by pressing the <b>n</b> key. </p><div><p><b>[Press the space bar to continue]</b></p></div>","32","","","","","","","",""
"","image","239","421732","0.0-226.0-0.0","""event"",""trial"",""time""
""fullscreenenter"",""0"",""5420""
","
","
","""event"",""trial"",""time""
""fullscreenenter"",""0"",""5420""
","
","1567.2000000476837","run_exp/static/images/Set 6_rs/176a.jpg","78","","","","","","test","TF","4"
"","show_choice","240","422236","0.0-226.0-1.0","""event"",""trial"",""time""
""fullscreenenter"",""0"",""5420""
","
","
","""event"",""trial"",""time""
""fullscreenenter"",""0"",""5420""
","
","null","run_exp/static/images/Set 6_rs/176a.jpg","null","","","","","","test","TF",""
"","html-keyboard-response","241","422740","0.0-226.0-2.0","""event"",""trial"",""time""
""fullscreenenter"",""0"",""5420""
","
","
","""event"",""trial"",""time""
""fullscreenenter"",""0"",""5420""
","
","null","<p></p>","null","","","","","","","",""
"","image","242","423743","0.0-227.0-0.0","""event"",""trial"",""time""
""fullscreenenter"",""0"",""5420""
","
","
","""event"",""trial"",""time""
""fullscreenenter"",""0"",""5420""
","
","1001","run_exp/static/images/Set 6_rs/012a.jpg","86","","","","","","test","TR","1"
"","show_choice","243","424260","0.0-227.0-1.0","""event"",""trial"",""time""
""fullscreenenter"",""0"",""5420""
","
","
","""event"",""trial"",""time""
""fullscreenenter"",""0"",""5420""
","
","null","run_exp/static/images/Set 6_rs/012a.jpg","null","","","","","","test","TR",""
"","html-keyboard-response","244","424779","0.0-227.0-2.0","""event"",""trial"",""time""
""fullscreenenter"",""0"",""5420""
","
","
","""event"",""trial"",""time""
""fullscreenenter"",""0"",""5420""
","
","null","<p></p>","null","","","","","","","",""
"","image","245","426004","0.0-228.0-0.0","""event"",""trial"",""time""
""fullscreenenter"",""0"",""5420""
","
","
","""event"",""trial"",""time""
""fullscreenenter"",""0"",""5420""
","
","1222.5","run_exp/static/images/Set 6_rs/066b.jpg","86","","","","","","test","TL","5"
"","show_choice","246","426510","0.0-228.0-1.0","""event"",""trial"",""time""
""fullscreenenter"",""0"",""5420""
","
","
","""event"",""trial"",""time""
""fullscreenenter"",""0"",""5420""
","
","null","run_exp/static/images/Set 6_rs/066b.jpg","null","","","","","","test","TL",""
"","html-keyboard-response","247","427023","0.0-228.0-2.0","""event"",""trial"",""time""
""fullscreenenter"",""0"",""5420""
","
","
","""event"",""trial"",""time""
""fullscreenenter"",""0"",""5420""
","
","null","<p></p>","null","","","","","","","",""
"","image","248","428154","0.0-229.0-0.0","""event"",""trial"",""time""
""fullscreenenter"",""0"",""5420""
","
","
","""event"",""trial"",""time""
""fullscreenenter"",""0"",""5420""
","
","1129.5","run_exp/static/images/Set 6_rs/077a.jpg","78","","","","","","test","TF","3"
"","show_choice","249","428662","0.0-229.0-1.0","""event"",""trial"",""time""
""fullscreenenter"",""0"",""5420""
","
","
","""event"",""trial"",""time""
""fullscreenenter"",""0"",""5420""
","
","null","run_exp/static/images/Set 6_rs/077a.jpg","null","","","","","","test","TF",""
"","html-keyboard-response","250","429182","0.0-229.0-2.0","""event"",""trial"",""time""
""fullscreenenter"",""0"",""5420""
","
","
","""event"",""trial"",""time""
""fullscreenenter"",""0"",""5420""
","
","null","<p></p>","null","","","","","","","",""
"","image","251","430287","0.0-230.0-0.0","""event"",""trial"",""time""
""fullscreenenter"",""0"",""5420""
","
","
","""event"",""trial"",""time""
""fullscreenenter"",""0"",""5420""
","
","1103","run_exp/static/images/Set 6_rs/108a.jpg","86","","","","","","test","TR","5"
"","show_choice","252","430796","0.0-230.0-1.0","""event"",""trial"",""time""
""fullscreenenter"",""0"",""5420""
","
","
","""event"",""trial"",""time""
""fullscreenenter"",""0"",""5420""
","
","null","run_exp/static/images/Set 6_rs/108a.jpg","null","","","","","","test","TR",""
"","html-keyboard-response","253","431312","0.0-230.0-2.0","""event"",""trial"",""time""
""fullscreenenter"",""0"",""5420""
","
","
","""event"",""trial"",""time""
""fullscreenenter"",""0"",""5420""
","
","null","<p></p>","null","","","","","","","",""
"","image","254","432027","0.0-231.0-0.0","""event"",""trial"",""time""
""fullscreenenter"",""0"",""5420""
","
","
","""event"",""trial"",""time""
""fullscreenenter"",""0"",""5420""
","
","713","run_exp/static/images/Set 6_rs/181b.jpg","86","","","","","","test","TL","1"
"","show_choice","255","432530","0.0-231.0-1.0","""event"",""trial"",""time""
""fullscreenenter"",""0"",""5420""
","
","
","""event"",""trial"",""time""
""fullscreenenter"",""0"",""5420""
","
","null","run_exp/static/images/Set 6_rs/181b.jpg","null","","","","","","test","TL",""
"","html-keyboard-response","256","433046","0.0-231.0-2.0","""event"",""trial"",""time""
""fullscreenenter"",""0"",""5420""
","
","
","""event"",""trial"",""time""
""fullscreenenter"",""0"",""5420""
","
","null","<p></p>","null","","","","","","","",""
"","image","257","435138","0.0-232.0-0.0","""event"",""trial"",""time""
""fullscreenenter"",""0"",""5420""
","
","
","""event"",""trial"",""time""
""fullscreenenter"",""0"",""5420""
","
","2090.3000000715256","run_exp/static/images/Set 6_rs/017b.jpg","66","","","","","","test","TL","3"
"","show_choice","258","435655","0.0-232.0-1.0","""event"",""trial"",""time""
""fullscreenenter"",""0"",""5420""
","
","
","""event"",""trial"",""time""
""fullscreenenter"",""0"",""5420""
","
","null","run_exp/static/images/Set 6_rs/017b.jpg","null","","","","","","test","TL",""
"","html-keyboard-response","259","436157","0.0-232.0-2.0","""event"",""trial"",""time""
""fullscreenenter"",""0"",""5420""
","
","
","""event"",""trial"",""time""
""fullscreenenter"",""0"",""5420""
","
","null","<p></p>","null","","","","","","","",""
"","image","260","437007","0.0-233.0-0.0","""event"",""trial"",""time""
""fullscreenenter"",""0"",""5420""
","
","
","""event"",""trial"",""time""
""fullscreenenter"",""0"",""5420""
","
","848.3000000715256","run_exp/static/images/Set 6_rs/126a.jpg","86","","","","","","test","TR","2"
"","show_choice","261","437522","0.0-233.0-1.0","""event"",""trial"",""time""
""fullscreenenter"",""0"",""5420""
","
","
","""event"",""trial"",""time""
""fullscreenenter"",""0"",""5420""
","
","null","run_exp/static/images/Set 6_rs/126a.jpg","null","","","","","","test","TR",""
"","html-keyboard-response","262","438038","0.0-233.0-2.0","""event"",""trial"",""time""
""fullscreenenter"",""0"",""5420""
","
","
","""event"",""trial"",""time""
""fullscreenenter"",""0"",""5420""
","
","null","<p></p>","null","","","","","","","",""
"","image","263","439025","0.0-234.0-0.0","""event"",""trial"",""time""
""fullscreenenter"",""0"",""5420""
","
","
","""event"",""trial"",""time""
""fullscreenenter"",""0"",""5420""
","
","985.2999999523163","run_exp/static/images/Set 6_rs/095b.jpg","86","","","","","","test","TL","5"
"","show_choice","264","439538","0.0-234.0-1.0","""event"",""trial"",""time""
""fullscreenenter"",""0"",""5420""
","
","
","""event"",""trial"",""time""
""fullscreenenter"",""0"",""5420""
","
","null","run_exp/static/images/Set 6_rs/095b.jpg","null","","","","","","test","TL",""
"","html-keyboard-response","265","440040","0.0-234.0-2.0","""event"",""trial"",""time""
""fullscreenenter"",""0"",""5420""
","
","
","""event"",""trial"",""time""
""fullscreenenter"",""0"",""5420""
","
","null","<p></p>","null","","","","","","","",""
"","image","266","441304","0.0-235.0-0.0","""event"",""trial"",""time""
""fullscreenenter"",""0"",""5420""
","
","
","""event"",""trial"",""time""
""fullscreenenter"",""0"",""5420""
","
","1262.6999999284744","run_exp/static/images/Set 6_rs/036b.jpg","66","","","","","","test","TL","4"
"","show_choice","267","441821","0.0-235.0-1.0","""event"",""trial"",""time""
""fullscreenenter"",""0"",""5420""
","
","
","""event"",""trial"",""time""
""fullscreenenter"",""0"",""5420""
","
","null","run_exp/static/images/Set 6_rs/036b.jpg","null","","","","","","test","TL",""
"","html-keyboard-response","268","442338","0.0-235.0-2.0","""event"",""trial"",""time""
""fullscreenenter"",""0"",""5420""
","
","
","""event"",""trial"",""time""
""fullscreenenter"",""0"",""5420""
","
","null","<p></p>","null","","","","","","","",""
"","image","269","443103","0.0-236.0-0.0","""event"",""trial"",""time""
""fullscreenenter"",""0"",""5420""
","
","
","""event"",""trial"",""time""
""fullscreenenter"",""0"",""5420""
","
","763.6000000238419","run_exp/static/images/Set 6_rs/023a.jpg","86","","","","","","test","TR","3"
"","show_choice","270","443606","0.0-236.0-1.0","""event"",""trial"",""time""
""fullscreenenter"",""0"",""5420""
","
","
","""event"",""trial"",""time""
""fullscreenenter"",""0"",""5420""
","
","null","run_exp/static/images/Set 6_rs/023a.jpg","null","","","","","","test","TR",""
"","html-keyboard-response","271","444120","0.0-236.0-2.0","""event"",""trial"",""time""
""fullscreenenter"",""0"",""5420""
","
","
","""event"",""trial"",""time""
""fullscreenenter"",""0"",""5420""
","
","null","<p></p>","null","","","","","","","",""
"","image","272","444896","0.0-237.0-0.0","""event"",""trial"",""time""
""fullscreenenter"",""0"",""5420""
","
","
","""event"",""trial"",""time""
""fullscreenenter"",""0"",""5420""
","
","774.1000000238419","run_exp/static/images/Set 6_rs/140a.jpg","78","","","","","","test","TF","1"
"","show_choice","273","445405","0.0-237.0-1.0","""event"",""trial"",""time""
""fullscreenenter"",""0"",""5420""
","
","
","""event"",""trial"",""time""
""fullscreenenter"",""0"",""5420""
","
","null","run_exp/static/images/Set 6_rs/140a.jpg","null","","","","","","test","TF",""
"","html-keyboard-response","274","445920","0.0-237.0-2.0","""event"",""trial"",""time""
""fullscreenenter"",""0"",""5420""
","
","
","""event"",""trial"",""time""
""fullscreenenter"",""0"",""5420""
","
","null","<p></p>","null","","","","","","","",""
"","image","275","446974","0.0-238.0-0.0","""event"",""trial"",""time""
""fullscreenenter"",""0"",""5420""
","
","
","""event"",""trial"",""time""
""fullscreenenter"",""0"",""5420""
","
","1052.7999999523163","run_exp/static/images/Set 6_rs/014b.jpg","86","","","","","","test","TL","5"
"","show_choice","276","447487","0.0-238.0-1.0","""event"",""trial"",""time""
""fullscreenenter"",""0"",""5420""
","
","
","""event"",""trial"",""time""
""fullscreenenter"",""0"",""5420""
","
","null","run_exp/static/images/Set 6_rs/014b.jpg","null","","","","","","test","TL",""
"","html-keyboard-response","277","448004","0.0-238.0-2.0","""event"",""trial"",""time""
""fullscreenenter"",""0"",""5420""
","
","
","""event"",""trial"",""time""
""fullscreenenter"",""0"",""5420""
","
","null","<p></p>","null","","","","","","","",""
"","image","278","448998","0.0-239.0-0.0","""event"",""trial"",""time""
""fullscreenenter"",""0"",""5420""
","
","
","""event"",""trial"",""time""
""fullscreenenter"",""0"",""5420""
","
","993","run_exp/static/images/Set 6_rs/171a.jpg","66","","","","","","test","TF","1"
"","show_choice","279","449504","0.0-239.0-1.0","""event"",""trial"",""time""
""fullscreenenter"",""0"",""5420""
","
","
","""event"",""trial"",""time""
""fullscreenenter"",""0"",""5420""
","
","null","run_exp/static/images/Set 6_rs/171a.jpg","null","","","","","","test","TF",""
"","html-keyboard-response","280","450021","0.0-239.0-2.0","""event"",""trial"",""time""
""fullscreenenter"",""0"",""5420""
","
","
","""event"",""trial"",""time""
""fullscreenenter"",""0"",""5420""
","
","null","<p></p>","null","","","","","","","",""
"","image","281","451109","0.0-240.0-0.0","""event"",""trial"",""time""
""fullscreenenter"",""0"",""5420""
","
","
","""event"",""trial"",""time""
""fullscreenenter"",""0"",""5420""
","
","1086.7000000476837","run_exp/static/images/Set 6_rs/088a.jpg","86","","","","","","test","TR","2"
"","show_choice","282","451622","0.0-240.0-1.0","""event"",""trial"",""time""
""fullscreenenter"",""0"",""5420""
","
","
","""event"",""trial"",""time""
""fullscreenenter"",""0"",""5420""
","
","null","run_exp/static/images/Set 6_rs/088a.jpg","null","","","","","","test","TR",""
"","html-keyboard-response","283","452136","0.0-240.0-2.0","""event"",""trial"",""time""
""fullscreenenter"",""0"",""5420""
","
","
","""event"",""trial"",""time""
""fullscreenenter"",""0"",""5420""
","
","null","<p></p>","null","","","","","","","",""
"","image","284","452820","0.0-241.0-0.0","""event"",""trial"",""time""
""fullscreenenter"",""0"",""5420""
","
","
","""event"",""trial"",""time""
""fullscreenenter"",""0"",""5420""
","
","682.5","run_exp/static/images/Set 6_rs/186a.jpg","86","","","","","","test","TR","5"
"","show_choice","285","453336","0.0-241.0-1.0","""event"",""trial"",""time""
""fullscreenenter"",""0"",""5420""
","
","
","""event"",""trial"",""time""
""fullscreenenter"",""0"",""5420""
","
","null","run_exp/static/images/Set 6_rs/186a.jpg","null","","","","","","test","TR",""
"","html-keyboard-response","286","453852","0.0-241.0-2.0","""event"",""trial"",""time""
""fullscreenenter"",""0"",""5420""
","
","
","""event"",""trial"",""time""
""fullscreenenter"",""0"",""5420""
","
","null","<p></p>","null","","","","","","","",""
"","image","287","454908","0.0-242.0-0.0","""event"",""trial"",""time""
""fullscreenenter"",""0"",""5420""
","
","
","""event"",""trial"",""time""
""fullscreenenter"",""0"",""5420""
","
","1053.8999999761581","run_exp/static/images/Set 6_rs/134a.jpg","86","","","","","","test","TR","3"
"","show_choice","288","455419","0.0-242.0-1.0","""event"",""trial"",""time""
""fullscreenenter"",""0"",""5420""
","
","
","""event"",""trial"",""time""
""fullscreenenter"",""0"",""5420""
","
","null","run_exp/static/images/Set 6_rs/134a.jpg","null","","","","","","test","TR",""
"","html-keyboard-response","289","455935","0.0-242.0-2.0","""event"",""trial"",""time""
""fullscreenenter"",""0"",""5420""
","
","
","""event"",""trial"",""time""
""fullscreenenter"",""0"",""5420""
","
","null","<p></p>","null","","","","","","","",""
"","image","290","456675","0.0-243.0-0.0","""event"",""trial"",""time""
""fullscreenenter"",""0"",""5420""
","
","
","""event"",""trial"",""time""
""fullscreenenter"",""0"",""5420""
","
","737","run_exp/static/images/Set 6_rs/112a.jpg","86","","","","","","test","TR","5"
"","show_choice","291","457185","0.0-243.0-1.0","""event"",""trial"",""time""
""fullscreenenter"",""0"",""5420""
","
","
","""event"",""trial"",""time""
""fullscreenenter"",""0"",""5420""
","
","null","run_exp/static/images/Set 6_rs/112a.jpg","null","","","","","","test","TR",""
"","html-keyboard-response","292","457687","0.0-243.0-2.0","""event"",""trial"",""time""
""fullscreenenter"",""0"",""5420""
","
","
","""event"",""trial"",""time""
""fullscreenenter"",""0"",""5420""
","
","null","<p></p>","null","","","","","","","",""
"","image","293","458794","0.0-244.0-0.0","""event"",""trial"",""time""
""fullscreenenter"",""0"",""5420""
","
","
","""event"",""trial"",""time""
""fullscreenenter"",""0"",""5420""
","
","1104.8999999761581","run_exp/static/images/Set 6_rs/071b.jpg","66","","","","","","test","TL","4"
"","show_choice","294","459302","0.0-244.0-1.0","""event"",""trial"",""time""
""fullscreenenter"",""0"",""5420""
","
","
","""event"",""trial"",""time""
""fullscreenenter"",""0"",""5420""
","
","null","run_exp/static/images/Set 6_rs/071b.jpg","null","","","","","","test","TL",""
"","html-keyboard-response","295","459819","0.0-244.0-2.0","""event"",""trial"",""time""
""fullscreenenter"",""0"",""5420""
","
","
","""event"",""trial"",""time""
""fullscreenenter"",""0"",""5420""
","
","null","<p></p>","null","","","","","","","",""
"","image","296","460925","0.0-245.0-0.0","""event"",""trial"",""time""
""fullscreenenter"",""0"",""5420""
","
","
","""event"",""trial"",""time""
""fullscreenenter"",""0"",""5420""
","
","1105.1000000238419","run_exp/static/images/Set 6_rs/055b.jpg","66","","","","","","test","TL","4"
"","show_choice","297","461435","0.0-245.0-1.0","""event"",""trial"",""time""
""fullscreenenter"",""0"",""5420""
","
","
","""event"",""trial"",""time""
""fullscreenenter"",""0"",""5420""
","
","null","run_exp/static/images/Set 6_rs/055b.jpg","null","","","","","","test","TL",""
"","html-keyboard-response","298","461951","0.0-245.0-2.0","""event"",""trial"",""time""
""fullscreenenter"",""0"",""5420""
","
","
","""event"",""trial"",""time""
""fullscreenenter"",""0"",""5420""
","
","null","<p></p>","null","","","","","","","",""
"","image","299","462942","0.0-246.0-0.0","""event"",""trial"",""time""
""fullscreenenter"",""0"",""5420""
","
","
","""event"",""trial"",""time""
""fullscreenenter"",""0"",""5420""
","
","988.4000000953674","run_exp/static/images/Set 6_rs/050b.jpg","66","","","","","","test","TL","3"
"","show_choice","300","463450","0.0-246.0-1.0","""event"",""trial"",""time""
""fullscreenenter"",""0"",""5420""
","
","
","""event"",""trial"",""time""
""fullscreenenter"",""0"",""5420""
","
","null","run_exp/static/images/Set 6_rs/050b.jpg","null","","","","","","test","TL",""
"","html-keyboard-response","301","463952","0.0-246.0-2.0","""event"",""trial"",""time""
""fullscreenenter"",""0"",""5420""
","
","
","""event"",""trial"",""time""
""fullscreenenter"",""0"",""5420""
","
","null","<p></p>","null","","","","","","","",""
"","image","302","464782","0.0-247.0-0.0","""event"",""trial"",""time""
""fullscreenenter"",""0"",""5420""
","
","
","""event"",""trial"",""time""
""fullscreenenter"",""0"",""5420""
","
","828.8000000715256","run_exp/static/images/Set 6_rs/152a.jpg","86","","","","","","test","TR","2"
"","show_choice","303","465285","0.0-247.0-1.0","""event"",""trial"",""time""
""fullscreenenter"",""0"",""5420""
","
","
","""event"",""trial"",""time""
""fullscreenenter"",""0"",""5420""
","
","null","run_exp/static/images/Set 6_rs/152a.jpg","null","","","","","","test","TR",""
"","html-keyboard-response","304","465801","0.0-247.0-2.0","""event"",""trial"",""time""
""fullscreenenter"",""0"",""5420""
","
","
","""event"",""trial"",""time""
""fullscreenenter"",""0"",""5420""
","
","null","<p></p>","null","","","","","","","",""
"","image","305","468085","0.0-248.0-0.0","""event"",""trial"",""time""
""fullscreenenter"",""0"",""5420""
","
","
","""event"",""trial"",""time""
""fullscreenenter"",""0"",""5420""
","
","2282","run_exp/static/images/Set 6_rs/144b.jpg","86","","","","","","test","TL","4"
"","show_choice","306","468600","0.0-248.0-1.0","""event"",""trial"",""time""
""fullscreenenter"",""0"",""5420""
","
","
","""event"",""trial"",""time""
""fullscreenenter"",""0"",""5420""
","
","null","run_exp/static/images/Set 6_rs/144b.jpg","null","","","","","","test","TL",""
"","html-keyboard-response","307","469116","0.0-248.0-2.0","""event"",""trial"",""time""
""fullscreenenter"",""0"",""5420""
","
","
","""event"",""trial"",""time""
""fullscreenenter"",""0"",""5420""
","
","null","<p></p>","null","","","","","","","",""
"","image","308","469795","0.0-249.0-0.0","""event"",""trial"",""time""
""fullscreenenter"",""0"",""5420""
","
","
","""event"",""trial"",""time""
""fullscreenenter"",""0"",""5420""
","
","676.3000000715256","run_exp/static/images/Set 6_rs/064a.jpg","86","","","","","","test","TR","5"
"","show_choice","309","470300","0.0-249.0-1.0","""event"",""trial"",""time""
""fullscreenenter"",""0"",""5420""
","
","
","""event"",""trial"",""time""
""fullscreenenter"",""0"",""5420""
","
","null","run_exp/static/images/Set 6_rs/064a.jpg","null","","","","","","test","TR",""
"","html-keyboard-response","310","470818","0.0-249.0-2.0","""event"",""trial"",""time""
""fullscreenenter"",""0"",""5420""
","
","
","""event"",""trial"",""time""
""fullscreenenter"",""0"",""5420""
","
","null","<p></p>","null","","","","","","","",""
"","image","311","472057","0.0-250.0-0.0","""event"",""trial"",""time""
""fullscreenenter"",""0"",""5420""
","
","
","""event"",""trial"",""time""
""fullscreenenter"",""0"",""5420""
","
","1237.1000000238419","run_exp/static/images/Set 6_rs/078a.jpg","78","","","","","","test","TF","1"
"","show_choice","312","472566","0.0-250.0-1.0","""event"",""trial"",""time""
""fullscreenenter"",""0"",""5420""
","
","
","""event"",""trial"",""time""
""fullscreenenter"",""0"",""5420""
","
","null","run_exp/static/images/Set 6_rs/078a.jpg","null","","","","","","test","TF",""
"","html-keyboard-response","313","473083","0.0-250.0-2.0","""event"",""trial"",""time""
""fullscreenenter"",""0"",""5420""
","
","
","""event"",""trial"",""time""
""fullscreenenter"",""0"",""5420""
","
","null","<p></p>","null","","","","","","","",""
"","image","314","473711","0.0-251.0-0.0","""event"",""trial"",""time""
""fullscreenenter"",""0"",""5420""
","
","
","""event"",""trial"",""time""
""fullscreenenter"",""0"",""5420""
","
","625.7000000476837","run_exp/static/images/Set 6_rs/170a.jpg","78","","","","","","test","TF","2"
"","show_choice","315","474216","0.0-251.0-1.0","""event"",""trial"",""time""
""fullscreenenter"",""0"",""5420""
","
","
","""event"",""trial"",""time""
""fullscreenenter"",""0"",""5420""
","
","null","run_exp/static/images/Set 6_rs/170a.jpg","null","","","","","","test","TF",""
"","html-keyboard-response","316","474733","0.0-251.0-2.0","""event"",""trial"",""time""
""fullscreenenter"",""0"",""5420""
","
","
","""event"",""trial"",""time""
""fullscreenenter"",""0"",""5420""
","
","null","<p></p>","null","","","","","","","",""
"","image","317","475568","0.0-252.0-0.0","""event"",""trial"",""time""
""fullscreenenter"",""0"",""5420""
","
","
","""event"",""trial"",""time""
""fullscreenenter"",""0"",""5420""
","
","833.2999999523163","run_exp/static/images/Set 6_rs/076a.jpg","86","","","","","","test","TR","4"
"","show_choice","318","476082","0.0-252.0-1.0","""event"",""trial"",""time""
""fullscreenenter"",""0"",""5420""
","
","
","""event"",""trial"",""time""
""fullscreenenter"",""0"",""5420""
","
","null","run_exp/static/images/Set 6_rs/076a.jpg","null","","","","","","test","TR",""
"","html-keyboard-response","319","476599","0.0-252.0-2.0","""event"",""trial"",""time""
""fullscreenenter"",""0"",""5420""
","
","
","""event"",""trial"",""time""
""fullscreenenter"",""0"",""5420""
","
","null","<p></p>","null","","","","","","","",""
"","image","320","477233","0.0-253.0-0.0","""event"",""trial"",""time""
""fullscreenenter"",""0"",""5420""
","
","
","""event"",""trial"",""time""
""fullscreenenter"",""0"",""5420""
","
","631.7000000476837","run_exp/static/images/Set 6_rs/177a.jpg","86","","","","","","test","TR","5"
"","show_choice","321","477749","0.0-253.0-1.0","""event"",""trial"",""time""
""fullscreenenter"",""0"",""5420""
","
","
","""event"",""trial"",""time""
""fullscreenenter"",""0"",""5420""
","
","null","run_exp/static/images/Set 6_rs/177a.jpg","null","","","","","","test","TR",""
"","html-keyboard-response","322","478265","0.0-253.0-2.0","""event"",""trial"",""time""
""fullscreenenter"",""0"",""5420""
","
","
","""event"",""trial"",""time""
""fullscreenenter"",""0"",""5420""
","
","null","<p></p>","null","","","","","","","",""
"","image","323","479357","0.0-254.0-0.0","""event"",""trial"",""time""
""fullscreenenter"",""0"",""5420""
","
","
","""event"",""trial"",""time""
""fullscreenenter"",""0"",""5420""
","
","1089.5999999046326","run_exp/static/images/Set 6_rs/079b.jpg","66","","","","","","test","TL","5"
"","show_choice","324","479864","0.0-254.0-1.0","""event"",""trial"",""time""
""fullscreenenter"",""0"",""5420""
","
","
","""event"",""trial"",""time""
""fullscreenenter"",""0"",""5420""
","
","null","run_exp/static/images/Set 6_rs/079b.jpg","null","","","","","","test","TL",""
"","html-keyboard-response","325","480382","0.0-254.0-2.0","""event"",""trial"",""time""
""fullscreenenter"",""0"",""5420""
","
","
","""event"",""trial"",""time""
""fullscreenenter"",""0"",""5420""
","
","null","<p></p>","null","","","","","","","",""
"","image","326","482044","0.0-255.0-0.0","""event"",""trial"",""time""
""fullscreenenter"",""0"",""5420""
","
","
","""event"",""trial"",""time""
""fullscreenenter"",""0"",""5420""
","
","1660.1000000238419","run_exp/static/images/Set 6_rs/062b.jpg","66","","","","","","test","TL","1"
"","show_choice","327","482551","0.0-255.0-1.0","""event"",""trial"",""time""
""fullscreenenter"",""0"",""5420""
","
","
","""event"",""trial"",""time""
""fullscreenenter"",""0"",""5420""
","
","null","run_exp/static/images/Set 6_rs/062b.jpg","null","","","","","","test","TL",""
"","html-keyboard-response","328","483065","0.0-255.0-2.0","""event"",""trial"",""time""
""fullscreenenter"",""0"",""5420""
","
","
","""event"",""trial"",""time""
""fullscreenenter"",""0"",""5420""
","
","null","<p></p>","null","","","","","","","",""
"","image","329","484335","0.0-256.0-0.0","""event"",""trial"",""time""
""fullscreenenter"",""0"",""5420""
","
","
","""event"",""trial"",""time""
""fullscreenenter"",""0"",""5420""
","
","1268.3000000715256","run_exp/static/images/Set 6_rs/116b.jpg","66","","","","","","test","TL","2"
"","show_choice","330","484847","0.0-256.0-1.0","""event"",""trial"",""time""
""fullscreenenter"",""0"",""5420""
","
","
","""event"",""trial"",""time""
""fullscreenenter"",""0"",""5420""
","
","null","run_exp/static/images/Set 6_rs/116b.jpg","null","","","","","","test","TL",""
"","html-keyboard-response","331","485348","0.0-256.0-2.0","""event"",""trial"",""time""
""fullscreenenter"",""0"",""5420""
","
","
","""event"",""trial"",""time""
""fullscreenenter"",""0"",""5420""
","
","null","<p></p>","null","","","","","","","",""
"","image","332","486263","0.0-257.0-0.0","""event"",""trial"",""time""
""fullscreenenter"",""0"",""5420""
","
","
","""event"",""trial"",""time""
""fullscreenenter"",""0"",""5420""
","
","913.1999999284744","run_exp/static/images/Set 6_rs/045a.jpg","86","","","","","","test","TR","2"
"","show_choice","333","486780","0.0-257.0-1.0","""event"",""trial"",""time""
""fullscreenenter"",""0"",""5420""
","
","
","""event"",""trial"",""time""
""fullscreenenter"",""0"",""5420""
","
","null","run_exp/static/images/Set 6_rs/045a.jpg","null","","","","","","test","TR",""
"","html-keyboard-response","334","487282","0.0-257.0-2.0","""event"",""trial"",""time""
""fullscreenenter"",""0"",""5420""
","
","
","""event"",""trial"",""time""
""fullscreenenter"",""0"",""5420""
","
","null","<p></p>","null","","","","","","","",""
"","image","335","488138","0.0-258.0-0.0","""event"",""trial"",""time""
""fullscreenenter"",""0"",""5420""
","
","
","""event"",""trial"",""time""
""fullscreenenter"",""0"",""5420""
","
","854.0999999046326","run_exp/static/images/Set 6_rs/052a.jpg","78","","","","","","test","TF","1"
"","show_choice","336","488647","0.0-258.0-1.0","""event"",""trial"",""time""
""fullscreenenter"",""0"",""5420""
","
","
","""event"",""trial"",""time""
""fullscreenenter"",""0"",""5420""
","
","null","run_exp/static/images/Set 6_rs/052a.jpg","null","","","","","","test","TF",""
"","html-keyboard-response","337","489164","0.0-258.0-2.0","""event"",""trial"",""time""
""fullscreenenter"",""0"",""5420""
","
","
","""event"",""trial"",""time""
""fullscreenenter"",""0"",""5420""
","
","null","<p></p>","null","","","","","","","",""
