"success","trial_type","trial_index","time_elapsed","internal_node_id","interactions","blur_events","focus_events","fullscreenenter_events","fullscreenexit_events","rt","stimulus","key_press","subject_id","participant_id","age","gender","prompt","phase","condition","lure_bin"
"true","fullscreen","0","12899","0.0-0.0","""event"",""trial"",""time""
""fullscreenenter"",""0"",""11906""
","
","
","""event"",""trial"",""time""
""fullscreenenter"",""0"",""11906""
","
","","","","","","","","","","",""
"","pavlovia","1","12905","0.0-1.0","""event"",""trial"",""time""
""fullscreenenter"",""0"",""11906""
","
","
","""event"",""trial"",""time""
""fullscreenenter"",""0"",""11906""
","
","","","","","","","","","","",""
"","welcome","2","47764","0.0-2.0","""event"",""trial"",""time""
""fullscreenenter"",""0"",""11906""
","
","
","""event"",""trial"",""time""
""fullscreenenter"",""0"",""11906""
","
","null","run_exp/static/audio/clip_1_welcome.m4a","null","555","358","25","Female","<div class='center'><p>Welcome to the third part of the study! First, you'll be shown pictures of items one at a time. For each picture, you have to decide if the item is typically found indoors or outdoors.</p><p>If you think it's usually found indoors, then press <b>v</b> key on your keyboard. If you think it's usually found outdoors, then press the <b>n</b> key.There will be reminders on the screen to help you remember which keys to press. </p><p>If you're not sure whether the item is an indoor item or an outdoor item, go ahead and take a guess but try your best not to skip that choice. </p></div>","","",""
"","html-keyboard-response","3","76033","0.0-3.0","""event"",""trial"",""time""
""fullscreenenter"",""0"",""11906""
","
","
","""event"",""trial"",""time""
""fullscreenenter"",""0"",""11906""
","
","28267.80000001192","<div class='center'><p>Welcome to the third part of the study! First, you'll be shown pictures of items one at a time. For each picture, you have to decide if the item is typically found indoors or outdoors.</p><p>If you think it's usually found indoors, then press <b>v</b> key on your keyboard. If you think it's usually found outdoors, then press the <b>n</b> key.There will be reminders on the screen to help you remember which keys to press. </p><p>If you're not sure whether the item is an indoor item or an outdoor item, go ahead and take a guess but try your best not to skip that choice. </p><div><p><b>[Press the space bar to continue]</b></p></div>","32","","","","","","","",""
"","image","4","78045","0.0-4.0","""event"",""trial"",""time""
""fullscreenenter"",""0"",""11906""
","
","
","""event"",""trial"",""time""
""fullscreenenter"",""0"",""11906""
","
","null","run_exp/static/images/Set 6_rs/017a.jpg","null","","","","","","learn","SL",""
"","show_choice","5","80049","0.0-5.0","""event"",""trial"",""time""
""fullscreenenter"",""0"",""11906""
","
","
","""event"",""trial"",""time""
""fullscreenenter"",""0"",""11906""
","
","null","run_exp/static/images/blank.png","null","","","","","","learn","SL",""
"","html-keyboard-response","6","80573","0.0-6.0","""event"",""trial"",""time""
""fullscreenenter"",""0"",""11906""
","
","
","""event"",""trial"",""time""
""fullscreenenter"",""0"",""11906""
","
","null","<p></p>","null","","","","","","","",""
"","image","7","82016","0.0-7.0","""event"",""trial"",""time""
""fullscreenenter"",""0"",""11906""
","
","
","""event"",""trial"",""time""
""fullscreenenter"",""0"",""11906""
","
","1441.9000000059605","run_exp/static/images/Set 6_rs/088a.jpg","86","","","","","","learn","SR",""
"","show_choice","8","82576","0.0-8.0","""event"",""trial"",""time""
""fullscreenenter"",""0"",""11906""
","
","
","""event"",""trial"",""time""
""fullscreenenter"",""0"",""11906""
","
","null","run_exp/static/images/Set 6_rs/088a.jpg","null","","","","","","learn","SR",""
"","html-keyboard-response","9","83079","0.0-9.0","""event"",""trial"",""time""
""fullscreenenter"",""0"",""11906""
","
","
","""event"",""trial"",""time""
""fullscreenenter"",""0"",""11906""
","
","null","<p></p>","null","","","","","","","",""
"","image","10","84357","0.0-10.0","""event"",""trial"",""time""
""fullscreenenter"",""0"",""11906""
","
","
","""event"",""trial"",""time""
""fullscreenenter"",""0"",""11906""
","
","1276.2999999821186","run_exp/static/images/Set 6_rs/062a.jpg","78","","","","","","learn","SL",""
"","show_choice","11","85084","0.0-11.0","""event"",""trial"",""time""
""fullscreenenter"",""0"",""11906""
","
","
","""event"",""trial"",""time""
""fullscreenenter"",""0"",""11906""
","
","null","run_exp/static/images/Set 6_rs/062a.jpg","null","","","","","","learn","SL",""
"","html-keyboard-response","12","85586","0.0-12.0","""event"",""trial"",""time""
""fullscreenenter"",""0"",""11906""
","
","
","""event"",""trial"",""time""
""fullscreenenter"",""0"",""11906""
","
","null","<p></p>","null","","","","","","","",""
"","image","13","86744","0.0-13.0","""event"",""trial"",""time""
""fullscreenenter"",""0"",""11906""
","
","
","""event"",""trial"",""time""
""fullscreenenter"",""0"",""11906""
","
","1157","run_exp/static/images/Set 6_rs/131a.jpg","86","","","","","","learn","SR",""
"","show_choice","14","87590","0.0-14.0","""event"",""trial"",""time""
""fullscreenenter"",""0"",""11906""
","
","
","""event"",""trial"",""time""
""fullscreenenter"",""0"",""11906""
","
","null","run_exp/static/images/Set 6_rs/131a.jpg","null","","","","","","learn","SR",""
"","html-keyboard-response","15","88092","0.0-15.0","""event"",""trial"",""time""
""fullscreenenter"",""0"",""11906""
","
","
","""event"",""trial"",""time""
""fullscreenenter"",""0"",""11906""
","
","null","<p></p>","null","","","","","","","",""
"","image","16","88925","0.0-16.0","""event"",""trial"",""time""
""fullscreenenter"",""0"",""11906""
","
","
","""event"",""trial"",""time""
""fullscreenenter"",""0"",""11906""
","
","831.4000000059605","run_exp/static/images/Set 6_rs/181a.jpg","78","","","","","","learn","SL",""
"","show_choice","17","90097","0.0-17.0","""event"",""trial"",""time""
""fullscreenenter"",""0"",""11906""
","
","
","""event"",""trial"",""time""
""fullscreenenter"",""0"",""11906""
","
","null","run_exp/static/images/Set 6_rs/181a.jpg","null","","","","","","learn","SL",""
"","html-keyboard-response","18","90620","0.0-18.0","""event"",""trial"",""time""
""fullscreenenter"",""0"",""11906""
","
","
","""event"",""trial"",""time""
""fullscreenenter"",""0"",""11906""
","
","null","<p></p>","null","","","","","","","",""
"","image","19","91592","0.0-19.0","""event"",""trial"",""time""
""fullscreenenter"",""0"",""11906""
","
","
","""event"",""trial"",""time""
""fullscreenenter"",""0"",""11906""
","
","971.5999999940395","run_exp/static/images/Set 6_rs/111a.jpg","86","","","","","","learn","SL",""
"","show_choice","20","92637","0.0-20.0","""event"",""trial"",""time""
""fullscreenenter"",""0"",""11906""
","
","
","""event"",""trial"",""time""
""fullscreenenter"",""0"",""11906""
","
","null","run_exp/static/images/Set 6_rs/111a.jpg","null","","","","","","learn","SL",""
"","html-keyboard-response","21","93152","0.0-21.0","""event"",""trial"",""time""
""fullscreenenter"",""0"",""11906""
","
","
","""event"",""trial"",""time""
""fullscreenenter"",""0"",""11906""
","
","null","<p></p>","null","","","","","","","",""
"","image","22","94148","0.0-22.0","""event"",""trial"",""time""
""fullscreenenter"",""0"",""11906""
","
","
","""event"",""trial"",""time""
""fullscreenenter"",""0"",""11906""
","
","994.3000000119209","run_exp/static/images/Set 6_rs/007a.jpg","86","","","","","","learn","SR",""
"","show_choice","23","95158","0.0-23.0","""event"",""trial"",""time""
""fullscreenenter"",""0"",""11906""
","
","
","""event"",""trial"",""time""
""fullscreenenter"",""0"",""11906""
","
","null","run_exp/static/images/Set 6_rs/007a.jpg","null","","","","","","learn","SR",""
"","html-keyboard-response","24","95667","0.0-24.0","""event"",""trial"",""time""
""fullscreenenter"",""0"",""11906""
","
","
","""event"",""trial"",""time""
""fullscreenenter"",""0"",""11906""
","
","null","<p></p>","null","","","","","","","",""
"","image","25","96407","0.0-25.0","""event"",""trial"",""time""
""fullscreenenter"",""0"",""11906""
","
","
","""event"",""trial"",""time""
""fullscreenenter"",""0"",""11906""
","
","738","run_exp/static/images/Set 6_rs/023a.jpg","86","","","","","","learn","SR",""
"","show_choice","26","97676","0.0-26.0","""event"",""trial"",""time""
""fullscreenenter"",""0"",""11906""
","
","
","""event"",""trial"",""time""
""fullscreenenter"",""0"",""11906""
","
","null","run_exp/static/images/Set 6_rs/023a.jpg","null","","","","","","learn","SR",""
"","html-keyboard-response","27","98178","0.0-27.0","""event"",""trial"",""time""
""fullscreenenter"",""0"",""11906""
","
","
","""event"",""trial"",""time""
""fullscreenenter"",""0"",""11906""
","
","null","<p></p>","null","","","","","","","",""
"","image","28","98802","0.0-28.0","""event"",""trial"",""time""
""fullscreenenter"",""0"",""11906""
","
","
","""event"",""trial"",""time""
""fullscreenenter"",""0"",""11906""
","
","621.6999999880791","run_exp/static/images/Set 6_rs/070a.jpg","86","","","","","","learn","SR",""
"","show_choice","29","100183","0.0-29.0","""event"",""trial"",""time""
""fullscreenenter"",""0"",""11906""
","
","
","""event"",""trial"",""time""
""fullscreenenter"",""0"",""11906""
","
","null","run_exp/static/images/Set 6_rs/070a.jpg","null","","","","","","learn","SR",""
"","html-keyboard-response","30","100697","0.0-30.0","""event"",""trial"",""time""
""fullscreenenter"",""0"",""11906""
","
","
","""event"",""trial"",""time""
""fullscreenenter"",""0"",""11906""
","
","null","<p></p>","null","","","","","","","",""
"","image","31","101376","0.0-31.0","""event"",""trial"",""time""
""fullscreenenter"",""0"",""11906""
","
","
","""event"",""trial"",""time""
""fullscreenenter"",""0"",""11906""
","
","677.5999999940395","run_exp/static/images/Set 6_rs/079a.jpg","86","","","","","","learn","SL",""
"","show_choice","32","102705","0.0-32.0","""event"",""trial"",""time""
""fullscreenenter"",""0"",""11906""
","
","
","""event"",""trial"",""time""
""fullscreenenter"",""0"",""11906""
","
","null","run_exp/static/images/Set 6_rs/079a.jpg","null","","","","","","learn","SL",""
"","html-keyboard-response","33","103228","0.0-33.0","""event"",""trial"",""time""
""fullscreenenter"",""0"",""11906""
","
","
","""event"",""trial"",""time""
""fullscreenenter"",""0"",""11906""
","
","null","<p></p>","null","","","","","","","",""
"","image","34","103855","0.0-34.0","""event"",""trial"",""time""
""fullscreenenter"",""0"",""11906""
","
","
","""event"",""trial"",""time""
""fullscreenenter"",""0"",""11906""
","
","625.8999999761581","run_exp/static/images/Set 6_rs/112a.jpg","78","","","","","","learn","SR",""
"","show_choice","35","105232","0.0-35.0","""event"",""trial"",""time""
""fullscreenenter"",""0"",""11906""
","
","
","""event"",""trial"",""time""
""fullscreenenter"",""0"",""11906""
","
","null","run_exp/static/images/Set 6_rs/112a.jpg","null","","","","","","learn","SR",""
"","html-keyboard-response","36","105735","0.0-36.0","""event"",""trial"",""time""
""fullscreenenter"",""0"",""11906""
","
","
","""event"",""trial"",""time""
""fullscreenenter"",""0"",""11906""
","
","null","<p></p>","null","","","","","","","",""
"","image","37","107013","0.0-37.0","""event"",""trial"",""time""
""fullscreenenter"",""0"",""11906""
","
","
","""event"",""trial"",""time""
""fullscreenenter"",""0"",""11906""
","
","1275.300000011921","run_exp/static/images/Set 6_rs/006a.jpg","86","","","","","","learn","SL",""
"","show_choice","38","107752","0.0-38.0","""event"",""trial"",""time""
""fullscreenenter"",""0"",""11906""
","
","
","""event"",""trial"",""time""
""fullscreenenter"",""0"",""11906""
","
","null","run_exp/static/images/Set 6_rs/006a.jpg","null","","","","","","learn","SL",""
"","html-keyboard-response","39","108272","0.0-39.0","""event"",""trial"",""time""
""fullscreenenter"",""0"",""11906""
","
","
","""event"",""trial"",""time""
""fullscreenenter"",""0"",""11906""
","
","null","<p></p>","null","","","","","","","",""
"","image","40","109427","0.0-40.0","""event"",""trial"",""time""
""fullscreenenter"",""0"",""11906""
","
","
","""event"",""trial"",""time""
""fullscreenenter"",""0"",""11906""
","
","1152.5999999940395","run_exp/static/images/Set 6_rs/129a.jpg","86","","","","","","learn","SL",""
"","show_choice","41","110280","0.0-41.0","""event"",""trial"",""time""
""fullscreenenter"",""0"",""11906""
","
","
","""event"",""trial"",""time""
""fullscreenenter"",""0"",""11906""
","
","null","run_exp/static/images/Set 6_rs/129a.jpg","null","","","","","","learn","SL",""
"","html-keyboard-response","42","110782","0.0-42.0","""event"",""trial"",""time""
""fullscreenenter"",""0"",""11906""
","
","
","""event"",""trial"",""time""
""fullscreenenter"",""0"",""11906""
","
","null","<p></p>","null","","","","","","","",""
"","image","43","112470","0.0-43.0","""event"",""trial"",""time""
""fullscreenenter"",""0"",""11906""
","
","
","""event"",""trial"",""time""
""fullscreenenter"",""0"",""11906""
","
","1686.800000011921","run_exp/static/images/Set 6_rs/191a.jpg","78","","","","","","learn","SL",""
"","show_choice","44","112787","0.0-44.0","""event"",""trial"",""time""
""fullscreenenter"",""0"",""11906""
","
","
","""event"",""trial"",""time""
""fullscreenenter"",""0"",""11906""
","
","null","run_exp/static/images/Set 6_rs/191a.jpg","null","","","","","","learn","SL",""
"","html-keyboard-response","45","113288","0.0-45.0","""event"",""trial"",""time""
""fullscreenenter"",""0"",""11906""
","
","
","""event"",""trial"",""time""
""fullscreenenter"",""0"",""11906""
","
","null","<p></p>","null","","","","","","","",""
"","image","46","114070","0.0-46.0","""event"",""trial"",""time""
""fullscreenenter"",""0"",""11906""
","
","
","""event"",""trial"",""time""
""fullscreenenter"",""0"",""11906""
","
","780.7000000178814","run_exp/static/images/Set 6_rs/169a.jpg","86","","","","","","learn","SR",""
"","show_choice","47","115294","0.0-47.0","""event"",""trial"",""time""
""fullscreenenter"",""0"",""11906""
","
","
","""event"",""trial"",""time""
""fullscreenenter"",""0"",""11906""
","
","null","run_exp/static/images/Set 6_rs/169a.jpg","null","","","","","","learn","SR",""
"","html-keyboard-response","48","115796","0.0-48.0","""event"",""trial"",""time""
""fullscreenenter"",""0"",""11906""
","
","
","""event"",""trial"",""time""
""fullscreenenter"",""0"",""11906""
","
","null","<p></p>","null","","","","","","","",""
"","image","49","116813","0.0-49.0","""event"",""trial"",""time""
""fullscreenenter"",""0"",""11906""
","
","
","""event"",""trial"",""time""
""fullscreenenter"",""0"",""11906""
","
","1017.2000000178814","run_exp/static/images/Set 6_rs/116a.jpg","86","","","","","","learn","SL",""
"","show_choice","50","117801","0.0-50.0","""event"",""trial"",""time""
""fullscreenenter"",""0"",""11906""
","
","
","""event"",""trial"",""time""
""fullscreenenter"",""0"",""11906""
","
","null","run_exp/static/images/Set 6_rs/116a.jpg","null","","","","","","learn","SL",""
"","html-keyboard-response","51","118317","0.0-51.0","""event"",""trial"",""time""
""fullscreenenter"",""0"",""11906""
","
","
","""event"",""trial"",""time""
""fullscreenenter"",""0"",""11906""
","
","null","<p></p>","null","","","","","","","",""
"","image","52","119353","0.0-52.0","""event"",""trial"",""time""
""fullscreenenter"",""0"",""11906""
","
","
","""event"",""trial"",""time""
""fullscreenenter"",""0"",""11906""
","
","1034.300000011921","run_exp/static/images/Set 6_rs/134a.jpg","86","","","","","","learn","SR",""
"","show_choice","53","120326","0.0-53.0","""event"",""trial"",""time""
""fullscreenenter"",""0"",""11906""
","
","
","""event"",""trial"",""time""
""fullscreenenter"",""0"",""11906""
","
","null","run_exp/static/images/Set 6_rs/134a.jpg","null","","","","","","learn","SR",""
"","html-keyboard-response","54","120840","0.0-54.0","""event"",""trial"",""time""
""fullscreenenter"",""0"",""11906""
","
","
","""event"",""trial"",""time""
""fullscreenenter"",""0"",""11906""
","
","null","<p></p>","null","","","","","","","",""
"","image","55","122297","0.0-55.0","""event"",""trial"",""time""
""fullscreenenter"",""0"",""11906""
","
","
","""event"",""trial"",""time""
""fullscreenenter"",""0"",""11906""
","
","1455.0999999940395","run_exp/static/images/Set 6_rs/123a.jpg","78","","","","","","learn","SL",""
"","show_choice","56","122844","0.0-56.0","""event"",""trial"",""time""
""fullscreenenter"",""0"",""11906""
","
","
","""event"",""trial"",""time""
""fullscreenenter"",""0"",""11906""
","
","null","run_exp/static/images/Set 6_rs/123a.jpg","null","","","","","","learn","SL",""
"","html-keyboard-response","57","123361","0.0-57.0","""event"",""trial"",""time""
""fullscreenenter"",""0"",""11906""
","
","
","""event"",""trial"",""time""
""fullscreenenter"",""0"",""11906""
","
","null","<p></p>","null","","","","","","","",""
"","image","58","124188","0.0-58.0","""event"",""trial"",""time""
""fullscreenenter"",""0"",""11906""
","
","
","""event"",""trial"",""time""
""fullscreenenter"",""0"",""11906""
","
","825.1999999880791","run_exp/static/images/Set 6_rs/019a.jpg","86","","","","","","learn","SL",""
"","show_choice","59","125364","0.0-59.0","""event"",""trial"",""time""
""fullscreenenter"",""0"",""11906""
","
","
","""event"",""trial"",""time""
""fullscreenenter"",""0"",""11906""
","
","null","run_exp/static/images/Set 6_rs/019a.jpg","null","","","","","","learn","SL",""
"","html-keyboard-response","60","125886","0.0-60.0","""event"",""trial"",""time""
""fullscreenenter"",""0"",""11906""
","
","
","""event"",""trial"",""time""
""fullscreenenter"",""0"",""11906""
","
","null","<p></p>","null","","","","","","","",""
"","image","61","127858","0.0-61.0","""event"",""trial"",""time""
""fullscreenenter"",""0"",""11906""
","
","
","""event"",""trial"",""time""
""fullscreenenter"",""0"",""11906""
","
","1970.300000011921","run_exp/static/images/Set 6_rs/045a.jpg","86","","","","","","learn","SR",""
"","show_choice","62","127889","0.0-62.0","""event"",""trial"",""time""
""fullscreenenter"",""0"",""11906""
","
","
","""event"",""trial"",""time""
""fullscreenenter"",""0"",""11906""
","
","null","run_exp/static/images/Set 6_rs/045a.jpg","null","","","","","","learn","SR",""
"","html-keyboard-response","63","128393","0.0-63.0","""event"",""trial"",""time""
""fullscreenenter"",""0"",""11906""
","
","
","""event"",""trial"",""time""
""fullscreenenter"",""0"",""11906""
","
","null","<p></p>","null","","","","","","","",""
"","image","64","129503","0.0-64.0","""event"",""trial"",""time""
""fullscreenenter"",""0"",""11906""
","
","
","""event"",""trial"",""time""
""fullscreenenter"",""0"",""11906""
","
","1108.5","run_exp/static/images/Set 6_rs/085a.jpg","86","","","","","","learn","SL",""
"","show_choice","65","130400","0.0-65.0","""event"",""trial"",""time""
""fullscreenenter"",""0"",""11906""
","
","
","""event"",""trial"",""time""
""fullscreenenter"",""0"",""11906""
","
","null","run_exp/static/images/Set 6_rs/085a.jpg","null","","","","","","learn","SL",""
"","html-keyboard-response","66","130901","0.0-66.0","""event"",""trial"",""time""
""fullscreenenter"",""0"",""11906""
","
","
","""event"",""trial"",""time""
""fullscreenenter"",""0"",""11906""
","
","null","<p></p>","null","","","","","","","",""
"","image","67","132073","0.0-67.0","""event"",""trial"",""time""
""fullscreenenter"",""0"",""11906""
","
","
","""event"",""trial"",""time""
""fullscreenenter"",""0"",""11906""
","
","1170.5","run_exp/static/images/Set 6_rs/057a.jpg","86","","","","","","learn","SL",""
"","show_choice","68","132905","0.0-68.0","""event"",""trial"",""time""
""fullscreenenter"",""0"",""11906""
","
","
","""event"",""trial"",""time""
""fullscreenenter"",""0"",""11906""
","
","null","run_exp/static/images/Set 6_rs/057a.jpg","null","","","","","","learn","SL",""
"","html-keyboard-response","69","133407","0.0-69.0","""event"",""trial"",""time""
""fullscreenenter"",""0"",""11906""
","
","
","""event"",""trial"",""time""
""fullscreenenter"",""0"",""11906""
","
","null","<p></p>","null","","","","","","","",""
"","image","70","134225","0.0-70.0","""event"",""trial"",""time""
""fullscreenenter"",""0"",""11906""
","
","
","""event"",""trial"",""time""
""fullscreenenter"",""0"",""11906""
","
","816.5999999940395","run_exp/static/images/Set 6_rs/186a.jpg","78","","","","","","learn","SR",""
"","show_choice","71","135424","0.0-71.0","""event"",""trial"",""time""
""fullscreenenter"",""0"",""11906""
","
","
","""event"",""trial"",""time""
""fullscreenenter"",""0"",""11906""
","
","null","run_exp/static/images/Set 6_rs/186a.jpg","null","","","","","","learn","SR",""
"","html-keyboard-response","72","135940","0.0-72.0","""event"",""trial"",""time""
""fullscreenenter"",""0"",""11906""
","
","
","""event"",""trial"",""time""
""fullscreenenter"",""0"",""11906""
","
","null","<p></p>","null","","","","","","","",""
"","image","73","137480","0.0-73.0","""event"",""trial"",""time""
""fullscreenenter"",""0"",""11906""
","
","
","""event"",""trial"",""time""
""fullscreenenter"",""0"",""11906""
","
","1538.4000000059605","run_exp/static/images/Set 6_rs/121a.jpg","78","","","","","","learn","SR",""
"","show_choice","74","137948","0.0-74.0","""event"",""trial"",""time""
""fullscreenenter"",""0"",""11906""
","
","
","""event"",""trial"",""time""
""fullscreenenter"",""0"",""11906""
","
","null","run_exp/static/images/Set 6_rs/121a.jpg","null","","","","","","learn","SR",""
"","html-keyboard-response","75","138463","0.0-75.0","""event"",""trial"",""time""
""fullscreenenter"",""0"",""11906""
","
","
","""event"",""trial"",""time""
""fullscreenenter"",""0"",""11906""
","
","null","<p></p>","null","","","","","","","",""
"","image","76","139302","0.0-76.0","""event"",""trial"",""time""
""fullscreenenter"",""0"",""11906""
","
","
","""event"",""trial"",""time""
""fullscreenenter"",""0"",""11906""
","
","837.0999999940395","run_exp/static/images/Set 6_rs/066a.jpg","86","","","","","","learn","SL",""
"","show_choice","77","140467","0.0-77.0","""event"",""trial"",""time""
""fullscreenenter"",""0"",""11906""
","
","
","""event"",""trial"",""time""
""fullscreenenter"",""0"",""11906""
","
","null","run_exp/static/images/Set 6_rs/066a.jpg","null","","","","","","learn","SL",""
"","html-keyboard-response","78","140969","0.0-78.0","""event"",""trial"",""time""
""fullscreenenter"",""0"",""11906""
","
","
","""event"",""trial"",""time""
""fullscreenenter"",""0"",""11906""
","
","null","<p></p>","null","","","","","","","",""
"","image","79","141928","0.0-79.0","""event"",""trial"",""time""
""fullscreenenter"",""0"",""11906""
","
","
","""event"",""trial"",""time""
""fullscreenenter"",""0"",""11906""
","
","956.3999999761581","run_exp/static/images/Set 6_rs/071a.jpg","86","","","","","","learn","SL",""
"","show_choice","80","142986","0.0-80.0","""event"",""trial"",""time""
""fullscreenenter"",""0"",""11906""
","
","
","""event"",""trial"",""time""
""fullscreenenter"",""0"",""11906""
","
","null","run_exp/static/images/Set 6_rs/071a.jpg","null","","","","","","learn","SL",""
"","html-keyboard-response","81","143487","0.0-81.0","""event"",""trial"",""time""
""fullscreenenter"",""0"",""11906""
","
","
","""event"",""trial"",""time""
""fullscreenenter"",""0"",""11906""
","
","null","<p></p>","null","","","","","","","",""
"","image","82","144241","0.0-82.0","""event"",""trial"",""time""
""fullscreenenter"",""0"",""11906""
","
","
","""event"",""trial"",""time""
""fullscreenenter"",""0"",""11906""
","
","752.5","run_exp/static/images/Set 6_rs/144a.jpg","86","","","","","","learn","SL",""
"","show_choice","83","145493","0.0-83.0","""event"",""trial"",""time""
""fullscreenenter"",""0"",""11906""
","
","
","""event"",""trial"",""time""
""fullscreenenter"",""0"",""11906""
","
","null","run_exp/static/images/Set 6_rs/144a.jpg","null","","","","","","learn","SL",""
"","html-keyboard-response","84","146008","0.0-84.0","""event"",""trial"",""time""
""fullscreenenter"",""0"",""11906""
","
","
","""event"",""trial"",""time""
""fullscreenenter"",""0"",""11906""
","
","null","<p></p>","null","","","","","","","",""
"","image","85","146918","0.0-85.0","""event"",""trial"",""time""
""fullscreenenter"",""0"",""11906""
","
","
","""event"",""trial"",""time""
""fullscreenenter"",""0"",""11906""
","
","908.3999999761581","run_exp/static/images/Set 6_rs/166a.jpg","86","","","","","","learn","SR",""
"","show_choice","86","148011","0.0-86.0","""event"",""trial"",""time""
""fullscreenenter"",""0"",""11906""
","
","
","""event"",""trial"",""time""
""fullscreenenter"",""0"",""11906""
","
","null","run_exp/static/images/Set 6_rs/166a.jpg","null","","","","","","learn","SR",""
"","html-keyboard-response","87","148534","0.0-87.0","""event"",""trial"",""time""
""fullscreenenter"",""0"",""11906""
","
","
","""event"",""trial"",""time""
""fullscreenenter"",""0"",""11906""
","
","null","<p></p>","null","","","","","","","",""
"","image","88","149753","0.0-88.0","""event"",""trial"",""time""
""fullscreenenter"",""0"",""11906""
","
","
","""event"",""trial"",""time""
""fullscreenenter"",""0"",""11906""
","
","1217.699999988079","run_exp/static/images/Set 6_rs/008a.jpg","86","","","","","","learn","SL",""
"","show_choice","89","150540","0.0-89.0","""event"",""trial"",""time""
""fullscreenenter"",""0"",""11906""
","
","
","""event"",""trial"",""time""
""fullscreenenter"",""0"",""11906""
","
","null","run_exp/static/images/Set 6_rs/008a.jpg","null","","","","","","learn","SL",""
"","html-keyboard-response","90","151056","0.0-90.0","""event"",""trial"",""time""
""fullscreenenter"",""0"",""11906""
","
","
","""event"",""trial"",""time""
""fullscreenenter"",""0"",""11906""
","
","null","<p></p>","null","","","","","","","",""
"","image","91","152172","0.0-91.0","""event"",""trial"",""time""
""fullscreenenter"",""0"",""11906""
","
","
","""event"",""trial"",""time""
""fullscreenenter"",""0"",""11906""
","
","1114.7999999821186","run_exp/static/images/Set 6_rs/014a.jpg","86","","","","","","learn","SL",""
"","show_choice","92","153063","0.0-92.0","""event"",""trial"",""time""
""fullscreenenter"",""0"",""11906""
","
","
","""event"",""trial"",""time""
""fullscreenenter"",""0"",""11906""
","
","null","run_exp/static/images/Set 6_rs/014a.jpg","null","","","","","","learn","SL",""
"","html-keyboard-response","93","153579","0.0-93.0","""event"",""trial"",""time""
""fullscreenenter"",""0"",""11906""
","
","
","""event"",""trial"",""time""
""fullscreenenter"",""0"",""11906""
","
","null","<p></p>","null","","","","","","","",""
"","image","94","154524","0.0-94.0","""event"",""trial"",""time""
""fullscreenenter"",""0"",""11906""
","
","
","""event"",""trial"",""time""
""fullscreenenter"",""0"",""11906""
","
","943.6999999880791","run_exp/static/images/Set 6_rs/154a.jpg","86","","","","","","learn","SR",""
"","show_choice","95","155596","0.0-95.0","""event"",""trial"",""time""
""fullscreenenter"",""0"",""11906""
","
","
","""event"",""trial"",""time""
""fullscreenenter"",""0"",""11906""
","
","null","run_exp/static/images/Set 6_rs/154a.jpg","null","","","","","","learn","SR",""
"","html-keyboard-response","96","156097","0.0-96.0","""event"",""trial"",""time""
""fullscreenenter"",""0"",""11906""
","
","
","""event"",""trial"",""time""
""fullscreenenter"",""0"",""11906""
","
","null","<p></p>","null","","","","","","","",""
"","image","97","156874","0.0-97.0","""event"",""trial"",""time""
""fullscreenenter"",""0"",""11906""
","
","
","""event"",""trial"",""time""
""fullscreenenter"",""0"",""11906""
","
","775.9000000059605","run_exp/static/images/Set 6_rs/117a.jpg","86","","","","","","learn","SL",""
"","show_choice","98","158117","0.0-98.0","""event"",""trial"",""time""
""fullscreenenter"",""0"",""11906""
","
","
","""event"",""trial"",""time""
""fullscreenenter"",""0"",""11906""
","
","null","run_exp/static/images/Set 6_rs/117a.jpg","null","","","","","","learn","SL",""
"","html-keyboard-response","99","158635","0.0-99.0","""event"",""trial"",""time""
""fullscreenenter"",""0"",""11906""
","
","
","""event"",""trial"",""time""
""fullscreenenter"",""0"",""11906""
","
","null","<p></p>","null","","","","","","","",""
"","image","100","160284","0.0-100.0","""event"",""trial"",""time""
""fullscreenenter"",""0"",""11906""
","
","
","""event"",""trial"",""time""
""fullscreenenter"",""0"",""11906""
","
","1646.8999999761581","run_exp/static/images/Set 6_rs/177a.jpg","78","","","","","","learn","SR",""
"","show_choice","101","160641","0.0-101.0","""event"",""trial"",""time""
""fullscreenenter"",""0"",""11906""
","
","
","""event"",""trial"",""time""
""fullscreenenter"",""0"",""11906""
","
","null","run_exp/static/images/Set 6_rs/177a.jpg","null","","","","","","learn","SR",""
"","html-keyboard-response","102","161158","0.0-102.0","""event"",""trial"",""time""
""fullscreenenter"",""0"",""11906""
","
","
","""event"",""trial"",""time""
""fullscreenenter"",""0"",""11906""
","
","null","<p></p>","null","","","","","","","",""
"","image","103","162373","0.0-103.0","""event"",""trial"",""time""
""fullscreenenter"",""0"",""11906""
","
","
","""event"",""trial"",""time""
""fullscreenenter"",""0"",""11906""
","
","1213.3999999761581","run_exp/static/images/Set 6_rs/073a.jpg","86","","","","","","learn","SL",""
"","show_choice","104","163163","0.0-104.0","""event"",""trial"",""time""
""fullscreenenter"",""0"",""11906""
","
","
","""event"",""trial"",""time""
""fullscreenenter"",""0"",""11906""
","
","null","run_exp/static/images/Set 6_rs/073a.jpg","null","","","","","","learn","SL",""
"","html-keyboard-response","105","163679","0.0-105.0","""event"",""trial"",""time""
""fullscreenenter"",""0"",""11906""
","
","
","""event"",""trial"",""time""
""fullscreenenter"",""0"",""11906""
","
","null","<p></p>","null","","","","","","","",""
"","image","106","165439","0.0-106.0","""event"",""trial"",""time""
""fullscreenenter"",""0"",""11906""
","
","
","""event"",""trial"",""time""
""fullscreenenter"",""0"",""11906""
","
","1757.300000011921","run_exp/static/images/Set 6_rs/141a.jpg","86","","","","","","learn","SR",""
"","show_choice","107","165685","0.0-107.0","""event"",""trial"",""time""
""fullscreenenter"",""0"",""11906""
","
","
","""event"",""trial"",""time""
""fullscreenenter"",""0"",""11906""
","
","null","run_exp/static/images/Set 6_rs/141a.jpg","null","","","","","","learn","SR",""
"","html-keyboard-response","108","166202","0.0-108.0","""event"",""trial"",""time""
""fullscreenenter"",""0"",""11906""
","
","
","""event"",""trial"",""time""
""fullscreenenter"",""0"",""11906""
","
","null","<p></p>","null","","","","","","","",""
"","image","109","168205","0.0-109.0","""event"",""trial"",""time""
""fullscreenenter"",""0"",""11906""
","
","
","""event"",""trial"",""time""
""fullscreenenter"",""0"",""11906""
","
","null","run_exp/static/images/Set 6_rs/138a.jpg","null","","","","","","learn","SL",""
"","show_choice","110","170212","0.0-110.0","""event"",""trial"",""time""
""fullscreenenter"",""0"",""11906""
","
","
","""event"",""trial"",""time""
""fullscreenenter"",""0"",""11906""
","
","null","run_exp/static/images/blank.png","null","","","","","","learn","SL",""
"","html-keyboard-response","111","170728","0.0-111.0","""event"",""trial"",""time""
""fullscreenenter"",""0"",""11906""
","
","
","""event"",""trial"",""time""
""fullscreenenter"",""0"",""11906""
","
","null","<p></p>","null","","","","","","","",""
"","image","112","172745","0.0-112.0","""event"",""trial"",""time""
""fullscreenenter"",""0"",""11906""
","
","
","""event"",""trial"",""time""
""fullscreenenter"",""0"",""11906""
","
","null","run_exp/static/images/Set 6_rs/024a.jpg","null","","","","","","learn","SR",""
"","show_choice","113","174751","0.0-113.0","""event"",""trial"",""time""
""fullscreenenter"",""0"",""11906""
","
","
","""event"",""trial"",""time""
""fullscreenenter"",""0"",""11906""
","
","null","run_exp/static/images/blank.png","null","","","","","","learn","SR",""
"","html-keyboard-response","114","175268","0.0-114.0","""event"",""trial"",""time""
""fullscreenenter"",""0"",""11906""
","
","
","""event"",""trial"",""time""
""fullscreenenter"",""0"",""11906""
","
","null","<p></p>","null","","","","","","","",""
"","image","115","175951","0.0-115.0","""event"",""trial"",""time""
""fullscreenenter"",""0"",""11906""
","
","
","""event"",""trial"",""time""
""fullscreenenter"",""0"",""11906""
","
","682.2000000178814","run_exp/static/images/Set 6_rs/061a.jpg","78","","","","","","learn","SR",""
"","show_choice","116","177274","0.0-116.0","""event"",""trial"",""time""
""fullscreenenter"",""0"",""11906""
","
","
","""event"",""trial"",""time""
""fullscreenenter"",""0"",""11906""
","
","null","run_exp/static/images/Set 6_rs/061a.jpg","null","","","","","","learn","SR",""
"","html-keyboard-response","117","177797","0.0-117.0","""event"",""trial"",""time""
""fullscreenenter"",""0"",""11906""
","
","
","""event"",""trial"",""time""
""fullscreenenter"",""0"",""11906""
","
","null","<p></p>","null","","","","","","","",""
"","image","118","178492","0.0-118.0","""event"",""trial"",""time""
""fullscreenenter"",""0"",""11906""
","
","
","""event"",""trial"",""time""
""fullscreenenter"",""0"",""11906""
","
","694.5","run_exp/static/images/Set 6_rs/075a.jpg","78","","","","","","learn","SR",""
"","show_choice","119","179800","0.0-119.0","""event"",""trial"",""time""
""fullscreenenter"",""0"",""11906""
","
","
","""event"",""trial"",""time""
""fullscreenenter"",""0"",""11906""
","
","null","run_exp/static/images/Set 6_rs/075a.jpg","null","","","","","","learn","SR",""
"","html-keyboard-response","120","180301","0.0-120.0","""event"",""trial"",""time""
""fullscreenenter"",""0"",""11906""
","
","
","""event"",""trial"",""time""
""fullscreenenter"",""0"",""11906""
","
","null","<p></p>","null","","","","","","","",""
"","image","121","180955","0.0-121.0","""event"",""trial"",""time""
""fullscreenenter"",""0"",""11906""
","
","
","""event"",""trial"",""time""
""fullscreenenter"",""0"",""11906""
","
","651.9000000059605","run_exp/static/images/Set 6_rs/016a.jpg","86","","","","","","learn","SL",""
"","show_choice","122","182304","0.0-122.0","""event"",""trial"",""time""
""fullscreenenter"",""0"",""11906""
","
","
","""event"",""trial"",""time""
""fullscreenenter"",""0"",""11906""
","
","null","run_exp/static/images/Set 6_rs/016a.jpg","null","","","","","","learn","SL",""
"","html-keyboard-response","123","182820","0.0-123.0","""event"",""trial"",""time""
""fullscreenenter"",""0"",""11906""
","
","
","""event"",""trial"",""time""
""fullscreenenter"",""0"",""11906""
","
","null","<p></p>","null","","","","","","","",""
"","image","124","183247","0.0-124.0","""event"",""trial"",""time""
""fullscreenenter"",""0"",""11906""
","
","
","""event"",""trial"",""time""
""fullscreenenter"",""0"",""11906""
","
","425.10000002384186","run_exp/static/images/Set 6_rs/074a.jpg","78","","","","","","learn","SL",""
"","show_choice","125","184827","0.0-125.0","""event"",""trial"",""time""
""fullscreenenter"",""0"",""11906""
","
","
","""event"",""trial"",""time""
""fullscreenenter"",""0"",""11906""
","
","null","run_exp/static/images/Set 6_rs/074a.jpg","null","","","","","","learn","SL",""
"","html-keyboard-response","126","185343","0.0-126.0","""event"",""trial"",""time""
""fullscreenenter"",""0"",""11906""
","
","
","""event"",""trial"",""time""
""fullscreenenter"",""0"",""11906""
","
","null","<p></p>","null","","","","","","","",""
"","image","127","187111","0.0-127.0","""event"",""trial"",""time""
""fullscreenenter"",""0"",""11906""
","
","
","""event"",""trial"",""time""
""fullscreenenter"",""0"",""11906""
","
","1765.7999999821186","run_exp/static/images/Set 6_rs/150a.jpg","86","","","","","","learn","SR",""
"","show_choice","128","187360","0.0-128.0","""event"",""trial"",""time""
""fullscreenenter"",""0"",""11906""
","
","
","""event"",""trial"",""time""
""fullscreenenter"",""0"",""11906""
","
","null","run_exp/static/images/Set 6_rs/150a.jpg","null","","","","","","learn","SR",""
"","html-keyboard-response","129","187862","0.0-129.0","""event"",""trial"",""time""
""fullscreenenter"",""0"",""11906""
","
","
","""event"",""trial"",""time""
""fullscreenenter"",""0"",""11906""
","
","null","<p></p>","null","","","","","","","",""
"","image","130","188494","0.0-130.0","""event"",""trial"",""time""
""fullscreenenter"",""0"",""11906""
","
","
","""event"",""trial"",""time""
""fullscreenenter"",""0"",""11906""
","
","630.2999999821186","run_exp/static/images/Set 6_rs/122a.jpg","78","","","","","","learn","SR",""
"","show_choice","131","189866","0.0-131.0","""event"",""trial"",""time""
""fullscreenenter"",""0"",""11906""
","
","
","""event"",""trial"",""time""
""fullscreenenter"",""0"",""11906""
","
","null","run_exp/static/images/Set 6_rs/122a.jpg","null","","","","","","learn","SR",""
"","html-keyboard-response","132","190382","0.0-132.0","""event"",""trial"",""time""
""fullscreenenter"",""0"",""11906""
","
","
","""event"",""trial"",""time""
""fullscreenenter"",""0"",""11906""
","
","null","<p></p>","null","","","","","","","",""
"","image","133","191053","0.0-133.0","""event"",""trial"",""time""
""fullscreenenter"",""0"",""11906""
","
","
","""event"",""trial"",""time""
""fullscreenenter"",""0"",""11906""
","
","669.3000000119209","run_exp/static/images/Set 6_rs/167a.jpg","86","","","","","","learn","SL",""
"","show_choice","134","192385","0.0-134.0","""event"",""trial"",""time""
""fullscreenenter"",""0"",""11906""
","
","
","""event"",""trial"",""time""
""fullscreenenter"",""0"",""11906""
","
","null","run_exp/static/images/Set 6_rs/167a.jpg","null","","","","","","learn","SL",""
"","html-keyboard-response","135","192902","0.0-135.0","""event"",""trial"",""time""
""fullscreenenter"",""0"",""11906""
","
","
","""event"",""trial"",""time""
""fullscreenenter"",""0"",""11906""
","
","null","<p></p>","null","","","","","","","",""
"","image","136","193574","0.0-136.0","""event"",""trial"",""time""
""fullscreenenter"",""0"",""11906""
","
","
","""event"",""trial"",""time""
""fullscreenenter"",""0"",""11906""
","
","670.2999999821186","run_exp/static/images/Set 6_rs/091a.jpg","86","","","","","","learn","SL",""
"","show_choice","137","194906","0.0-137.0","""event"",""trial"",""time""
""fullscreenenter"",""0"",""11906""
","
","
","""event"",""trial"",""time""
""fullscreenenter"",""0"",""11906""
","
","null","run_exp/static/images/Set 6_rs/091a.jpg","null","","","","","","learn","SL",""
"","html-keyboard-response","138","195429","0.0-138.0","""event"",""trial"",""time""
""fullscreenenter"",""0"",""11906""
","
","
","""event"",""trial"",""time""
""fullscreenenter"",""0"",""11906""
","
","null","<p></p>","null","","","","","","","",""
"","image","139","196013","0.0-139.0","""event"",""trial"",""time""
""fullscreenenter"",""0"",""11906""
","
","
","""event"",""trial"",""time""
""fullscreenenter"",""0"",""11906""
","
","582.0999999940395","run_exp/static/images/Set 6_rs/126a.jpg","86","","","","","","learn","SR",""
"","show_choice","140","197435","0.0-140.0","""event"",""trial"",""time""
""fullscreenenter"",""0"",""11906""
","
","
","""event"",""trial"",""time""
""fullscreenenter"",""0"",""11906""
","
","null","run_exp/static/images/Set 6_rs/126a.jpg","null","","","","","","learn","SR",""
"","html-keyboard-response","141","197951","0.0-141.0","""event"",""trial"",""time""
""fullscreenenter"",""0"",""11906""
","
","
","""event"",""trial"",""time""
""fullscreenenter"",""0"",""11906""
","
","null","<p></p>","null","","","","","","","",""
"","image","142","198467","0.0-142.0","""event"",""trial"",""time""
""fullscreenenter"",""0"",""11906""
","
","
","""event"",""trial"",""time""
""fullscreenenter"",""0"",""11906""
","
","514","run_exp/static/images/Set 6_rs/108a.jpg","86","","","","","","learn","SR",""
"","show_choice","143","199956","0.0-143.0","""event"",""trial"",""time""
""fullscreenenter"",""0"",""11906""
","
","
","""event"",""trial"",""time""
""fullscreenenter"",""0"",""11906""
","
","null","run_exp/static/images/Set 6_rs/108a.jpg","null","","","","","","learn","SR",""
"","html-keyboard-response","144","200473","0.0-144.0","""event"",""trial"",""time""
""fullscreenenter"",""0"",""11906""
","
","
","""event"",""trial"",""time""
""fullscreenenter"",""0"",""11906""
","
","null","<p></p>","null","","","","","","","",""
"","image","145","201066","0.0-145.0","""event"",""trial"",""time""
""fullscreenenter"",""0"",""11906""
","
","
","""event"",""trial"",""time""
""fullscreenenter"",""0"",""11906""
","
","591.9000000059605","run_exp/static/images/Set 6_rs/050a.jpg","86","","","","","","learn","SL",""
"","show_choice","146","202490","0.0-146.0","""event"",""trial"",""time""
""fullscreenenter"",""0"",""11906""
","
","
","""event"",""trial"",""time""
""fullscreenenter"",""0"",""11906""
","
","null","run_exp/static/images/Set 6_rs/050a.jpg","null","","","","","","learn","SL",""
"","html-keyboard-response","147","203006","0.0-147.0","""event"",""trial"",""time""
""fullscreenenter"",""0"",""11906""
","
","
","""event"",""trial"",""time""
""fullscreenenter"",""0"",""11906""
","
","null","<p></p>","null","","","","","","","",""
"","image","148","203724","0.0-148.0","""event"",""trial"",""time""
""fullscreenenter"",""0"",""11906""
","
","
","""event"",""trial"",""time""
""fullscreenenter"",""0"",""11906""
","
","716.0999999940395","run_exp/static/images/Set 6_rs/095a.jpg","86","","","","","","learn","SL",""
"","show_choice","149","205013","0.0-149.0","""event"",""trial"",""time""
""fullscreenenter"",""0"",""11906""
","
","
","""event"",""trial"",""time""
""fullscreenenter"",""0"",""11906""
","
","null","run_exp/static/images/Set 6_rs/095a.jpg","null","","","","","","learn","SL",""
"","html-keyboard-response","150","205526","0.0-150.0","""event"",""trial"",""time""
""fullscreenenter"",""0"",""11906""
","
","
","""event"",""trial"",""time""
""fullscreenenter"",""0"",""11906""
","
","null","<p></p>","null","","","","","","","",""
"","image","151","206446","0.0-151.0","""event"",""trial"",""time""
""fullscreenenter"",""0"",""11906""
","
","
","""event"",""trial"",""time""
""fullscreenenter"",""0"",""11906""
","
","918.3000000119209","run_exp/static/images/Set 6_rs/076a.jpg","78","","","","","","learn","SR",""
"","show_choice","152","207534","0.0-152.0","""event"",""trial"",""time""
""fullscreenenter"",""0"",""11906""
","
","
","""event"",""trial"",""time""
""fullscreenenter"",""0"",""11906""
","
","null","run_exp/static/images/Set 6_rs/076a.jpg","null","","","","","","learn","SR",""
"","html-keyboard-response","153","208057","0.0-153.0","""event"",""trial"",""time""
""fullscreenenter"",""0"",""11906""
","
","
","""event"",""trial"",""time""
""fullscreenenter"",""0"",""11906""
","
","null","<p></p>","null","","","","","","","",""
"","image","154","209433","0.0-154.0","""event"",""trial"",""time""
""fullscreenenter"",""0"",""11906""
","
","
","""event"",""trial"",""time""
""fullscreenenter"",""0"",""11906""
","
","1374.2999999821186","run_exp/static/images/Set 6_rs/187a.jpg","78","","","","","","learn","SR",""
"","show_choice","155","210060","0.0-155.0","""event"",""trial"",""time""
""fullscreenenter"",""0"",""11906""
","
","
","""event"",""trial"",""time""
""fullscreenenter"",""0"",""11906""
","
","null","run_exp/static/images/Set 6_rs/187a.jpg","null","","","","","","learn","SR",""
"","html-keyboard-response","156","210561","0.0-156.0","""event"",""trial"",""time""
""fullscreenenter"",""0"",""11906""
","
","
","""event"",""trial"",""time""
""fullscreenenter"",""0"",""11906""
","
","null","<p></p>","null","","","","","","","",""
"","image","157","211546","0.0-157.0","""event"",""trial"",""time""
""fullscreenenter"",""0"",""11906""
","
","
","""event"",""trial"",""time""
""fullscreenenter"",""0"",""11906""
","
","983.3999999761581","run_exp/static/images/Set 6_rs/025a.jpg","86","","","","","","learn","SL",""
"","show_choice","158","212566","0.0-158.0","""event"",""trial"",""time""
""fullscreenenter"",""0"",""11906""
","
","
","""event"",""trial"",""time""
""fullscreenenter"",""0"",""11906""
","
","null","run_exp/static/images/Set 6_rs/025a.jpg","null","","","","","","learn","SL",""
"","html-keyboard-response","159","213082","0.0-159.0","""event"",""trial"",""time""
""fullscreenenter"",""0"",""11906""
","
","
","""event"",""trial"",""time""
""fullscreenenter"",""0"",""11906""
","
","null","<p></p>","null","","","","","","","",""
"","image","160","214358","0.0-160.0","""event"",""trial"",""time""
""fullscreenenter"",""0"",""11906""
","
","
","""event"",""trial"",""time""
""fullscreenenter"",""0"",""11906""
","
","1274.8999999761581","run_exp/static/images/Set 6_rs/010a.jpg","86","","","","","","learn","SR",""
"","show_choice","161","215095","0.0-161.0","""event"",""trial"",""time""
""fullscreenenter"",""0"",""11906""
","
","
","""event"",""trial"",""time""
""fullscreenenter"",""0"",""11906""
","
","null","run_exp/static/images/Set 6_rs/010a.jpg","null","","","","","","learn","SR",""
"","html-keyboard-response","162","215597","0.0-162.0","""event"",""trial"",""time""
""fullscreenenter"",""0"",""11906""
","
","
","""event"",""trial"",""time""
""fullscreenenter"",""0"",""11906""
","
","null","<p></p>","null","","","","","","","",""
"","image","163","217396","0.0-163.0","""event"",""trial"",""time""
""fullscreenenter"",""0"",""11906""
","
","
","""event"",""trial"",""time""
""fullscreenenter"",""0"",""11906""
","
","1797","run_exp/static/images/Set 6_rs/089a.jpg","86","","","","","","learn","SL",""
"","show_choice","164","217603","0.0-164.0","""event"",""trial"",""time""
""fullscreenenter"",""0"",""11906""
","
","
","""event"",""trial"",""time""
""fullscreenenter"",""0"",""11906""
","
","null","run_exp/static/images/Set 6_rs/089a.jpg","null","","","","","","learn","SL",""
"","html-keyboard-response","165","218119","0.0-165.0","""event"",""trial"",""time""
""fullscreenenter"",""0"",""11906""
","
","
","""event"",""trial"",""time""
""fullscreenenter"",""0"",""11906""
","
","null","<p></p>","null","","","","","","","",""
"","image","166","218523","0.0-166.0","""event"",""trial"",""time""
""fullscreenenter"",""0"",""11906""
","
","
","""event"",""trial"",""time""
""fullscreenenter"",""0"",""11906""
","
","402","run_exp/static/images/Set 6_rs/178a.jpg","86","","","","","","learn","SR",""
"","show_choice","167","220126","0.0-167.0","""event"",""trial"",""time""
""fullscreenenter"",""0"",""11906""
","
","
","""event"",""trial"",""time""
""fullscreenenter"",""0"",""11906""
","
","null","run_exp/static/images/Set 6_rs/178a.jpg","null","","","","","","learn","SR",""
"","html-keyboard-response","168","220628","0.0-168.0","""event"",""trial"",""time""
""fullscreenenter"",""0"",""11906""
","
","
","""event"",""trial"",""time""
""fullscreenenter"",""0"",""11906""
","
","null","<p></p>","null","","","","","","","",""
"","image","169","221278","0.0-169.0","""event"",""trial"",""time""
""fullscreenenter"",""0"",""11906""
","
","
","""event"",""trial"",""time""
""fullscreenenter"",""0"",""11906""
","
","649.5","run_exp/static/images/Set 6_rs/055a.jpg","86","","","","","","learn","SL",""
"","show_choice","170","222637","0.0-170.0","""event"",""trial"",""time""
""fullscreenenter"",""0"",""11906""
","
","
","""event"",""trial"",""time""
""fullscreenenter"",""0"",""11906""
","
","null","run_exp/static/images/Set 6_rs/055a.jpg","null","","","","","","learn","SL",""
"","html-keyboard-response","171","223154","0.0-171.0","""event"",""trial"",""time""
""fullscreenenter"",""0"",""11906""
","
","
","""event"",""trial"",""time""
""fullscreenenter"",""0"",""11906""
","
","null","<p></p>","null","","","","","","","",""
"","image","172","224345","0.0-172.0","""event"",""trial"",""time""
""fullscreenenter"",""0"",""11906""
","
","
","""event"",""trial"",""time""
""fullscreenenter"",""0"",""11906""
","
","1189.6000000238419","run_exp/static/images/Set 6_rs/063a.jpg","86","","","","","","learn","SR",""
"","show_choice","173","225157","0.0-173.0","""event"",""trial"",""time""
""fullscreenenter"",""0"",""11906""
","
","
","""event"",""trial"",""time""
""fullscreenenter"",""0"",""11906""
","
","null","run_exp/static/images/Set 6_rs/063a.jpg","null","","","","","","learn","SR",""
"","html-keyboard-response","174","225658","0.0-174.0","""event"",""trial"",""time""
""fullscreenenter"",""0"",""11906""
","
","
","""event"",""trial"",""time""
""fullscreenenter"",""0"",""11906""
","
","null","<p></p>","null","","","","","","","",""
"","image","175","227663","0.0-175.0","""event"",""trial"",""time""
""fullscreenenter"",""0"",""11906""
","
","
","""event"",""trial"",""time""
""fullscreenenter"",""0"",""11906""
","
","null","run_exp/static/images/Set 6_rs/168a.jpg","null","","","","","","learn","SL",""
"","show_choice","176","229681","0.0-176.0","""event"",""trial"",""time""
""fullscreenenter"",""0"",""11906""
","
","
","""event"",""trial"",""time""
""fullscreenenter"",""0"",""11906""
","
","null","run_exp/static/images/blank.png","null","","","","","","learn","SL",""
"","html-keyboard-response","177","230183","0.0-177.0","""event"",""trial"",""time""
""fullscreenenter"",""0"",""11906""
","
","
","""event"",""trial"",""time""
""fullscreenenter"",""0"",""11906""
","
","null","<p></p>","null","","","","","","","",""
"","image","178","232188","0.0-178.0","""event"",""trial"",""time""
""fullscreenenter"",""0"",""11906""
","
","
","""event"",""trial"",""time""
""fullscreenenter"",""0"",""11906""
","
","null","run_exp/static/images/Set 6_rs/152a.jpg","null","","","","","","learn","SR",""
"","show_choice","179","234193","0.0-179.0","""event"",""trial"",""time""
""fullscreenenter"",""0"",""11906""
","
","
","""event"",""trial"",""time""
""fullscreenenter"",""0"",""11906""
","
","null","run_exp/static/images/blank.png","null","","","","","","learn","SR",""
"","html-keyboard-response","180","234703","0.0-180.0","""event"",""trial"",""time""
""fullscreenenter"",""0"",""11906""
","
","
","""event"",""trial"",""time""
""fullscreenenter"",""0"",""11906""
","
","null","<p></p>","null","","","","","","","",""
"","image","181","236033","0.0-181.0","""event"",""trial"",""time""
""fullscreenenter"",""0"",""11906""
","
","
","""event"",""trial"",""time""
""fullscreenenter"",""0"",""11906""
","
","1328.0999999940395","run_exp/static/images/Set 6_rs/036a.jpg","78","","","","","","learn","SL",""
"","show_choice","182","236711","0.0-182.0","""event"",""trial"",""time""
""fullscreenenter"",""0"",""11906""
","
","
","""event"",""trial"",""time""
""fullscreenenter"",""0"",""11906""
","
","null","run_exp/static/images/Set 6_rs/036a.jpg","null","","","","","","learn","SL",""
"","html-keyboard-response","183","237212","0.0-183.0","""event"",""trial"",""time""
""fullscreenenter"",""0"",""11906""
","
","
","""event"",""trial"",""time""
""fullscreenenter"",""0"",""11906""
","
","null","<p></p>","null","","","","","","","",""
"","image","184","237988","0.0-184.0","""event"",""trial"",""time""
""fullscreenenter"",""0"",""11906""
","
","
","""event"",""trial"",""time""
""fullscreenenter"",""0"",""11906""
","
","774","run_exp/static/images/Set 6_rs/172a.jpg","86","","","","","","learn","SR",""
"","show_choice","185","239218","0.0-185.0","""event"",""trial"",""time""
""fullscreenenter"",""0"",""11906""
","
","
","""event"",""trial"",""time""
""fullscreenenter"",""0"",""11906""
","
","null","run_exp/static/images/Set 6_rs/172a.jpg","null","","","","","","learn","SR",""
"","html-keyboard-response","186","239719","0.0-186.0","""event"",""trial"",""time""
""fullscreenenter"",""0"",""11906""
","
","
","""event"",""trial"",""time""
""fullscreenenter"",""0"",""11906""
","
","null","<p></p>","null","","","","","","","",""
"","image","187","240082","0.0-187.0","""event"",""trial"",""time""
""fullscreenenter"",""0"",""11906""
","
","
","""event"",""trial"",""time""
""fullscreenenter"",""0"",""11906""
","
","361.90000000596046","run_exp/static/images/Set 6_rs/012a.jpg","78","","","","","","learn","SR",""
"","show_choice","188","241725","0.0-188.0","""event"",""trial"",""time""
""fullscreenenter"",""0"",""11906""
","
","
","""event"",""trial"",""time""
""fullscreenenter"",""0"",""11906""
","
","null","run_exp/static/images/Set 6_rs/012a.jpg","null","","","","","","learn","SR",""
"","html-keyboard-response","189","242242","0.0-189.0","""event"",""trial"",""time""
""fullscreenenter"",""0"",""11906""
","
","
","""event"",""trial"",""time""
""fullscreenenter"",""0"",""11906""
","
","null","<p></p>","null","","","","","","","",""
"","image","190","243018","0.0-190.0","""event"",""trial"",""time""
""fullscreenenter"",""0"",""11906""
","
","
","""event"",""trial"",""time""
""fullscreenenter"",""0"",""11906""
","
","774.1999999880791","run_exp/static/images/Set 6_rs/064a.jpg","78","","","","","","learn","SR",""
"","show_choice","191","244245","0.0-191.0","""event"",""trial"",""time""
""fullscreenenter"",""0"",""11906""
","
","
","""event"",""trial"",""time""
""fullscreenenter"",""0"",""11906""
","
","null","run_exp/static/images/Set 6_rs/064a.jpg","null","","","","","","learn","SR",""
"","html-keyboard-response","192","244747","0.0-192.0","""event"",""trial"",""time""
""fullscreenenter"",""0"",""11906""
","
","
","""event"",""trial"",""time""
""fullscreenenter"",""0"",""11906""
","
","null","<p></p>","null","","","","","","","",""
"","image","193","244976","0.0-193.0","""event"",""trial"",""time""
""fullscreenenter"",""0"",""11906""
","
","
","""event"",""trial"",""time""
""fullscreenenter"",""0"",""11906""
","
","228","run_exp/static/images/Set 6_rs/132a.jpg","86","","","","","","learn","SR",""
"","show_choice","194","246751","0.0-194.0","""event"",""trial"",""time""
""fullscreenenter"",""0"",""11906""
","
","
","""event"",""trial"",""time""
""fullscreenenter"",""0"",""11906""
","
","null","run_exp/static/images/Set 6_rs/132a.jpg","null","","","","","","learn","SR",""
"","html-keyboard-response","195","247268","0.0-195.0","""event"",""trial"",""time""
""fullscreenenter"",""0"",""11906""
","
","
","""event"",""trial"",""time""
""fullscreenenter"",""0"",""11906""
","
","null","<p></p>","null","","","","","","","",""
"","test_intro","196","284341","0.0-196.0","""event"",""trial"",""time""
""fullscreenenter"",""0"",""11906""
","
","
","""event"",""trial"",""time""
""fullscreenenter"",""0"",""11906""
","
","null","run_exp/static/audio/clip_2_memory.m4a","null","","","","","<div class='center'><p>Now, lets see how much you remember about the items you just saw.  For each item, you need to indicate if it was <b>old</b> by pressing the <b>v</b> key, <b>similar</b> by pressing the <b>b</b> key, or <b>new</b> by pressing the <b>n</b> key.</p><p>Old refers to an item that you saw before in the indoor/outdoor game that you just played, new refers to an item you have <b>not</b> seen before within the indoor/outdoor game, and similar refers to an item that is similar to an item youve seen before but is not exactly the same. </p><p>Before we begin, lets go over some brief demonstrations to make sure you understand.</p></div>","","",""
"","html-keyboard-response","197","285719","0.0-197.0","""event"",""trial"",""time""
""fullscreenenter"",""0"",""11906""
""fullscreenexit"",""198"",""287165""
","
","
","""event"",""trial"",""time""
""fullscreenenter"",""0"",""11906""
","""event"",""trial"",""time""
""fullscreenexit"",""198"",""287165""
","1376.4000000059605","<div class='center'><p>Now, lets see how much you remember about the items you just saw.  For each item, you need to indicate if it was <b>old</b> by pressing the <b>v</b> key, <b>similar</b> by pressing the <b>b</b> key, or <b>new</b> by pressing the <b>n</b> key.</p><p>Old refers to an item that you saw before in the indoor/outdoor game that you just played, new refers to an item you have <b>not</b> seen before within the indoor/outdoor game, and similar refers to an item that is similar to an item youve seen before but is not exactly the same. </p><p>Before we begin, lets go over some brief demonstrations to make sure you understand.</p><div><p><b>[Press the space bar to continue]</b></p></div>","32","","","","","","","",""
"","items","198","293223","0.0-198.0","""event"",""trial"",""time""
""fullscreenenter"",""0"",""11906""
""fullscreenexit"",""198"",""287165""
","
","
","""event"",""trial"",""time""
""fullscreenenter"",""0"",""11906""
","""event"",""trial"",""time""
""fullscreenexit"",""198"",""287165""
","null","run_exp/static/audio/clip_3_items.m4a","null","","","","","","","",""
"","mop","199","297726","0.0-199.0","""event"",""trial"",""time""
""fullscreenenter"",""0"",""11906""
""fullscreenexit"",""198"",""287165""
","
","
","""event"",""trial"",""time""
""fullscreenenter"",""0"",""11906""
","""event"",""trial"",""time""
""fullscreenexit"",""198"",""287165""
","null","run_exp/static/audio/clip_4_mop.m4a","null","","","","","","","",""
"","baseball","200","301229","0.0-200.0","""event"",""trial"",""time""
""fullscreenenter"",""0"",""11906""
""fullscreenexit"",""198"",""287165""
","
","
","""event"",""trial"",""time""
""fullscreenenter"",""0"",""11906""
","""event"",""trial"",""time""
""fullscreenexit"",""198"",""287165""
","null","run_exp/static/audio/clip_5_baseball.m4a","null","","","","","","","",""
"","trumpet","201","304734","0.0-201.0","""event"",""trial"",""time""
""fullscreenenter"",""0"",""11906""
""fullscreenexit"",""198"",""287165""
","
","
","""event"",""trial"",""time""
""fullscreenenter"",""0"",""11906""
","""event"",""trial"",""time""
""fullscreenexit"",""198"",""287165""
","null","run_exp/static/audio/clip_6_trumpet.m4a","null","","","","","","","",""
"","gummies","202","308237","0.0-202.0","""event"",""trial"",""time""
""fullscreenenter"",""0"",""11906""
""fullscreenexit"",""198"",""287165""
","
","
","""event"",""trial"",""time""
""fullscreenenter"",""0"",""11906""
","""event"",""trial"",""time""
""fullscreenexit"",""198"",""287165""
","null","run_exp/static/audio/clip_7_gummies.m4a","null","","","","","","","",""
"","osn","203","312742","0.0-203.0","""event"",""trial"",""time""
""fullscreenenter"",""0"",""11906""
""fullscreenexit"",""198"",""287165""
","
","
","""event"",""trial"",""time""
""fullscreenenter"",""0"",""11906""
","""event"",""trial"",""time""
""fullscreenexit"",""198"",""287165""
","null","run_exp/static/audio/clip_8_osn.m4a","null","","","","","","","",""
"","old_1","204","319245","0.0-204.0","""event"",""trial"",""time""
""fullscreenenter"",""0"",""11906""
""fullscreenexit"",""198"",""287165""
","
","
","""event"",""trial"",""time""
""fullscreenenter"",""0"",""11906""
","""event"",""trial"",""time""
""fullscreenexit"",""198"",""287165""
","null","run_exp/static/audio/clip_9_old_trumpet.m4a","null","","","","","","","",""
"","new_1","205","326749","0.0-205.0","""event"",""trial"",""time""
""fullscreenenter"",""0"",""11906""
""fullscreenexit"",""198"",""287165""
","
","
","""event"",""trial"",""time""
""fullscreenenter"",""0"",""11906""
","""event"",""trial"",""time""
""fullscreenexit"",""198"",""287165""
","null","run_exp/static/audio/clip_10_new_balloon.m4a","null","","","","","","","",""
"","similar_1a","206","331254","0.0-206.0","""event"",""trial"",""time""
""fullscreenenter"",""0"",""11906""
""fullscreenexit"",""198"",""287165""
","
","
","""event"",""trial"",""time""
""fullscreenenter"",""0"",""11906""
","""event"",""trial"",""time""
""fullscreenexit"",""198"",""287165""
","null","run_exp/static/audio/clip_11a_similar_mop.m4a","null","","","","","","","",""
"","similar_1b","207","337757","0.0-207.0","""event"",""trial"",""time""
""fullscreenenter"",""0"",""11906""
""fullscreenexit"",""198"",""287165""
","
","
","""event"",""trial"",""time""
""fullscreenenter"",""0"",""11906""
","""event"",""trial"",""time""
""fullscreenexit"",""198"",""287165""
","null","run_exp/static/audio/clip_11b_similar_mop.m4a","null","","","","","","","",""
"","new_2","208","341259","0.0-208.0","""event"",""trial"",""time""
""fullscreenenter"",""0"",""11906""
""fullscreenexit"",""198"",""287165""
","
","
","""event"",""trial"",""time""
""fullscreenenter"",""0"",""11906""
","""event"",""trial"",""time""
""fullscreenexit"",""198"",""287165""
","null","run_exp/static/audio/clip_12_new_stoplight.m4a","null","","","","","","","",""
"","old_2","209","344762","0.0-209.0","""event"",""trial"",""time""
""fullscreenenter"",""0"",""11906""
""fullscreenexit"",""198"",""287165""
","
","
","""event"",""trial"",""time""
""fullscreenenter"",""0"",""11906""
","""event"",""trial"",""time""
""fullscreenexit"",""198"",""287165""
","null","run_exp/static/audio/clip_13_old_baseball.m4a","null","","","","","","","",""
"","similar_2a","210","348266","0.0-210.0","""event"",""trial"",""time""
""fullscreenenter"",""0"",""11906""
""fullscreenexit"",""198"",""287165""
","
","
","""event"",""trial"",""time""
""fullscreenenter"",""0"",""11906""
","""event"",""trial"",""time""
""fullscreenexit"",""198"",""287165""
","null","run_exp/static/audio/clip_14a_similar_gummies.m4a","null","","","","","","","",""
"","similar_2b","211","355771","0.0-211.0","""event"",""trial"",""time""
""fullscreenenter"",""0"",""11906""
""fullscreenexit"",""198"",""287165""
","
","
","""event"",""trial"",""time""
""fullscreenenter"",""0"",""11906""
","""event"",""trial"",""time""
""fullscreenexit"",""198"",""287165""
","null","run_exp/static/audio/clip_14b_similar_gummies.m4a","null","","","","","","","",""
"","practice","212","397884","0.0-212.0","""event"",""trial"",""time""
""fullscreenenter"",""0"",""11906""
""fullscreenexit"",""198"",""287165""
","
","
","""event"",""trial"",""time""
""fullscreenenter"",""0"",""11906""
","""event"",""trial"",""time""
""fullscreenexit"",""198"",""287165""
","null","run_exp/static/audio/clip_15_practice.m4a","null","","","","","<div class='center'><p>Lets practice a little to make sure you understand the difference between new, similar, and old. Lets say you saw these three items in the indoor/outdoor game.</p><p> Try your best to remember these images because youll soon be tested on them in a practice game. In the practice game, youll be shown images and youll have to say if they are old (one of the three images belows), similar (similar to one of the images below but not exactly the same), or new (are not one of the images below nor similar to them).</p><p>Once you press the space bar youll be shown these images again but one at time. Then youll begin the practice game.</p><p><img src='run_exp/static/images/tutorial/test/three_indoor_outdoor.png' height='300'></p></div>","","",""
"","html-keyboard-response","213","399998","0.0-213.0","""event"",""trial"",""time""
""fullscreenenter"",""0"",""11906""
""fullscreenexit"",""198"",""287165""
","
","
","""event"",""trial"",""time""
""fullscreenenter"",""0"",""11906""
","""event"",""trial"",""time""
""fullscreenexit"",""198"",""287165""
","2111.7000000178814","<div class='center'><p>Lets practice a little to make sure you understand the difference between new, similar, and old. Lets say you saw these three items in the indoor/outdoor game.</p><p> Try your best to remember these images because youll soon be tested on them in a practice game. In the practice game, youll be shown images and youll have to say if they are old (one of the three images belows), similar (similar to one of the images below but not exactly the same), or new (are not one of the images below nor similar to them).</p><p>Once you press the space bar youll be shown these images again but one at time. Then youll begin the practice game.</p><p><img src='run_exp/static/images/tutorial/test/three_indoor_outdoor.png' height='300'></p><div><p><b>[Press the space bar to continue]</b></p></div>","32","","","","","","","",""
"","planet","214","402001","0.0-214.0","""event"",""trial"",""time""
""fullscreenenter"",""0"",""11906""
""fullscreenexit"",""198"",""287165""
","
","
","""event"",""trial"",""time""
""fullscreenenter"",""0"",""11906""
","""event"",""trial"",""time""
""fullscreenexit"",""198"",""287165""
","null","run_exp/static/images/tutorial/test/008a.jpg","null","","","","","","","",""
"","boot","215","404005","0.0-215.0","""event"",""trial"",""time""
""fullscreenenter"",""0"",""11906""
""fullscreenexit"",""198"",""287165""
","
","
","""event"",""trial"",""time""
""fullscreenenter"",""0"",""11906""
","""event"",""trial"",""time""
""fullscreenexit"",""198"",""287165""
","null","run_exp/static/images/tutorial/test/011a.jpg","null","","","","","","","",""
"","lemon","216","406008","0.0-216.0","""event"",""trial"",""time""
""fullscreenenter"",""0"",""11906""
""fullscreenexit"",""198"",""287165""
","
","
","""event"",""trial"",""time""
""fullscreenenter"",""0"",""11906""
","""event"",""trial"",""time""
""fullscreenexit"",""198"",""287165""
","null","run_exp/static/images/tutorial/test/018a.jpg","null","","","","","","","",""
"","practice_q1","217","409126","0.0-217.0","""event"",""trial"",""time""
""fullscreenenter"",""0"",""11906""
""fullscreenexit"",""198"",""287165""
","
","
","""event"",""trial"",""time""
""fullscreenenter"",""0"",""11906""
","""event"",""trial"",""time""
""fullscreenexit"",""198"",""287165""
","3115.0999999940395","run_exp/static/audio/clip_16_practice_question.m4a","78","","","","","","","",""
"","correct","218","411044","0.0-218.0-0.0","""event"",""trial"",""time""
""fullscreenenter"",""0"",""11906""
""fullscreenexit"",""198"",""287165""
","
","
","""event"",""trial"",""time""
""fullscreenenter"",""0"",""11906""
","""event"",""trial"",""time""
""fullscreenexit"",""198"",""287165""
","null","run_exp/static/audio/clip_17_correct.m4a","null","","","","","<div class='center'><p>That's correct!</p></div>","","",""
"","html-keyboard-response","219","412167","0.0-218.0-1.0","""event"",""trial"",""time""
""fullscreenenter"",""0"",""11906""
""fullscreenexit"",""198"",""287165""
","
","
","""event"",""trial"",""time""
""fullscreenenter"",""0"",""11906""
","""event"",""trial"",""time""
""fullscreenexit"",""198"",""287165""
","1121.5999999940395","<div class='center'><p>That's correct!</p><div><p><b>[Press the space bar to continue]</b></p></div>","32","","","","","","","",""
"","practice_q2","220","414719","0.0-218.0-2.0","""event"",""trial"",""time""
""fullscreenenter"",""0"",""11906""
""fullscreenexit"",""198"",""287165""
","
","
","""event"",""trial"",""time""
""fullscreenenter"",""0"",""11906""
","""event"",""trial"",""time""
""fullscreenexit"",""198"",""287165""
","2550.899999976158","run_exp/static/audio/clip_16_practice_question.m4a","78","","","","","","","",""
"","incorrect_q2","221","417786","0.0-219.0-0.0","""event"",""trial"",""time""
""fullscreenenter"",""0"",""11906""
""fullscreenexit"",""198"",""287165""
","
","
","""event"",""trial"",""time""
""fullscreenenter"",""0"",""11906""
","""event"",""trial"",""time""
""fullscreenexit"",""198"",""287165""
","null","run_exp/static/audio/clip_19_incorrect_old.m4a","null","","","","","<div class='center'><p>Thats incorrect. Its old.</p></div>","","",""
"","html-keyboard-response","222","418816","0.0-219.0-1.0","""event"",""trial"",""time""
""fullscreenenter"",""0"",""11906""
""fullscreenexit"",""198"",""287165""
","
","
","""event"",""trial"",""time""
""fullscreenenter"",""0"",""11906""
","""event"",""trial"",""time""
""fullscreenexit"",""198"",""287165""
","1028.0999999940395","<div class='center'><p>Thats incorrect. Its old.</p><div><p><b>[Press the space bar to continue]</b></p></div>","32","","","","","","","",""
"","practice_q3","223","421774","0.0-219.0-2.0","""event"",""trial"",""time""
""fullscreenenter"",""0"",""11906""
""fullscreenexit"",""198"",""287165""
","
","
","""event"",""trial"",""time""
""fullscreenenter"",""0"",""11906""
","""event"",""trial"",""time""
""fullscreenexit"",""198"",""287165""
","2956.199999988079","run_exp/static/audio/clip_16_practice_question.m4a","66","","","","","","","",""
"","correct","224","423665","0.0-220.0-0.0","""event"",""trial"",""time""
""fullscreenenter"",""0"",""11906""
""fullscreenexit"",""198"",""287165""
","
","
","""event"",""trial"",""time""
""fullscreenenter"",""0"",""11906""
","""event"",""trial"",""time""
""fullscreenexit"",""198"",""287165""
","null","run_exp/static/audio/clip_17_correct.m4a","null","","","","","<div class='center'><p>That's correct!</p></div>","","",""
"","html-keyboard-response","225","428785","0.0-220.0-1.0","""event"",""trial"",""time""
""fullscreenenter"",""0"",""11906""
""fullscreenexit"",""198"",""287165""
","
","
","""event"",""trial"",""time""
""fullscreenenter"",""0"",""11906""
","""event"",""trial"",""time""
""fullscreenexit"",""198"",""287165""
","5118.199999988079","<div class='center'><p>That's correct!</p><div><p><b>[Press the space bar to continue]</b></p></div>","32","","","","","","","",""
"","repeat","226","433526","0.0-221.0-0.0","""event"",""trial"",""time""
""fullscreenenter"",""0"",""11906""
""fullscreenexit"",""198"",""287165""
","
","
","""event"",""trial"",""time""
""fullscreenenter"",""0"",""11906""
","""event"",""trial"",""time""
""fullscreenexit"",""198"",""287165""
","null","run_exp/static/audio/clip_21_practice_again.m4a","null","","","","","<div class='center'><p>Oops. you missed at least one of these questions. Let's try practicing again. </p></div>","","",""
"","html-keyboard-response","227","434384","0.0-221.0-1.0","""event"",""trial"",""time""
""fullscreenenter"",""0"",""11906""
""fullscreenexit"",""198"",""287165""
","
","
","""event"",""trial"",""time""
""fullscreenenter"",""0"",""11906""
","""event"",""trial"",""time""
""fullscreenexit"",""198"",""287165""
","855.4000000059605","<div class='center'><p>Oops. you missed at least one of these questions. Let's try practicing again. </p><div><p><b>[Press the space bar to continue]</b></p></div>","32","","","","","","","",""
"","practice_q1","228","436857","0.0-221.0-2.0","""event"",""trial"",""time""
""fullscreenenter"",""0"",""11906""
""fullscreenexit"",""198"",""287165""
","
","
","""event"",""trial"",""time""
""fullscreenenter"",""0"",""11906""
","""event"",""trial"",""time""
""fullscreenexit"",""198"",""287165""
","2470.800000011921","run_exp/static/audio/clip_16_practice_question.m4a","78","","","","","","","",""
"","correct","229","438746","0.0-222.0-0.0","""event"",""trial"",""time""
""fullscreenenter"",""0"",""11906""
""fullscreenexit"",""198"",""287165""
","
","
","""event"",""trial"",""time""
""fullscreenenter"",""0"",""11906""
","""event"",""trial"",""time""
""fullscreenexit"",""198"",""287165""
","null","run_exp/static/audio/clip_17_correct.m4a","null","","","","","<div class='center'><p>That's correct!</p></div>","","",""
"","html-keyboard-response","230","439511","0.0-222.0-1.0","""event"",""trial"",""time""
""fullscreenenter"",""0"",""11906""
""fullscreenexit"",""198"",""287165""
","
","
","""event"",""trial"",""time""
""fullscreenenter"",""0"",""11906""
","""event"",""trial"",""time""
""fullscreenexit"",""198"",""287165""
","763","<div class='center'><p>That's correct!</p><div><p><b>[Press the space bar to continue]</b></p></div>","32","","","","","","","",""
"","practice_q2","231","441757","0.0-222.0-2.0","""event"",""trial"",""time""
""fullscreenenter"",""0"",""11906""
""fullscreenexit"",""198"",""287165""
","
","
","""event"",""trial"",""time""
""fullscreenenter"",""0"",""11906""
","""event"",""trial"",""time""
""fullscreenexit"",""198"",""287165""
","2244.5999999940395","run_exp/static/audio/clip_16_practice_question.m4a","86","","","","","","","",""
"","correct","232","443645","0.0-223.0-0.0","""event"",""trial"",""time""
""fullscreenenter"",""0"",""11906""
""fullscreenexit"",""198"",""287165""
","
","
","""event"",""trial"",""time""
""fullscreenenter"",""0"",""11906""
","""event"",""trial"",""time""
""fullscreenexit"",""198"",""287165""
","null","run_exp/static/audio/clip_17_correct.m4a","null","","","","","<div class='center'><p>That's correct!</p></div>","","",""
"","html-keyboard-response","233","444164","0.0-223.0-1.0","""event"",""trial"",""time""
""fullscreenenter"",""0"",""11906""
""fullscreenexit"",""198"",""287165""
","
","
","""event"",""trial"",""time""
""fullscreenenter"",""0"",""11906""
","""event"",""trial"",""time""
""fullscreenexit"",""198"",""287165""
","517.8000000119209","<div class='center'><p>That's correct!</p><div><p><b>[Press the space bar to continue]</b></p></div>","32","","","","","","","",""
"","practice_q3","234","444909","0.0-223.0-2.0","""event"",""trial"",""time""
""fullscreenenter"",""0"",""11906""
""fullscreenexit"",""198"",""287165""
","
","
","""event"",""trial"",""time""
""fullscreenenter"",""0"",""11906""
","""event"",""trial"",""time""
""fullscreenexit"",""198"",""287165""
","742.1000000238419","run_exp/static/audio/clip_16_practice_question.m4a","66","","","","","","","",""
"","correct","235","446946","0.0-224.0-0.0","""event"",""trial"",""time""
""fullscreenenter"",""0"",""11906""
""fullscreenexit"",""198"",""287165""
","
","
","""event"",""trial"",""time""
""fullscreenenter"",""0"",""11906""
","""event"",""trial"",""time""
""fullscreenexit"",""198"",""287165""
","null","run_exp/static/audio/clip_17_correct.m4a","null","","","","","<div class='center'><p>That's correct!</p></div>","","",""
"","html-keyboard-response","236","447948","0.0-224.0-1.0","""event"",""trial"",""time""
""fullscreenenter"",""0"",""11906""
""fullscreenexit"",""198"",""287165""
","
","
","""event"",""trial"",""time""
""fullscreenenter"",""0"",""11906""
","""event"",""trial"",""time""
""fullscreenexit"",""198"",""287165""
","1000.5999999940395","<div class='center'><p>That's correct!</p><div><p><b>[Press the space bar to continue]</b></p></div>","32","","","","","","","",""
"","begin_text","237","466425","0.0-225.0-0.0","""event"",""trial"",""time""
""fullscreenenter"",""0"",""11906""
""fullscreenexit"",""198"",""287165""
","
","
","""event"",""trial"",""time""
""fullscreenenter"",""0"",""11906""
","""event"",""trial"",""time""
""fullscreenexit"",""198"",""287165""
","null","run_exp/static/audio/clip_22_begin_test.m4a","null","","","","","<div class='center'><p>On to the real game where well test your memory of items from the indoor/outdoor game. For each item, you need to indicate if the item is <b>old</b> by pressing the <b>v</b> key, <b>similar</b> by pressing the <b>b</b> key, or <b>new</b> by pressing the <b>n</b> key. </p></div>","","",""
"","html-keyboard-response","238","468252","0.0-225.0-1.0","""event"",""trial"",""time""
""fullscreenenter"",""0"",""11906""
""fullscreenexit"",""198"",""287165""
","
","
","""event"",""trial"",""time""
""fullscreenenter"",""0"",""11906""
","""event"",""trial"",""time""
""fullscreenexit"",""198"",""287165""
","1825.199999988079","<div class='center'><p>On to the real game where well test your memory of items from the indoor/outdoor game. For each item, you need to indicate if the item is <b>old</b> by pressing the <b>v</b> key, <b>similar</b> by pressing the <b>b</b> key, or <b>new</b> by pressing the <b>n</b> key. </p><div><p><b>[Press the space bar to continue]</b></p></div>","32","","","","","","","",""
"","image","239","471253","0.0-226.0-0.0","""event"",""trial"",""time""
""fullscreenenter"",""0"",""11906""
""fullscreenexit"",""198"",""287165""
","
","
","""event"",""trial"",""time""
""fullscreenenter"",""0"",""11906""
","""event"",""trial"",""time""
""fullscreenexit"",""198"",""287165""
","null","run_exp/static/images/Set 6_rs/064a.jpg","null","","","","","","test","TR","5"
"","show_choice","240","471756","0.0-226.0-1.0","""event"",""trial"",""time""
""fullscreenenter"",""0"",""11906""
""fullscreenexit"",""198"",""287165""
","
","
","""event"",""trial"",""time""
""fullscreenenter"",""0"",""11906""
","""event"",""trial"",""time""
""fullscreenexit"",""198"",""287165""
","null","run_exp/static/images/Set 6_rs/064a.jpg","null","","","","","","test","TR",""
"","html-keyboard-response","241","472258","0.0-226.0-2.0","""event"",""trial"",""time""
""fullscreenenter"",""0"",""11906""
""fullscreenexit"",""198"",""287165""
","
","
","""event"",""trial"",""time""
""fullscreenenter"",""0"",""11906""
","""event"",""trial"",""time""
""fullscreenexit"",""198"",""287165""
","null","<p></p>","null","","","","","","","",""
"","image","242","473660","0.0-227.0-0.0","""event"",""trial"",""time""
""fullscreenenter"",""0"",""11906""
""fullscreenexit"",""198"",""287165""
","
","
","""event"",""trial"",""time""
""fullscreenenter"",""0"",""11906""
","""event"",""trial"",""time""
""fullscreenexit"",""198"",""287165""
","1399.5999999940395","run_exp/static/images/Set 6_rs/052a.jpg","78","","","","","","test","TF","1"
"","show_choice","243","474162","0.0-227.0-1.0","""event"",""trial"",""time""
""fullscreenenter"",""0"",""11906""
""fullscreenexit"",""198"",""287165""
","
","
","""event"",""trial"",""time""
""fullscreenenter"",""0"",""11906""
","""event"",""trial"",""time""
""fullscreenexit"",""198"",""287165""
","null","run_exp/static/images/Set 6_rs/052a.jpg","null","","","","","","test","TF",""
"","html-keyboard-response","244","474665","0.0-227.0-2.0","""event"",""trial"",""time""
""fullscreenenter"",""0"",""11906""
""fullscreenexit"",""198"",""287165""
","
","
","""event"",""trial"",""time""
""fullscreenenter"",""0"",""11906""
","""event"",""trial"",""time""
""fullscreenexit"",""198"",""287165""
","null","<p></p>","null","","","","","","","",""
"","image","245","476143","0.0-228.0-0.0","""event"",""trial"",""time""
""fullscreenenter"",""0"",""11906""
""fullscreenexit"",""198"",""287165""
","
","
","""event"",""trial"",""time""
""fullscreenenter"",""0"",""11906""
","""event"",""trial"",""time""
""fullscreenexit"",""198"",""287165""
","1476.0999999940395","run_exp/static/images/Set 6_rs/186a.jpg","86","","","","","","test","TR","5"
"","show_choice","246","476646","0.0-228.0-1.0","""event"",""trial"",""time""
""fullscreenenter"",""0"",""11906""
""fullscreenexit"",""198"",""287165""
","
","
","""event"",""trial"",""time""
""fullscreenenter"",""0"",""11906""
","""event"",""trial"",""time""
""fullscreenexit"",""198"",""287165""
","null","run_exp/static/images/Set 6_rs/186a.jpg","null","","","","","","test","TR",""
"","html-keyboard-response","247","477155","0.0-228.0-2.0","""event"",""trial"",""time""
""fullscreenenter"",""0"",""11906""
""fullscreenexit"",""198"",""287165""
","
","
","""event"",""trial"",""time""
""fullscreenenter"",""0"",""11906""
","""event"",""trial"",""time""
""fullscreenexit"",""198"",""287165""
","null","<p></p>","null","","","","","","","",""
"","image","248","478143","0.0-229.0-0.0","""event"",""trial"",""time""
""fullscreenenter"",""0"",""11906""
""fullscreenexit"",""198"",""287165""
","
","
","""event"",""trial"",""time""
""fullscreenenter"",""0"",""11906""
","""event"",""trial"",""time""
""fullscreenexit"",""198"",""287165""
","990.5","run_exp/static/images/Set 6_rs/171a.jpg","78","","","","","","test","TF","1"
"","show_choice","249","478657","0.0-229.0-1.0","""event"",""trial"",""time""
""fullscreenenter"",""0"",""11906""
""fullscreenexit"",""198"",""287165""
","
","
","""event"",""trial"",""time""
""fullscreenenter"",""0"",""11906""
","""event"",""trial"",""time""
""fullscreenexit"",""198"",""287165""
","null","run_exp/static/images/Set 6_rs/171a.jpg","null","","","","","","test","TF",""
"","html-keyboard-response","250","479159","0.0-229.0-2.0","""event"",""trial"",""time""
""fullscreenenter"",""0"",""11906""
""fullscreenexit"",""198"",""287165""
","
","
","""event"",""trial"",""time""
""fullscreenenter"",""0"",""11906""
","""event"",""trial"",""time""
""fullscreenexit"",""198"",""287165""
","null","<p></p>","null","","","","","","","",""
"","image","251","480284","0.0-230.0-0.0","""event"",""trial"",""time""
""fullscreenenter"",""0"",""11906""
""fullscreenexit"",""198"",""287165""
","
","
","""event"",""trial"",""time""
""fullscreenenter"",""0"",""11906""
","""event"",""trial"",""time""
""fullscreenexit"",""198"",""287165""
","1124.5","run_exp/static/images/Set 6_rs/050b.jpg","86","","","","","","test","TL","3"
"","show_choice","252","480791","0.0-230.0-1.0","""event"",""trial"",""time""
""fullscreenenter"",""0"",""11906""
""fullscreenexit"",""198"",""287165""
","
","
","""event"",""trial"",""time""
""fullscreenenter"",""0"",""11906""
","""event"",""trial"",""time""
""fullscreenexit"",""198"",""287165""
","null","run_exp/static/images/Set 6_rs/050b.jpg","null","","","","","","test","TL",""
"","html-keyboard-response","253","481292","0.0-230.0-2.0","""event"",""trial"",""time""
""fullscreenenter"",""0"",""11906""
""fullscreenexit"",""198"",""287165""
","
","
","""event"",""trial"",""time""
""fullscreenenter"",""0"",""11906""
","""event"",""trial"",""time""
""fullscreenexit"",""198"",""287165""
","null","<p></p>","null","","","","","","","",""
"","image","254","482459","0.0-231.0-0.0","""event"",""trial"",""time""
""fullscreenenter"",""0"",""11906""
""fullscreenexit"",""198"",""287165""
","
","
","""event"",""trial"",""time""
""fullscreenenter"",""0"",""11906""
","""event"",""trial"",""time""
""fullscreenexit"",""198"",""287165""
","1164.699999988079","run_exp/static/images/Set 6_rs/005a.jpg","78","","","","","","test","TF","5"
"","show_choice","255","482965","0.0-231.0-1.0","""event"",""trial"",""time""
""fullscreenenter"",""0"",""11906""
""fullscreenexit"",""198"",""287165""
","
","
","""event"",""trial"",""time""
""fullscreenenter"",""0"",""11906""
","""event"",""trial"",""time""
""fullscreenexit"",""198"",""287165""
","null","run_exp/static/images/Set 6_rs/005a.jpg","null","","","","","","test","TF",""
"","html-keyboard-response","256","483482","0.0-231.0-2.0","""event"",""trial"",""time""
""fullscreenenter"",""0"",""11906""
""fullscreenexit"",""198"",""287165""
","
","
","""event"",""trial"",""time""
""fullscreenenter"",""0"",""11906""
","""event"",""trial"",""time""
""fullscreenexit"",""198"",""287165""
","null","<p></p>","null","","","","","","","",""
"","image","257","484805","0.0-232.0-0.0","""event"",""trial"",""time""
""fullscreenenter"",""0"",""11906""
""fullscreenexit"",""198"",""287165""
","
","
","""event"",""trial"",""time""
""fullscreenenter"",""0"",""11906""
","""event"",""trial"",""time""
""fullscreenexit"",""198"",""287165""
","1321","run_exp/static/images/Set 6_rs/095b.jpg","66","","","","","","test","TL","5"
"","show_choice","258","485306","0.0-232.0-1.0","""event"",""trial"",""time""
""fullscreenenter"",""0"",""11906""
""fullscreenexit"",""198"",""287165""
","
","
","""event"",""trial"",""time""
""fullscreenenter"",""0"",""11906""
","""event"",""trial"",""time""
""fullscreenexit"",""198"",""287165""
","null","run_exp/static/images/Set 6_rs/095b.jpg","null","","","","","","test","TL",""
"","html-keyboard-response","259","485825","0.0-232.0-2.0","""event"",""trial"",""time""
""fullscreenenter"",""0"",""11906""
""fullscreenexit"",""198"",""287165""
","
","
","""event"",""trial"",""time""
""fullscreenenter"",""0"",""11906""
","""event"",""trial"",""time""
""fullscreenexit"",""198"",""287165""
","null","<p></p>","null","","","","","","","",""
"","image","260","487263","0.0-233.0-0.0","""event"",""trial"",""time""
""fullscreenenter"",""0"",""11906""
""fullscreenexit"",""198"",""287165""
","
","
","""event"",""trial"",""time""
""fullscreenenter"",""0"",""11906""
","""event"",""trial"",""time""
""fullscreenexit"",""198"",""287165""
","1436.699999988079","run_exp/static/images/Set 6_rs/169a.jpg","86","","","","","","test","TR","4"
"","show_choice","261","487776","0.0-233.0-1.0","""event"",""trial"",""time""
""fullscreenenter"",""0"",""11906""
""fullscreenexit"",""198"",""287165""
","
","
","""event"",""trial"",""time""
""fullscreenenter"",""0"",""11906""
","""event"",""trial"",""time""
""fullscreenexit"",""198"",""287165""
","null","run_exp/static/images/Set 6_rs/169a.jpg","null","","","","","","test","TR",""
"","html-keyboard-response","262","488284","0.0-233.0-2.0","""event"",""trial"",""time""
""fullscreenenter"",""0"",""11906""
""fullscreenexit"",""198"",""287165""
","
","
","""event"",""trial"",""time""
""fullscreenenter"",""0"",""11906""
","""event"",""trial"",""time""
""fullscreenexit"",""198"",""287165""
","null","<p></p>","null","","","","","","","",""
"","image","263","490064","0.0-234.0-0.0","""event"",""trial"",""time""
""fullscreenenter"",""0"",""11906""
""fullscreenexit"",""198"",""287165""
","
","
","""event"",""trial"",""time""
""fullscreenenter"",""0"",""11906""
","""event"",""trial"",""time""
""fullscreenexit"",""198"",""287165""
","1778.199999988079","run_exp/static/images/Set 6_rs/028a.jpg","78","","","","","","test","TF","1"
"","show_choice","264","490579","0.0-234.0-1.0","""event"",""trial"",""time""
""fullscreenenter"",""0"",""11906""
""fullscreenexit"",""198"",""287165""
","
","
","""event"",""trial"",""time""
""fullscreenenter"",""0"",""11906""
","""event"",""trial"",""time""
""fullscreenexit"",""198"",""287165""
","null","run_exp/static/images/Set 6_rs/028a.jpg","null","","","","","","test","TF",""
"","html-keyboard-response","265","491080","0.0-234.0-2.0","""event"",""trial"",""time""
""fullscreenenter"",""0"",""11906""
""fullscreenexit"",""198"",""287165""
","
","
","""event"",""trial"",""time""
""fullscreenenter"",""0"",""11906""
","""event"",""trial"",""time""
""fullscreenexit"",""198"",""287165""
","null","<p></p>","null","","","","","","","",""
"","image","266","492219","0.0-235.0-0.0","""event"",""trial"",""time""
""fullscreenenter"",""0"",""11906""
""fullscreenexit"",""198"",""287165""
","
","
","""event"",""trial"",""time""
""fullscreenenter"",""0"",""11906""
","""event"",""trial"",""time""
""fullscreenexit"",""198"",""287165""
","1137.800000011921","run_exp/static/images/Set 6_rs/131a.jpg","86","","","","","","test","TR","5"
"","show_choice","267","492738","0.0-235.0-1.0","""event"",""trial"",""time""
""fullscreenenter"",""0"",""11906""
""fullscreenexit"",""198"",""287165""
","
","
","""event"",""trial"",""time""
""fullscreenenter"",""0"",""11906""
","""event"",""trial"",""time""
""fullscreenexit"",""198"",""287165""
","null","run_exp/static/images/Set 6_rs/131a.jpg","null","","","","","","test","TR",""
"","html-keyboard-response","268","493254","0.0-235.0-2.0","""event"",""trial"",""time""
""fullscreenenter"",""0"",""11906""
""fullscreenexit"",""198"",""287165""
","
","
","""event"",""trial"",""time""
""fullscreenenter"",""0"",""11906""
","""event"",""trial"",""time""
""fullscreenexit"",""198"",""287165""
","null","<p></p>","null","","","","","","","",""
"","image","269","494892","0.0-236.0-0.0","""event"",""trial"",""time""
""fullscreenenter"",""0"",""11906""
""fullscreenexit"",""198"",""287165""
","
","
","""event"",""trial"",""time""
""fullscreenenter"",""0"",""11906""
","""event"",""trial"",""time""
""fullscreenexit"",""198"",""287165""
","1636.0999999940395","run_exp/static/images/Set 6_rs/011a.jpg","66","","","","","","test","TF","3"
"","show_choice","270","495404","0.0-236.0-1.0","""event"",""trial"",""time""
""fullscreenenter"",""0"",""11906""
""fullscreenexit"",""198"",""287165""
","
","
","""event"",""trial"",""time""
""fullscreenenter"",""0"",""11906""
","""event"",""trial"",""time""
""fullscreenexit"",""198"",""287165""
","null","run_exp/static/images/Set 6_rs/011a.jpg","null","","","","","","test","TF",""
"","html-keyboard-response","271","495920","0.0-236.0-2.0","""event"",""trial"",""time""
""fullscreenenter"",""0"",""11906""
""fullscreenexit"",""198"",""287165""
","
","
","""event"",""trial"",""time""
""fullscreenenter"",""0"",""11906""
","""event"",""trial"",""time""
""fullscreenexit"",""198"",""287165""
","null","<p></p>","null","","","","","","","",""
"","image","272","496965","0.0-237.0-0.0","""event"",""trial"",""time""
""fullscreenenter"",""0"",""11906""
""fullscreenexit"",""198"",""287165""
","
","
","""event"",""trial"",""time""
""fullscreenenter"",""0"",""11906""
","""event"",""trial"",""time""
""fullscreenexit"",""198"",""287165""
","1042.3999999761581","run_exp/static/images/Set 6_rs/071b.jpg","66","","","","","","test","TL","4"
"","show_choice","273","497477","0.0-237.0-1.0","""event"",""trial"",""time""
""fullscreenenter"",""0"",""11906""
""fullscreenexit"",""198"",""287165""
","
","
","""event"",""trial"",""time""
""fullscreenenter"",""0"",""11906""
","""event"",""trial"",""time""
""fullscreenexit"",""198"",""287165""
","null","run_exp/static/images/Set 6_rs/071b.jpg","null","","","","","","test","TL",""
"","html-keyboard-response","274","497978","0.0-237.0-2.0","""event"",""trial"",""time""
""fullscreenenter"",""0"",""11906""
""fullscreenexit"",""198"",""287165""
","
","
","""event"",""trial"",""time""
""fullscreenenter"",""0"",""11906""
","""event"",""trial"",""time""
""fullscreenexit"",""198"",""287165""
","null","<p></p>","null","","","","","","","",""
"","image","275","499429","0.0-238.0-0.0","""event"",""trial"",""time""
""fullscreenenter"",""0"",""11906""
""fullscreenexit"",""198"",""287165""
","
","
","""event"",""trial"",""time""
""fullscreenenter"",""0"",""11906""
","""event"",""trial"",""time""
""fullscreenexit"",""198"",""287165""
","1449.0999999940395","run_exp/static/images/Set 6_rs/122a.jpg","86","","","","","","test","TR","5"
"","show_choice","276","499951","0.0-238.0-1.0","""event"",""trial"",""time""
""fullscreenenter"",""0"",""11906""
""fullscreenexit"",""198"",""287165""
","
","
","""event"",""trial"",""time""
""fullscreenenter"",""0"",""11906""
","""event"",""trial"",""time""
""fullscreenexit"",""198"",""287165""
","null","run_exp/static/images/Set 6_rs/122a.jpg","null","","","","","","test","TR",""
"","html-keyboard-response","277","500453","0.0-238.0-2.0","""event"",""trial"",""time""
""fullscreenenter"",""0"",""11906""
""fullscreenexit"",""198"",""287165""
","
","
","""event"",""trial"",""time""
""fullscreenenter"",""0"",""11906""
","""event"",""trial"",""time""
""fullscreenexit"",""198"",""287165""
","null","<p></p>","null","","","","","","","",""
"","image","278","501750","0.0-239.0-0.0","""event"",""trial"",""time""
""fullscreenenter"",""0"",""11906""
""fullscreenexit"",""198"",""287165""
","
","
","""event"",""trial"",""time""
""fullscreenenter"",""0"",""11906""
","""event"",""trial"",""time""
""fullscreenexit"",""198"",""287165""
","1295.5999999940395","run_exp/static/images/Set 6_rs/177a.jpg","66","","","","","","test","TR","5"
"","show_choice","279","502255","0.0-239.0-1.0","""event"",""trial"",""time""
""fullscreenenter"",""0"",""11906""
""fullscreenexit"",""198"",""287165""
","
","
","""event"",""trial"",""time""
""fullscreenenter"",""0"",""11906""
","""event"",""trial"",""time""
""fullscreenexit"",""198"",""287165""
","null","run_exp/static/images/Set 6_rs/177a.jpg","null","","","","","","test","TR",""
"","html-keyboard-response","280","502772","0.0-239.0-2.0","""event"",""trial"",""time""
""fullscreenenter"",""0"",""11906""
""fullscreenexit"",""198"",""287165""
","
","
","""event"",""trial"",""time""
""fullscreenenter"",""0"",""11906""
","""event"",""trial"",""time""
""fullscreenexit"",""198"",""287165""
","null","<p></p>","null","","","","","","","",""
"","image","281","504236","0.0-240.0-0.0","""event"",""trial"",""time""
""fullscreenenter"",""0"",""11906""
""fullscreenexit"",""198"",""287165""
","
","
","""event"",""trial"",""time""
""fullscreenenter"",""0"",""11906""
","""event"",""trial"",""time""
""fullscreenexit"",""198"",""287165""
","1463.199999988079","run_exp/static/images/Set 6_rs/176a.jpg","78","","","","","","test","TF","4"
"","show_choice","282","504740","0.0-240.0-1.0","""event"",""trial"",""time""
""fullscreenenter"",""0"",""11906""
""fullscreenexit"",""198"",""287165""
","
","
","""event"",""trial"",""time""
""fullscreenenter"",""0"",""11906""
","""event"",""trial"",""time""
""fullscreenexit"",""198"",""287165""
","null","run_exp/static/images/Set 6_rs/176a.jpg","null","","","","","","test","TF",""
"","html-keyboard-response","283","505262","0.0-240.0-2.0","""event"",""trial"",""time""
""fullscreenenter"",""0"",""11906""
""fullscreenexit"",""198"",""287165""
","
","
","""event"",""trial"",""time""
""fullscreenenter"",""0"",""11906""
","""event"",""trial"",""time""
""fullscreenexit"",""198"",""287165""
","null","<p></p>","null","","","","","","","",""
"","image","284","506442","0.0-241.0-0.0","""event"",""trial"",""time""
""fullscreenenter"",""0"",""11906""
""fullscreenexit"",""198"",""287165""
","
","
","""event"",""trial"",""time""
""fullscreenenter"",""0"",""11906""
","""event"",""trial"",""time""
""fullscreenexit"",""198"",""287165""
","1178.3999999761581","run_exp/static/images/Set 6_rs/140a.jpg","66","","","","","","test","TF","1"
"","show_choice","285","506966","0.0-241.0-1.0","""event"",""trial"",""time""
""fullscreenenter"",""0"",""11906""
""fullscreenexit"",""198"",""287165""
","
","
","""event"",""trial"",""time""
""fullscreenenter"",""0"",""11906""
","""event"",""trial"",""time""
""fullscreenexit"",""198"",""287165""
","null","run_exp/static/images/Set 6_rs/140a.jpg","null","","","","","","test","TF",""
"","html-keyboard-response","286","507467","0.0-241.0-2.0","""event"",""trial"",""time""
""fullscreenenter"",""0"",""11906""
""fullscreenexit"",""198"",""287165""
","
","
","""event"",""trial"",""time""
""fullscreenenter"",""0"",""11906""
","""event"",""trial"",""time""
""fullscreenexit"",""198"",""287165""
","null","<p></p>","null","","","","","","","",""
"","image","287","508499","0.0-242.0-0.0","""event"",""trial"",""time""
""fullscreenenter"",""0"",""11906""
""fullscreenexit"",""198"",""287165""
","
","
","""event"",""trial"",""time""
""fullscreenenter"",""0"",""11906""
","""event"",""trial"",""time""
""fullscreenexit"",""198"",""287165""
","1029.5","run_exp/static/images/Set 6_rs/088a.jpg","86","","","","","","test","TR","2"
"","show_choice","288","509001","0.0-242.0-1.0","""event"",""trial"",""time""
""fullscreenenter"",""0"",""11906""
""fullscreenexit"",""198"",""287165""
","
","
","""event"",""trial"",""time""
""fullscreenenter"",""0"",""11906""
","""event"",""trial"",""time""
""fullscreenexit"",""198"",""287165""
","null","run_exp/static/images/Set 6_rs/088a.jpg","null","","","","","","test","TR",""
"","html-keyboard-response","289","509518","0.0-242.0-2.0","""event"",""trial"",""time""
""fullscreenenter"",""0"",""11906""
""fullscreenexit"",""198"",""287165""
","
","
","""event"",""trial"",""time""
""fullscreenenter"",""0"",""11906""
","""event"",""trial"",""time""
""fullscreenexit"",""198"",""287165""
","null","<p></p>","null","","","","","","","",""
"","image","290","510423","0.0-243.0-0.0","""event"",""trial"",""time""
""fullscreenenter"",""0"",""11906""
""fullscreenexit"",""198"",""287165""
","
","
","""event"",""trial"",""time""
""fullscreenenter"",""0"",""11906""
","""event"",""trial"",""time""
""fullscreenexit"",""198"",""287165""
","904","run_exp/static/images/Set 6_rs/152a.jpg","78","","","","","","test","TR","2"
"","show_choice","291","510937","0.0-243.0-1.0","""event"",""trial"",""time""
""fullscreenenter"",""0"",""11906""
""fullscreenexit"",""198"",""287165""
","
","
","""event"",""trial"",""time""
""fullscreenenter"",""0"",""11906""
","""event"",""trial"",""time""
""fullscreenexit"",""198"",""287165""
","null","run_exp/static/images/Set 6_rs/152a.jpg","null","","","","","","test","TR",""
"","html-keyboard-response","292","511448","0.0-243.0-2.0","""event"",""trial"",""time""
""fullscreenenter"",""0"",""11906""
""fullscreenexit"",""198"",""287165""
","
","
","""event"",""trial"",""time""
""fullscreenenter"",""0"",""11906""
","""event"",""trial"",""time""
""fullscreenexit"",""198"",""287165""
","null","<p></p>","null","","","","","","","",""
"","image","293","512454","0.0-244.0-0.0","""event"",""trial"",""time""
""fullscreenenter"",""0"",""11906""
""fullscreenexit"",""198"",""287165""
","
","
","""event"",""trial"",""time""
""fullscreenenter"",""0"",""11906""
","""event"",""trial"",""time""
""fullscreenexit"",""198"",""287165""
","1005.4000000059605","run_exp/static/images/Set 6_rs/025b.jpg","86","","","","","","test","TL","5"
"","show_choice","294","512958","0.0-244.0-1.0","""event"",""trial"",""time""
""fullscreenenter"",""0"",""11906""
""fullscreenexit"",""198"",""287165""
","
","
","""event"",""trial"",""time""
""fullscreenenter"",""0"",""11906""
","""event"",""trial"",""time""
""fullscreenexit"",""198"",""287165""
","null","run_exp/static/images/Set 6_rs/025b.jpg","null","","","","","","test","TL",""
"","html-keyboard-response","295","513461","0.0-244.0-2.0","""event"",""trial"",""time""
""fullscreenenter"",""0"",""11906""
""fullscreenexit"",""198"",""287165""
","
","
","""event"",""trial"",""time""
""fullscreenenter"",""0"",""11906""
","""event"",""trial"",""time""
""fullscreenexit"",""198"",""287165""
","null","<p></p>","null","","","","","","","",""
"","image","296","514481","0.0-245.0-0.0","""event"",""trial"",""time""
""fullscreenenter"",""0"",""11906""
""fullscreenexit"",""198"",""287165""
","
","
","""event"",""trial"",""time""
""fullscreenenter"",""0"",""11906""
","""event"",""trial"",""time""
""fullscreenexit"",""198"",""287165""
","1018.5","run_exp/static/images/Set 6_rs/047a.jpg","78","","","","","","test","TF","3"
"","show_choice","297","514986","0.0-245.0-1.0","""event"",""trial"",""time""
""fullscreenenter"",""0"",""11906""
""fullscreenexit"",""198"",""287165""
","
","
","""event"",""trial"",""time""
""fullscreenenter"",""0"",""11906""
","""event"",""trial"",""time""
""fullscreenexit"",""198"",""287165""
","null","run_exp/static/images/Set 6_rs/047a.jpg","null","","","","","","test","TF",""
"","html-keyboard-response","298","515510","0.0-245.0-2.0","""event"",""trial"",""time""
