"success","trial_type","trial_index","time_elapsed","internal_node_id","interactions","blur_events","focus_events","fullscreenenter_events","fullscreenexit_events","rt","stimulus","key_press","subject_id","participant_id","age","gender","prompt","phase","condition","lure_bin"
"true","fullscreen","0","9921","0.0-0.0","""event"",""trial"",""time""
""blur"",""0"",""0""
""focus"",""0"",""8834""
""fullscreenenter"",""0"",""8939""
","""event"",""trial"",""time""
""blur"",""0"",""0""
","""event"",""trial"",""time""
""focus"",""0"",""8834""
","""event"",""trial"",""time""
""fullscreenenter"",""0"",""8939""
","
","","","","","","","","","","",""
"","pavlovia","1","9923","0.0-1.0","""event"",""trial"",""time""
""blur"",""0"",""0""
""focus"",""0"",""8834""
""fullscreenenter"",""0"",""8939""
","""event"",""trial"",""time""
""blur"",""0"",""0""
","""event"",""trial"",""time""
""focus"",""0"",""8834""
","""event"",""trial"",""time""
""fullscreenenter"",""0"",""8939""
","
","","","","","","","","","","",""
"","welcome","2","45004","0.0-2.0","""event"",""trial"",""time""
""blur"",""0"",""0""
""focus"",""0"",""8834""
""fullscreenenter"",""0"",""8939""
","""event"",""trial"",""time""
""blur"",""0"",""0""
","""event"",""trial"",""time""
""focus"",""0"",""8834""
","""event"",""trial"",""time""
""fullscreenenter"",""0"",""8939""
","
","null","run_exp/static/audio/clip_1_welcome.m4a","null","568","547","10","Female","<div class='center'><p>Welcome to the third part of the study! First, you'll be shown pictures of items one at a time. For each picture, you have to decide if the item is typically found indoors or outdoors.</p><p>If you think it's usually found indoors, then press <b>v</b> key on your keyboard. If you think it's usually found outdoors, then press the <b>n</b> key.There will be reminders on the screen to help you remember which keys to press. </p><p>If you're not sure whether the item is an indoor item or an outdoor item, go ahead and take a guess but try your best not to skip that choice. </p></div>","","",""
"","html-keyboard-response","3","46239","0.0-3.0","""event"",""trial"",""time""
""blur"",""0"",""0""
""focus"",""0"",""8834""
""fullscreenenter"",""0"",""8939""
","""event"",""trial"",""time""
""blur"",""0"",""0""
","""event"",""trial"",""time""
""focus"",""0"",""8834""
","""event"",""trial"",""time""
""fullscreenenter"",""0"",""8939""
","
","1234.7000000476837","<div class='center'><p>Welcome to the third part of the study! First, you'll be shown pictures of items one at a time. For each picture, you have to decide if the item is typically found indoors or outdoors.</p><p>If you think it's usually found indoors, then press <b>v</b> key on your keyboard. If you think it's usually found outdoors, then press the <b>n</b> key.There will be reminders on the screen to help you remember which keys to press. </p><p>If you're not sure whether the item is an indoor item or an outdoor item, go ahead and take a guess but try your best not to skip that choice. </p><div><p><b>[Press the space bar to continue]</b></p></div>","32","","","","","","","",""
"","image","4","48067","0.0-4.0","""event"",""trial"",""time""
""blur"",""0"",""0""
""focus"",""0"",""8834""
""fullscreenenter"",""0"",""8939""
","""event"",""trial"",""time""
""blur"",""0"",""0""
","""event"",""trial"",""time""
""focus"",""0"",""8834""
","""event"",""trial"",""time""
""fullscreenenter"",""0"",""8939""
","
","1825.8000001907349","run_exp/static/images/Set 6_rs/186a.jpg","86","","","","","","learn","SR",""
"","show_choice","5","48243","0.0-5.0","""event"",""trial"",""time""
""blur"",""0"",""0""
""focus"",""0"",""8834""
""fullscreenenter"",""0"",""8939""
","""event"",""trial"",""time""
""blur"",""0"",""0""
","""event"",""trial"",""time""
""focus"",""0"",""8834""
","""event"",""trial"",""time""
""fullscreenenter"",""0"",""8939""
","
","null","run_exp/static/images/Set 6_rs/186a.jpg","null","","","","","","learn","SR",""
"","html-keyboard-response","6","48747","0.0-6.0","""event"",""trial"",""time""
""blur"",""0"",""0""
""focus"",""0"",""8834""
""fullscreenenter"",""0"",""8939""
","""event"",""trial"",""time""
""blur"",""0"",""0""
","""event"",""trial"",""time""
""focus"",""0"",""8834""
","""event"",""trial"",""time""
""fullscreenenter"",""0"",""8939""
","
","null","<p></p>","null","","","","","","","",""
"","image","7","49631","0.0-7.0","""event"",""trial"",""time""
""blur"",""0"",""0""
""focus"",""0"",""8834""
""fullscreenenter"",""0"",""8939""
","""event"",""trial"",""time""
""blur"",""0"",""0""
","""event"",""trial"",""time""
""focus"",""0"",""8834""
","""event"",""trial"",""time""
""fullscreenenter"",""0"",""8939""
","
","883.1999998092651","run_exp/static/images/Set 6_rs/129a.jpg","86","","","","","","learn","SL",""
"","show_choice","8","50754","0.0-8.0","""event"",""trial"",""time""
""blur"",""0"",""0""
""focus"",""0"",""8834""
""fullscreenenter"",""0"",""8939""
","""event"",""trial"",""time""
""blur"",""0"",""0""
","""event"",""trial"",""time""
""focus"",""0"",""8834""
","""event"",""trial"",""time""
""fullscreenenter"",""0"",""8939""
","
","null","run_exp/static/images/Set 6_rs/129a.jpg","null","","","","","","learn","SL",""
"","html-keyboard-response","9","51264","0.0-9.0","""event"",""trial"",""time""
""blur"",""0"",""0""
""focus"",""0"",""8834""
""fullscreenenter"",""0"",""8939""
","""event"",""trial"",""time""
""blur"",""0"",""0""
","""event"",""trial"",""time""
""focus"",""0"",""8834""
","""event"",""trial"",""time""
""fullscreenenter"",""0"",""8939""
","
","null","<p></p>","null","","","","","","","",""
"","image","10","51828","0.0-10.0","""event"",""trial"",""time""
""blur"",""0"",""0""
""focus"",""0"",""8834""
""fullscreenenter"",""0"",""8939""
","""event"",""trial"",""time""
""blur"",""0"",""0""
","""event"",""trial"",""time""
""focus"",""0"",""8834""
","""event"",""trial"",""time""
""fullscreenenter"",""0"",""8939""
","
","562.2999999523163","run_exp/static/images/Set 6_rs/177a.jpg","78","","","","","","learn","SR",""
"","show_choice","11","53277","0.0-11.0","""event"",""trial"",""time""
""blur"",""0"",""0""
""focus"",""0"",""8834""
""fullscreenenter"",""0"",""8939""
","""event"",""trial"",""time""
""blur"",""0"",""0""
","""event"",""trial"",""time""
""focus"",""0"",""8834""
","""event"",""trial"",""time""
""fullscreenenter"",""0"",""8939""
","
","null","run_exp/static/images/Set 6_rs/177a.jpg","null","","","","","","learn","SR",""
"","html-keyboard-response","12","53782","0.0-12.0","""event"",""trial"",""time""
""blur"",""0"",""0""
""focus"",""0"",""8834""
""fullscreenenter"",""0"",""8939""
","""event"",""trial"",""time""
""blur"",""0"",""0""
","""event"",""trial"",""time""
""focus"",""0"",""8834""
","""event"",""trial"",""time""
""fullscreenenter"",""0"",""8939""
","
","null","<p></p>","null","","","","","","","",""
"","image","13","55015","0.0-13.0","""event"",""trial"",""time""
""blur"",""0"",""0""
""focus"",""0"",""8834""
""fullscreenenter"",""0"",""8939""
","""event"",""trial"",""time""
""blur"",""0"",""0""
","""event"",""trial"",""time""
""focus"",""0"",""8834""
","""event"",""trial"",""time""
""fullscreenenter"",""0"",""8939""
","
","1232.5","run_exp/static/images/Set 6_rs/006a.jpg","86","","","","","","learn","SL",""
"","show_choice","14","55798","0.0-14.0","""event"",""trial"",""time""
""blur"",""0"",""0""
""focus"",""0"",""8834""
""fullscreenenter"",""0"",""8939""
","""event"",""trial"",""time""
""blur"",""0"",""0""
","""event"",""trial"",""time""
""focus"",""0"",""8834""
","""event"",""trial"",""time""
""fullscreenenter"",""0"",""8939""
","
","null","run_exp/static/images/Set 6_rs/006a.jpg","null","","","","","","learn","SL",""
"","html-keyboard-response","15","56306","0.0-15.0","""event"",""trial"",""time""
""blur"",""0"",""0""
""focus"",""0"",""8834""
""fullscreenenter"",""0"",""8939""
","""event"",""trial"",""time""
""blur"",""0"",""0""
","""event"",""trial"",""time""
""focus"",""0"",""8834""
","""event"",""trial"",""time""
""fullscreenenter"",""0"",""8939""
","
","null","<p></p>","null","","","","","","","",""
"","image","16","57066","0.0-16.0","""event"",""trial"",""time""
""blur"",""0"",""0""
""focus"",""0"",""8834""
""fullscreenenter"",""0"",""8939""
","""event"",""trial"",""time""
""blur"",""0"",""0""
","""event"",""trial"",""time""
""focus"",""0"",""8834""
","""event"",""trial"",""time""
""fullscreenenter"",""0"",""8939""
","
","759.2000000476837","run_exp/static/images/Set 6_rs/172a.jpg","78","","","","","","learn","SR",""
"","show_choice","17","58312","0.0-17.0","""event"",""trial"",""time""
""blur"",""0"",""0""
""focus"",""0"",""8834""
""fullscreenenter"",""0"",""8939""
","""event"",""trial"",""time""
""blur"",""0"",""0""
","""event"",""trial"",""time""
""focus"",""0"",""8834""
","""event"",""trial"",""time""
""fullscreenenter"",""0"",""8939""
","
","null","run_exp/static/images/Set 6_rs/172a.jpg","null","","","","","","learn","SR",""
"","html-keyboard-response","18","58814","0.0-18.0","""event"",""trial"",""time""
""blur"",""0"",""0""
""focus"",""0"",""8834""
""fullscreenenter"",""0"",""8939""
","""event"",""trial"",""time""
""blur"",""0"",""0""
","""event"",""trial"",""time""
""focus"",""0"",""8834""
","""event"",""trial"",""time""
""fullscreenenter"",""0"",""8939""
","
","null","<p></p>","null","","","","","","","",""
"","image","19","59613","0.0-19.0","""event"",""trial"",""time""
""blur"",""0"",""0""
""focus"",""0"",""8834""
""fullscreenenter"",""0"",""8939""
","""event"",""trial"",""time""
""blur"",""0"",""0""
","""event"",""trial"",""time""
""focus"",""0"",""8834""
","""event"",""trial"",""time""
""fullscreenenter"",""0"",""8939""
","
","797.7000000476837","run_exp/static/images/Set 6_rs/169a.jpg","78","","","","","","learn","SR",""
"","show_choice","20","60816","0.0-20.0","""event"",""trial"",""time""
""blur"",""0"",""0""
""focus"",""0"",""8834""
""fullscreenenter"",""0"",""8939""
","""event"",""trial"",""time""
""blur"",""0"",""0""
","""event"",""trial"",""time""
""focus"",""0"",""8834""
","""event"",""trial"",""time""
""fullscreenenter"",""0"",""8939""
","
","null","run_exp/static/images/Set 6_rs/169a.jpg","null","","","","","","learn","SR",""
"","html-keyboard-response","21","61323","0.0-21.0","""event"",""trial"",""time""
""blur"",""0"",""0""
""focus"",""0"",""8834""
""fullscreenenter"",""0"",""8939""
","""event"",""trial"",""time""
""blur"",""0"",""0""
","""event"",""trial"",""time""
""focus"",""0"",""8834""
","""event"",""trial"",""time""
""fullscreenenter"",""0"",""8939""
","
","null","<p></p>","null","","","","","","","",""
"","image","22","62108","0.0-22.0","""event"",""trial"",""time""
""blur"",""0"",""0""
""focus"",""0"",""8834""
""fullscreenenter"",""0"",""8939""
","""event"",""trial"",""time""
""blur"",""0"",""0""
","""event"",""trial"",""time""
""focus"",""0"",""8834""
","""event"",""trial"",""time""
""fullscreenenter"",""0"",""8939""
","
","783.6999998092651","run_exp/static/images/Set 6_rs/116a.jpg","86","","","","","","learn","SL",""
"","show_choice","23","63336","0.0-23.0","""event"",""trial"",""time""
""blur"",""0"",""0""
""focus"",""0"",""8834""
""fullscreenenter"",""0"",""8939""
","""event"",""trial"",""time""
""blur"",""0"",""0""
","""event"",""trial"",""time""
""focus"",""0"",""8834""
","""event"",""trial"",""time""
""fullscreenenter"",""0"",""8939""
","
","null","run_exp/static/images/Set 6_rs/116a.jpg","null","","","","","","learn","SL",""
"","html-keyboard-response","24","63848","0.0-24.0","""event"",""trial"",""time""
""blur"",""0"",""0""
""focus"",""0"",""8834""
""fullscreenenter"",""0"",""8939""
","""event"",""trial"",""time""
""blur"",""0"",""0""
","""event"",""trial"",""time""
""focus"",""0"",""8834""
","""event"",""trial"",""time""
""fullscreenenter"",""0"",""8939""
","
","null","<p></p>","null","","","","","","","",""
"","image","25","64519","0.0-25.0","""event"",""trial"",""time""
""blur"",""0"",""0""
""focus"",""0"",""8834""
""fullscreenenter"",""0"",""8939""
","""event"",""trial"",""time""
""blur"",""0"",""0""
","""event"",""trial"",""time""
""focus"",""0"",""8834""
","""event"",""trial"",""time""
""fullscreenenter"",""0"",""8939""
","
","669.8999998569489","run_exp/static/images/Set 6_rs/064a.jpg","78","","","","","","learn","SR",""
"","show_choice","26","65860","0.0-26.0","""event"",""trial"",""time""
""blur"",""0"",""0""
""focus"",""0"",""8834""
""fullscreenenter"",""0"",""8939""
","""event"",""trial"",""time""
""blur"",""0"",""0""
","""event"",""trial"",""time""
""focus"",""0"",""8834""
","""event"",""trial"",""time""
""fullscreenenter"",""0"",""8939""
","
","null","run_exp/static/images/Set 6_rs/064a.jpg","null","","","","","","learn","SR",""
"","html-keyboard-response","27","66364","0.0-27.0","""event"",""trial"",""time""
""blur"",""0"",""0""
""focus"",""0"",""8834""
""fullscreenenter"",""0"",""8939""
","""event"",""trial"",""time""
""blur"",""0"",""0""
","""event"",""trial"",""time""
""focus"",""0"",""8834""
","""event"",""trial"",""time""
""fullscreenenter"",""0"",""8939""
","
","null","<p></p>","null","","","","","","","",""
"","image","28","67211","0.0-28.0","""event"",""trial"",""time""
""blur"",""0"",""0""
""focus"",""0"",""8834""
""fullscreenenter"",""0"",""8939""
","""event"",""trial"",""time""
""blur"",""0"",""0""
","""event"",""trial"",""time""
""focus"",""0"",""8834""
","""event"",""trial"",""time""
""fullscreenenter"",""0"",""8939""
","
","845.9000000953674","run_exp/static/images/Set 6_rs/016a.jpg","86","","","","","","learn","SL",""
"","show_choice","29","68380","0.0-29.0","""event"",""trial"",""time""
""blur"",""0"",""0""
""focus"",""0"",""8834""
""fullscreenenter"",""0"",""8939""
","""event"",""trial"",""time""
""blur"",""0"",""0""
","""event"",""trial"",""time""
""focus"",""0"",""8834""
","""event"",""trial"",""time""
""fullscreenenter"",""0"",""8939""
","
","null","run_exp/static/images/Set 6_rs/016a.jpg","null","","","","","","learn","SL",""
"","html-keyboard-response","30","68882","0.0-30.0","""event"",""trial"",""time""
""blur"",""0"",""0""
""focus"",""0"",""8834""
""fullscreenenter"",""0"",""8939""
","""event"",""trial"",""time""
""blur"",""0"",""0""
","""event"",""trial"",""time""
""focus"",""0"",""8834""
","""event"",""trial"",""time""
""fullscreenenter"",""0"",""8939""
","
","null","<p></p>","null","","","","","","","",""
"","image","31","69672","0.0-31.0","""event"",""trial"",""time""
""blur"",""0"",""0""
""focus"",""0"",""8834""
""fullscreenenter"",""0"",""8939""
","""event"",""trial"",""time""
""blur"",""0"",""0""
","""event"",""trial"",""time""
""focus"",""0"",""8834""
","""event"",""trial"",""time""
""fullscreenenter"",""0"",""8939""
","
","789.9000000953674","run_exp/static/images/Set 6_rs/095a.jpg","86","","","","","","learn","SL",""
"","show_choice","32","70899","0.0-32.0","""event"",""trial"",""time""
""blur"",""0"",""0""
""focus"",""0"",""8834""
""fullscreenenter"",""0"",""8939""
","""event"",""trial"",""time""
""blur"",""0"",""0""
","""event"",""trial"",""time""
""focus"",""0"",""8834""
","""event"",""trial"",""time""
""fullscreenenter"",""0"",""8939""
","
","null","run_exp/static/images/Set 6_rs/095a.jpg","null","","","","","","learn","SL",""
"","html-keyboard-response","33","71404","0.0-33.0","""event"",""trial"",""time""
""blur"",""0"",""0""
""focus"",""0"",""8834""
""fullscreenenter"",""0"",""8939""
","""event"",""trial"",""time""
""blur"",""0"",""0""
","""event"",""trial"",""time""
""focus"",""0"",""8834""
","""event"",""trial"",""time""
""fullscreenenter"",""0"",""8939""
","
","null","<p></p>","null","","","","","","","",""
"","image","34","72453","0.0-34.0","""event"",""trial"",""time""
""blur"",""0"",""0""
""focus"",""0"",""8834""
""fullscreenenter"",""0"",""8939""
","""event"",""trial"",""time""
""blur"",""0"",""0""
","""event"",""trial"",""time""
""focus"",""0"",""8834""
","""event"",""trial"",""time""
""fullscreenenter"",""0"",""8939""
","
","1047.7000000476837","run_exp/static/images/Set 6_rs/126a.jpg","78","","","","","","learn","SR",""
"","show_choice","35","73413","0.0-35.0","""event"",""trial"",""time""
""blur"",""0"",""0""
""focus"",""0"",""8834""
""fullscreenenter"",""0"",""8939""
","""event"",""trial"",""time""
""blur"",""0"",""0""
","""event"",""trial"",""time""
""focus"",""0"",""8834""
","""event"",""trial"",""time""
""fullscreenenter"",""0"",""8939""
","
","null","run_exp/static/images/Set 6_rs/126a.jpg","null","","","","","","learn","SR",""
"","html-keyboard-response","36","73917","0.0-36.0","""event"",""trial"",""time""
""blur"",""0"",""0""
""focus"",""0"",""8834""
""fullscreenenter"",""0"",""8939""
","""event"",""trial"",""time""
""blur"",""0"",""0""
","""event"",""trial"",""time""
""focus"",""0"",""8834""
","""event"",""trial"",""time""
""fullscreenenter"",""0"",""8939""
","
","null","<p></p>","null","","","","","","","",""
"","image","37","75059","0.0-37.0","""event"",""trial"",""time""
""blur"",""0"",""0""
""focus"",""0"",""8834""
""fullscreenenter"",""0"",""8939""
","""event"",""trial"",""time""
""blur"",""0"",""0""
","""event"",""trial"",""time""
""focus"",""0"",""8834""
","""event"",""trial"",""time""
""fullscreenenter"",""0"",""8939""
","
","1141.0999999046326","run_exp/static/images/Set 6_rs/045a.jpg","86","","","","","","learn","SR",""
"","show_choice","38","75927","0.0-38.0","""event"",""trial"",""time""
""blur"",""0"",""0""
""focus"",""0"",""8834""
""fullscreenenter"",""0"",""8939""
","""event"",""trial"",""time""
""blur"",""0"",""0""
","""event"",""trial"",""time""
""focus"",""0"",""8834""
","""event"",""trial"",""time""
""fullscreenenter"",""0"",""8939""
","
","null","run_exp/static/images/Set 6_rs/045a.jpg","null","","","","","","learn","SR",""
"","html-keyboard-response","39","76434","0.0-39.0","""event"",""trial"",""time""
""blur"",""0"",""0""
""focus"",""0"",""8834""
""fullscreenenter"",""0"",""8939""
","""event"",""trial"",""time""
""blur"",""0"",""0""
","""event"",""trial"",""time""
""focus"",""0"",""8834""
","""event"",""trial"",""time""
""fullscreenenter"",""0"",""8939""
","
","null","<p></p>","null","","","","","","","",""
"","image","40","78444","0.0-40.0","""event"",""trial"",""time""
""blur"",""0"",""0""
""focus"",""0"",""8834""
""fullscreenenter"",""0"",""8939""
","""event"",""trial"",""time""
""blur"",""0"",""0""
","""event"",""trial"",""time""
""focus"",""0"",""8834""
","""event"",""trial"",""time""
""fullscreenenter"",""0"",""8939""
","
","null","run_exp/static/images/Set 6_rs/187a.jpg","null","","","","","","learn","SR",""
"","show_choice","41","80445","0.0-41.0","""event"",""trial"",""time""
""blur"",""0"",""0""
""focus"",""0"",""8834""
""fullscreenenter"",""0"",""8939""
","""event"",""trial"",""time""
""blur"",""0"",""0""
","""event"",""trial"",""time""
""focus"",""0"",""8834""
","""event"",""trial"",""time""
""fullscreenenter"",""0"",""8939""
","
","null","run_exp/static/images/blank.png","null","","","","","","learn","SR",""
"","html-keyboard-response","42","80946","0.0-42.0","""event"",""trial"",""time""
""blur"",""0"",""0""
""focus"",""0"",""8834""
""fullscreenenter"",""0"",""8939""
","""event"",""trial"",""time""
""blur"",""0"",""0""
","""event"",""trial"",""time""
""focus"",""0"",""8834""
","""event"",""trial"",""time""
""fullscreenenter"",""0"",""8939""
","
","null","<p></p>","null","","","","","","","",""
"","image","43","81795","0.0-43.0","""event"",""trial"",""time""
""blur"",""0"",""0""
""focus"",""0"",""8834""
""fullscreenenter"",""0"",""8939""
","""event"",""trial"",""time""
""blur"",""0"",""0""
","""event"",""trial"",""time""
""focus"",""0"",""8834""
","""event"",""trial"",""time""
""fullscreenenter"",""0"",""8939""
","
","847.9000000953674","run_exp/static/images/Set 6_rs/123a.jpg","78","","","","","","learn","SL",""
"","show_choice","44","82955","0.0-44.0","""event"",""trial"",""time""
""blur"",""0"",""0""
""focus"",""0"",""8834""
""fullscreenenter"",""0"",""8939""
","""event"",""trial"",""time""
""blur"",""0"",""0""
","""event"",""trial"",""time""
""focus"",""0"",""8834""
","""event"",""trial"",""time""
""fullscreenenter"",""0"",""8939""
","
","null","run_exp/static/images/Set 6_rs/123a.jpg","null","","","","","","learn","SL",""
"","html-keyboard-response","45","83463","0.0-45.0","""event"",""trial"",""time""
""blur"",""0"",""0""
""focus"",""0"",""8834""
""fullscreenenter"",""0"",""8939""
","""event"",""trial"",""time""
""blur"",""0"",""0""
","""event"",""trial"",""time""
""focus"",""0"",""8834""
","""event"",""trial"",""time""
""fullscreenenter"",""0"",""8939""
","
","null","<p></p>","null","","","","","","","",""
"","image","46","84516","0.0-46.0","""event"",""trial"",""time""
""blur"",""0"",""0""
""focus"",""0"",""8834""
""fullscreenenter"",""0"",""8939""
","""event"",""trial"",""time""
""blur"",""0"",""0""
","""event"",""trial"",""time""
""focus"",""0"",""8834""
","""event"",""trial"",""time""
""fullscreenenter"",""0"",""8939""
","
","1052.5","run_exp/static/images/Set 6_rs/075a.jpg","86","","","","","","learn","SR",""
"","show_choice","47","85473","0.0-47.0","""event"",""trial"",""time""
""blur"",""0"",""0""
""focus"",""0"",""8834""
""fullscreenenter"",""0"",""8939""
","""event"",""trial"",""time""
""blur"",""0"",""0""
","""event"",""trial"",""time""
""focus"",""0"",""8834""
","""event"",""trial"",""time""
""fullscreenenter"",""0"",""8939""
","
","null","run_exp/static/images/Set 6_rs/075a.jpg","null","","","","","","learn","SR",""
"","html-keyboard-response","48","85979","0.0-48.0","""event"",""trial"",""time""
""blur"",""0"",""0""
""focus"",""0"",""8834""
""fullscreenenter"",""0"",""8939""
","""event"",""trial"",""time""
""blur"",""0"",""0""
","""event"",""trial"",""time""
""focus"",""0"",""8834""
","""event"",""trial"",""time""
""fullscreenenter"",""0"",""8939""
","
","null","<p></p>","null","","","","","","","",""
"","image","49","87080","0.0-49.0","""event"",""trial"",""time""
""blur"",""0"",""0""
""focus"",""0"",""8834""
""fullscreenenter"",""0"",""8939""
","""event"",""trial"",""time""
""blur"",""0"",""0""
","""event"",""trial"",""time""
""focus"",""0"",""8834""
","""event"",""trial"",""time""
""fullscreenenter"",""0"",""8939""
","
","1100.7999999523163","run_exp/static/images/Set 6_rs/122a.jpg","86","","","","","","learn","SR",""
"","show_choice","50","87984","0.0-50.0","""event"",""trial"",""time""
""blur"",""0"",""0""
""focus"",""0"",""8834""
""fullscreenenter"",""0"",""8939""
","""event"",""trial"",""time""
""blur"",""0"",""0""
","""event"",""trial"",""time""
""focus"",""0"",""8834""
","""event"",""trial"",""time""
""fullscreenenter"",""0"",""8939""
","
","null","run_exp/static/images/Set 6_rs/122a.jpg","null","","","","","","learn","SR",""
"","html-keyboard-response","51","88488","0.0-51.0","""event"",""trial"",""time""
""blur"",""0"",""0""
""focus"",""0"",""8834""
""fullscreenenter"",""0"",""8939""
","""event"",""trial"",""time""
""blur"",""0"",""0""
","""event"",""trial"",""time""
""focus"",""0"",""8834""
","""event"",""trial"",""time""
""fullscreenenter"",""0"",""8939""
","
","null","<p></p>","null","","","","","","","",""
"","image","52","89231","0.0-52.0","""event"",""trial"",""time""
""blur"",""0"",""0""
""focus"",""0"",""8834""
""fullscreenenter"",""0"",""8939""
","""event"",""trial"",""time""
""blur"",""0"",""0""
","""event"",""trial"",""time""
""focus"",""0"",""8834""
","""event"",""trial"",""time""
""fullscreenenter"",""0"",""8939""
","
","742.1999998092651","run_exp/static/images/Set 6_rs/014a.jpg","86","","","","","","learn","SL",""
"","show_choice","53","90494","0.0-53.0","""event"",""trial"",""time""
""blur"",""0"",""0""
""focus"",""0"",""8834""
""fullscreenenter"",""0"",""8939""
","""event"",""trial"",""time""
""blur"",""0"",""0""
","""event"",""trial"",""time""
""focus"",""0"",""8834""
","""event"",""trial"",""time""
""fullscreenenter"",""0"",""8939""
","
","null","run_exp/static/images/Set 6_rs/014a.jpg","null","","","","","","learn","SL",""
"","html-keyboard-response","54","91002","0.0-54.0","""event"",""trial"",""time""
""blur"",""0"",""0""
""focus"",""0"",""8834""
""fullscreenenter"",""0"",""8939""
","""event"",""trial"",""time""
""blur"",""0"",""0""
","""event"",""trial"",""time""
""focus"",""0"",""8834""
","""event"",""trial"",""time""
""fullscreenenter"",""0"",""8939""
","
","null","<p></p>","null","","","","","","","",""
"","image","55","92007","0.0-55.0","""event"",""trial"",""time""
""blur"",""0"",""0""
""focus"",""0"",""8834""
""fullscreenenter"",""0"",""8939""
","""event"",""trial"",""time""
""blur"",""0"",""0""
","""event"",""trial"",""time""
""focus"",""0"",""8834""
","""event"",""trial"",""time""
""fullscreenenter"",""0"",""8939""
","
","1003.8999998569489","run_exp/static/images/Set 6_rs/166a.jpg","78","","","","","","learn","SR",""
"","show_choice","56","93016","0.0-56.0","""event"",""trial"",""time""
""blur"",""0"",""0""
""focus"",""0"",""8834""
""fullscreenenter"",""0"",""8939""
","""event"",""trial"",""time""
""blur"",""0"",""0""
","""event"",""trial"",""time""
""focus"",""0"",""8834""
","""event"",""trial"",""time""
""fullscreenenter"",""0"",""8939""
","
","null","run_exp/static/images/Set 6_rs/166a.jpg","null","","","","","","learn","SR",""
"","html-keyboard-response","57","93530","0.0-57.0","""event"",""trial"",""time""
""blur"",""0"",""0""
""focus"",""0"",""8834""
""fullscreenenter"",""0"",""8939""
","""event"",""trial"",""time""
""blur"",""0"",""0""
","""event"",""trial"",""time""
""focus"",""0"",""8834""
","""event"",""trial"",""time""
""fullscreenenter"",""0"",""8939""
","
","null","<p></p>","null","","","","","","","",""
"","image","58","94445","0.0-58.0","""event"",""trial"",""time""
""blur"",""0"",""0""
""focus"",""0"",""8834""
""fullscreenenter"",""0"",""8939""
","""event"",""trial"",""time""
""blur"",""0"",""0""
","""event"",""trial"",""time""
""focus"",""0"",""8834""
","""event"",""trial"",""time""
""fullscreenenter"",""0"",""8939""
","
","914.0999999046326","run_exp/static/images/Set 6_rs/070a.jpg","86","","","","","","learn","SR",""
"","show_choice","59","95538","0.0-59.0","""event"",""trial"",""time""
""blur"",""0"",""0""
""focus"",""0"",""8834""
""fullscreenenter"",""0"",""8939""
","""event"",""trial"",""time""
""blur"",""0"",""0""
","""event"",""trial"",""time""
""focus"",""0"",""8834""
","""event"",""trial"",""time""
""fullscreenenter"",""0"",""8939""
","
","null","run_exp/static/images/Set 6_rs/070a.jpg","null","","","","","","learn","SR",""
"","html-keyboard-response","60","96043","0.0-60.0","""event"",""trial"",""time""
""blur"",""0"",""0""
""focus"",""0"",""8834""
""fullscreenenter"",""0"",""8939""
","""event"",""trial"",""time""
""blur"",""0"",""0""
","""event"",""trial"",""time""
""focus"",""0"",""8834""
","""event"",""trial"",""time""
""fullscreenenter"",""0"",""8939""
","
","null","<p></p>","null","","","","","","","",""
"","image","61","96746","0.0-61.0","""event"",""trial"",""time""
""blur"",""0"",""0""
""focus"",""0"",""8834""
""fullscreenenter"",""0"",""8939""
","""event"",""trial"",""time""
""blur"",""0"",""0""
","""event"",""trial"",""time""
""focus"",""0"",""8834""
","""event"",""trial"",""time""
""fullscreenenter"",""0"",""8939""
","
","702.1000001430511","run_exp/static/images/Set 6_rs/073a.jpg","86","","","","","","learn","SL",""
"","show_choice","62","98052","0.0-62.0","""event"",""trial"",""time""
""blur"",""0"",""0""
""focus"",""0"",""8834""
""fullscreenenter"",""0"",""8939""
","""event"",""trial"",""time""
""blur"",""0"",""0""
","""event"",""trial"",""time""
""focus"",""0"",""8834""
","""event"",""trial"",""time""
""fullscreenenter"",""0"",""8939""
","
","null","run_exp/static/images/Set 6_rs/073a.jpg","null","","","","","","learn","SL",""
"","html-keyboard-response","63","98566","0.0-63.0","""event"",""trial"",""time""
""blur"",""0"",""0""
""focus"",""0"",""8834""
""fullscreenenter"",""0"",""8939""
","""event"",""trial"",""time""
""blur"",""0"",""0""
","""event"",""trial"",""time""
""focus"",""0"",""8834""
","""event"",""trial"",""time""
""fullscreenenter"",""0"",""8939""
","
","null","<p></p>","null","","","","","","","",""
"","image","64","99337","0.0-64.0","""event"",""trial"",""time""
""blur"",""0"",""0""
""focus"",""0"",""8834""
""fullscreenenter"",""0"",""8939""
","""event"",""trial"",""time""
""blur"",""0"",""0""
","""event"",""trial"",""time""
""focus"",""0"",""8834""
","""event"",""trial"",""time""
""fullscreenenter"",""0"",""8939""
","
","770.5","run_exp/static/images/Set 6_rs/007a.jpg","86","","","","","","learn","SR",""
"","show_choice","65","100571","0.0-65.0","""event"",""trial"",""time""
""blur"",""0"",""0""
""focus"",""0"",""8834""
""fullscreenenter"",""0"",""8939""
","""event"",""trial"",""time""
""blur"",""0"",""0""
","""event"",""trial"",""time""
""focus"",""0"",""8834""
","""event"",""trial"",""time""
""fullscreenenter"",""0"",""8939""
","
","null","run_exp/static/images/Set 6_rs/007a.jpg","null","","","","","","learn","SR",""
"","html-keyboard-response","66","101079","0.0-66.0","""event"",""trial"",""time""
""blur"",""0"",""0""
""focus"",""0"",""8834""
""fullscreenenter"",""0"",""8939""
","""event"",""trial"",""time""
""blur"",""0"",""0""
","""event"",""trial"",""time""
""focus"",""0"",""8834""
","""event"",""trial"",""time""
""fullscreenenter"",""0"",""8939""
","
","null","<p></p>","null","","","","","","","",""
"","image","67","101610","0.0-67.0","""event"",""trial"",""time""
""blur"",""0"",""0""
""focus"",""0"",""8834""
""fullscreenenter"",""0"",""8939""
","""event"",""trial"",""time""
""blur"",""0"",""0""
","""event"",""trial"",""time""
""focus"",""0"",""8834""
","""event"",""trial"",""time""
""fullscreenenter"",""0"",""8939""
","
","529.5999999046326","run_exp/static/images/Set 6_rs/017a.jpg","78","","","","","","learn","SL",""
"","show_choice","68","103081","0.0-68.0","""event"",""trial"",""time""
""blur"",""0"",""0""
""focus"",""0"",""8834""
""fullscreenenter"",""0"",""8939""
","""event"",""trial"",""time""
""blur"",""0"",""0""
","""event"",""trial"",""time""
""focus"",""0"",""8834""
","""event"",""trial"",""time""
""fullscreenenter"",""0"",""8939""
","
","null","run_exp/static/images/Set 6_rs/017a.jpg","null","","","","","","learn","SL",""
"","html-keyboard-response","69","103582","0.0-69.0","""event"",""trial"",""time""
""blur"",""0"",""0""
""focus"",""0"",""8834""
""fullscreenenter"",""0"",""8939""
","""event"",""trial"",""time""
""blur"",""0"",""0""
","""event"",""trial"",""time""
""focus"",""0"",""8834""
","""event"",""trial"",""time""
""fullscreenenter"",""0"",""8939""
","
","null","<p></p>","null","","","","","","","",""
"","image","70","104419","0.0-70.0","""event"",""trial"",""time""
""blur"",""0"",""0""
""focus"",""0"",""8834""
""fullscreenenter"",""0"",""8939""
","""event"",""trial"",""time""
""blur"",""0"",""0""
","""event"",""trial"",""time""
""focus"",""0"",""8834""
","""event"",""trial"",""time""
""fullscreenenter"",""0"",""8939""
","
","835.4000000953674","run_exp/static/images/Set 6_rs/150a.jpg","86","","","","","","learn","SR",""
"","show_choice","71","105585","0.0-71.0","""event"",""trial"",""time""
""blur"",""0"",""0""
""focus"",""0"",""8834""
""fullscreenenter"",""0"",""8939""
","""event"",""trial"",""time""
""blur"",""0"",""0""
","""event"",""trial"",""time""
""focus"",""0"",""8834""
","""event"",""trial"",""time""
""fullscreenenter"",""0"",""8939""
","
","null","run_exp/static/images/Set 6_rs/150a.jpg","null","","","","","","learn","SR",""
"","html-keyboard-response","72","106086","0.0-72.0","""event"",""trial"",""time""
""blur"",""0"",""0""
""focus"",""0"",""8834""
""fullscreenenter"",""0"",""8939""
","""event"",""trial"",""time""
""blur"",""0"",""0""
","""event"",""trial"",""time""
""focus"",""0"",""8834""
","""event"",""trial"",""time""
""fullscreenenter"",""0"",""8939""
","
","null","<p></p>","null","","","","","","","",""
"","image","73","107129","0.0-73.0","""event"",""trial"",""time""
""blur"",""0"",""0""
""focus"",""0"",""8834""
""fullscreenenter"",""0"",""8939""
","""event"",""trial"",""time""
""blur"",""0"",""0""
","""event"",""trial"",""time""
""focus"",""0"",""8834""
","""event"",""trial"",""time""
""fullscreenenter"",""0"",""8939""
","
","1042.0999999046326","run_exp/static/images/Set 6_rs/167a.jpg","86","","","","","","learn","SL",""
"","show_choice","74","108098","0.0-74.0","""event"",""trial"",""time""
""blur"",""0"",""0""
""focus"",""0"",""8834""
""fullscreenenter"",""0"",""8939""
","""event"",""trial"",""time""
""blur"",""0"",""0""
","""event"",""trial"",""time""
""focus"",""0"",""8834""
","""event"",""trial"",""time""
""fullscreenenter"",""0"",""8939""
","
","null","run_exp/static/images/Set 6_rs/167a.jpg","null","","","","","","learn","SL",""
"","html-keyboard-response","75","108605","0.0-75.0","""event"",""trial"",""time""
""blur"",""0"",""0""
""focus"",""0"",""8834""
""fullscreenenter"",""0"",""8939""
","""event"",""trial"",""time""
""blur"",""0"",""0""
","""event"",""trial"",""time""
""focus"",""0"",""8834""
","""event"",""trial"",""time""
""fullscreenenter"",""0"",""8939""
","
","null","<p></p>","null","","","","","","","",""
"","image","76","109705","0.0-76.0","""event"",""trial"",""time""
""blur"",""0"",""0""
""focus"",""0"",""8834""
""fullscreenenter"",""0"",""8939""
","""event"",""trial"",""time""
""blur"",""0"",""0""
","""event"",""trial"",""time""
""focus"",""0"",""8834""
","""event"",""trial"",""time""
""fullscreenenter"",""0"",""8939""
","
","1099.8999998569489","run_exp/static/images/Set 6_rs/121a.jpg","86","","","","","","learn","SR",""
"","show_choice","77","110606","0.0-77.0","""event"",""trial"",""time""
""blur"",""0"",""0""
""focus"",""0"",""8834""
""fullscreenenter"",""0"",""8939""
","""event"",""trial"",""time""
""blur"",""0"",""0""
","""event"",""trial"",""time""
""focus"",""0"",""8834""
","""event"",""trial"",""time""
""fullscreenenter"",""0"",""8939""
","
","null","run_exp/static/images/Set 6_rs/121a.jpg","null","","","","","","learn","SR",""
"","html-keyboard-response","78","111107","0.0-78.0","""event"",""trial"",""time""
""blur"",""0"",""0""
""focus"",""0"",""8834""
""fullscreenenter"",""0"",""8939""
","""event"",""trial"",""time""
""blur"",""0"",""0""
","""event"",""trial"",""time""
""focus"",""0"",""8834""
","""event"",""trial"",""time""
""fullscreenenter"",""0"",""8939""
","
","null","<p></p>","null","","","","","","","",""
"","image","79","111992","0.0-79.0","""event"",""trial"",""time""
""blur"",""0"",""0""
""focus"",""0"",""8834""
""fullscreenenter"",""0"",""8939""
","""event"",""trial"",""time""
""blur"",""0"",""0""
","""event"",""trial"",""time""
""focus"",""0"",""8834""
","""event"",""trial"",""time""
""fullscreenenter"",""0"",""8939""
","
","884.1000001430511","run_exp/static/images/Set 6_rs/141a.jpg","78","","","","","","learn","SR",""
"","show_choice","80","113109","0.0-80.0","""event"",""trial"",""time""
""blur"",""0"",""0""
""focus"",""0"",""8834""
""fullscreenenter"",""0"",""8939""
","""event"",""trial"",""time""
""blur"",""0"",""0""
","""event"",""trial"",""time""
""focus"",""0"",""8834""
","""event"",""trial"",""time""
""fullscreenenter"",""0"",""8939""
","
","null","run_exp/static/images/Set 6_rs/141a.jpg","null","","","","","","learn","SR",""
"","html-keyboard-response","81","113611","0.0-81.0","""event"",""trial"",""time""
""blur"",""0"",""0""
""focus"",""0"",""8834""
""fullscreenenter"",""0"",""8939""
","""event"",""trial"",""time""
""blur"",""0"",""0""
","""event"",""trial"",""time""
""focus"",""0"",""8834""
","""event"",""trial"",""time""
""fullscreenenter"",""0"",""8939""
","
","null","<p></p>","null","","","","","","","",""
"","image","82","115024","0.0-82.0","""event"",""trial"",""time""
""blur"",""0"",""0""
""focus"",""0"",""8834""
""fullscreenenter"",""0"",""8939""
","""event"",""trial"",""time""
""blur"",""0"",""0""
","""event"",""trial"",""time""
""focus"",""0"",""8834""
","""event"",""trial"",""time""
""fullscreenenter"",""0"",""8939""
","
","1412.5999999046326","run_exp/static/images/Set 6_rs/191a.jpg","78","","","","","","learn","SL",""
"","show_choice","83","115623","0.0-83.0","""event"",""trial"",""time""
""blur"",""0"",""0""
""focus"",""0"",""8834""
""fullscreenenter"",""0"",""8939""
","""event"",""trial"",""time""
""blur"",""0"",""0""
","""event"",""trial"",""time""
""focus"",""0"",""8834""
","""event"",""trial"",""time""
""fullscreenenter"",""0"",""8939""
","
","null","run_exp/static/images/Set 6_rs/191a.jpg","null","","","","","","learn","SL",""
"","html-keyboard-response","84","116133","0.0-84.0","""event"",""trial"",""time""
""blur"",""0"",""0""
""focus"",""0"",""8834""
""fullscreenenter"",""0"",""8939""
","""event"",""trial"",""time""
""blur"",""0"",""0""
","""event"",""trial"",""time""
""focus"",""0"",""8834""
","""event"",""trial"",""time""
""fullscreenenter"",""0"",""8939""
","
","null","<p></p>","null","","","","","","","",""
"","image","85","116933","0.0-85.0","""event"",""trial"",""time""
""blur"",""0"",""0""
""focus"",""0"",""8834""
""fullscreenenter"",""0"",""8939""
","""event"",""trial"",""time""
""blur"",""0"",""0""
","""event"",""trial"",""time""
""focus"",""0"",""8834""
","""event"",""trial"",""time""
""fullscreenenter"",""0"",""8939""
","
","799.7999999523163","run_exp/static/images/Set 6_rs/112a.jpg","86","","","","","","learn","SR",""
"","show_choice","86","118141","0.0-86.0","""event"",""trial"",""time""
""blur"",""0"",""0""
""focus"",""0"",""8834""
""fullscreenenter"",""0"",""8939""
","""event"",""trial"",""time""
""blur"",""0"",""0""
","""event"",""trial"",""time""
""focus"",""0"",""8834""
","""event"",""trial"",""time""
""fullscreenenter"",""0"",""8939""
","
","null","run_exp/static/images/Set 6_rs/112a.jpg","null","","","","","","learn","SR",""
"","html-keyboard-response","87","118649","0.0-87.0","""event"",""trial"",""time""
""blur"",""0"",""0""
""focus"",""0"",""8834""
""fullscreenenter"",""0"",""8939""
","""event"",""trial"",""time""
""blur"",""0"",""0""
","""event"",""trial"",""time""
""focus"",""0"",""8834""
","""event"",""trial"",""time""
""fullscreenenter"",""0"",""8939""
","
","null","<p></p>","null","","","","","","","",""
"","image","88","120439","0.0-88.0","""event"",""trial"",""time""
""blur"",""0"",""0""
""focus"",""0"",""8834""
""fullscreenenter"",""0"",""8939""
","""event"",""trial"",""time""
""blur"",""0"",""0""
","""event"",""trial"",""time""
""focus"",""0"",""8834""
","""event"",""trial"",""time""
""fullscreenenter"",""0"",""8939""
","
","1788.7999999523163","run_exp/static/images/Set 6_rs/168a.jpg","86","","","","","","learn","SL",""
"","show_choice","89","120654","0.0-89.0","""event"",""trial"",""time""
""blur"",""0"",""0""
""focus"",""0"",""8834""
""fullscreenenter"",""0"",""8939""
","""event"",""trial"",""time""
""blur"",""0"",""0""
","""event"",""trial"",""time""
""focus"",""0"",""8834""
","""event"",""trial"",""time""
""fullscreenenter"",""0"",""8939""
","
","null","run_exp/static/images/Set 6_rs/168a.jpg","null","","","","","","learn","SL",""
"","html-keyboard-response","90","121160","0.0-90.0","""event"",""trial"",""time""
""blur"",""0"",""0""
""focus"",""0"",""8834""
""fullscreenenter"",""0"",""8939""
","""event"",""trial"",""time""
""blur"",""0"",""0""
","""event"",""trial"",""time""
""focus"",""0"",""8834""
","""event"",""trial"",""time""
""fullscreenenter"",""0"",""8939""
","
","null","<p></p>","null","","","","","","","",""
"","image","91","122227","0.0-91.0","""event"",""trial"",""time""
""blur"",""0"",""0""
""focus"",""0"",""8834""
""fullscreenenter"",""0"",""8939""
","""event"",""trial"",""time""
""blur"",""0"",""0""
","""event"",""trial"",""time""
""focus"",""0"",""8834""
","""event"",""trial"",""time""
""fullscreenenter"",""0"",""8939""
","
","1066.5","run_exp/static/images/Set 6_rs/178a.jpg","78","","","","","","learn","SR",""
"","show_choice","92","123173","0.0-92.0","""event"",""trial"",""time""
""blur"",""0"",""0""
""focus"",""0"",""8834""
""fullscreenenter"",""0"",""8939""
","""event"",""trial"",""time""
""blur"",""0"",""0""
","""event"",""trial"",""time""
""focus"",""0"",""8834""
","""event"",""trial"",""time""
""fullscreenenter"",""0"",""8939""
","
","null","run_exp/static/images/Set 6_rs/178a.jpg","null","","","","","","learn","SR",""
"","html-keyboard-response","93","123678","0.0-93.0","""event"",""trial"",""time""
""blur"",""0"",""0""
""focus"",""0"",""8834""
""fullscreenenter"",""0"",""8939""
","""event"",""trial"",""time""
""blur"",""0"",""0""
","""event"",""trial"",""time""
""focus"",""0"",""8834""
","""event"",""trial"",""time""
""fullscreenenter"",""0"",""8939""
","
","null","<p></p>","null","","","","","","","",""
"","image","94","125691","0.0-94.0","""event"",""trial"",""time""
""blur"",""0"",""0""
""focus"",""0"",""8834""
""fullscreenenter"",""0"",""8939""
","""event"",""trial"",""time""
""blur"",""0"",""0""
","""event"",""trial"",""time""
""focus"",""0"",""8834""
","""event"",""trial"",""time""
""fullscreenenter"",""0"",""8939""
","
","null","run_exp/static/images/Set 6_rs/132a.jpg","null","","","","","","learn","SR",""
"","show_choice","95","127691","0.0-95.0","""event"",""trial"",""time""
""blur"",""0"",""0""
""focus"",""0"",""8834""
""fullscreenenter"",""0"",""8939""
","""event"",""trial"",""time""
""blur"",""0"",""0""
","""event"",""trial"",""time""
""focus"",""0"",""8834""
","""event"",""trial"",""time""
""fullscreenenter"",""0"",""8939""
","
","null","run_exp/static/images/blank.png","null","","","","","","learn","SR",""
"","html-keyboard-response","96","128196","0.0-96.0","""event"",""trial"",""time""
""blur"",""0"",""0""
""focus"",""0"",""8834""
""fullscreenenter"",""0"",""8939""
","""event"",""trial"",""time""
""blur"",""0"",""0""
","""event"",""trial"",""time""
""focus"",""0"",""8834""
","""event"",""trial"",""time""
""fullscreenenter"",""0"",""8939""
","
","null","<p></p>","null","","","","","","","",""
"","image","97","128945","0.0-97.0","""event"",""trial"",""time""
""blur"",""0"",""0""
""focus"",""0"",""8834""
""fullscreenenter"",""0"",""8939""
","""event"",""trial"",""time""
""blur"",""0"",""0""
","""event"",""trial"",""time""
""focus"",""0"",""8834""
","""event"",""trial"",""time""
""fullscreenenter"",""0"",""8939""
","
","747.3999998569489","run_exp/static/images/Set 6_rs/062a.jpg","86","","","","","","learn","SL",""
"","show_choice","98","130205","0.0-98.0","""event"",""trial"",""time""
""blur"",""0"",""0""
""focus"",""0"",""8834""
""fullscreenenter"",""0"",""8939""
","""event"",""trial"",""time""
""blur"",""0"",""0""
","""event"",""trial"",""time""
""focus"",""0"",""8834""
","""event"",""trial"",""time""
""fullscreenenter"",""0"",""8939""
","
","null","run_exp/static/images/Set 6_rs/062a.jpg","null","","","","","","learn","SL",""
"","html-keyboard-response","99","130707","0.0-99.0","""event"",""trial"",""time""
""blur"",""0"",""0""
""focus"",""0"",""8834""
""fullscreenenter"",""0"",""8939""
","""event"",""trial"",""time""
""blur"",""0"",""0""
","""event"",""trial"",""time""
""focus"",""0"",""8834""
","""event"",""trial"",""time""
""fullscreenenter"",""0"",""8939""
","
","null","<p></p>","null","","","","","","","",""
"","image","100","131452","0.0-100.0","""event"",""trial"",""time""
""blur"",""0"",""0""
""focus"",""0"",""8834""
""fullscreenenter"",""0"",""8939""
","""event"",""trial"",""time""
""blur"",""0"",""0""
","""event"",""trial"",""time""
""focus"",""0"",""8834""
","""event"",""trial"",""time""
""fullscreenenter"",""0"",""8939""
","
","745","run_exp/static/images/Set 6_rs/181a.jpg","78","","","","","","learn","SL",""
"","show_choice","101","132709","0.0-101.0","""event"",""trial"",""time""
""blur"",""0"",""0""
""focus"",""0"",""8834""
""fullscreenenter"",""0"",""8939""
","""event"",""trial"",""time""
""blur"",""0"",""0""
","""event"",""trial"",""time""
""focus"",""0"",""8834""
","""event"",""trial"",""time""
""fullscreenenter"",""0"",""8939""
","
","null","run_exp/static/images/Set 6_rs/181a.jpg","null","","","","","","learn","SL",""
"","html-keyboard-response","102","133211","0.0-102.0","""event"",""trial"",""time""
""blur"",""0"",""0""
""focus"",""0"",""8834""
""fullscreenenter"",""0"",""8939""
","""event"",""trial"",""time""
""blur"",""0"",""0""
","""event"",""trial"",""time""
""focus"",""0"",""8834""
","""event"",""trial"",""time""
""fullscreenenter"",""0"",""8939""
","
","null","<p></p>","null","","","","","","","",""
"","image","103","134380","0.0-103.0","""event"",""trial"",""time""
""blur"",""0"",""0""
""focus"",""0"",""8834""
""fullscreenenter"",""0"",""8939""
","""event"",""trial"",""time""
""blur"",""0"",""0""
","""event"",""trial"",""time""
""focus"",""0"",""8834""
","""event"",""trial"",""time""
""fullscreenenter"",""0"",""8939""
","
","1168.2999999523163","run_exp/static/images/Set 6_rs/061a.jpg","78","","","","","","learn","SR",""
"","show_choice","104","135218","0.0-104.0","""event"",""trial"",""time""
""blur"",""0"",""0""
""focus"",""0"",""8834""
""fullscreenenter"",""0"",""8939""
","""event"",""trial"",""time""
""blur"",""0"",""0""
","""event"",""trial"",""time""
""focus"",""0"",""8834""
","""event"",""trial"",""time""
""fullscreenenter"",""0"",""8939""
","
","null","run_exp/static/images/Set 6_rs/061a.jpg","null","","","","","","learn","SR",""
"","html-keyboard-response","105","135721","0.0-105.0","""event"",""trial"",""time""
""blur"",""0"",""0""
""focus"",""0"",""8834""
""fullscreenenter"",""0"",""8939""
","""event"",""trial"",""time""
""blur"",""0"",""0""
","""event"",""trial"",""time""
""focus"",""0"",""8834""
","""event"",""trial"",""time""
""fullscreenenter"",""0"",""8939""
","
","null","<p></p>","null","","","","","","","",""
"","image","106","137133","0.0-106.0","""event"",""trial"",""time""
""blur"",""0"",""0""
""focus"",""0"",""8834""
""fullscreenenter"",""0"",""8939""
","""event"",""trial"",""time""
""blur"",""0"",""0""
","""event"",""trial"",""time""
""focus"",""0"",""8834""
","""event"",""trial"",""time""
""fullscreenenter"",""0"",""8939""
","
","1410.5","run_exp/static/images/Set 6_rs/071a.jpg","78","","","","","","learn","SL",""
"","show_choice","107","137733","0.0-107.0","""event"",""trial"",""time""
""blur"",""0"",""0""
""focus"",""0"",""8834""
""fullscreenenter"",""0"",""8939""
","""event"",""trial"",""time""
""blur"",""0"",""0""
","""event"",""trial"",""time""
""focus"",""0"",""8834""
","""event"",""trial"",""time""
""fullscreenenter"",""0"",""8939""
","
","null","run_exp/static/images/Set 6_rs/071a.jpg","null","","","","","","learn","SL",""
"","html-keyboard-response","108","138243","0.0-108.0","""event"",""trial"",""time""
""blur"",""0"",""0""
""focus"",""0"",""8834""
""fullscreenenter"",""0"",""8939""
","""event"",""trial"",""time""
""blur"",""0"",""0""
","""event"",""trial"",""time""
""focus"",""0"",""8834""
","""event"",""trial"",""time""
""fullscreenenter"",""0"",""8939""
","
","null","<p></p>","null","","","","","","","",""
"","image","109","139011","0.0-109.0","""event"",""trial"",""time""
""blur"",""0"",""0""
""focus"",""0"",""8834""
""fullscreenenter"",""0"",""8939""
","""event"",""trial"",""time""
""blur"",""0"",""0""
","""event"",""trial"",""time""
""focus"",""0"",""8834""
","""event"",""trial"",""time""
""fullscreenenter"",""0"",""8939""
","
","767.5","run_exp/static/images/Set 6_rs/111a.jpg","86","","","","","","learn","SL",""
"","show_choice","110","140255","0.0-110.0","""event"",""trial"",""time""
""blur"",""0"",""0""
""focus"",""0"",""8834""
""fullscreenenter"",""0"",""8939""
","""event"",""trial"",""time""
""blur"",""0"",""0""
","""event"",""trial"",""time""
""focus"",""0"",""8834""
","""event"",""trial"",""time""
""fullscreenenter"",""0"",""8939""
","
","null","run_exp/static/images/Set 6_rs/111a.jpg","null","","","","","","learn","SL",""
"","html-keyboard-response","111","140755","0.0-111.0","""event"",""trial"",""time""
""blur"",""0"",""0""
""focus"",""0"",""8834""
""fullscreenenter"",""0"",""8939""
","""event"",""trial"",""time""
""blur"",""0"",""0""
","""event"",""trial"",""time""
""focus"",""0"",""8834""
","""event"",""trial"",""time""
""fullscreenenter"",""0"",""8939""
","
","null","<p></p>","null","","","","","","","",""
"","image","112","142468","0.0-112.0","""event"",""trial"",""time""
""blur"",""0"",""0""
""focus"",""0"",""8834""
""fullscreenenter"",""0"",""8939""
","""event"",""trial"",""time""
""blur"",""0"",""0""
","""event"",""trial"",""time""
""focus"",""0"",""8834""
","""event"",""trial"",""time""
""fullscreenenter"",""0"",""8939""
","
","1711.5999999046326","run_exp/static/images/Set 6_rs/066a.jpg","86","","","","","","learn","SL",""
"","show_choice","113","142766","0.0-113.0","""event"",""trial"",""time""
""blur"",""0"",""0""
""focus"",""0"",""8834""
""fullscreenenter"",""0"",""8939""
","""event"",""trial"",""time""
""blur"",""0"",""0""
","""event"",""trial"",""time""
""focus"",""0"",""8834""
","""event"",""trial"",""time""
""fullscreenenter"",""0"",""8939""
","
","null","run_exp/static/images/Set 6_rs/066a.jpg","null","","","","","","learn","SL",""
"","html-keyboard-response","114","143270","0.0-114.0","""event"",""trial"",""time""
""blur"",""0"",""0""
""focus"",""0"",""8834""
""fullscreenenter"",""0"",""8939""
","""event"",""trial"",""time""
""blur"",""0"",""0""
","""event"",""trial"",""time""
""focus"",""0"",""8834""
","""event"",""trial"",""time""
""fullscreenenter"",""0"",""8939""
","
","null","<p></p>","null","","","","","","","",""
"","image","115","144267","0.0-115.0","""event"",""trial"",""time""
""blur"",""0"",""0""
""focus"",""0"",""8834""
""fullscreenenter"",""0"",""8939""
","""event"",""trial"",""time""
""blur"",""0"",""0""
","""event"",""trial"",""time""
""focus"",""0"",""8834""
","""event"",""trial"",""time""
""fullscreenenter"",""0"",""8939""
","
","995.8000001907349","run_exp/static/images/Set 6_rs/012a.jpg","86","","","","","","learn","SR",""
"","show_choice","116","145285","0.0-116.0","""event"",""trial"",""time""
""blur"",""0"",""0""
""focus"",""0"",""8834""
""fullscreenenter"",""0"",""8939""
","""event"",""trial"",""time""
""blur"",""0"",""0""
","""event"",""trial"",""time""
""focus"",""0"",""8834""
","""event"",""trial"",""time""
""fullscreenenter"",""0"",""8939""
","
","null","run_exp/static/images/Set 6_rs/012a.jpg","null","","","","","","learn","SR",""
"","html-keyboard-response","117","145792","0.0-117.0","""event"",""trial"",""time""
""blur"",""0"",""0""
""focus"",""0"",""8834""
""fullscreenenter"",""0"",""8939""
","""event"",""trial"",""time""
""blur"",""0"",""0""
","""event"",""trial"",""time""
""focus"",""0"",""8834""
","""event"",""trial"",""time""
""fullscreenenter"",""0"",""8939""
","
","null","<p></p>","null","","","","","","","",""
"","image","118","146754","0.0-118.0","""event"",""trial"",""time""
""blur"",""0"",""0""
""focus"",""0"",""8834""
""fullscreenenter"",""0"",""8939""
","""event"",""trial"",""time""
""blur"",""0"",""0""
","""event"",""trial"",""time""
""focus"",""0"",""8834""
","""event"",""trial"",""time""
""fullscreenenter"",""0"",""8939""
","
","961.0999999046326","run_exp/static/images/Set 6_rs/050a.jpg","86","","","","","","learn","SL",""
"","show_choice","119","147802","0.0-119.0","""event"",""trial"",""time""
""blur"",""0"",""0""
""focus"",""0"",""8834""
""fullscreenenter"",""0"",""8939""
","""event"",""trial"",""time""
""blur"",""0"",""0""
","""event"",""trial"",""time""
""focus"",""0"",""8834""
","""event"",""trial"",""time""
""fullscreenenter"",""0"",""8939""
","
","null","run_exp/static/images/Set 6_rs/050a.jpg","null","","","","","","learn","SL",""
"","html-keyboard-response","120","148312","0.0-120.0","""event"",""trial"",""time""
""blur"",""0"",""0""
""focus"",""0"",""8834""
""fullscreenenter"",""0"",""8939""
","""event"",""trial"",""time""
""blur"",""0"",""0""
","""event"",""trial"",""time""
""focus"",""0"",""8834""
","""event"",""trial"",""time""
""fullscreenenter"",""0"",""8939""
","
","null","<p></p>","null","","","","","","","",""
"","image","121","149646","0.0-121.0","""event"",""trial"",""time""
""blur"",""0"",""0""
""focus"",""0"",""8834""
""fullscreenenter"",""0"",""8939""
","""event"",""trial"",""time""
""blur"",""0"",""0""
","""event"",""trial"",""time""
""focus"",""0"",""8834""
","""event"",""trial"",""time""
""fullscreenenter"",""0"",""8939""
","
","1333.9000000953674","run_exp/static/images/Set 6_rs/036a.jpg","86","","","","","","learn","SL",""
"","show_choice","122","150324","0.0-122.0","""event"",""trial"",""time""
""blur"",""0"",""0""
""focus"",""0"",""8834""
""fullscreenenter"",""0"",""8939""
","""event"",""trial"",""time""
""blur"",""0"",""0""
","""event"",""trial"",""time""
""focus"",""0"",""8834""
","""event"",""trial"",""time""
""fullscreenenter"",""0"",""8939""
","
","null","run_exp/static/images/Set 6_rs/036a.jpg","null","","","","","","learn","SL",""
"","html-keyboard-response","123","150827","0.0-123.0","""event"",""trial"",""time""
""blur"",""0"",""0""
""focus"",""0"",""8834""
""fullscreenenter"",""0"",""8939""
","""event"",""trial"",""time""
""blur"",""0"",""0""
","""event"",""trial"",""time""
""focus"",""0"",""8834""
","""event"",""trial"",""time""
""fullscreenenter"",""0"",""8939""
","
","null","<p></p>","null","","","","","","","",""
"","image","124","151704","0.0-124.0","""event"",""trial"",""time""
""blur"",""0"",""0""
""focus"",""0"",""8834""
""fullscreenenter"",""0"",""8939""
","""event"",""trial"",""time""
""blur"",""0"",""0""
","""event"",""trial"",""time""
""focus"",""0"",""8834""
","""event"",""trial"",""time""
""fullscreenenter"",""0"",""8939""
","
","876.5","run_exp/static/images/Set 6_rs/023a.jpg","86","","","","","","learn","SR",""
"","show_choice","125","152840","0.0-125.0","""event"",""trial"",""time""
""blur"",""0"",""0""
""focus"",""0"",""8834""
""fullscreenenter"",""0"",""8939""
","""event"",""trial"",""time""
""blur"",""0"",""0""
","""event"",""trial"",""time""
""focus"",""0"",""8834""
","""event"",""trial"",""time""
""fullscreenenter"",""0"",""8939""
","
","null","run_exp/static/images/Set 6_rs/023a.jpg","null","","","","","","learn","SR",""
"","html-keyboard-response","126","153347","0.0-126.0","""event"",""trial"",""time""
""blur"",""0"",""0""
""focus"",""0"",""8834""
""fullscreenenter"",""0"",""8939""
","""event"",""trial"",""time""
""blur"",""0"",""0""
","""event"",""trial"",""time""
""focus"",""0"",""8834""
","""event"",""trial"",""time""
""fullscreenenter"",""0"",""8939""
","
","null","<p></p>","null","","","","","","","",""
"","image","127","154105","0.0-127.0","""event"",""trial"",""time""
""blur"",""0"",""0""
""focus"",""0"",""8834""
""fullscreenenter"",""0"",""8939""
","""event"",""trial"",""time""
""blur"",""0"",""0""
","""event"",""trial"",""time""
""focus"",""0"",""8834""
","""event"",""trial"",""time""
""fullscreenenter"",""0"",""8939""
","
","757.6000001430511","run_exp/static/images/Set 6_rs/154a.jpg","86","","","","","","learn","SR",""
"","show_choice","128","155357","0.0-128.0","""event"",""trial"",""time""
""blur"",""0"",""0""
""focus"",""0"",""8834""
""fullscreenenter"",""0"",""8939""
","""event"",""trial"",""time""
""blur"",""0"",""0""
","""event"",""trial"",""time""
""focus"",""0"",""8834""
","""event"",""trial"",""time""
""fullscreenenter"",""0"",""8939""
","
","null","run_exp/static/images/Set 6_rs/154a.jpg","null","","","","","","learn","SR",""
"","html-keyboard-response","129","155864","0.0-129.0","""event"",""trial"",""time""
""blur"",""0"",""0""
""focus"",""0"",""8834""
""fullscreenenter"",""0"",""8939""
","""event"",""trial"",""time""
""blur"",""0"",""0""
","""event"",""trial"",""time""
""focus"",""0"",""8834""
","""event"",""trial"",""time""
""fullscreenenter"",""0"",""8939""
","
","null","<p></p>","null","","","","","","","",""
"","image","130","156859","0.0-130.0","""event"",""trial"",""time""
""blur"",""0"",""0""
""focus"",""0"",""8834""
""fullscreenenter"",""0"",""8939""
","""event"",""trial"",""time""
""blur"",""0"",""0""
","""event"",""trial"",""time""
""focus"",""0"",""8834""
","""event"",""trial"",""time""
""fullscreenenter"",""0"",""8939""
","
","994","run_exp/static/images/Set 6_rs/144a.jpg","86","","","","","","learn","SL",""
"","show_choice","131","157870","0.0-131.0","""event"",""trial"",""time""
""blur"",""0"",""0""
""focus"",""0"",""8834""
""fullscreenenter"",""0"",""8939""
","""event"",""trial"",""time""
""blur"",""0"",""0""
","""event"",""trial"",""time""
""focus"",""0"",""8834""
","""event"",""trial"",""time""
""fullscreenenter"",""0"",""8939""
","
","null","run_exp/static/images/Set 6_rs/144a.jpg","null","","","","","","learn","SL",""
"","html-keyboard-response","132","158377","0.0-132.0","""event"",""trial"",""time""
""blur"",""0"",""0""
""focus"",""0"",""8834""
""fullscreenenter"",""0"",""8939""
","""event"",""trial"",""time""
""blur"",""0"",""0""
","""event"",""trial"",""time""
""focus"",""0"",""8834""
","""event"",""trial"",""time""
""fullscreenenter"",""0"",""8939""
","
","null","<p></p>","null","","","","","","","",""
"","image","133","159492","0.0-133.0","""event"",""trial"",""time""
""blur"",""0"",""0""
""focus"",""0"",""8834""
""fullscreenenter"",""0"",""8939""
","""event"",""trial"",""time""
""blur"",""0"",""0""
","""event"",""trial"",""time""
""focus"",""0"",""8834""
","""event"",""trial"",""time""
""fullscreenenter"",""0"",""8939""
","
","1113.8000001907349","run_exp/static/images/Set 6_rs/131a.jpg","86","","","","","","learn","SR",""
"","show_choice","134","160393","0.0-134.0","""event"",""trial"",""time""
""blur"",""0"",""0""
""focus"",""0"",""8834""
""fullscreenenter"",""0"",""8939""
","""event"",""trial"",""time""
""blur"",""0"",""0""
","""event"",""trial"",""time""
""focus"",""0"",""8834""
","""event"",""trial"",""time""
""fullscreenenter"",""0"",""8939""
","
","null","run_exp/static/images/Set 6_rs/131a.jpg","null","","","","","","learn","SR",""
"","html-keyboard-response","135","160908","0.0-135.0","""event"",""trial"",""time""
""blur"",""0"",""0""
""focus"",""0"",""8834""
""fullscreenenter"",""0"",""8939""
","""event"",""trial"",""time""
""blur"",""0"",""0""
","""event"",""trial"",""time""
""focus"",""0"",""8834""
","""event"",""trial"",""time""
""fullscreenenter"",""0"",""8939""
","
","null","<p></p>","null","","","","","","","",""
"","image","136","161882","0.0-136.0","""event"",""trial"",""time""
""blur"",""0"",""0""
""focus"",""0"",""8834""
""fullscreenenter"",""0"",""8939""
","""event"",""trial"",""time""
""blur"",""0"",""0""
","""event"",""trial"",""time""
""focus"",""0"",""8834""
","""event"",""trial"",""time""
""fullscreenenter"",""0"",""8939""
","
","973.5999999046326","run_exp/static/images/Set 6_rs/088a.jpg","86","","","","","","learn","SR",""
"","show_choice","137","162911","0.0-137.0","""event"",""trial"",""time""
""blur"",""0"",""0""
""focus"",""0"",""8834""
""fullscreenenter"",""0"",""8939""
","""event"",""trial"",""time""
""blur"",""0"",""0""
","""event"",""trial"",""time""
""focus"",""0"",""8834""
","""event"",""trial"",""time""
""fullscreenenter"",""0"",""8939""
","
","null","run_exp/static/images/Set 6_rs/088a.jpg","null","","","","","","learn","SR",""
"","html-keyboard-response","138","163417","0.0-138.0","""event"",""trial"",""time""
""blur"",""0"",""0""
""focus"",""0"",""8834""
""fullscreenenter"",""0"",""8939""
","""event"",""trial"",""time""
""blur"",""0"",""0""
","""event"",""trial"",""time""
""focus"",""0"",""8834""
","""event"",""trial"",""time""
""fullscreenenter"",""0"",""8939""
","
","null","<p></p>","null","","","","","","","",""
"","image","139","164416","0.0-139.0","""event"",""trial"",""time""
""blur"",""0"",""0""
""focus"",""0"",""8834""
""fullscreenenter"",""0"",""8939""
","""event"",""trial"",""time""
""blur"",""0"",""0""
","""event"",""trial"",""time""
""focus"",""0"",""8834""
","""event"",""trial"",""time""
""fullscreenenter"",""0"",""8939""
","
","998.7000000476837","run_exp/static/images/Set 6_rs/138a.jpg","78","","","","","","learn","SL",""
"","show_choice","140","165432","0.0-140.0","""event"",""trial"",""time""
""blur"",""0"",""0""
""focus"",""0"",""8834""
""fullscreenenter"",""0"",""8939""
","""event"",""trial"",""time""
""blur"",""0"",""0""
","""event"",""trial"",""time""
""focus"",""0"",""8834""
","""event"",""trial"",""time""
""fullscreenenter"",""0"",""8939""
","
","null","run_exp/static/images/Set 6_rs/138a.jpg","null","","","","","","learn","SL",""
"","html-keyboard-response","141","165939","0.0-141.0","""event"",""trial"",""time""
""blur"",""0"",""0""
""focus"",""0"",""8834""
""fullscreenenter"",""0"",""8939""
","""event"",""trial"",""time""
""blur"",""0"",""0""
","""event"",""trial"",""time""
""focus"",""0"",""8834""
","""event"",""trial"",""time""
""fullscreenenter"",""0"",""8939""
","
","null","<p></p>","null","","","","","","","",""
"","image","142","166801","0.0-142.0","""event"",""trial"",""time""
""blur"",""0"",""0""
""focus"",""0"",""8834""
""fullscreenenter"",""0"",""8939""
","""event"",""trial"",""time""
""blur"",""0"",""0""
","""event"",""trial"",""time""
""focus"",""0"",""8834""
","""event"",""trial"",""time""
""fullscreenenter"",""0"",""8939""
","
","861.2000000476837","run_exp/static/images/Set 6_rs/063a.jpg","86","","","","","","learn","SR",""
"","show_choice","143","167951","0.0-143.0","""event"",""trial"",""time""
""blur"",""0"",""0""
""focus"",""0"",""8834""
""fullscreenenter"",""0"",""8939""
","""event"",""trial"",""time""
""blur"",""0"",""0""
","""event"",""trial"",""time""
""focus"",""0"",""8834""
","""event"",""trial"",""time""
""fullscreenenter"",""0"",""8939""
","
","null","run_exp/static/images/Set 6_rs/063a.jpg","null","","","","","","learn","SR",""
"","html-keyboard-response","144","168458","0.0-144.0","""event"",""trial"",""time""
""blur"",""0"",""0""
""focus"",""0"",""8834""
""fullscreenenter"",""0"",""8939""
","""event"",""trial"",""time""
""blur"",""0"",""0""
","""event"",""trial"",""time""
""focus"",""0"",""8834""
","""event"",""trial"",""time""
""fullscreenenter"",""0"",""8939""
","
","null","<p></p>","null","","","","","","","",""
"","image","145","169269","0.0-145.0","""event"",""trial"",""time""
""blur"",""0"",""0""
""focus"",""0"",""8834""
""fullscreenenter"",""0"",""8939""
","""event"",""trial"",""time""
""blur"",""0"",""0""
","""event"",""trial"",""time""
""focus"",""0"",""8834""
","""event"",""trial"",""time""
""fullscreenenter"",""0"",""8939""
","
","810.0999999046326","run_exp/static/images/Set 6_rs/010a.jpg","86","","","","","","learn","SR",""
"","show_choice","146","170466","0.0-146.0","""event"",""trial"",""time""
""blur"",""0"",""0""
""focus"",""0"",""8834""
""fullscreenenter"",""0"",""8939""
","""event"",""trial"",""time""
""blur"",""0"",""0""
","""event"",""trial"",""time""
""focus"",""0"",""8834""
","""event"",""trial"",""time""
""fullscreenenter"",""0"",""8939""
","
","null","run_exp/static/images/Set 6_rs/010a.jpg","null","","","","","","learn","SR",""
"","html-keyboard-response","147","170975","0.0-147.0","""event"",""trial"",""time""
""blur"",""0"",""0""
""focus"",""0"",""8834""
""fullscreenenter"",""0"",""8939""
","""event"",""trial"",""time""
""blur"",""0"",""0""
","""event"",""trial"",""time""
""focus"",""0"",""8834""
","""event"",""trial"",""time""
""fullscreenenter"",""0"",""8939""
","
","null","<p></p>","null","","","","","","","",""
"","image","148","172007","0.0-148.0","""event"",""trial"",""time""
""blur"",""0"",""0""
""focus"",""0"",""8834""
""fullscreenenter"",""0"",""8939""
","""event"",""trial"",""time""
""blur"",""0"",""0""
","""event"",""trial"",""time""
""focus"",""0"",""8834""
","""event"",""trial"",""time""
""fullscreenenter"",""0"",""8939""
","
","1031.1999998092651","run_exp/static/images/Set 6_rs/019a.jpg","86","","","","","","learn","SL",""
"","show_choice","149","172986","0.0-149.0","""event"",""trial"",""time""
""blur"",""0"",""0""
""focus"",""0"",""8834""
""fullscreenenter"",""0"",""8939""
","""event"",""trial"",""time""
""blur"",""0"",""0""
","""event"",""trial"",""time""
""focus"",""0"",""8834""
","""event"",""trial"",""time""
""fullscreenenter"",""0"",""8939""
","
","null","run_exp/static/images/Set 6_rs/019a.jpg","null","","","","","","learn","SL",""
"","html-keyboard-response","150","173492","0.0-150.0","""event"",""trial"",""time""
""blur"",""0"",""0""
""focus"",""0"",""8834""
""fullscreenenter"",""0"",""8939""
","""event"",""trial"",""time""
""blur"",""0"",""0""
","""event"",""trial"",""time""
""focus"",""0"",""8834""
","""event"",""trial"",""time""
""fullscreenenter"",""0"",""8939""
","
","null","<p></p>","null","","","","","","","",""
"","image","151","174151","0.0-151.0","""event"",""trial"",""time""
""blur"",""0"",""0""
""focus"",""0"",""8834""
""fullscreenenter"",""0"",""8939""
","""event"",""trial"",""time""
""blur"",""0"",""0""
","""event"",""trial"",""time""
""focus"",""0"",""8834""
","""event"",""trial"",""time""
""fullscreenenter"",""0"",""8939""
","
","657.5999999046326","run_exp/static/images/Set 6_rs/025a.jpg","78","","","","","","learn","SL",""
"","show_choice","152","175499","0.0-152.0","""event"",""trial"",""time""
""blur"",""0"",""0""
""focus"",""0"",""8834""
""fullscreenenter"",""0"",""8939""
","""event"",""trial"",""time""
""blur"",""0"",""0""
","""event"",""trial"",""time""
""focus"",""0"",""8834""
","""event"",""trial"",""time""
""fullscreenenter"",""0"",""8939""
","
","null","run_exp/static/images/Set 6_rs/025a.jpg","null","","","","","","learn","SL",""
"","html-keyboard-response","153","176004","0.0-153.0","""event"",""trial"",""time""
""blur"",""0"",""0""
""focus"",""0"",""8834""
""fullscreenenter"",""0"",""8939""
","""event"",""trial"",""time""
""blur"",""0"",""0""
","""event"",""trial"",""time""
""focus"",""0"",""8834""
","""event"",""trial"",""time""
""fullscreenenter"",""0"",""8939""
","
","null","<p></p>","null","","","","","","","",""
"","image","154","177101","0.0-154.0","""event"",""trial"",""time""
""blur"",""0"",""0""
""focus"",""0"",""8834""
""fullscreenenter"",""0"",""8939""
","""event"",""trial"",""time""
""blur"",""0"",""0""
","""event"",""trial"",""time""
""focus"",""0"",""8834""
","""event"",""trial"",""time""
""fullscreenenter"",""0"",""8939""
","
","1095.3999998569489","run_exp/static/images/Set 6_rs/089a.jpg","86","","","","","","learn","SL",""
"","show_choice","155","178015","0.0-155.0","""event"",""trial"",""time""
""blur"",""0"",""0""
""focus"",""0"",""8834""
""fullscreenenter"",""0"",""8939""
","""event"",""trial"",""time""
""blur"",""0"",""0""
","""event"",""trial"",""time""
""focus"",""0"",""8834""
","""event"",""trial"",""time""
""fullscreenenter"",""0"",""8939""
","
","null","run_exp/static/images/Set 6_rs/089a.jpg","null","","","","","","learn","SL",""
"","html-keyboard-response","156","178519","0.0-156.0","""event"",""trial"",""time""
""blur"",""0"",""0""
""focus"",""0"",""8834""
""fullscreenenter"",""0"",""8939""
","""event"",""trial"",""time""
""blur"",""0"",""0""
","""event"",""trial"",""time""
""focus"",""0"",""8834""
","""event"",""trial"",""time""
""fullscreenenter"",""0"",""8939""
","
","null","<p></p>","null","","","","","","","",""
"","image","157","179813","0.0-157.0","""event"",""trial"",""time""
""blur"",""0"",""0""
""focus"",""0"",""8834""
""fullscreenenter"",""0"",""8939""
","""event"",""trial"",""time""
""blur"",""0"",""0""
","""event"",""trial"",""time""
""focus"",""0"",""8834""
","""event"",""trial"",""time""
""fullscreenenter"",""0"",""8939""
","
","1293.3000001907349","run_exp/static/images/Set 6_rs/074a.jpg","78","","","","","","learn","SL",""
"","show_choice","158","180520","0.0-158.0","""event"",""trial"",""time""
""blur"",""0"",""0""
""focus"",""0"",""8834""
""fullscreenenter"",""0"",""8939""
","""event"",""trial"",""time""
""blur"",""0"",""0""
","""event"",""trial"",""time""
""focus"",""0"",""8834""
","""event"",""trial"",""time""
""fullscreenenter"",""0"",""8939""
","
","null","run_exp/static/images/Set 6_rs/074a.jpg","null","","","","","","learn","SL",""
"","html-keyboard-response","159","181021","0.0-159.0","""event"",""trial"",""time""
""blur"",""0"",""0""
""focus"",""0"",""8834""
""fullscreenenter"",""0"",""8939""
","""event"",""trial"",""time""
""blur"",""0"",""0""
","""event"",""trial"",""time""
""focus"",""0"",""8834""
","""event"",""trial"",""time""
""fullscreenenter"",""0"",""8939""
","
","null","<p></p>","null","","","","","","","",""
"","image","160","182114","0.0-160.0","""event"",""trial"",""time""
""blur"",""0"",""0""
""focus"",""0"",""8834""
""fullscreenenter"",""0"",""8939""
","""event"",""trial"",""time""
""blur"",""0"",""0""
","""event"",""trial"",""time""
""focus"",""0"",""8834""
","""event"",""trial"",""time""
""fullscreenenter"",""0"",""8939""
","
","1092.7999999523163","run_exp/static/images/Set 6_rs/008a.jpg","78","","","","","","learn","SL",""
"","show_choice","161","183032","0.0-161.0","""event"",""trial"",""time""
""blur"",""0"",""0""
""focus"",""0"",""8834""
""fullscreenenter"",""0"",""8939""
","""event"",""trial"",""time""
""blur"",""0"",""0""
","""event"",""trial"",""time""
""focus"",""0"",""8834""
","""event"",""trial"",""time""
""fullscreenenter"",""0"",""8939""
","
","null","run_exp/static/images/Set 6_rs/008a.jpg","null","","","","","","learn","SL",""
"","html-keyboard-response","162","183540","0.0-162.0","""event"",""trial"",""time""
""blur"",""0"",""0""
""focus"",""0"",""8834""
""fullscreenenter"",""0"",""8939""
","""event"",""trial"",""time""
""blur"",""0"",""0""
","""event"",""trial"",""time""
""focus"",""0"",""8834""
","""event"",""trial"",""time""
""fullscreenenter"",""0"",""8939""
","
","null","<p></p>","null","","","","","","","",""
"","image","163","184375","0.0-163.0","""event"",""trial"",""time""
""blur"",""0"",""0""
""focus"",""0"",""8834""
""fullscreenenter"",""0"",""8939""
","""event"",""trial"",""time""
""blur"",""0"",""0""
","""event"",""trial"",""time""
""focus"",""0"",""8834""
","""event"",""trial"",""time""
""fullscreenenter"",""0"",""8939""
","
","834.2000000476837","run_exp/static/images/Set 6_rs/085a.jpg","86","","","","","","learn","SL",""
"","show_choice","164","185554","0.0-164.0","""event"",""trial"",""time""
""blur"",""0"",""0""
""focus"",""0"",""8834""
""fullscreenenter"",""0"",""8939""
","""event"",""trial"",""time""
""blur"",""0"",""0""
","""event"",""trial"",""time""
""focus"",""0"",""8834""
","""event"",""trial"",""time""
""fullscreenenter"",""0"",""8939""
","
","null","run_exp/static/images/Set 6_rs/085a.jpg","null","","","","","","learn","SL",""
"","html-keyboard-response","165","186065","0.0-165.0","""event"",""trial"",""time""
""blur"",""0"",""0""
""focus"",""0"",""8834""
""fullscreenenter"",""0"",""8939""
","""event"",""trial"",""time""
""blur"",""0"",""0""
","""event"",""trial"",""time""
""focus"",""0"",""8834""
","""event"",""trial"",""time""
""fullscreenenter"",""0"",""8939""
","
","null","<p></p>","null","","","","","","","",""
"","image","166","187021","0.0-166.0","""event"",""trial"",""time""
""blur"",""0"",""0""
""focus"",""0"",""8834""
""fullscreenenter"",""0"",""8939""
","""event"",""trial"",""time""
""blur"",""0"",""0""
","""event"",""trial"",""time""
""focus"",""0"",""8834""
","""event"",""trial"",""time""
""fullscreenenter"",""0"",""8939""
","
","955.2999999523163","run_exp/static/images/Set 6_rs/057a.jpg","86","","","","","","learn","SL",""
"","show_choice","167","188066","0.0-167.0","""event"",""trial"",""time""
""blur"",""0"",""0""
""focus"",""0"",""8834""
""fullscreenenter"",""0"",""8939""
","""event"",""trial"",""time""
""blur"",""0"",""0""
","""event"",""trial"",""time""
""focus"",""0"",""8834""
","""event"",""trial"",""time""
""fullscreenenter"",""0"",""8939""
","
","null","run_exp/static/images/Set 6_rs/057a.jpg","null","","","","","","learn","SL",""
"","html-keyboard-response","168","188569","0.0-168.0","""event"",""trial"",""time""
""blur"",""0"",""0""
""focus"",""0"",""8834""
""fullscreenenter"",""0"",""8939""
","""event"",""trial"",""time""
""blur"",""0"",""0""
","""event"",""trial"",""time""
""focus"",""0"",""8834""
","""event"",""trial"",""time""
""fullscreenenter"",""0"",""8939""
","
","null","<p></p>","null","","","","","","","",""
"","image","169","190233","0.0-169.0","""event"",""trial"",""time""
""blur"",""0"",""0""
""focus"",""0"",""8834""
""fullscreenenter"",""0"",""8939""
","""event"",""trial"",""time""
""blur"",""0"",""0""
","""event"",""trial"",""time""
""focus"",""0"",""8834""
","""event"",""trial"",""time""
""fullscreenenter"",""0"",""8939""
","
","1662.5","run_exp/static/images/Set 6_rs/152a.jpg","78","","","","","","learn","SR",""
"","show_choice","170","190580","0.0-170.0","""event"",""trial"",""time""
""blur"",""0"",""0""
""focus"",""0"",""8834""
""fullscreenenter"",""0"",""8939""
","""event"",""trial"",""time""
""blur"",""0"",""0""
","""event"",""trial"",""time""
""focus"",""0"",""8834""
","""event"",""trial"",""time""
""fullscreenenter"",""0"",""8939""
","
","null","run_exp/static/images/Set 6_rs/152a.jpg","null","","","","","","learn","SR",""
"","html-keyboard-response","171","191084","0.0-171.0","""event"",""trial"",""time""
""blur"",""0"",""0""
""focus"",""0"",""8834""
""fullscreenenter"",""0"",""8939""
","""event"",""trial"",""time""
""blur"",""0"",""0""
","""event"",""trial"",""time""
""focus"",""0"",""8834""
","""event"",""trial"",""time""
""fullscreenenter"",""0"",""8939""
","
","null","<p></p>","null","","","","","","","",""
"","image","172","193100","0.0-172.0","""event"",""trial"",""time""
""blur"",""0"",""0""
""focus"",""0"",""8834""
""fullscreenenter"",""0"",""8939""
","""event"",""trial"",""time""
""blur"",""0"",""0""
","""event"",""trial"",""time""
""focus"",""0"",""8834""
","""event"",""trial"",""time""
""fullscreenenter"",""0"",""8939""
","
","null","run_exp/static/images/Set 6_rs/079a.jpg","null","","","","","","learn","SL",""
"","show_choice","173","195113","0.0-173.0","""event"",""trial"",""time""
""blur"",""0"",""0""
""focus"",""0"",""8834""
""fullscreenenter"",""0"",""8939""
","""event"",""trial"",""time""
""blur"",""0"",""0""
","""event"",""trial"",""time""
""focus"",""0"",""8834""
","""event"",""trial"",""time""
""fullscreenenter"",""0"",""8939""
","
","null","run_exp/static/images/blank.png","null","","","","","","learn","SL",""
"","html-keyboard-response","174","195623","0.0-174.0","""event"",""trial"",""time""
""blur"",""0"",""0""
""focus"",""0"",""8834""
""fullscreenenter"",""0"",""8939""
","""event"",""trial"",""time""
""blur"",""0"",""0""
","""event"",""trial"",""time""
""focus"",""0"",""8834""
","""event"",""trial"",""time""
""fullscreenenter"",""0"",""8939""
","
","null","<p></p>","null","","","","","","","",""
"","image","175","196579","0.0-175.0","""event"",""trial"",""time""
""blur"",""0"",""0""
""focus"",""0"",""8834""
""fullscreenenter"",""0"",""8939""
","""event"",""trial"",""time""
""blur"",""0"",""0""
","""event"",""trial"",""time""
""focus"",""0"",""8834""
","""event"",""trial"",""time""
""fullscreenenter"",""0"",""8939""
","
","954.7999999523163","run_exp/static/images/Set 6_rs/076a.jpg","78","","","","","","learn","SR",""
"","show_choice","176","197636","0.0-176.0","""event"",""trial"",""time""
""blur"",""0"",""0""
""focus"",""0"",""8834""
""fullscreenenter"",""0"",""8939""
","""event"",""trial"",""time""
""blur"",""0"",""0""
","""event"",""trial"",""time""
""focus"",""0"",""8834""
","""event"",""trial"",""time""
""fullscreenenter"",""0"",""8939""
","
","null","run_exp/static/images/Set 6_rs/076a.jpg","null","","","","","","learn","SR",""
"","html-keyboard-response","177","198139","0.0-177.0","""event"",""trial"",""time""
""blur"",""0"",""0""
""focus"",""0"",""8834""
""fullscreenenter"",""0"",""8939""
","""event"",""trial"",""time""
""blur"",""0"",""0""
","""event"",""trial"",""time""
""focus"",""0"",""8834""
","""event"",""trial"",""time""
""fullscreenenter"",""0"",""8939""
","
","null","<p></p>","null","","","","","","","",""
"","image","178","199929","0.0-178.0","""event"",""trial"",""time""
""blur"",""0"",""0""
""focus"",""0"",""8834""
""fullscreenenter"",""0"",""8939""
","""event"",""trial"",""time""
""blur"",""0"",""0""
","""event"",""trial"",""time""
""focus"",""0"",""8834""
","""event"",""trial"",""time""
""fullscreenenter"",""0"",""8939""
","
","1789.2000000476837","run_exp/static/images/Set 6_rs/108a.jpg","86","","","","","","learn","SR",""
"","show_choice","179","200143","0.0-179.0","""event"",""trial"",""time""
""blur"",""0"",""0""
""focus"",""0"",""8834""
""fullscreenenter"",""0"",""8939""
","""event"",""trial"",""time""
""blur"",""0"",""0""
","""event"",""trial"",""time""
""focus"",""0"",""8834""
","""event"",""trial"",""time""
""fullscreenenter"",""0"",""8939""
","
","null","run_exp/static/images/Set 6_rs/108a.jpg","null","","","","","","learn","SR",""
"","html-keyboard-response","180","200651","0.0-180.0","""event"",""trial"",""time""
""blur"",""0"",""0""
""focus"",""0"",""8834""
""fullscreenenter"",""0"",""8939""
","""event"",""trial"",""time""
""blur"",""0"",""0""
","""event"",""trial"",""time""
""focus"",""0"",""8834""
","""event"",""trial"",""time""
""fullscreenenter"",""0"",""8939""
","
","null","<p></p>","null","","","","","","","",""
"","image","181","201523","0.0-181.0","""event"",""trial"",""time""
""blur"",""0"",""0""
""focus"",""0"",""8834""
""fullscreenenter"",""0"",""8939""
","""event"",""trial"",""time""
""blur"",""0"",""0""
","""event"",""trial"",""time""
""focus"",""0"",""8834""
","""event"",""trial"",""time""
""fullscreenenter"",""0"",""8939""
","
","871.0999999046326","run_exp/static/images/Set 6_rs/055a.jpg","86","","","","","","learn","SL",""
"","show_choice","182","202653","0.0-182.0","""event"",""trial"",""time""
""blur"",""0"",""0""
""focus"",""0"",""8834""
""fullscreenenter"",""0"",""8939""
","""event"",""trial"",""time""
""blur"",""0"",""0""
","""event"",""trial"",""time""
""focus"",""0"",""8834""
","""event"",""trial"",""time""
""fullscreenenter"",""0"",""8939""
","
","null","run_exp/static/images/Set 6_rs/055a.jpg","null","","","","","","learn","SL",""
"","html-keyboard-response","183","203158","0.0-183.0","""event"",""trial"",""time""
""blur"",""0"",""0""
""focus"",""0"",""8834""
""fullscreenenter"",""0"",""8939""
","""event"",""trial"",""time""
""blur"",""0"",""0""
","""event"",""trial"",""time""
""focus"",""0"",""8834""
","""event"",""trial"",""time""
""fullscreenenter"",""0"",""8939""
","
","null","<p></p>","null","","","","","","","",""
"","image","184","203956","0.0-184.0","""event"",""trial"",""time""
""blur"",""0"",""0""
""focus"",""0"",""8834""
""fullscreenenter"",""0"",""8939""
","""event"",""trial"",""time""
""blur"",""0"",""0""
","""event"",""trial"",""time""
""focus"",""0"",""8834""
","""event"",""trial"",""time""
""fullscreenenter"",""0"",""8939""
","
","797.3999998569489","run_exp/static/images/Set 6_rs/024a.jpg","86","","","","","","learn","SR",""
"","show_choice","185","205172","0.0-185.0","""event"",""trial"",""time""
""blur"",""0"",""0""
""focus"",""0"",""8834""
""fullscreenenter"",""0"",""8939""
","""event"",""trial"",""time""
""blur"",""0"",""0""
","""event"",""trial"",""time""
""focus"",""0"",""8834""
","""event"",""trial"",""time""
""fullscreenenter"",""0"",""8939""
","
","null","run_exp/static/images/Set 6_rs/024a.jpg","null","","","","","","learn","SR",""
"","html-keyboard-response","186","205688","0.0-186.0","""event"",""trial"",""time""
""blur"",""0"",""0""
""focus"",""0"",""8834""
""fullscreenenter"",""0"",""8939""
","""event"",""trial"",""time""
""blur"",""0"",""0""
","""event"",""trial"",""time""
""focus"",""0"",""8834""
","""event"",""trial"",""time""
""fullscreenenter"",""0"",""8939""
","
","null","<p></p>","null","","","","","","","",""
"","image","187","206915","0.0-187.0","""event"",""trial"",""time""
""blur"",""0"",""0""
""focus"",""0"",""8834""
""fullscreenenter"",""0"",""8939""
","""event"",""trial"",""time""
""blur"",""0"",""0""
","""event"",""trial"",""time""
""focus"",""0"",""8834""
","""event"",""trial"",""time""
""fullscreenenter"",""0"",""8939""
","
","1225.5999999046326","run_exp/static/images/Set 6_rs/134a.jpg","86","","","","","","learn","SR",""
"","show_choice","188","207690","0.0-188.0","""event"",""trial"",""time""
""blur"",""0"",""0""
""focus"",""0"",""8834""
""fullscreenenter"",""0"",""8939""
","""event"",""trial"",""time""
""blur"",""0"",""0""
","""event"",""trial"",""time""
""focus"",""0"",""8834""
","""event"",""trial"",""time""
""fullscreenenter"",""0"",""8939""
","
","null","run_exp/static/images/Set 6_rs/134a.jpg","null","","","","","","learn","SR",""
"","html-keyboard-response","189","208196","0.0-189.0","""event"",""trial"",""time""
""blur"",""0"",""0""
""focus"",""0"",""8834""
""fullscreenenter"",""0"",""8939""
","""event"",""trial"",""time""
""blur"",""0"",""0""
","""event"",""trial"",""time""
""focus"",""0"",""8834""
","""event"",""trial"",""time""
""fullscreenenter"",""0"",""8939""
","
","null","<p></p>","null","","","","","","","",""
"","image","190","209384","0.0-190.0","""event"",""trial"",""time""
""blur"",""0"",""0""
""focus"",""0"",""8834""
""fullscreenenter"",""0"",""8939""
","""event"",""trial"",""time""
""blur"",""0"",""0""
","""event"",""trial"",""time""
""focus"",""0"",""8834""
","""event"",""trial"",""time""
""fullscreenenter"",""0"",""8939""
","
","1186.9000000953674","run_exp/static/images/Set 6_rs/117a.jpg","86","","","","","","learn","SL",""
"","show_choice","191","210203","0.0-191.0","""event"",""trial"",""time""
""blur"",""0"",""0""
""focus"",""0"",""8834""
""fullscreenenter"",""0"",""8939""
","""event"",""trial"",""time""
""blur"",""0"",""0""
","""event"",""trial"",""time""
""focus"",""0"",""8834""
","""event"",""trial"",""time""
""fullscreenenter"",""0"",""8939""
","
","null","run_exp/static/images/Set 6_rs/117a.jpg","null","","","","","","learn","SL",""
"","html-keyboard-response","192","210713","0.0-192.0","""event"",""trial"",""time""
""blur"",""0"",""0""
""focus"",""0"",""8834""
""fullscreenenter"",""0"",""8939""
","""event"",""trial"",""time""
""blur"",""0"",""0""
","""event"",""trial"",""time""
""focus"",""0"",""8834""
","""event"",""trial"",""time""
""fullscreenenter"",""0"",""8939""
","
","null","<p></p>","null","","","","","","","",""
"","image","193","212052","0.0-193.0","""event"",""trial"",""time""
""blur"",""0"",""0""
""focus"",""0"",""8834""
""fullscreenenter"",""0"",""8939""
","""event"",""trial"",""time""
""blur"",""0"",""0""
","""event"",""trial"",""time""
""focus"",""0"",""8834""
","""event"",""trial"",""time""
""fullscreenenter"",""0"",""8939""
","
","1338.2000000476837","run_exp/static/images/Set 6_rs/091a.jpg","78","","","","","","learn","SL",""
"","show_choice","194","212727","0.0-194.0","""event"",""trial"",""time""
""blur"",""0"",""0""
""focus"",""0"",""8834""
""fullscreenenter"",""0"",""8939""
","""event"",""trial"",""time""
""blur"",""0"",""0""
","""event"",""trial"",""time""
""focus"",""0"",""8834""
","""event"",""trial"",""time""
""fullscreenenter"",""0"",""8939""
","
","null","run_exp/static/images/Set 6_rs/091a.jpg","null","","","","","","learn","SL",""
"","html-keyboard-response","195","213236","0.0-195.0","""event"",""trial"",""time""
""blur"",""0"",""0""
""focus"",""0"",""8834""
""fullscreenenter"",""0"",""8939""
","""event"",""trial"",""time""
""blur"",""0"",""0""
","""event"",""trial"",""time""
""focus"",""0"",""8834""
","""event"",""trial"",""time""
""fullscreenenter"",""0"",""8939""
","
","null","<p></p>","null","","","","","","","",""
"","test_intro","196","250432","0.0-196.0","""event"",""trial"",""time""
""blur"",""0"",""0""
""focus"",""0"",""8834""
""fullscreenenter"",""0"",""8939""
","""event"",""trial"",""time""
""blur"",""0"",""0""
","""event"",""trial"",""time""
""focus"",""0"",""8834""
","""event"",""trial"",""time""
""fullscreenenter"",""0"",""8939""
","
","null","run_exp/static/audio/clip_2_memory.m4a","null","","","","","<div class='center'><p>Now, lets see how much you remember about the items you just saw.  For each item, you need to indicate if it was <b>old</b> by pressing the <b>v</b> key, <b>similar</b> by pressing the <b>b</b> key, or <b>new</b> by pressing the <b>n</b> key.</p><p>Old refers to an item that you saw before in the indoor/outdoor game that you just played, new refers to an item you have <b>not</b> seen before within the indoor/outdoor game, and similar refers to an item that is similar to an item youve seen before but is not exactly the same. </p><p>Before we begin, lets go over some brief demonstrations to make sure you understand.</p></div>","","",""
"","html-keyboard-response","197","251896","0.0-197.0","""event"",""trial"",""time""
""blur"",""0"",""0""
""focus"",""0"",""8834""
""fullscreenenter"",""0"",""8939""
","""event"",""trial"",""time""
""blur"",""0"",""0""
","""event"",""trial"",""time""
""focus"",""0"",""8834""
","""event"",""trial"",""time""
""fullscreenenter"",""0"",""8939""
","
","1463.2000000476837","<div class='center'><p>Now, lets see how much you remember about the items you just saw.  For each item, you need to indicate if it was <b>old</b> by pressing the <b>v</b> key, <b>similar</b> by pressing the <b>b</b> key, or <b>new</b> by pressing the <b>n</b> key.</p><p>Old refers to an item that you saw before in the indoor/outdoor game that you just played, new refers to an item you have <b>not</b> seen before within the indoor/outdoor game, and similar refers to an item that is similar to an item youve seen before but is not exactly the same. </p><p>Before we begin, lets go over some brief demonstrations to make sure you understand.</p><div><p><b>[Press the space bar to continue]</b></p></div>","32","","","","","","","",""
"","items","198","259398","0.0-198.0","""event"",""trial"",""time""
""blur"",""0"",""0""
""focus"",""0"",""8834""
""fullscreenenter"",""0"",""8939""
","""event"",""trial"",""time""
""blur"",""0"",""0""
","""event"",""trial"",""time""
""focus"",""0"",""8834""
","""event"",""trial"",""time""
""fullscreenenter"",""0"",""8939""
","
","null","run_exp/static/audio/clip_3_items.m4a","null","","","","","","","",""
"","mop","199","263905","0.0-199.0","""event"",""trial"",""time""
""blur"",""0"",""0""
""focus"",""0"",""8834""
""fullscreenenter"",""0"",""8939""
","""event"",""trial"",""time""
""blur"",""0"",""0""
","""event"",""trial"",""time""
""focus"",""0"",""8834""
","""event"",""trial"",""time""
""fullscreenenter"",""0"",""8939""
","
","null","run_exp/static/audio/clip_4_mop.m4a","null","","","","","","","",""
"","baseball","200","267413","0.0-200.0","""event"",""trial"",""time""
""blur"",""0"",""0""
""focus"",""0"",""8834""
""fullscreenenter"",""0"",""8939""
","""event"",""trial"",""time""
""blur"",""0"",""0""
","""event"",""trial"",""time""
""focus"",""0"",""8834""
","""event"",""trial"",""time""
""fullscreenenter"",""0"",""8939""
","
","null","run_exp/static/audio/clip_5_baseball.m4a","null","","","","","","","",""
"","trumpet","201","270921","0.0-201.0","""event"",""trial"",""time""
""blur"",""0"",""0""
""focus"",""0"",""8834""
""fullscreenenter"",""0"",""8939""
","""event"",""trial"",""time""
""blur"",""0"",""0""
","""event"",""trial"",""time""
""focus"",""0"",""8834""
","""event"",""trial"",""time""
""fullscreenenter"",""0"",""8939""
","
","null","run_exp/static/audio/clip_6_trumpet.m4a","null","","","","","","","",""
"","gummies","202","274429","0.0-202.0","""event"",""trial"",""time""
""blur"",""0"",""0""
""focus"",""0"",""8834""
""fullscreenenter"",""0"",""8939""
","""event"",""trial"",""time""
""blur"",""0"",""0""
","""event"",""trial"",""time""
""focus"",""0"",""8834""
","""event"",""trial"",""time""
""fullscreenenter"",""0"",""8939""
","
","null","run_exp/static/audio/clip_7_gummies.m4a","null","","","","","","","",""
"","osn","203","278942","0.0-203.0","""event"",""trial"",""time""
""blur"",""0"",""0""
""focus"",""0"",""8834""
""fullscreenenter"",""0"",""8939""
","""event"",""trial"",""time""
""blur"",""0"",""0""
","""event"",""trial"",""time""
""focus"",""0"",""8834""
","""event"",""trial"",""time""
""fullscreenenter"",""0"",""8939""
","
","null","run_exp/static/audio/clip_8_osn.m4a","null","","","","","","","",""
"","old_1","204","285444","0.0-204.0","""event"",""trial"",""time""
""blur"",""0"",""0""
""focus"",""0"",""8834""
""fullscreenenter"",""0"",""8939""
","""event"",""trial"",""time""
""blur"",""0"",""0""
","""event"",""trial"",""time""
""focus"",""0"",""8834""
","""event"",""trial"",""time""
""fullscreenenter"",""0"",""8939""
","
","null","run_exp/static/audio/clip_9_old_trumpet.m4a","null","","","","","","","",""
"","new_1","205","292959","0.0-205.0","""event"",""trial"",""time""
""blur"",""0"",""0""
""focus"",""0"",""8834""
""fullscreenenter"",""0"",""8939""
","""event"",""trial"",""time""
""blur"",""0"",""0""
","""event"",""trial"",""time""
""focus"",""0"",""8834""
","""event"",""trial"",""time""
""fullscreenenter"",""0"",""8939""
","
","null","run_exp/static/audio/clip_10_new_balloon.m4a","null","","","","","","","",""
"","similar_1a","206","297461","0.0-206.0","""event"",""trial"",""time""
""blur"",""0"",""0""
""focus"",""0"",""8834""
""fullscreenenter"",""0"",""8939""
","""event"",""trial"",""time""
""blur"",""0"",""0""
","""event"",""trial"",""time""
""focus"",""0"",""8834""
","""event"",""trial"",""time""
""fullscreenenter"",""0"",""8939""
","
","null","run_exp/static/audio/clip_11a_similar_mop.m4a","null","","","","","","","",""
"","similar_1b","207","303975","0.0-207.0","""event"",""trial"",""time""
""blur"",""0"",""0""
""focus"",""0"",""8834""
""fullscreenenter"",""0"",""8939""
","""event"",""trial"",""time""
""blur"",""0"",""0""
","""event"",""trial"",""time""
""focus"",""0"",""8834""
","""event"",""trial"",""time""
""fullscreenenter"",""0"",""8939""
","
","null","run_exp/static/audio/clip_11b_similar_mop.m4a","null","","","","","","","",""
"","new_2","208","307481","0.0-208.0","""event"",""trial"",""time""
""blur"",""0"",""0""
""focus"",""0"",""8834""
""fullscreenenter"",""0"",""8939""
","""event"",""trial"",""time""
""blur"",""0"",""0""
","""event"",""trial"",""time""
""focus"",""0"",""8834""
","""event"",""trial"",""time""
""fullscreenenter"",""0"",""8939""
","
","null","run_exp/static/audio/clip_12_new_stoplight.m4a","null","","","","","","","",""
"","old_2","209","310997","0.0-209.0","""event"",""trial"",""time""
""blur"",""0"",""0""
""focus"",""0"",""8834""
""fullscreenenter"",""0"",""8939""
","""event"",""trial"",""time""
""blur"",""0"",""0""
","""event"",""trial"",""time""
""focus"",""0"",""8834""
","""event"",""trial"",""time""
""fullscreenenter"",""0"",""8939""
","
","null","run_exp/static/audio/clip_13_old_baseball.m4a","null","","","","","","","",""
"","similar_2a","210","314509","0.0-210.0","""event"",""trial"",""time""
""blur"",""0"",""0""
""focus"",""0"",""8834""
""fullscreenenter"",""0"",""8939""
","""event"",""trial"",""time""
""blur"",""0"",""0""
","""event"",""trial"",""time""
""focus"",""0"",""8834""
","""event"",""trial"",""time""
""fullscreenenter"",""0"",""8939""
","
","null","run_exp/static/audio/clip_14a_similar_gummies.m4a","null","","","","","","","",""
"","similar_2b","211","322019","0.0-211.0","""event"",""trial"",""time""
""blur"",""0"",""0""
""focus"",""0"",""8834""
""fullscreenenter"",""0"",""8939""
","""event"",""trial"",""time""
""blur"",""0"",""0""
","""event"",""trial"",""time""
""focus"",""0"",""8834""
","""event"",""trial"",""time""
""fullscreenenter"",""0"",""8939""
","
","null","run_exp/static/audio/clip_14b_similar_gummies.m4a","null","","","","","","","",""
"","practice","212","364139","0.0-212.0","""event"",""trial"",""time""
""blur"",""0"",""0""
""focus"",""0"",""8834""
""fullscreenenter"",""0"",""8939""
","""event"",""trial"",""time""
""blur"",""0"",""0""
","""event"",""trial"",""time""
""focus"",""0"",""8834""
","""event"",""trial"",""time""
""fullscreenenter"",""0"",""8939""
","
","null","run_exp/static/audio/clip_15_practice.m4a","null","","","","","<div class='center'><p>Lets practice a little to make sure you understand the difference between new, similar, and old. Lets say you saw these three items in the indoor/outdoor game.</p><p> Try your best to remember these images because youll soon be tested on them in a practice game. In the practice game, youll be shown images and youll have to say if they are old (one of the three images belows), similar (similar to one of the images below but not exactly the same), or new (are not one of the images below nor similar to them).</p><p>Once you press the space bar youll be shown these images again but one at time. Then youll begin the practice game.</p><p><img src='run_exp/static/images/tutorial/test/three_indoor_outdoor.png' height='300'></p></div>","","",""
"","html-keyboard-response","213","366826","0.0-213.0","""event"",""trial"",""time""
""blur"",""0"",""0""
""focus"",""0"",""8834""
""fullscreenenter"",""0"",""8939""
","""event"",""trial"",""time""
""blur"",""0"",""0""
","""event"",""trial"",""time""
""focus"",""0"",""8834""
","""event"",""trial"",""time""
""fullscreenenter"",""0"",""8939""
","
","2686.7999999523163","<div class='center'><p>Lets practice a little to make sure you understand the difference between new, similar, and old. Lets say you saw these three items in the indoor/outdoor game.</p><p> Try your best to remember these images because youll soon be tested on them in a practice game. In the practice game, youll be shown images and youll have to say if they are old (one of the three images belows), similar (similar to one of the images below but not exactly the same), or new (are not one of the images below nor similar to them).</p><p>Once you press the space bar youll be shown these images again but one at time. Then youll begin the practice game.</p><p><img src='run_exp/static/images/tutorial/test/three_indoor_outdoor.png' height='300'></p><div><p><b>[Press the space bar to continue]</b></p></div>","32","","","","","","","",""
"","planet","214","368839","0.0-214.0","""event"",""trial"",""time""
""blur"",""0"",""0""
""focus"",""0"",""8834""
""fullscreenenter"",""0"",""8939""
","""event"",""trial"",""time""
""blur"",""0"",""0""
","""event"",""trial"",""time""
""focus"",""0"",""8834""
","""event"",""trial"",""time""
""fullscreenenter"",""0"",""8939""
","
","null","run_exp/static/images/tutorial/test/008a.jpg","null","","","","","","","",""
"","boot","215","370842","0.0-215.0","""event"",""trial"",""time""
""blur"",""0"",""0""
""focus"",""0"",""8834""
""fullscreenenter"",""0"",""8939""
","""event"",""trial"",""time""
""blur"",""0"",""0""
","""event"",""trial"",""time""
""focus"",""0"",""8834""
","""event"",""trial"",""time""
""fullscreenenter"",""0"",""8939""
","
","null","run_exp/static/images/tutorial/test/011a.jpg","null","","","","","","","",""
"","lemon","216","372856","0.0-216.0","""event"",""trial"",""time""
""blur"",""0"",""0""
""focus"",""0"",""8834""
""fullscreenenter"",""0"",""8939""
","""event"",""trial"",""time""
""blur"",""0"",""0""
","""event"",""trial"",""time""
""focus"",""0"",""8834""
","""event"",""trial"",""time""
""fullscreenenter"",""0"",""8939""
","
","null","run_exp/static/images/tutorial/test/018a.jpg","null","","","","","","","",""
"","practice_q1","217","375929","0.0-217.0","""event"",""trial"",""time""
""blur"",""0"",""0""
""focus"",""0"",""8834""
""fullscreenenter"",""0"",""8939""
","""event"",""trial"",""time""
""blur"",""0"",""0""
","""event"",""trial"",""time""
""focus"",""0"",""8834""
","""event"",""trial"",""time""
""fullscreenenter"",""0"",""8939""
","
","3071","run_exp/static/audio/clip_16_practice_question.m4a","78","","","","","","","",""
"","correct","218","377835","0.0-218.0-0.0","""event"",""trial"",""time""
""blur"",""0"",""0""
""focus"",""0"",""8834""
""fullscreenenter"",""0"",""8939""
","""event"",""trial"",""time""
""blur"",""0"",""0""
","""event"",""trial"",""time""
""focus"",""0"",""8834""
","""event"",""trial"",""time""
""fullscreenenter"",""0"",""8939""
","
","null","run_exp/static/audio/clip_17_correct.m4a","null","","","","","<div class='center'><p>That's correct!</p></div>","","",""
"","html-keyboard-response","219","379739","0.0-218.0-1.0","""event"",""trial"",""time""
""blur"",""0"",""0""
""focus"",""0"",""8834""
""fullscreenenter"",""0"",""8939""
","""event"",""trial"",""time""
""blur"",""0"",""0""
","""event"",""trial"",""time""
""focus"",""0"",""8834""
","""event"",""trial"",""time""
""fullscreenenter"",""0"",""8939""
","
","1903.2000000476837","<div class='center'><p>That's correct!</p><div><p><b>[Press the space bar to continue]</b></p></div>","32","","","","","","","",""
"","practice_q2","220","381212","0.0-218.0-2.0","""event"",""trial"",""time""
""blur"",""0"",""0""
""focus"",""0"",""8834""
""fullscreenenter"",""0"",""8939""
","""event"",""trial"",""time""
""blur"",""0"",""0""
","""event"",""trial"",""time""
""focus"",""0"",""8834""
","""event"",""trial"",""time""
""fullscreenenter"",""0"",""8939""
","
","1472","run_exp/static/audio/clip_16_practice_question.m4a","86","","","","","","","",""
"","correct","221","383104","0.0-219.0-0.0","""event"",""trial"",""time""
""blur"",""0"",""0""
""focus"",""0"",""8834""
""fullscreenenter"",""0"",""8939""
","""event"",""trial"",""time""
""blur"",""0"",""0""
","""event"",""trial"",""time""
""focus"",""0"",""8834""
","""event"",""trial"",""time""
""fullscreenenter"",""0"",""8939""
","
","null","run_exp/static/audio/clip_17_correct.m4a","null","","","","","<div class='center'><p>That's correct!</p></div>","","",""
"","html-keyboard-response","222","384519","0.0-219.0-1.0","""event"",""trial"",""time""
""blur"",""0"",""0""
""focus"",""0"",""8834""
""fullscreenenter"",""0"",""8939""
","""event"",""trial"",""time""
""blur"",""0"",""0""
","""event"",""trial"",""time""
""focus"",""0"",""8834""
","""event"",""trial"",""time""
""fullscreenenter"",""0"",""8939""
","
","1414","<div class='center'><p>That's correct!</p><div><p><b>[Press the space bar to continue]</b></p></div>","32","","","","","","","",""
"","practice_q3","223","387510","0.0-219.0-2.0","""event"",""trial"",""time""
