"success","trial_type","trial_index","time_elapsed","internal_node_id","interactions","blur_events","focus_events","fullscreenenter_events","fullscreenexit_events","rt","stimulus","key_press","subject_id","participant_id","age","gender","prompt","phase","condition","lure_bin"
"true","fullscreen","0","2144","0.0-0.0","""event"",""trial"",""time""
""fullscreenenter"",""0"",""1156""
","
","
","""event"",""trial"",""time""
""fullscreenenter"",""0"",""1156""
","
","","","","","","","","","","",""
"","pavlovia","1","2151","0.0-1.0","""event"",""trial"",""time""
""fullscreenenter"",""0"",""1156""
","
","
","""event"",""trial"",""time""
""fullscreenenter"",""0"",""1156""
","
","","","","","","","","","","",""
"","welcome","2","37010","0.0-2.0","""event"",""trial"",""time""
""fullscreenenter"",""0"",""1156""
","
","
","""event"",""trial"",""time""
""fullscreenenter"",""0"",""1156""
","
","null","run_exp/static/audio/clip_1_welcome.m4a","null","480","247","17","Male","<div class='center'><p>Welcome to the third part of the study! First, you'll be shown pictures of items one at a time. For each picture, you have to decide if the item is typically found indoors or outdoors.</p><p>If you think it's usually found indoors, then press <b>v</b> key on your keyboard. If you think it's usually found outdoors, then press the <b>n</b> key.There will be reminders on the screen to help you remember which keys to press. </p><p>If you're not sure whether the item is an indoor item or an outdoor item, go ahead and take a guess but try your best not to skip that choice. </p></div>","","",""
"","html-keyboard-response","3","37122","0.0-3.0","""event"",""trial"",""time""
""fullscreenenter"",""0"",""1156""
","
","
","""event"",""trial"",""time""
""fullscreenenter"",""0"",""1156""
","
","108","<div class='center'><p>Welcome to the third part of the study! First, you'll be shown pictures of items one at a time. For each picture, you have to decide if the item is typically found indoors or outdoors.</p><p>If you think it's usually found indoors, then press <b>v</b> key on your keyboard. If you think it's usually found outdoors, then press the <b>n</b> key.There will be reminders on the screen to help you remember which keys to press. </p><p>If you're not sure whether the item is an indoor item or an outdoor item, go ahead and take a guess but try your best not to skip that choice. </p><div><p><b>[Press the space bar to continue]</b></p></div>","32","","","","","","","",""
"","image","4","39127","0.0-4.0","""event"",""trial"",""time""
""fullscreenenter"",""0"",""1156""
","
","
","""event"",""trial"",""time""
""fullscreenenter"",""0"",""1156""
","
","null","run_exp/static/images/Set 6_rs/070a.jpg","null","","","","","","learn","SR",""
"","show_choice","5","41133","0.0-5.0","""event"",""trial"",""time""
""fullscreenenter"",""0"",""1156""
","
","
","""event"",""trial"",""time""
""fullscreenenter"",""0"",""1156""
","
","null","run_exp/static/images/blank.png","null","","","","","","learn","SR",""
"","html-keyboard-response","6","41639","0.0-6.0","""event"",""trial"",""time""
""fullscreenenter"",""0"",""1156""
","
","
","""event"",""trial"",""time""
""fullscreenenter"",""0"",""1156""
","
","null","<p></p>","null","","","","","","","",""
"","image","7","42613","0.0-7.0","""event"",""trial"",""time""
""fullscreenenter"",""0"",""1156""
","
","
","""event"",""trial"",""time""
""fullscreenenter"",""0"",""1156""
","
","971.5","run_exp/static/images/Set 6_rs/095a.jpg","86","","","","","","learn","SL",""
"","show_choice","8","43645","0.0-8.0","""event"",""trial"",""time""
""fullscreenenter"",""0"",""1156""
","
","
","""event"",""trial"",""time""
""fullscreenenter"",""0"",""1156""
","
","null","run_exp/static/images/Set 6_rs/095a.jpg","null","","","","","","learn","SL",""
"","html-keyboard-response","9","44151","0.0-9.0","""event"",""trial"",""time""
""fullscreenenter"",""0"",""1156""
","
","
","""event"",""trial"",""time""
""fullscreenenter"",""0"",""1156""
","
","null","<p></p>","null","","","","","","","",""
"","image","10","45028","0.0-10.0","""event"",""trial"",""time""
""fullscreenenter"",""0"",""1156""
","
","
","""event"",""trial"",""time""
""fullscreenenter"",""0"",""1156""
","
","873.7000000476837","run_exp/static/images/Set 6_rs/169a.jpg","78","","","","","","learn","SR",""
"","show_choice","11","46157","0.0-11.0","""event"",""trial"",""time""
""fullscreenenter"",""0"",""1156""
","
","
","""event"",""trial"",""time""
""fullscreenenter"",""0"",""1156""
","
","null","run_exp/static/images/Set 6_rs/169a.jpg","null","","","","","","learn","SR",""
"","html-keyboard-response","12","46663","0.0-12.0","""event"",""trial"",""time""
""fullscreenenter"",""0"",""1156""
","
","
","""event"",""trial"",""time""
""fullscreenenter"",""0"",""1156""
","
","null","<p></p>","null","","","","","","","",""
"","image","13","47305","0.0-13.0","""event"",""trial"",""time""
""fullscreenenter"",""0"",""1156""
","
","
","""event"",""trial"",""time""
""fullscreenenter"",""0"",""1156""
","
","637.8999999761581","run_exp/static/images/Set 6_rs/112a.jpg","86","","","","","","learn","SR",""
"","show_choice","14","48669","0.0-14.0","""event"",""trial"",""time""
""fullscreenenter"",""0"",""1156""
","
","
","""event"",""trial"",""time""
""fullscreenenter"",""0"",""1156""
","
","null","run_exp/static/images/Set 6_rs/112a.jpg","null","","","","","","learn","SR",""
"","html-keyboard-response","15","49175","0.0-15.0","""event"",""trial"",""time""
""fullscreenenter"",""0"",""1156""
","
","
","""event"",""trial"",""time""
""fullscreenenter"",""0"",""1156""
","
","null","<p></p>","null","","","","","","","",""
"","image","16","51112","0.0-16.0","""event"",""trial"",""time""
""fullscreenenter"",""0"",""1156""
","
","
","""event"",""trial"",""time""
""fullscreenenter"",""0"",""1156""
","
","1934.1000000238419","run_exp/static/images/Set 6_rs/138a.jpg","86","","","","","","learn","SL",""
"","show_choice","17","51183","0.0-17.0","""event"",""trial"",""time""
""fullscreenenter"",""0"",""1156""
","
","
","""event"",""trial"",""time""
""fullscreenenter"",""0"",""1156""
","
","null","run_exp/static/images/Set 6_rs/138a.jpg","null","","","","","","learn","SL",""
"","html-keyboard-response","18","51689","0.0-18.0","""event"",""trial"",""time""
""fullscreenenter"",""0"",""1156""
","
","
","""event"",""trial"",""time""
""fullscreenenter"",""0"",""1156""
","
","null","<p></p>","null","","","","","","","",""
"","image","19","53259","0.0-19.0","""event"",""trial"",""time""
""fullscreenenter"",""0"",""1156""
","
","
","""event"",""trial"",""time""
""fullscreenenter"",""0"",""1156""
","
","1568.8000000715256","run_exp/static/images/Set 6_rs/141a.jpg","78","","","","","","learn","SR",""
"","show_choice","20","53693","0.0-20.0","""event"",""trial"",""time""
""fullscreenenter"",""0"",""1156""
","
","
","""event"",""trial"",""time""
""fullscreenenter"",""0"",""1156""
","
","null","run_exp/static/images/Set 6_rs/141a.jpg","null","","","","","","learn","SR",""
"","html-keyboard-response","21","54199","0.0-21.0","""event"",""trial"",""time""
""fullscreenenter"",""0"",""1156""
","
","
","""event"",""trial"",""time""
""fullscreenenter"",""0"",""1156""
","
","null","<p></p>","null","","","","","","","",""
"","image","22","56024","0.0-22.0","""event"",""trial"",""time""
""fullscreenenter"",""0"",""1156""
","
","
","""event"",""trial"",""time""
""fullscreenenter"",""0"",""1156""
","
","1822.1999999284744","run_exp/static/images/Set 6_rs/121a.jpg","86","","","","","","learn","SR",""
"","show_choice","23","56205","0.0-23.0","""event"",""trial"",""time""
""fullscreenenter"",""0"",""1156""
","
","
","""event"",""trial"",""time""
""fullscreenenter"",""0"",""1156""
","
","null","run_exp/static/images/Set 6_rs/121a.jpg","null","","","","","","learn","SR",""
"","html-keyboard-response","24","56711","0.0-24.0","""event"",""trial"",""time""
""fullscreenenter"",""0"",""1156""
","
","
","""event"",""trial"",""time""
""fullscreenenter"",""0"",""1156""
","
","null","<p></p>","null","","","","","","","",""
"","image","25","57506","0.0-25.0","""event"",""trial"",""time""
""fullscreenenter"",""0"",""1156""
","
","
","""event"",""trial"",""time""
""fullscreenenter"",""0"",""1156""
","
","792.6999999284744","run_exp/static/images/Set 6_rs/152a.jpg","86","","","","","","learn","SR",""
"","show_choice","26","58718","0.0-26.0","""event"",""trial"",""time""
""fullscreenenter"",""0"",""1156""
","
","
","""event"",""trial"",""time""
""fullscreenenter"",""0"",""1156""
","
","null","run_exp/static/images/Set 6_rs/152a.jpg","null","","","","","","learn","SR",""
"","html-keyboard-response","27","59223","0.0-27.0","""event"",""trial"",""time""
""fullscreenenter"",""0"",""1156""
","
","
","""event"",""trial"",""time""
""fullscreenenter"",""0"",""1156""
","
","null","<p></p>","null","","","","","","","",""
"","image","28","61051","0.0-28.0","""event"",""trial"",""time""
""fullscreenenter"",""0"",""1156""
","
","
","""event"",""trial"",""time""
""fullscreenenter"",""0"",""1156""
","
","1825.6000000238419","run_exp/static/images/Set 6_rs/006a.jpg","86","","","","","","learn","SL",""
"","show_choice","29","61228","0.0-29.0","""event"",""trial"",""time""
""fullscreenenter"",""0"",""1156""
","
","
","""event"",""trial"",""time""
""fullscreenenter"",""0"",""1156""
","
","null","run_exp/static/images/Set 6_rs/006a.jpg","null","","","","","","learn","SL",""
"","html-keyboard-response","30","61732","0.0-30.0","""event"",""trial"",""time""
""fullscreenenter"",""0"",""1156""
","
","
","""event"",""trial"",""time""
""fullscreenenter"",""0"",""1156""
","
","null","<p></p>","null","","","","","","","",""
"","image","31","62617","0.0-31.0","""event"",""trial"",""time""
""fullscreenenter"",""0"",""1156""
","
","
","""event"",""trial"",""time""
""fullscreenenter"",""0"",""1156""
","
","883.7000000476837","run_exp/static/images/Set 6_rs/075a.jpg","86","","","","","","learn","SR",""
"","show_choice","32","63739","0.0-32.0","""event"",""trial"",""time""
""fullscreenenter"",""0"",""1156""
","
","
","""event"",""trial"",""time""
""fullscreenenter"",""0"",""1156""
","
","null","run_exp/static/images/Set 6_rs/075a.jpg","null","","","","","","learn","SR",""
"","html-keyboard-response","33","64245","0.0-33.0","""event"",""trial"",""time""
""fullscreenenter"",""0"",""1156""
","
","
","""event"",""trial"",""time""
""fullscreenenter"",""0"",""1156""
","
","null","<p></p>","null","","","","","","","",""
"","image","34","65176","0.0-34.0","""event"",""trial"",""time""
""fullscreenenter"",""0"",""1156""
","
","
","""event"",""trial"",""time""
""fullscreenenter"",""0"",""1156""
","
","928.3000000715256","run_exp/static/images/Set 6_rs/074a.jpg","78","","","","","","learn","SL",""
"","show_choice","35","66251","0.0-35.0","""event"",""trial"",""time""
""fullscreenenter"",""0"",""1156""
","
","
","""event"",""trial"",""time""
""fullscreenenter"",""0"",""1156""
","
","null","run_exp/static/images/Set 6_rs/074a.jpg","null","","","","","","learn","SL",""
"","html-keyboard-response","36","66757","0.0-36.0","""event"",""trial"",""time""
""fullscreenenter"",""0"",""1156""
","
","
","""event"",""trial"",""time""
""fullscreenenter"",""0"",""1156""
","
","null","<p></p>","null","","","","","","","",""
"","image","37","68605","0.0-37.0","""event"",""trial"",""time""
""fullscreenenter"",""0"",""1156""
","
","
","""event"",""trial"",""time""
""fullscreenenter"",""0"",""1156""
","
","1846.6999999284744","run_exp/static/images/Set 6_rs/064a.jpg","86","","","","","","learn","SR",""
"","show_choice","38","68763","0.0-38.0","""event"",""trial"",""time""
""fullscreenenter"",""0"",""1156""
","
","
","""event"",""trial"",""time""
""fullscreenenter"",""0"",""1156""
","
","null","run_exp/static/images/Set 6_rs/064a.jpg","null","","","","","","learn","SR",""
"","html-keyboard-response","39","69270","0.0-39.0","""event"",""trial"",""time""
""fullscreenenter"",""0"",""1156""
","
","
","""event"",""trial"",""time""
""fullscreenenter"",""0"",""1156""
","
","null","<p></p>","null","","","","","","","",""
"","image","40","70184","0.0-40.0","""event"",""trial"",""time""
""fullscreenenter"",""0"",""1156""
","
","
","""event"",""trial"",""time""
""fullscreenenter"",""0"",""1156""
","
","911.5","run_exp/static/images/Set 6_rs/055a.jpg","86","","","","","","learn","SL",""
"","show_choice","41","71277","0.0-41.0","""event"",""trial"",""time""
""fullscreenenter"",""0"",""1156""
","
","
","""event"",""trial"",""time""
""fullscreenenter"",""0"",""1156""
","
","null","run_exp/static/images/Set 6_rs/055a.jpg","null","","","","","","learn","SL",""
"","html-keyboard-response","42","71779","0.0-42.0","""event"",""trial"",""time""
""fullscreenenter"",""0"",""1156""
","
","
","""event"",""trial"",""time""
""fullscreenenter"",""0"",""1156""
","
","null","<p></p>","null","","","","","","","",""
"","image","43","72817","0.0-43.0","""event"",""trial"",""time""
""fullscreenenter"",""0"",""1156""
","
","
","""event"",""trial"",""time""
""fullscreenenter"",""0"",""1156""
","
","1037.1999999284744","run_exp/static/images/Set 6_rs/122a.jpg","86","","","","","","learn","SR",""
"","show_choice","44","73785","0.0-44.0","""event"",""trial"",""time""
""fullscreenenter"",""0"",""1156""
","
","
","""event"",""trial"",""time""
""fullscreenenter"",""0"",""1156""
","
","null","run_exp/static/images/Set 6_rs/122a.jpg","null","","","","","","learn","SR",""
"","html-keyboard-response","45","74290","0.0-45.0","""event"",""trial"",""time""
""fullscreenenter"",""0"",""1156""
","
","
","""event"",""trial"",""time""
""fullscreenenter"",""0"",""1156""
","
","null","<p></p>","null","","","","","","","",""
"","image","46","75722","0.0-46.0","""event"",""trial"",""time""
""fullscreenenter"",""0"",""1156""
","
","
","""event"",""trial"",""time""
""fullscreenenter"",""0"",""1156""
","
","1430.6000000238419","run_exp/static/images/Set 6_rs/132a.jpg","78","","","","","","learn","SR",""
"","show_choice","47","76295","0.0-47.0","""event"",""trial"",""time""
""fullscreenenter"",""0"",""1156""
","
","
","""event"",""trial"",""time""
""fullscreenenter"",""0"",""1156""
","
","null","run_exp/static/images/Set 6_rs/132a.jpg","null","","","","","","learn","SR",""
"","html-keyboard-response","48","76801","0.0-48.0","""event"",""trial"",""time""
""fullscreenenter"",""0"",""1156""
","
","
","""event"",""trial"",""time""
""fullscreenenter"",""0"",""1156""
","
","null","<p></p>","null","","","","","","","",""
"","image","49","77745","0.0-49.0","""event"",""trial"",""time""
""fullscreenenter"",""0"",""1156""
","
","
","""event"",""trial"",""time""
""fullscreenenter"",""0"",""1156""
","
","942.5","run_exp/static/images/Set 6_rs/172a.jpg","78","","","","","","learn","SR",""
"","show_choice","50","78807","0.0-50.0","""event"",""trial"",""time""
""fullscreenenter"",""0"",""1156""
","
","
","""event"",""trial"",""time""
""fullscreenenter"",""0"",""1156""
","
","null","run_exp/static/images/Set 6_rs/172a.jpg","null","","","","","","learn","SR",""
"","html-keyboard-response","51","79313","0.0-51.0","""event"",""trial"",""time""
""fullscreenenter"",""0"",""1156""
","
","
","""event"",""trial"",""time""
""fullscreenenter"",""0"",""1156""
","
","null","<p></p>","null","","","","","","","",""
"","image","52","80631","0.0-52.0","""event"",""trial"",""time""
""fullscreenenter"",""0"",""1156""
","
","
","""event"",""trial"",""time""
""fullscreenenter"",""0"",""1156""
","
","1314.5999999046326","run_exp/static/images/Set 6_rs/088a.jpg","86","","","","","","learn","SR",""
"","show_choice","53","81321","0.0-53.0","""event"",""trial"",""time""
""fullscreenenter"",""0"",""1156""
","
","
","""event"",""trial"",""time""
""fullscreenenter"",""0"",""1156""
","
","null","run_exp/static/images/Set 6_rs/088a.jpg","null","","","","","","learn","SR",""
"","html-keyboard-response","54","81826","0.0-54.0","""event"",""trial"",""time""
""fullscreenenter"",""0"",""1156""
","
","
","""event"",""trial"",""time""
""fullscreenenter"",""0"",""1156""
","
","null","<p></p>","null","","","","","","","",""
"","image","55","82872","0.0-55.0","""event"",""trial"",""time""
""fullscreenenter"",""0"",""1156""
","
","
","""event"",""trial"",""time""
""fullscreenenter"",""0"",""1156""
","
","1045.1000000238419","run_exp/static/images/Set 6_rs/186a.jpg","86","","","","","","learn","SR",""
"","show_choice","56","83831","0.0-56.0","""event"",""trial"",""time""
""fullscreenenter"",""0"",""1156""
","
","
","""event"",""trial"",""time""
""fullscreenenter"",""0"",""1156""
","
","null","run_exp/static/images/Set 6_rs/186a.jpg","null","","","","","","learn","SR",""
"","html-keyboard-response","57","84336","0.0-57.0","""event"",""trial"",""time""
""fullscreenenter"",""0"",""1156""
","
","
","""event"",""trial"",""time""
""fullscreenenter"",""0"",""1156""
","
","null","<p></p>","null","","","","","","","",""
"","image","58","85770","0.0-58.0","""event"",""trial"",""time""
""fullscreenenter"",""0"",""1156""
","
","
","""event"",""trial"",""time""
""fullscreenenter"",""0"",""1156""
","
","1430.7999999523163","run_exp/static/images/Set 6_rs/191a.jpg","86","","","","","","learn","SL",""
"","show_choice","59","86343","0.0-59.0","""event"",""trial"",""time""
""fullscreenenter"",""0"",""1156""
","
","
","""event"",""trial"",""time""
""fullscreenenter"",""0"",""1156""
","
","null","run_exp/static/images/Set 6_rs/191a.jpg","null","","","","","","learn","SL",""
"","html-keyboard-response","60","86848","0.0-60.0","""event"",""trial"",""time""
""fullscreenenter"",""0"",""1156""
","
","
","""event"",""trial"",""time""
""fullscreenenter"",""0"",""1156""
","
","null","<p></p>","null","","","","","","","",""
"","image","61","87793","0.0-61.0","""event"",""trial"",""time""
""fullscreenenter"",""0"",""1156""
","
","
","""event"",""trial"",""time""
""fullscreenenter"",""0"",""1156""
","
","941.8999999761581","run_exp/static/images/Set 6_rs/131a.jpg","86","","","","","","learn","SR",""
"","show_choice","62","88854","0.0-62.0","""event"",""trial"",""time""
""fullscreenenter"",""0"",""1156""
","
","
","""event"",""trial"",""time""
""fullscreenenter"",""0"",""1156""
","
","null","run_exp/static/images/Set 6_rs/131a.jpg","null","","","","","","learn","SR",""
"","html-keyboard-response","63","89360","0.0-63.0","""event"",""trial"",""time""
""fullscreenenter"",""0"",""1156""
","
","
","""event"",""trial"",""time""
""fullscreenenter"",""0"",""1156""
","
","null","<p></p>","null","","","","","","","",""
"","image","64","90358","0.0-64.0","""event"",""trial"",""time""
""fullscreenenter"",""0"",""1156""
","
","
","""event"",""trial"",""time""
""fullscreenenter"",""0"",""1156""
","
","995.2000000476837","run_exp/static/images/Set 6_rs/017a.jpg","86","","","","","","learn","SL",""
"","show_choice","65","91367","0.0-65.0","""event"",""trial"",""time""
""fullscreenenter"",""0"",""1156""
","
","
","""event"",""trial"",""time""
""fullscreenenter"",""0"",""1156""
","
","null","run_exp/static/images/Set 6_rs/017a.jpg","null","","","","","","learn","SL",""
"","html-keyboard-response","66","91872","0.0-66.0","""event"",""trial"",""time""
""fullscreenenter"",""0"",""1156""
","
","
","""event"",""trial"",""time""
""fullscreenenter"",""0"",""1156""
","
","null","<p></p>","null","","","","","","","",""
"","image","67","92819","0.0-67.0","""event"",""trial"",""time""
""fullscreenenter"",""0"",""1156""
","
","
","""event"",""trial"",""time""
""fullscreenenter"",""0"",""1156""
","
","943.7000000476837","run_exp/static/images/Set 6_rs/063a.jpg","86","","","","","","learn","SR",""
"","show_choice","68","93880","0.0-68.0","""event"",""trial"",""time""
""fullscreenenter"",""0"",""1156""
","
","
","""event"",""trial"",""time""
""fullscreenenter"",""0"",""1156""
","
","null","run_exp/static/images/Set 6_rs/063a.jpg","null","","","","","","learn","SR",""
"","html-keyboard-response","69","94387","0.0-69.0","""event"",""trial"",""time""
""fullscreenenter"",""0"",""1156""
","
","
","""event"",""trial"",""time""
""fullscreenenter"",""0"",""1156""
","
","null","<p></p>","null","","","","","","","",""
"","image","70","95443","0.0-70.0","""event"",""trial"",""time""
""fullscreenenter"",""0"",""1156""
","
","
","""event"",""trial"",""time""
""fullscreenenter"",""0"",""1156""
","
","1054.2999999523163","run_exp/static/images/Set 6_rs/057a.jpg","86","","","","","","learn","SL",""
"","show_choice","71","96392","0.0-71.0","""event"",""trial"",""time""
""fullscreenenter"",""0"",""1156""
","
","
","""event"",""trial"",""time""
""fullscreenenter"",""0"",""1156""
","
","null","run_exp/static/images/Set 6_rs/057a.jpg","null","","","","","","learn","SL",""
"","html-keyboard-response","72","96899","0.0-72.0","""event"",""trial"",""time""
""fullscreenenter"",""0"",""1156""
","
","
","""event"",""trial"",""time""
""fullscreenenter"",""0"",""1156""
","
","null","<p></p>","null","","","","","","","",""
"","image","73","97943","0.0-73.0","""event"",""trial"",""time""
""fullscreenenter"",""0"",""1156""
","
","
","""event"",""trial"",""time""
""fullscreenenter"",""0"",""1156""
","
","1040.5","run_exp/static/images/Set 6_rs/177a.jpg","78","","","","","","learn","SR",""
"","show_choice","74","98907","0.0-74.0","""event"",""trial"",""time""
""fullscreenenter"",""0"",""1156""
","
","
","""event"",""trial"",""time""
""fullscreenenter"",""0"",""1156""
","
","null","run_exp/static/images/Set 6_rs/177a.jpg","null","","","","","","learn","SR",""
"","html-keyboard-response","75","99412","0.0-75.0","""event"",""trial"",""time""
""fullscreenenter"",""0"",""1156""
","
","
","""event"",""trial"",""time""
""fullscreenenter"",""0"",""1156""
","
","null","<p></p>","null","","","","","","","",""
"","image","76","100161","0.0-76.0","""event"",""trial"",""time""
""fullscreenenter"",""0"",""1156""
","
","
","""event"",""trial"",""time""
""fullscreenenter"",""0"",""1156""
","
","744.2999999523163","run_exp/static/images/Set 6_rs/178a.jpg","78","","","","","","learn","SR",""
"","show_choice","77","101420","0.0-77.0","""event"",""trial"",""time""
""fullscreenenter"",""0"",""1156""
","
","
","""event"",""trial"",""time""
""fullscreenenter"",""0"",""1156""
","
","null","run_exp/static/images/Set 6_rs/178a.jpg","null","","","","","","learn","SR",""
"","html-keyboard-response","78","101927","0.0-78.0","""event"",""trial"",""time""
""fullscreenenter"",""0"",""1156""
","
","
","""event"",""trial"",""time""
""fullscreenenter"",""0"",""1156""
","
","null","<p></p>","null","","","","","","","",""
"","image","79","102820","0.0-79.0","""event"",""trial"",""time""
""fullscreenenter"",""0"",""1156""
","
","
","""event"",""trial"",""time""
""fullscreenenter"",""0"",""1156""
","
","890.7999999523163","run_exp/static/images/Set 6_rs/073a.jpg","86","","","","","","learn","SL",""
"","show_choice","80","103932","0.0-80.0","""event"",""trial"",""time""
""fullscreenenter"",""0"",""1156""
","
","
","""event"",""trial"",""time""
""fullscreenenter"",""0"",""1156""
","
","null","run_exp/static/images/Set 6_rs/073a.jpg","null","","","","","","learn","SL",""
"","html-keyboard-response","81","104439","0.0-81.0","""event"",""trial"",""time""
""fullscreenenter"",""0"",""1156""
","
","
","""event"",""trial"",""time""
""fullscreenenter"",""0"",""1156""
","
","null","<p></p>","null","","","","","","","",""
"","image","82","105308","0.0-82.0","""event"",""trial"",""time""
""fullscreenenter"",""0"",""1156""
","
","
","""event"",""trial"",""time""
""fullscreenenter"",""0"",""1156""
","
","867.1999999284744","run_exp/static/images/Set 6_rs/010a.jpg","86","","","","","","learn","SR",""
"","show_choice","83","106444","0.0-83.0","""event"",""trial"",""time""
""fullscreenenter"",""0"",""1156""
","
","
","""event"",""trial"",""time""
""fullscreenenter"",""0"",""1156""
","
","null","run_exp/static/images/Set 6_rs/010a.jpg","null","","","","","","learn","SR",""
"","html-keyboard-response","84","106950","0.0-84.0","""event"",""trial"",""time""
""fullscreenenter"",""0"",""1156""
","
","
","""event"",""trial"",""time""
""fullscreenenter"",""0"",""1156""
","
","null","<p></p>","null","","","","","","","",""
"","image","85","108215","0.0-85.0","""event"",""trial"",""time""
""fullscreenenter"",""0"",""1156""
","
","
","""event"",""trial"",""time""
""fullscreenenter"",""0"",""1156""
","
","1262.2999999523163","run_exp/static/images/Set 6_rs/108a.jpg","78","","","","","","learn","SR",""
"","show_choice","86","108956","0.0-86.0","""event"",""trial"",""time""
""fullscreenenter"",""0"",""1156""
","
","
","""event"",""trial"",""time""
""fullscreenenter"",""0"",""1156""
","
","null","run_exp/static/images/Set 6_rs/108a.jpg","null","","","","","","learn","SR",""
"","html-keyboard-response","87","109464","0.0-87.0","""event"",""trial"",""time""
""fullscreenenter"",""0"",""1156""
","
","
","""event"",""trial"",""time""
""fullscreenenter"",""0"",""1156""
","
","null","<p></p>","null","","","","","","","",""
"","image","88","110527","0.0-88.0","""event"",""trial"",""time""
""fullscreenenter"",""0"",""1156""
","
","
","""event"",""trial"",""time""
""fullscreenenter"",""0"",""1156""
","
","1060","run_exp/static/images/Set 6_rs/144a.jpg","86","","","","","","learn","SL",""
"","show_choice","89","111471","0.0-89.0","""event"",""trial"",""time""
""fullscreenenter"",""0"",""1156""
","
","
","""event"",""trial"",""time""
""fullscreenenter"",""0"",""1156""
","
","null","run_exp/static/images/Set 6_rs/144a.jpg","null","","","","","","learn","SL",""
"","html-keyboard-response","90","111972","0.0-90.0","""event"",""trial"",""time""
""fullscreenenter"",""0"",""1156""
","
","
","""event"",""trial"",""time""
""fullscreenenter"",""0"",""1156""
","
","null","<p></p>","null","","","","","","","",""
"","image","91","112726","0.0-91.0","""event"",""trial"",""time""
""fullscreenenter"",""0"",""1156""
","
","
","""event"",""trial"",""time""
""fullscreenenter"",""0"",""1156""
","
","751.3999999761581","run_exp/static/images/Set 6_rs/154a.jpg","86","","","","","","learn","SR",""
"","show_choice","92","113976","0.0-92.0","""event"",""trial"",""time""
""fullscreenenter"",""0"",""1156""
","
","
","""event"",""trial"",""time""
""fullscreenenter"",""0"",""1156""
","
","null","run_exp/static/images/Set 6_rs/154a.jpg","null","","","","","","learn","SR",""
"","html-keyboard-response","93","114482","0.0-93.0","""event"",""trial"",""time""
""fullscreenenter"",""0"",""1156""
","
","
","""event"",""trial"",""time""
""fullscreenenter"",""0"",""1156""
","
","null","<p></p>","null","","","","","","","",""
"","image","94","115550","0.0-94.0","""event"",""trial"",""time""
""fullscreenenter"",""0"",""1156""
","
","
","""event"",""trial"",""time""
""fullscreenenter"",""0"",""1156""
","
","1065.3999999761581","run_exp/static/images/Set 6_rs/012a.jpg","86","","","","","","learn","SR",""
"","show_choice","95","116488","0.0-95.0","""event"",""trial"",""time""
""fullscreenenter"",""0"",""1156""
","
","
","""event"",""trial"",""time""
""fullscreenenter"",""0"",""1156""
","
","null","run_exp/static/images/Set 6_rs/012a.jpg","null","","","","","","learn","SR",""
"","html-keyboard-response","96","116994","0.0-96.0","""event"",""trial"",""time""
""fullscreenenter"",""0"",""1156""
","
","
","""event"",""trial"",""time""
""fullscreenenter"",""0"",""1156""
","
","null","<p></p>","null","","","","","","","",""
"","image","97","118143","0.0-97.0","""event"",""trial"",""time""
""fullscreenenter"",""0"",""1156""
","
","
","""event"",""trial"",""time""
""fullscreenenter"",""0"",""1156""
","
","1145.8999999761581","run_exp/static/images/Set 6_rs/150a.jpg","86","","","","","","learn","SR",""
"","show_choice","98","119000","0.0-98.0","""event"",""trial"",""time""
""fullscreenenter"",""0"",""1156""
","
","
","""event"",""trial"",""time""
""fullscreenenter"",""0"",""1156""
","
","null","run_exp/static/images/Set 6_rs/150a.jpg","null","","","","","","learn","SR",""
"","html-keyboard-response","99","119506","0.0-99.0","""event"",""trial"",""time""
""fullscreenenter"",""0"",""1156""
","
","
","""event"",""trial"",""time""
""fullscreenenter"",""0"",""1156""
","
","null","<p></p>","null","","","","","","","",""
"","image","100","121494","0.0-100.0","""event"",""trial"",""time""
""fullscreenenter"",""0"",""1156""
","
","
","""event"",""trial"",""time""
""fullscreenenter"",""0"",""1156""
","
","1983.8000000715256","run_exp/static/images/Set 6_rs/085a.jpg","86","","","","","","learn","SL",""
"","show_choice","101","121512","0.0-101.0","""event"",""trial"",""time""
""fullscreenenter"",""0"",""1156""
","
","
","""event"",""trial"",""time""
""fullscreenenter"",""0"",""1156""
","
","null","run_exp/static/images/Set 6_rs/085a.jpg","null","","","","","","learn","SL",""
"","html-keyboard-response","102","122016","0.0-102.0","""event"",""trial"",""time""
""fullscreenenter"",""0"",""1156""
","
","
","""event"",""trial"",""time""
""fullscreenenter"",""0"",""1156""
","
","null","<p></p>","null","","","","","","","",""
"","image","103","123884","0.0-103.0","""event"",""trial"",""time""
""fullscreenenter"",""0"",""1156""
","
","
","""event"",""trial"",""time""
""fullscreenenter"",""0"",""1156""
","
","1865.6000000238419","run_exp/static/images/Set 6_rs/019a.jpg","86","","","","","","learn","SL",""
"","show_choice","104","124022","0.0-104.0","""event"",""trial"",""time""
""fullscreenenter"",""0"",""1156""
","
","
","""event"",""trial"",""time""
""fullscreenenter"",""0"",""1156""
","
","null","run_exp/static/images/Set 6_rs/019a.jpg","null","","","","","","learn","SL",""
"","html-keyboard-response","105","124528","0.0-105.0","""event"",""trial"",""time""
""fullscreenenter"",""0"",""1156""
","
","
","""event"",""trial"",""time""
""fullscreenenter"",""0"",""1156""
","
","null","<p></p>","null","","","","","","","",""
"","image","106","125539","0.0-106.0","""event"",""trial"",""time""
""fullscreenenter"",""0"",""1156""
","
","
","""event"",""trial"",""time""
""fullscreenenter"",""0"",""1156""
","
","1008.2999999523163","run_exp/static/images/Set 6_rs/016a.jpg","86","","","","","","learn","SL",""
"","show_choice","107","126534","0.0-107.0","""event"",""trial"",""time""
""fullscreenenter"",""0"",""1156""
","
","
","""event"",""trial"",""time""
""fullscreenenter"",""0"",""1156""
","
","null","run_exp/static/images/Set 6_rs/016a.jpg","null","","","","","","learn","SL",""
"","html-keyboard-response","108","127040","0.0-108.0","""event"",""trial"",""time""
""fullscreenenter"",""0"",""1156""
","
","
","""event"",""trial"",""time""
""fullscreenenter"",""0"",""1156""
","
","null","<p></p>","null","","","","","","","",""
"","image","109","128453","0.0-109.0","""event"",""trial"",""time""
""fullscreenenter"",""0"",""1156""
","
","
","""event"",""trial"",""time""
""fullscreenenter"",""0"",""1156""
","
","1410.5","run_exp/static/images/Set 6_rs/129a.jpg","86","","","","","","learn","SL",""
"","show_choice","110","129046","0.0-110.0","""event"",""trial"",""time""
""fullscreenenter"",""0"",""1156""
","
","
","""event"",""trial"",""time""
""fullscreenenter"",""0"",""1156""
","
","null","run_exp/static/images/Set 6_rs/129a.jpg","null","","","","","","learn","SL",""
"","html-keyboard-response","111","129552","0.0-111.0","""event"",""trial"",""time""
""fullscreenenter"",""0"",""1156""
","
","
","""event"",""trial"",""time""
""fullscreenenter"",""0"",""1156""
","
","null","<p></p>","null","","","","","","","",""
"","image","112","131162","0.0-112.0","""event"",""trial"",""time""
""fullscreenenter"",""0"",""1156""
","
","
","""event"",""trial"",""time""
""fullscreenenter"",""0"",""1156""
","
","1607.8000000715256","run_exp/static/images/Set 6_rs/050a.jpg","86","","","","","","learn","SL",""
"","show_choice","113","131558","0.0-113.0","""event"",""trial"",""time""
""fullscreenenter"",""0"",""1156""
","
","
","""event"",""trial"",""time""
""fullscreenenter"",""0"",""1156""
","
","null","run_exp/static/images/Set 6_rs/050a.jpg","null","","","","","","learn","SL",""
"","html-keyboard-response","114","132064","0.0-114.0","""event"",""trial"",""time""
""fullscreenenter"",""0"",""1156""
","
","
","""event"",""trial"",""time""
""fullscreenenter"",""0"",""1156""
","
","null","<p></p>","null","","","","","","","",""
"","image","115","133003","0.0-115.0","""event"",""trial"",""time""
""fullscreenenter"",""0"",""1156""
","
","
","""event"",""trial"",""time""
""fullscreenenter"",""0"",""1156""
","
","937.3000000715256","run_exp/static/images/Set 6_rs/014a.jpg","86","","","","","","learn","SL",""
"","show_choice","116","134070","0.0-116.0","""event"",""trial"",""time""
""fullscreenenter"",""0"",""1156""
","
","
","""event"",""trial"",""time""
""fullscreenenter"",""0"",""1156""
","
","null","run_exp/static/images/Set 6_rs/014a.jpg","null","","","","","","learn","SL",""
"","html-keyboard-response","117","134576","0.0-117.0","""event"",""trial"",""time""
""fullscreenenter"",""0"",""1156""
","
","
","""event"",""trial"",""time""
""fullscreenenter"",""0"",""1156""
","
","null","<p></p>","null","","","","","","","",""
"","image","118","135825","0.0-118.0","""event"",""trial"",""time""
""fullscreenenter"",""0"",""1156""
","
","
","""event"",""trial"",""time""
""fullscreenenter"",""0"",""1156""
","
","1247","run_exp/static/images/Set 6_rs/071a.jpg","78","","","","","","learn","SL",""
"","show_choice","119","136582","0.0-119.0","""event"",""trial"",""time""
""fullscreenenter"",""0"",""1156""
","
","
","""event"",""trial"",""time""
""fullscreenenter"",""0"",""1156""
","
","null","run_exp/static/images/Set 6_rs/071a.jpg","null","","","","","","learn","SL",""
"","html-keyboard-response","120","137088","0.0-120.0","""event"",""trial"",""time""
""fullscreenenter"",""0"",""1156""
","
","
","""event"",""trial"",""time""
""fullscreenenter"",""0"",""1156""
","
","null","<p></p>","null","","","","","","","",""
"","image","121","138124","0.0-121.0","""event"",""trial"",""time""
""fullscreenenter"",""0"",""1156""
","
","
","""event"",""trial"",""time""
""fullscreenenter"",""0"",""1156""
","
","1033.8999999761581","run_exp/static/images/Set 6_rs/062a.jpg","86","","","","","","learn","SL",""
"","show_choice","122","139094","0.0-122.0","""event"",""trial"",""time""
""fullscreenenter"",""0"",""1156""
","
","
","""event"",""trial"",""time""
""fullscreenenter"",""0"",""1156""
","
","null","run_exp/static/images/Set 6_rs/062a.jpg","null","","","","","","learn","SL",""
"","html-keyboard-response","123","139600","0.0-123.0","""event"",""trial"",""time""
""fullscreenenter"",""0"",""1156""
","
","
","""event"",""trial"",""time""
""fullscreenenter"",""0"",""1156""
","
","null","<p></p>","null","","","","","","","",""
"","image","124","140695","0.0-124.0","""event"",""trial"",""time""
""fullscreenenter"",""0"",""1156""
","
","
","""event"",""trial"",""time""
""fullscreenenter"",""0"",""1156""
","
","1093.2000000476837","run_exp/static/images/Set 6_rs/111a.jpg","86","","","","","","learn","SL",""
"","show_choice","125","141606","0.0-125.0","""event"",""trial"",""time""
""fullscreenenter"",""0"",""1156""
","
","
","""event"",""trial"",""time""
""fullscreenenter"",""0"",""1156""
","
","null","run_exp/static/images/Set 6_rs/111a.jpg","null","","","","","","learn","SL",""
"","html-keyboard-response","126","142112","0.0-126.0","""event"",""trial"",""time""
""fullscreenenter"",""0"",""1156""
","
","
","""event"",""trial"",""time""
""fullscreenenter"",""0"",""1156""
","
","null","<p></p>","null","","","","","","","",""
"","image","127","143135","0.0-127.0","""event"",""trial"",""time""
""fullscreenenter"",""0"",""1156""
","
","
","""event"",""trial"",""time""
""fullscreenenter"",""0"",""1156""
","
","1021.1000000238419","run_exp/static/images/Set 6_rs/166a.jpg","86","","","","","","learn","SR",""
"","show_choice","128","144118","0.0-128.0","""event"",""trial"",""time""
""fullscreenenter"",""0"",""1156""
","
","
","""event"",""trial"",""time""
""fullscreenenter"",""0"",""1156""
","
","null","run_exp/static/images/Set 6_rs/166a.jpg","null","","","","","","learn","SR",""
"","html-keyboard-response","129","144624","0.0-129.0","""event"",""trial"",""time""
""fullscreenenter"",""0"",""1156""
","
","
","""event"",""trial"",""time""
""fullscreenenter"",""0"",""1156""
","
","null","<p></p>","null","","","","","","","",""
"","image","130","145711","0.0-130.0","""event"",""trial"",""time""
""fullscreenenter"",""0"",""1156""
","
","
","""event"",""trial"",""time""
""fullscreenenter"",""0"",""1156""
","
","1084.8999999761581","run_exp/static/images/Set 6_rs/066a.jpg","86","","","","","","learn","SL",""
"","show_choice","131","146630","0.0-131.0","""event"",""trial"",""time""
""fullscreenenter"",""0"",""1156""
","
","
","""event"",""trial"",""time""
""fullscreenenter"",""0"",""1156""
","
","null","run_exp/static/images/Set 6_rs/066a.jpg","null","","","","","","learn","SL",""
"","html-keyboard-response","132","147136","0.0-132.0","""event"",""trial"",""time""
""fullscreenenter"",""0"",""1156""
","
","
","""event"",""trial"",""time""
""fullscreenenter"",""0"",""1156""
","
","null","<p></p>","null","","","","","","","",""
"","image","133","147813","0.0-133.0","""event"",""trial"",""time""
""fullscreenenter"",""0"",""1156""
","
","
","""event"",""trial"",""time""
""fullscreenenter"",""0"",""1156""
","
","674.3999999761581","run_exp/static/images/Set 6_rs/023a.jpg","86","","","","","","learn","SR",""
"","show_choice","134","149142","0.0-134.0","""event"",""trial"",""time""
""fullscreenenter"",""0"",""1156""
","
","
","""event"",""trial"",""time""
""fullscreenenter"",""0"",""1156""
","
","null","run_exp/static/images/Set 6_rs/023a.jpg","null","","","","","","learn","SR",""
"","html-keyboard-response","135","149648","0.0-135.0","""event"",""trial"",""time""
""fullscreenenter"",""0"",""1156""
","
","
","""event"",""trial"",""time""
""fullscreenenter"",""0"",""1156""
","
","null","<p></p>","null","","","","","","","",""
"","image","136","150474","0.0-136.0","""event"",""trial"",""time""
""fullscreenenter"",""0"",""1156""
","
","
","""event"",""trial"",""time""
""fullscreenenter"",""0"",""1156""
","
","824","run_exp/static/images/Set 6_rs/007a.jpg","86","","","","","","learn","SR",""
"","show_choice","137","151654","0.0-137.0","""event"",""trial"",""time""
""fullscreenenter"",""0"",""1156""
","
","
","""event"",""trial"",""time""
""fullscreenenter"",""0"",""1156""
","
","null","run_exp/static/images/Set 6_rs/007a.jpg","null","","","","","","learn","SR",""
"","html-keyboard-response","138","152160","0.0-138.0","""event"",""trial"",""time""
""fullscreenenter"",""0"",""1156""
","
","
","""event"",""trial"",""time""
""fullscreenenter"",""0"",""1156""
","
","null","<p></p>","null","","","","","","","",""
"","image","139","152945","0.0-139.0","""event"",""trial"",""time""
""fullscreenenter"",""0"",""1156""
","
","
","""event"",""trial"",""time""
""fullscreenenter"",""0"",""1156""
","
","782.7000000476837","run_exp/static/images/Set 6_rs/116a.jpg","86","","","","","","learn","SL",""
"","show_choice","140","154168","0.0-140.0","""event"",""trial"",""time""
""fullscreenenter"",""0"",""1156""
","
","
","""event"",""trial"",""time""
""fullscreenenter"",""0"",""1156""
","
","null","run_exp/static/images/Set 6_rs/116a.jpg","null","","","","","","learn","SL",""
"","html-keyboard-response","141","154674","0.0-141.0","""event"",""trial"",""time""
""fullscreenenter"",""0"",""1156""
","
","
","""event"",""trial"",""time""
""fullscreenenter"",""0"",""1156""
","
","null","<p></p>","null","","","","","","","",""
"","image","142","155434","0.0-142.0","""event"",""trial"",""time""
""fullscreenenter"",""0"",""1156""
","
","
","""event"",""trial"",""time""
""fullscreenenter"",""0"",""1156""
","
","757.8000000715256","run_exp/static/images/Set 6_rs/181a.jpg","78","","","","","","learn","SL",""
"","show_choice","143","156682","0.0-143.0","""event"",""trial"",""time""
""fullscreenenter"",""0"",""1156""
","
","
","""event"",""trial"",""time""
""fullscreenenter"",""0"",""1156""
","
","null","run_exp/static/images/Set 6_rs/181a.jpg","null","","","","","","learn","SL",""
"","html-keyboard-response","144","157187","0.0-144.0","""event"",""trial"",""time""
""fullscreenenter"",""0"",""1156""
","
","
","""event"",""trial"",""time""
""fullscreenenter"",""0"",""1156""
","
","null","<p></p>","null","","","","","","","",""
"","image","145","158248","0.0-145.0","""event"",""trial"",""time""
""fullscreenenter"",""0"",""1156""
","
","
","""event"",""trial"",""time""
""fullscreenenter"",""0"",""1156""
","
","1059","run_exp/static/images/Set 6_rs/025a.jpg","78","","","","","","learn","SL",""
"","show_choice","146","159192","0.0-146.0","""event"",""trial"",""time""
""fullscreenenter"",""0"",""1156""
","
","
","""event"",""trial"",""time""
""fullscreenenter"",""0"",""1156""
","
","null","run_exp/static/images/Set 6_rs/025a.jpg","null","","","","","","learn","SL",""
"","html-keyboard-response","147","159698","0.0-147.0","""event"",""trial"",""time""
""fullscreenenter"",""0"",""1156""
","
","
","""event"",""trial"",""time""
""fullscreenenter"",""0"",""1156""
","
","null","<p></p>","null","","","","","","","",""
"","image","148","160781","0.0-148.0","""event"",""trial"",""time""
""fullscreenenter"",""0"",""1156""
","
","
","""event"",""trial"",""time""
""fullscreenenter"",""0"",""1156""
","
","1081.1999999284744","run_exp/static/images/Set 6_rs/076a.jpg","78","","","","","","learn","SR",""
"","show_choice","149","161704","0.0-149.0","""event"",""trial"",""time""
""fullscreenenter"",""0"",""1156""
","
","
","""event"",""trial"",""time""
""fullscreenenter"",""0"",""1156""
","
","null","run_exp/static/images/Set 6_rs/076a.jpg","null","","","","","","learn","SR",""
"","html-keyboard-response","150","162208","0.0-150.0","""event"",""trial"",""time""
""fullscreenenter"",""0"",""1156""
","
","
","""event"",""trial"",""time""
""fullscreenenter"",""0"",""1156""
","
","null","<p></p>","null","","","","","","","",""
"","image","151","163394","0.0-151.0","""event"",""trial"",""time""
""fullscreenenter"",""0"",""1156""
","
","
","""event"",""trial"",""time""
""fullscreenenter"",""0"",""1156""
","
","1184.5","run_exp/static/images/Set 6_rs/036a.jpg","86","","","","","","learn","SL",""
"","show_choice","152","164214","0.0-152.0","""event"",""trial"",""time""
""fullscreenenter"",""0"",""1156""
","
","
","""event"",""trial"",""time""
""fullscreenenter"",""0"",""1156""
","
","null","run_exp/static/images/Set 6_rs/036a.jpg","null","","","","","","learn","SL",""
"","html-keyboard-response","153","164718","0.0-153.0","""event"",""trial"",""time""
""fullscreenenter"",""0"",""1156""
","
","
","""event"",""trial"",""time""
""fullscreenenter"",""0"",""1156""
","
","null","<p></p>","null","","","","","","","",""
"","image","154","166387","0.0-154.0","""event"",""trial"",""time""
""fullscreenenter"",""0"",""1156""
","
","
","""event"",""trial"",""time""
""fullscreenenter"",""0"",""1156""
","
","1666.7999999523163","run_exp/static/images/Set 6_rs/045a.jpg","86","","","","","","learn","SR",""
"","show_choice","155","166725","0.0-155.0","""event"",""trial"",""time""
""fullscreenenter"",""0"",""1156""
","
","
","""event"",""trial"",""time""
""fullscreenenter"",""0"",""1156""
","
","null","run_exp/static/images/Set 6_rs/045a.jpg","null","","","","","","learn","SR",""
"","html-keyboard-response","156","167230","0.0-156.0","""event"",""trial"",""time""
""fullscreenenter"",""0"",""1156""
","
","
","""event"",""trial"",""time""
""fullscreenenter"",""0"",""1156""
","
","null","<p></p>","null","","","","","","","",""
"","image","157","168754","0.0-157.0","""event"",""trial"",""time""
""fullscreenenter"",""0"",""1156""
","
","
","""event"",""trial"",""time""
""fullscreenenter"",""0"",""1156""
","
","1521.0999999046326","run_exp/static/images/Set 6_rs/126a.jpg","78","","","","","","learn","SR",""
"","show_choice","158","169236","0.0-158.0","""event"",""trial"",""time""
""fullscreenenter"",""0"",""1156""
","
","
","""event"",""trial"",""time""
""fullscreenenter"",""0"",""1156""
","
","null","run_exp/static/images/Set 6_rs/126a.jpg","null","","","","","","learn","SR",""
"","html-keyboard-response","159","169742","0.0-159.0","""event"",""trial"",""time""
""fullscreenenter"",""0"",""1156""
","
","
","""event"",""trial"",""time""
""fullscreenenter"",""0"",""1156""
","
","null","<p></p>","null","","","","","","","",""
"","image","160","171030","0.0-160.0","""event"",""trial"",""time""
""fullscreenenter"",""0"",""1156""
","
","
","""event"",""trial"",""time""
""fullscreenenter"",""0"",""1156""
","
","1285.7000000476837","run_exp/static/images/Set 6_rs/167a.jpg","86","","","","","","learn","SL",""
"","show_choice","161","171748","0.0-161.0","""event"",""trial"",""time""
""fullscreenenter"",""0"",""1156""
","
","
","""event"",""trial"",""time""
""fullscreenenter"",""0"",""1156""
","
","null","run_exp/static/images/Set 6_rs/167a.jpg","null","","","","","","learn","SL",""
"","html-keyboard-response","162","172254","0.0-162.0","""event"",""trial"",""time""
""fullscreenenter"",""0"",""1156""
","
","
","""event"",""trial"",""time""
""fullscreenenter"",""0"",""1156""
","
","null","<p></p>","null","","","","","","","",""
"","image","163","173249","0.0-163.0","""event"",""trial"",""time""
""fullscreenenter"",""0"",""1156""
","
","
","""event"",""trial"",""time""
""fullscreenenter"",""0"",""1156""
","
","992.5999999046326","run_exp/static/images/Set 6_rs/091a.jpg","78","","","","","","learn","SL",""
"","show_choice","164","174260","0.0-164.0","""event"",""trial"",""time""
""fullscreenenter"",""0"",""1156""
","
","
","""event"",""trial"",""time""
""fullscreenenter"",""0"",""1156""
","
","null","run_exp/static/images/Set 6_rs/091a.jpg","null","","","","","","learn","SL",""
"","html-keyboard-response","165","174766","0.0-165.0","""event"",""trial"",""time""
""fullscreenenter"",""0"",""1156""
","
","
","""event"",""trial"",""time""
""fullscreenenter"",""0"",""1156""
","
","null","<p></p>","null","","","","","","","",""
"","image","166","175893","0.0-166.0","""event"",""trial"",""time""
""fullscreenenter"",""0"",""1156""
","
","
","""event"",""trial"",""time""
""fullscreenenter"",""0"",""1156""
","
","1126.8000000715256","run_exp/static/images/Set 6_rs/079a.jpg","86","","","","","","learn","SL",""
"","show_choice","167","176771","0.0-167.0","""event"",""trial"",""time""
""fullscreenenter"",""0"",""1156""
","
","
","""event"",""trial"",""time""
""fullscreenenter"",""0"",""1156""
","
","null","run_exp/static/images/Set 6_rs/079a.jpg","null","","","","","","learn","SL",""
"","html-keyboard-response","168","177276","0.0-168.0","""event"",""trial"",""time""
""fullscreenenter"",""0"",""1156""
","
","
","""event"",""trial"",""time""
""fullscreenenter"",""0"",""1156""
","
","null","<p></p>","null","","","","","","","",""
"","image","169","178293","0.0-169.0","""event"",""trial"",""time""
""fullscreenenter"",""0"",""1156""
","
","
","""event"",""trial"",""time""
""fullscreenenter"",""0"",""1156""
","
","1014.7000000476837","run_exp/static/images/Set 6_rs/024a.jpg","86","","","","","","learn","SR",""
"","show_choice","170","179282","0.0-170.0","""event"",""trial"",""time""
""fullscreenenter"",""0"",""1156""
","
","
","""event"",""trial"",""time""
""fullscreenenter"",""0"",""1156""
","
","null","run_exp/static/images/Set 6_rs/024a.jpg","null","","","","","","learn","SR",""
"","html-keyboard-response","171","179788","0.0-171.0","""event"",""trial"",""time""
""fullscreenenter"",""0"",""1156""
","
","
","""event"",""trial"",""time""
""fullscreenenter"",""0"",""1156""
","
","null","<p></p>","null","","","","","","","",""
"","image","172","180732","0.0-172.0","""event"",""trial"",""time""
""fullscreenenter"",""0"",""1156""
","
","
","""event"",""trial"",""time""
""fullscreenenter"",""0"",""1156""
","
","941.5","run_exp/static/images/Set 6_rs/134a.jpg","86","","","","","","learn","SR",""
"","show_choice","173","181794","0.0-173.0","""event"",""trial"",""time""
""fullscreenenter"",""0"",""1156""
","
","
","""event"",""trial"",""time""
""fullscreenenter"",""0"",""1156""
","
","null","run_exp/static/images/Set 6_rs/134a.jpg","null","","","","","","learn","SR",""
"","html-keyboard-response","174","182300","0.0-174.0","""event"",""trial"",""time""
""fullscreenenter"",""0"",""1156""
","
","
","""event"",""trial"",""time""
""fullscreenenter"",""0"",""1156""
","
","null","<p></p>","null","","","","","","","",""
"","image","175","183042","0.0-175.0","""event"",""trial"",""time""
""fullscreenenter"",""0"",""1156""
","
","
","""event"",""trial"",""time""
""fullscreenenter"",""0"",""1156""
","
","739.6000000238419","run_exp/static/images/Set 6_rs/123a.jpg","78","","","","","","learn","SL",""
"","show_choice","176","184308","0.0-176.0","""event"",""trial"",""time""
""fullscreenenter"",""0"",""1156""
","
","
","""event"",""trial"",""time""
""fullscreenenter"",""0"",""1156""
","
","null","run_exp/static/images/Set 6_rs/123a.jpg","null","","","","","","learn","SL",""
"","html-keyboard-response","177","184814","0.0-177.0","""event"",""trial"",""time""
""fullscreenenter"",""0"",""1156""
","
","
","""event"",""trial"",""time""
""fullscreenenter"",""0"",""1156""
","
","null","<p></p>","null","","","","","","","",""
"","image","178","185455","0.0-178.0","""event"",""trial"",""time""
""fullscreenenter"",""0"",""1156""
","
","
","""event"",""trial"",""time""
""fullscreenenter"",""0"",""1156""
","
","638.5999999046326","run_exp/static/images/Set 6_rs/187a.jpg","86","","","","","","learn","SR",""
"","show_choice","179","186819","0.0-179.0","""event"",""trial"",""time""
""fullscreenenter"",""0"",""1156""
","
","
","""event"",""trial"",""time""
""fullscreenenter"",""0"",""1156""
","
","null","run_exp/static/images/Set 6_rs/187a.jpg","null","","","","","","learn","SR",""
"","html-keyboard-response","180","187326","0.0-180.0","""event"",""trial"",""time""
""fullscreenenter"",""0"",""1156""
","
","
","""event"",""trial"",""time""
""fullscreenenter"",""0"",""1156""
","
","null","<p></p>","null","","","","","","","",""
"","image","181","189217","0.0-181.0","""event"",""trial"",""time""
""fullscreenenter"",""0"",""1156""
","
","
","""event"",""trial"",""time""
""fullscreenenter"",""0"",""1156""
","
","1889.2999999523163","run_exp/static/images/Set 6_rs/117a.jpg","86","","","","","","learn","SL",""
"","show_choice","182","189329","0.0-182.0","""event"",""trial"",""time""
""fullscreenenter"",""0"",""1156""
","
","
","""event"",""trial"",""time""
""fullscreenenter"",""0"",""1156""
","
","null","run_exp/static/images/Set 6_rs/117a.jpg","null","","","","","","learn","SL",""
"","html-keyboard-response","183","189834","0.0-183.0","""event"",""trial"",""time""
""fullscreenenter"",""0"",""1156""
","
","
","""event"",""trial"",""time""
""fullscreenenter"",""0"",""1156""
","
","null","<p></p>","null","","","","","","","",""
"","image","184","191723","0.0-184.0","""event"",""trial"",""time""
""fullscreenenter"",""0"",""1156""
","
","
","""event"",""trial"",""time""
""fullscreenenter"",""0"",""1156""
","
","1886.7000000476837","run_exp/static/images/Set 6_rs/168a.jpg","86","","","","","","learn","SL",""
"","show_choice","185","191838","0.0-185.0","""event"",""trial"",""time""
""fullscreenenter"",""0"",""1156""
","
","
","""event"",""trial"",""time""
""fullscreenenter"",""0"",""1156""
","
","null","run_exp/static/images/Set 6_rs/168a.jpg","null","","","","","","learn","SL",""
"","html-keyboard-response","186","192343","0.0-186.0","""event"",""trial"",""time""
""fullscreenenter"",""0"",""1156""
","
","
","""event"",""trial"",""time""
""fullscreenenter"",""0"",""1156""
","
","null","<p></p>","null","","","","","","","",""
"","image","187","193452","0.0-187.0","""event"",""trial"",""time""
""fullscreenenter"",""0"",""1156""
","
","
","""event"",""trial"",""time""
""fullscreenenter"",""0"",""1156""
","
","1106.5","run_exp/static/images/Set 6_rs/089a.jpg","86","","","","","","learn","SL",""
"","show_choice","188","194350","0.0-188.0","""event"",""trial"",""time""
""fullscreenenter"",""0"",""1156""
","
","
","""event"",""trial"",""time""
""fullscreenenter"",""0"",""1156""
","
","null","run_exp/static/images/Set 6_rs/089a.jpg","null","","","","","","learn","SL",""
"","html-keyboard-response","189","194855","0.0-189.0","""event"",""trial"",""time""
""fullscreenenter"",""0"",""1156""
","
","
","""event"",""trial"",""time""
""fullscreenenter"",""0"",""1156""
","
","null","<p></p>","null","","","","","","","",""
"","image","190","196652","0.0-190.0","""event"",""trial"",""time""
""fullscreenenter"",""0"",""1156""
","
","
","""event"",""trial"",""time""
""fullscreenenter"",""0"",""1156""
","
","1793.8999999761581","run_exp/static/images/Set 6_rs/008a.jpg","86","","","","","","learn","SL",""
"","show_choice","191","196862","0.0-191.0","""event"",""trial"",""time""
""fullscreenenter"",""0"",""1156""
","
","
","""event"",""trial"",""time""
""fullscreenenter"",""0"",""1156""
","
","null","run_exp/static/images/Set 6_rs/008a.jpg","null","","","","","","learn","SL",""
"","html-keyboard-response","192","197367","0.0-192.0","""event"",""trial"",""time""
""fullscreenenter"",""0"",""1156""
","
","
","""event"",""trial"",""time""
""fullscreenenter"",""0"",""1156""
","
","null","<p></p>","null","","","","","","","",""
"","image","193","198390","0.0-193.0","""event"",""trial"",""time""
""fullscreenenter"",""0"",""1156""
","
","
","""event"",""trial"",""time""
""fullscreenenter"",""0"",""1156""
","
","1022.3000000715256","run_exp/static/images/Set 6_rs/061a.jpg","78","","","","","","learn","SR",""
"","show_choice","194","199371","0.0-194.0","""event"",""trial"",""time""
""fullscreenenter"",""0"",""1156""
","
","
","""event"",""trial"",""time""
""fullscreenenter"",""0"",""1156""
","
","null","run_exp/static/images/Set 6_rs/061a.jpg","null","","","","","","learn","SR",""
"","html-keyboard-response","195","199878","0.0-195.0","""event"",""trial"",""time""
""fullscreenenter"",""0"",""1156""
","
","
","""event"",""trial"",""time""
""fullscreenenter"",""0"",""1156""
","
","null","<p></p>","null","","","","","","","",""
"","test_intro","196","236729","0.0-196.0","""event"",""trial"",""time""
""fullscreenenter"",""0"",""1156""
","
","
","""event"",""trial"",""time""
""fullscreenenter"",""0"",""1156""
","
","null","run_exp/static/audio/clip_2_memory.m4a","null","","","","","<div class='center'><p>Now, lets see how much you remember about the items you just saw.  For each item, you need to indicate if it was <b>old</b> by pressing the <b>v</b> key, <b>similar</b> by pressing the <b>b</b> key, or <b>new</b> by pressing the <b>n</b> key.</p><p>Old refers to an item that you saw before in the indoor/outdoor game that you just played, new refers to an item you have <b>not</b> seen before within the indoor/outdoor game, and similar refers to an item that is similar to an item youve seen before but is not exactly the same. </p><p>Before we begin, lets go over some brief demonstrations to make sure you understand.</p></div>","","",""
"","html-keyboard-response","197","237646","0.0-197.0","""event"",""trial"",""time""
""fullscreenenter"",""0"",""1156""
","
","
","""event"",""trial"",""time""
""fullscreenenter"",""0"",""1156""
","
","913.7999999523163","<div class='center'><p>Now, lets see how much you remember about the items you just saw.  For each item, you need to indicate if it was <b>old</b> by pressing the <b>v</b> key, <b>similar</b> by pressing the <b>b</b> key, or <b>new</b> by pressing the <b>n</b> key.</p><p>Old refers to an item that you saw before in the indoor/outdoor game that you just played, new refers to an item you have <b>not</b> seen before within the indoor/outdoor game, and similar refers to an item that is similar to an item youve seen before but is not exactly the same. </p><p>Before we begin, lets go over some brief demonstrations to make sure you understand.</p><div><p><b>[Press the space bar to continue]</b></p></div>","32","","","","","","","",""
"","items","198","245151","0.0-198.0","""event"",""trial"",""time""
""fullscreenenter"",""0"",""1156""
","
","
","""event"",""trial"",""time""
""fullscreenenter"",""0"",""1156""
","
","null","run_exp/static/audio/clip_3_items.m4a","null","","","","","","","",""
"","mop","199","249659","0.0-199.0","""event"",""trial"",""time""
""fullscreenenter"",""0"",""1156""
","
","
","""event"",""trial"",""time""
""fullscreenenter"",""0"",""1156""
","
","null","run_exp/static/audio/clip_4_mop.m4a","null","","","","","","","",""
"","baseball","200","253167","0.0-200.0","""event"",""trial"",""time""
""fullscreenenter"",""0"",""1156""
","
","
","""event"",""trial"",""time""
""fullscreenenter"",""0"",""1156""
","
","null","run_exp/static/audio/clip_5_baseball.m4a","null","","","","","","","",""
"","trumpet","201","256675","0.0-201.0","""event"",""trial"",""time""
""fullscreenenter"",""0"",""1156""
","
","
","""event"",""trial"",""time""
""fullscreenenter"",""0"",""1156""
","
","null","run_exp/static/audio/clip_6_trumpet.m4a","null","","","","","","","",""
"","gummies","202","260183","0.0-202.0","""event"",""trial"",""time""
""fullscreenenter"",""0"",""1156""
","
","
","""event"",""trial"",""time""
""fullscreenenter"",""0"",""1156""
","
","null","run_exp/static/audio/clip_7_gummies.m4a","null","","","","","","","",""
"","osn","203","264690","0.0-203.0","""event"",""trial"",""time""
""fullscreenenter"",""0"",""1156""
","
","
","""event"",""trial"",""time""
""fullscreenenter"",""0"",""1156""
","
","null","run_exp/static/audio/clip_8_osn.m4a","null","","","","","","","",""
"","old_1","204","271197","0.0-204.0","""event"",""trial"",""time""
""fullscreenenter"",""0"",""1156""
","
","
","""event"",""trial"",""time""
""fullscreenenter"",""0"",""1156""
","
","null","run_exp/static/audio/clip_9_old_trumpet.m4a","null","","","","","","","",""
"","new_1","205","278705","0.0-205.0","""event"",""trial"",""time""
""fullscreenenter"",""0"",""1156""
","
","
","""event"",""trial"",""time""
""fullscreenenter"",""0"",""1156""
","
","null","run_exp/static/audio/clip_10_new_balloon.m4a","null","","","","","","","",""
"","similar_1a","206","283213","0.0-206.0","""event"",""trial"",""time""
""fullscreenenter"",""0"",""1156""
","
","
","""event"",""trial"",""time""
""fullscreenenter"",""0"",""1156""
","
","null","run_exp/static/audio/clip_11a_similar_mop.m4a","null","","","","","","","",""
"","similar_1b","207","289721","0.0-207.0","""event"",""trial"",""time""
""fullscreenenter"",""0"",""1156""
","
","
","""event"",""trial"",""time""
""fullscreenenter"",""0"",""1156""
","
","null","run_exp/static/audio/clip_11b_similar_mop.m4a","null","","","","","","","",""
"","new_2","208","293229","0.0-208.0","""event"",""trial"",""time""
""fullscreenenter"",""0"",""1156""
","
","
","""event"",""trial"",""time""
""fullscreenenter"",""0"",""1156""
","
","null","run_exp/static/audio/clip_12_new_stoplight.m4a","null","","","","","","","",""
"","old_2","209","296737","0.0-209.0","""event"",""trial"",""time""
""fullscreenenter"",""0"",""1156""
","
","
","""event"",""trial"",""time""
""fullscreenenter"",""0"",""1156""
","
","null","run_exp/static/audio/clip_13_old_baseball.m4a","null","","","","","","","",""
"","similar_2a","210","300243","0.0-210.0","""event"",""trial"",""time""
""fullscreenenter"",""0"",""1156""
","
","
","""event"",""trial"",""time""
""fullscreenenter"",""0"",""1156""
","
","null","run_exp/static/audio/clip_14a_similar_gummies.m4a","null","","","","","","","",""
"","similar_2b","211","307751","0.0-211.0","""event"",""trial"",""time""
""fullscreenenter"",""0"",""1156""
","
","
","""event"",""trial"",""time""
""fullscreenenter"",""0"",""1156""
","
","null","run_exp/static/audio/clip_14b_similar_gummies.m4a","null","","","","","","","",""
"","practice","212","349869","0.0-212.0","""event"",""trial"",""time""
""fullscreenenter"",""0"",""1156""
","
","
","""event"",""trial"",""time""
""fullscreenenter"",""0"",""1156""
","
","null","run_exp/static/audio/clip_15_practice.m4a","null","","","","","<div class='center'><p>Lets practice a little to make sure you understand the difference between new, similar, and old. Lets say you saw these three items in the indoor/outdoor game.</p><p> Try your best to remember these images because youll soon be tested on them in a practice game. In the practice game, youll be shown images and youll have to say if they are old (one of the three images belows), similar (similar to one of the images below but not exactly the same), or new (are not one of the images below nor similar to them).</p><p>Once you press the space bar youll be shown these images again but one at time. Then youll begin the practice game.</p><p><img src='run_exp/static/images/tutorial/test/three_indoor_outdoor.png' height='300'></p></div>","","",""
"","html-keyboard-response","213","350383","0.0-213.0","""event"",""trial"",""time""
""fullscreenenter"",""0"",""1156""
","
","
","""event"",""trial"",""time""
""fullscreenenter"",""0"",""1156""
","
","501.6999999284744","<div class='center'><p>Lets practice a little to make sure you understand the difference between new, similar, and old. Lets say you saw these three items in the indoor/outdoor game.</p><p> Try your best to remember these images because youll soon be tested on them in a practice game. In the practice game, youll be shown images and youll have to say if they are old (one of the three images belows), similar (similar to one of the images below but not exactly the same), or new (are not one of the images below nor similar to them).</p><p>Once you press the space bar youll be shown these images again but one at time. Then youll begin the practice game.</p><p><img src='run_exp/static/images/tutorial/test/three_indoor_outdoor.png' height='300'></p><div><p><b>[Press the space bar to continue]</b></p></div>","32","","","","","","","",""
"","planet","214","352404","0.0-214.0","""event"",""trial"",""time""
""fullscreenenter"",""0"",""1156""
","
","
","""event"",""trial"",""time""
""fullscreenenter"",""0"",""1156""
","
","null","run_exp/static/images/tutorial/test/008a.jpg","null","","","","","","","",""
"","boot","215","354408","0.0-215.0","""event"",""trial"",""time""
""fullscreenenter"",""0"",""1156""
","
","
","""event"",""trial"",""time""
""fullscreenenter"",""0"",""1156""
","
","null","run_exp/static/images/tutorial/test/011a.jpg","null","","","","","","","",""
"","lemon","216","356414","0.0-216.0","""event"",""trial"",""time""
""fullscreenenter"",""0"",""1156""
","
","
","""event"",""trial"",""time""
""fullscreenenter"",""0"",""1156""
","
","null","run_exp/static/images/tutorial/test/018a.jpg","null","","","","","","","",""
"","practice_q1","217","359883","0.0-217.0","""event"",""trial"",""time""
""fullscreenenter"",""0"",""1156""
","
","
","""event"",""trial"",""time""
""fullscreenenter"",""0"",""1156""
","
","3463.399999976158","run_exp/static/audio/clip_16_practice_question.m4a","86","","","","","","","",""
"","incorrect_q1","218","362721","0.0-218.0-0.0","""event"",""trial"",""time""
""fullscreenenter"",""0"",""1156""
","
","
","""event"",""trial"",""time""
""fullscreenenter"",""0"",""1156""
","
","null","run_exp/static/audio/clip_18_incorrect_new.m4a","null","","","","","<div class='center'><p>Thats incorrect. Its new.</p></div>","","",""
"","html-keyboard-response","219","363480","0.0-218.0-1.0","""event"",""trial"",""time""
""fullscreenenter"",""0"",""1156""
","
","
","""event"",""trial"",""time""
""fullscreenenter"",""0"",""1156""
","
","757.1000000238419","<div class='center'><p>Thats incorrect. Its new.</p><div><p><b>[Press the space bar to continue]</b></p></div>","32","","","","","","","",""
"","practice_q2","220","365322","0.0-218.0-2.0","""event"",""trial"",""time""
""fullscreenenter"",""0"",""1156""
","
","
","""event"",""trial"",""time""
""fullscreenenter"",""0"",""1156""
","
","1838.7000000476837","run_exp/static/audio/clip_16_practice_question.m4a","86","","","","","","","",""
"","correct","221","367222","0.0-219.0-0.0","""event"",""trial"",""time""
""fullscreenenter"",""0"",""1156""
","
","
","""event"",""trial"",""time""
""fullscreenenter"",""0"",""1156""
","
","null","run_exp/static/audio/clip_17_correct.m4a","null","","","","","<div class='center'><p>That's correct!</p></div>","","",""
"","html-keyboard-response","222","368088","0.0-219.0-1.0","""event"",""trial"",""time""
""fullscreenenter"",""0"",""1156""
","
","
","""event"",""trial"",""time""
""fullscreenenter"",""0"",""1156""
","
","863.3999999761581","<div class='center'><p>That's correct!</p><div><p><b>[Press the space bar to continue]</b></p></div>","32","","","","","","","",""
"","practice_q3","223","370081","0.0-219.0-2.0","""event"",""trial"",""time""
""fullscreenenter"",""0"",""1156""
","
","
","""event"",""trial"",""time""
""fullscreenenter"",""0"",""1156""
","
","1989.7999999523163","run_exp/static/audio/clip_16_practice_question.m4a","66","","","","","","","",""
"","correct","224","371980","0.0-220.0-0.0","""event"",""trial"",""time""
""fullscreenenter"",""0"",""1156""
","
","
","""event"",""trial"",""time""
""fullscreenenter"",""0"",""1156""
","
","null","run_exp/static/audio/clip_17_correct.m4a","null","","","","","<div class='center'><p>That's correct!</p></div>","","",""
"","html-keyboard-response","225","372656","0.0-220.0-1.0","""event"",""trial"",""time""
""fullscreenenter"",""0"",""1156""
","
","
","""event"",""trial"",""time""
""fullscreenenter"",""0"",""1156""
","
","675.0999999046326","<div class='center'><p>That's correct!</p><div><p><b>[Press the space bar to continue]</b></p></div>","32","","","","","","","",""
"","repeat","226","377399","0.0-221.0-0.0","""event"",""trial"",""time""
""fullscreenenter"",""0"",""1156""
","
","
","""event"",""trial"",""time""
""fullscreenenter"",""0"",""1156""
","
","null","run_exp/static/audio/clip_21_practice_again.m4a","null","","","","","<div class='center'><p>Oops. you missed at least one of these questions. Let's try practicing again. </p></div>","","",""
"","html-keyboard-response","227","377719","0.0-221.0-1.0","""event"",""trial"",""time""
""fullscreenenter"",""0"",""1156""
","
","
","""event"",""trial"",""time""
""fullscreenenter"",""0"",""1156""
","
","318","<div class='center'><p>Oops. you missed at least one of these questions. Let's try practicing again. </p><div><p><b>[Press the space bar to continue]</b></p></div>","32","","","","","","","",""
"","practice_q1","228","378652","0.0-221.0-2.0","""event"",""trial"",""time""
""fullscreenenter"",""0"",""1156""
","
","
","""event"",""trial"",""time""
""fullscreenenter"",""0"",""1156""
","
","931.1999999284744","run_exp/static/audio/clip_16_practice_question.m4a","78","","","","","","","",""
"","correct","229","380534","0.0-222.0-0.0","""event"",""trial"",""time""
""fullscreenenter"",""0"",""1156""
","
","
","""event"",""trial"",""time""
""fullscreenenter"",""0"",""1156""
","
","null","run_exp/static/audio/clip_17_correct.m4a","null","","","","","<div class='center'><p>That's correct!</p></div>","","",""
"","html-keyboard-response","230","381038","0.0-222.0-1.0","""event"",""trial"",""time""
""fullscreenenter"",""0"",""1156""
","
","
","""event"",""trial"",""time""
""fullscreenenter"",""0"",""1156""
","
","501.89999997615814","<div class='center'><p>That's correct!</p><div><p><b>[Press the space bar to continue]</b></p></div>","32","","","","","","","",""
"","practice_q2","231","381333","0.0-222.0-2.0","""event"",""trial"",""time""
""fullscreenenter"",""0"",""1156""
","
","
","""event"",""trial"",""time""
""fullscreenenter"",""0"",""1156""
","
","292.1999999284744","run_exp/static/audio/clip_16_practice_question.m4a","86","","","","","","","",""
"","correct","232","383222","0.0-223.0-0.0","""event"",""trial"",""time""
""fullscreenenter"",""0"",""1156""
","
","
","""event"",""trial"",""time""
""fullscreenenter"",""0"",""1156""
","
","null","run_exp/static/audio/clip_17_correct.m4a","null","","","","","<div class='center'><p>That's correct!</p></div>","","",""
"","html-keyboard-response","233","383578","0.0-223.0-1.0","""event"",""trial"",""time""
""fullscreenenter"",""0"",""1156""
","
","
","""event"",""trial"",""time""
""fullscreenenter"",""0"",""1156""
","
","353.39999997615814","<div class='center'><p>That's correct!</p><div><p><b>[Press the space bar to continue]</b></p></div>","32","","","","","","","",""
"","practice_q3","234","383731","0.0-223.0-2.0","""event"",""trial"",""time""
""fullscreenenter"",""0"",""1156""
","
","
","""event"",""trial"",""time""
""fullscreenenter"",""0"",""1156""
","
","150.20000004768372","run_exp/static/audio/clip_16_practice_question.m4a","66","","","","","","","",""
"","correct","235","385719","0.0-224.0-0.0","""event"",""trial"",""time""
""fullscreenenter"",""0"",""1156""
","
","
","""event"",""trial"",""time""
""fullscreenenter"",""0"",""1156""
","
","null","run_exp/static/audio/clip_17_correct.m4a","null","","","","","<div class='center'><p>That's correct!</p></div>","","",""
"","html-keyboard-response","236","386287","0.0-224.0-1.0","""event"",""trial"",""time""
""fullscreenenter"",""0"",""1156""
","
","
","""event"",""trial"",""time""
""fullscreenenter"",""0"",""1156""
","
","565.8999999761581","<div class='center'><p>That's correct!</p><div><p><b>[Press the space bar to continue]</b></p></div>","32","","","","","","","",""
"","begin_text","237","404769","0.0-225.0-0.0","""event"",""trial"",""time""
""fullscreenenter"",""0"",""1156""
","
","
","""event"",""trial"",""time""
""fullscreenenter"",""0"",""1156""
","
","null","run_exp/static/audio/clip_22_begin_test.m4a","null","","","","","<div class='center'><p>On to the real game where well test your memory of items from the indoor/outdoor game. For each item, you need to indicate if the item is <b>old</b> by pressing the <b>v</b> key, <b>similar</b> by pressing the <b>b</b> key, or <b>new</b> by pressing the <b>n</b> key. </p></div>","","",""
"","html-keyboard-response","238","405190","0.0-225.0-1.0","""event"",""trial"",""time""
""fullscreenenter"",""0"",""1156""
","
","
","""event"",""trial"",""time""
""fullscreenenter"",""0"",""1156""
","
","417.60000002384186","<div class='center'><p>On to the real game where well test your memory of items from the indoor/outdoor game. For each item, you need to indicate if the item is <b>old</b> by pressing the <b>v</b> key, <b>similar</b> by pressing the <b>b</b> key, or <b>new</b> by pressing the <b>n</b> key. </p><div><p><b>[Press the space bar to continue]</b></p></div>","32","","","","","","","",""
"","image","239","406982","0.0-226.0-0.0","""event"",""trial"",""time""
""fullscreenenter"",""0"",""1156""
","
","
","""event"",""trial"",""time""
""fullscreenenter"",""0"",""1156""
","
","1789.9000000953674","run_exp/static/images/Set 6_rs/050b.jpg","86","","","","","","test","TL","3"
"","show_choice","240","407486","0.0-226.0-1.0","""event"",""trial"",""time""
""fullscreenenter"",""0"",""1156""
","
","
","""event"",""trial"",""time""
""fullscreenenter"",""0"",""1156""
","
","null","run_exp/static/images/Set 6_rs/050b.jpg","null","","","","","","test","TL",""
"","html-keyboard-response","241","407990","0.0-226.0-2.0","""event"",""trial"",""time""
""fullscreenenter"",""0"",""1156""
","
","
","""event"",""trial"",""time""
""fullscreenenter"",""0"",""1156""
","
","null","<p></p>","null","","","","","","","",""
"","image","242","409343","0.0-227.0-0.0","""event"",""trial"",""time""
""fullscreenenter"",""0"",""1156""
","
","
","""event"",""trial"",""time""
""fullscreenenter"",""0"",""1156""
","
","1350.1000000238419","run_exp/static/images/Set 6_rs/055b.jpg","86","","","","","","test","TL","4"
"","show_choice","243","409846","0.0-227.0-1.0","""event"",""trial"",""time""
""fullscreenenter"",""0"",""1156""
","
","
","""event"",""trial"",""time""
""fullscreenenter"",""0"",""1156""
","
","null","run_exp/static/images/Set 6_rs/055b.jpg","null","","","","","","test","TL",""
"","html-keyboard-response","244","410352","0.0-227.0-2.0","""event"",""trial"",""time""
""fullscreenenter"",""0"",""1156""
","
","
","""event"",""trial"",""time""
""fullscreenenter"",""0"",""1156""
","
","null","<p></p>","null","","","","","","","",""
"","image","245","411571","0.0-228.0-0.0","""event"",""trial"",""time""
""fullscreenenter"",""0"",""1156""
","
","
","""event"",""trial"",""time""
""fullscreenenter"",""0"",""1156""
","
","1216.8000000715256","run_exp/static/images/Set 6_rs/070a.jpg","66","","","","","","test","TR","2"
"","show_choice","246","412076","0.0-228.0-1.0","""event"",""trial"",""time""
""fullscreenenter"",""0"",""1156""
","
","
","""event"",""trial"",""time""
""fullscreenenter"",""0"",""1156""
","
","null","run_exp/static/images/Set 6_rs/070a.jpg","null","","","","","","test","TR",""
"","html-keyboard-response","247","412582","0.0-228.0-2.0","""event"",""trial"",""time""
""fullscreenenter"",""0"",""1156""
","
","
","""event"",""trial"",""time""
""fullscreenenter"",""0"",""1156""
","
","null","<p></p>","null","","","","","","","",""
"","image","248","414112","0.0-229.0-0.0","""event"",""trial"",""time""
""fullscreenenter"",""0"",""1156""
","
","
","""event"",""trial"",""time""
""fullscreenenter"",""0"",""1156""
","
","1528","run_exp/static/images/Set 6_rs/065a.jpg","78","","","","","","test","TF","3"
"","show_choice","249","414616","0.0-229.0-1.0","""event"",""trial"",""time""
""fullscreenenter"",""0"",""1156""
","
","
","""event"",""trial"",""time""
""fullscreenenter"",""0"",""1156""
","
","null","run_exp/static/images/Set 6_rs/065a.jpg","null","","","","","","test","TF",""
"","html-keyboard-response","250","415120","0.0-229.0-2.0","""event"",""trial"",""time""
""fullscreenenter"",""0"",""1156""
","
","
","""event"",""trial"",""time""
""fullscreenenter"",""0"",""1156""
","
","null","<p></p>","null","","","","","","","",""
"","image","251","416334","0.0-230.0-0.0","""event"",""trial"",""time""
""fullscreenenter"",""0"",""1156""
","
","
","""event"",""trial"",""time""
""fullscreenenter"",""0"",""1156""
","
","1211.3999999761581","run_exp/static/images/Set 6_rs/177a.jpg","86","","","","","","test","TR","5"
"","show_choice","252","416838","0.0-230.0-1.0","""event"",""trial"",""time""
""fullscreenenter"",""0"",""1156""
","
","
","""event"",""trial"",""time""
""fullscreenenter"",""0"",""1156""
","
","null","run_exp/static/images/Set 6_rs/177a.jpg","null","","","","","","test","TR",""
"","html-keyboard-response","253","417344","0.0-230.0-2.0","""event"",""trial"",""time""
""fullscreenenter"",""0"",""1156""
","
","
","""event"",""trial"",""time""
""fullscreenenter"",""0"",""1156""
","
","null","<p></p>","null","","","","","","","",""
"","image","254","418412","0.0-231.0-0.0","""event"",""trial"",""time""
""fullscreenenter"",""0"",""1156""
","
","
","""event"",""trial"",""time""
""fullscreenenter"",""0"",""1156""
","
","1065.6000000238419","run_exp/static/images/Set 6_rs/178a.jpg","86","","","","","","test","TR","3"
"","show_choice","255","418916","0.0-231.0-1.0","""event"",""trial"",""time""
""fullscreenenter"",""0"",""1156""
","
","
","""event"",""trial"",""time""
""fullscreenenter"",""0"",""1156""
","
","null","run_exp/static/images/Set 6_rs/178a.jpg","null","","","","","","test","TR",""
"","html-keyboard-response","256","419423","0.0-231.0-2.0","""event"",""trial"",""time""
""fullscreenenter"",""0"",""1156""
","
","
","""event"",""trial"",""time""
""fullscreenenter"",""0"",""1156""
","
","null","<p></p>","null","","","","","","","",""
"","image","257","420881","0.0-232.0-0.0","""event"",""trial"",""time""
""fullscreenenter"",""0"",""1156""
","
","
","""event"",""trial"",""time""
""fullscreenenter"",""0"",""1156""
","
","1455.2999999523163","run_exp/static/images/Set 6_rs/149a.jpg","78","","","","","","test","TF","1"
"","show_choice","258","421386","0.0-232.0-1.0","""event"",""trial"",""time""
""fullscreenenter"",""0"",""1156""
","
","
","""event"",""trial"",""time""
""fullscreenenter"",""0"",""1156""
","
","null","run_exp/static/images/Set 6_rs/149a.jpg","null","","","","","","test","TF",""
"","html-keyboard-response","259","421892","0.0-232.0-2.0","""event"",""trial"",""time""
""fullscreenenter"",""0"",""1156""
","
","
","""event"",""trial"",""time""
""fullscreenenter"",""0"",""1156""
","
","null","<p></p>","null","","","","","","","",""
"","image","260","423238","0.0-233.0-0.0","""event"",""trial"",""time""
""fullscreenenter"",""0"",""1156""
","
","
","""event"",""trial"",""time""
""fullscreenenter"",""0"",""1156""
","
","1343.2000000476837","run_exp/static/images/Set 6_rs/085b.jpg","86","","","","","","test","TL","1"
"","show_choice","261","423742","0.0-233.0-1.0","""event"",""trial"",""time""
""fullscreenenter"",""0"",""1156""
","
","
","""event"",""trial"",""time""
""fullscreenenter"",""0"",""1156""
","
","null","run_exp/static/images/Set 6_rs/085b.jpg","null","","","","","","test","TL",""
"","html-keyboard-response","262","424247","0.0-233.0-2.0","""event"",""trial"",""time""
""fullscreenenter"",""0"",""1156""
","
","
","""event"",""trial"",""time""
""fullscreenenter"",""0"",""1156""
","
","null","<p></p>","null","","","","","","","",""
"","image","263","425349","0.0-234.0-0.0","""event"",""trial"",""time""
""fullscreenenter"",""0"",""1156""
","
","
","""event"",""trial"",""time""
""fullscreenenter"",""0"",""1156""
","
","1098.8000000715256","run_exp/static/images/Set 6_rs/105a.jpg","78","","","","","","test","TF","5"
"","show_choice","264","425852","0.0-234.0-1.0","""event"",""trial"",""time""
""fullscreenenter"",""0"",""1156""
","
","
","""event"",""trial"",""time""
""fullscreenenter"",""0"",""1156""
","
","null","run_exp/static/images/Set 6_rs/105a.jpg","null","","","","","","test","TF",""
"","html-keyboard-response","265","426357","0.0-234.0-2.0","""event"",""trial"",""time""
""fullscreenenter"",""0"",""1156""
","
","
","""event"",""trial"",""time""
""fullscreenenter"",""0"",""1156""
","
","null","<p></p>","null","","","","","","","",""
"","image","266","427420","0.0-235.0-0.0","""event"",""trial"",""time""
""fullscreenenter"",""0"",""1156""
","
","
","""event"",""trial"",""time""
""fullscreenenter"",""0"",""1156""
","
","1061.7999999523163","run_exp/static/images/Set 6_rs/170a.jpg","78","","","","","","test","TF","2"
"","show_choice","267","427924","0.0-235.0-1.0","""event"",""trial"",""time""
""fullscreenenter"",""0"",""1156""
","
","
","""event"",""trial"",""time""
""fullscreenenter"",""0"",""1156""
","
","null","run_exp/static/images/Set 6_rs/170a.jpg","null","","","","","","test","TF",""
"","html-keyboard-response","268","428429","0.0-235.0-2.0","""event"",""trial"",""time""
""fullscreenenter"",""0"",""1156""
","
","
","""event"",""trial"",""time""
""fullscreenenter"",""0"",""1156""
","
","null","<p></p>","null","","","","","","","",""
"","image","269","429152","0.0-236.0-0.0","""event"",""trial"",""time""
""fullscreenenter"",""0"",""1156""
","
","
","""event"",""trial"",""time""
""fullscreenenter"",""0"",""1156""
","
","719.3000000715256","run_exp/static/images/Set 6_rs/097a.jpg","78","","","","","","test","TF","5"
"","show_choice","270","429656","0.0-236.0-1.0","""event"",""trial"",""time""
""fullscreenenter"",""0"",""1156""
","
","
","""event"",""trial"",""time""
""fullscreenenter"",""0"",""1156""
","
","null","run_exp/static/images/Set 6_rs/097a.jpg","null","","","","","","test","TF",""
"","html-keyboard-response","271","430161","0.0-236.0-2.0","""event"",""trial"",""time""
""fullscreenenter"",""0"",""1156""
","
","
","""event"",""trial"",""time""
""fullscreenenter"",""0"",""1156""
","
","null","<p></p>","null","","","","","","","",""
"","image","272","431304","0.0-237.0-0.0","""event"",""trial"",""time""
""fullscreenenter"",""0"",""1156""
","
","
","""event"",""trial"",""time""
""fullscreenenter"",""0"",""1156""
","
","1140","run_exp/static/images/Set 6_rs/112a.jpg","86","","","","","","test","TR","5"
"","show_choice","273","431808","0.0-237.0-1.0","""event"",""trial"",""time""
""fullscreenenter"",""0"",""1156""
","
","
","""event"",""trial"",""time""
""fullscreenenter"",""0"",""1156""
","
","null","run_exp/static/images/Set 6_rs/112a.jpg","null","","","","","","test","TR",""
"","html-keyboard-response","274","432312","0.0-237.0-2.0","""event"",""trial"",""time""
""fullscreenenter"",""0"",""1156""
","
","
","""event"",""trial"",""time""
""fullscreenenter"",""0"",""1156""
","
","null","<p></p>","null","","","","","","","",""
"","image","275","433231","0.0-238.0-0.0","""event"",""trial"",""time""
""fullscreenenter"",""0"",""1156""
","
","
","""event"",""trial"",""time""
""fullscreenenter"",""0"",""1156""
","
","909.1000000238419","run_exp/static/images/Set 6_rs/155a.jpg","78","","","","","","test","TF","4"
"","show_choice","276","433736","0.0-238.0-1.0","""event"",""trial"",""time""
""fullscreenenter"",""0"",""1156""
","
","
","""event"",""trial"",""time""
""fullscreenenter"",""0"",""1156""
","
","null","run_exp/static/images/Set 6_rs/155a.jpg","null","","","","","","test","TF",""
"","html-keyboard-response","277","434241","0.0-238.0-2.0","""event"",""trial"",""time""
""fullscreenenter"",""0"",""1156""
","
","
","""event"",""trial"",""time""
""fullscreenenter"",""0"",""1156""
","
","null","<p></p>","null","","","","","","","",""
"","image","278","435596","0.0-239.0-0.0","""event"",""trial"",""time""
""fullscreenenter"",""0"",""1156""
","
","
","""event"",""trial"",""time""
""fullscreenenter"",""0"",""1156""
","
","1351.9000000953674","run_exp/static/images/Set 6_rs/134a.jpg","86","","","","","","test","TR","3"
"","show_choice","279","436100","0.0-239.0-1.0","""event"",""trial"",""time""
""fullscreenenter"",""0"",""1156""
","
","
","""event"",""trial"",""time""
""fullscreenenter"",""0"",""1156""
","
","null","run_exp/static/images/Set 6_rs/134a.jpg","null","","","","","","test","TR",""
"","html-keyboard-response","280","436604","0.0-239.0-2.0","""event"",""trial"",""time""
""fullscreenenter"",""0"",""1156""
","
","
","""event"",""trial"",""time""
""fullscreenenter"",""0"",""1156""
","
","null","<p></p>","null","","","","","","","",""
"","image","281","438175","0.0-240.0-0.0","""event"",""trial"",""time""
""fullscreenenter"",""0"",""1156""
","
","
","""event"",""trial"",""time""
""fullscreenenter"",""0"",""1156""
","
","1567.6000000238419","run_exp/static/images/Set 6_rs/091b.jpg","66","","","","","","test","TL","3"
"","show_choice","282","438679","0.0-240.0-1.0","""event"",""trial"",""time""
""fullscreenenter"",""0"",""1156""
","
","
","""event"",""trial"",""time""
""fullscreenenter"",""0"",""1156""
","
","null","run_exp/static/images/Set 6_rs/091b.jpg","null","","","","","","test","TL",""
"","html-keyboard-response","283","439185","0.0-240.0-2.0","""event"",""trial"",""time""
""fullscreenenter"",""0"",""1156""
","
","
","""event"",""trial"",""time""
""fullscreenenter"",""0"",""1156""
","
","null","<p></p>","null","","","","","","","",""
"","image","284","440763","0.0-241.0-0.0","""event"",""trial"",""time""
""fullscreenenter"",""0"",""1156""
","
","
","""event"",""trial"",""time""
""fullscreenenter"",""0"",""1156""
","
","1573.2999999523163","run_exp/static/images/Set 6_rs/129b.jpg","66","","","","","","test","TL","1"
"","show_choice","285","441268","0.0-241.0-1.0","""event"",""trial"",""time""
""fullscreenenter"",""0"",""1156""
","
","
","""event"",""trial"",""time""
""fullscreenenter"",""0"",""1156""
","
","null","run_exp/static/images/Set 6_rs/129b.jpg","null","","","","","","test","TL",""
"","html-keyboard-response","286","441772","0.0-241.0-2.0","""event"",""trial"",""time""
""fullscreenenter"",""0"",""1156""
","
","
","""event"",""trial"",""time""
""fullscreenenter"",""0"",""1156""
","
","null","<p></p>","null","","","","","","","",""
"","image","287","443100","0.0-242.0-0.0","""event"",""trial"",""time""
""fullscreenenter"",""0"",""1156""
","
","
","""event"",""trial"",""time""
""fullscreenenter"",""0"",""1156""
","
","1326.1000000238419","run_exp/static/images/Set 6_rs/057b.jpg","86","","","","","","test","TL","1"
"","show_choice","288","443604","0.0-242.0-1.0","""event"",""trial"",""time""
""fullscreenenter"",""0"",""1156""
","
","
","""event"",""trial"",""time""
""fullscreenenter"",""0"",""1156""
","
","null","run_exp/static/images/Set 6_rs/057b.jpg","null","","","","","","test","TL",""
"","html-keyboard-response","289","444109","0.0-242.0-2.0","""event"",""trial"",""time""
""fullscreenenter"",""0"",""1156""
","
","
","""event"",""trial"",""time""
""fullscreenenter"",""0"",""1156""
","
","null","<p></p>","null","","","","","","","",""
"","image","290","445521","0.0-243.0-0.0","""event"",""trial"",""time""
""fullscreenenter"",""0"",""1156""
","
","
","""event"",""trial"",""time""
""fullscreenenter"",""0"",""1156""
","
","1408.9000000953674","run_exp/static/images/Set 6_rs/011a.jpg","66","","","","","","test","TF","3"
"","show_choice","291","446025","0.0-243.0-1.0","""event"",""trial"",""time""
""fullscreenenter"",""0"",""1156""
","
","
","""event"",""trial"",""time""
""fullscreenenter"",""0"",""1156""
","
","null","run_exp/static/images/Set 6_rs/011a.jpg","null","","","","","","test","TF",""
"","html-keyboard-response","292","446532","0.0-243.0-2.0","""event"",""trial"",""time""
""fullscreenenter"",""0"",""1156""
","
","
","""event"",""trial"",""time""
""fullscreenenter"",""0"",""1156""
","
","null","<p></p>","null","","","","","","","",""
"","image","293","447449","0.0-244.0-0.0","""event"",""trial"",""time""
""fullscreenenter"",""0"",""1156""
","
","
","""event"",""trial"",""time""
""fullscreenenter"",""0"",""1156""
","
","914","run_exp/static/images/Set 6_rs/022a.jpg","78","","","","","","test","TF","4"
"","show_choice","294","447951","0.0-244.0-1.0","""event"",""trial"",""time""
""fullscreenenter"",""0"",""1156""
","
","
","""event"",""trial"",""time""
""fullscreenenter"",""0"",""1156""
","
","null","run_exp/static/images/Set 6_rs/022a.jpg","null","","","","","","test","TF",""
"","html-keyboard-response","295","448457","0.0-244.0-2.0","""event"",""trial"",""time""
""fullscreenenter"",""0"",""1156""
","
","
","""event"",""trial"",""time""
""fullscreenenter"",""0"",""1156""
","
","null","<p></p>","null","","","","","","","",""
"","image","296","449910","0.0-245.0-0.0","""event"",""trial"",""time""
""fullscreenenter"",""0"",""1156""
","
","
","""event"",""trial"",""time""
""fullscreenenter"",""0"",""1156""
","
","1450.3000000715256","run_exp/static/images/Set 6_rs/154a.jpg","86","","","","","","test","TR","3"
"","show_choice","297","450413","0.0-245.0-1.0","""event"",""trial"",""time""
""fullscreenenter"",""0"",""1156""
","
","
","""event"",""trial"",""time""
""fullscreenenter"",""0"",""1156""
","
","null","run_exp/static/images/Set 6_rs/154a.jpg","null","","","","","","test","TR",""
"","html-keyboard-response","298","450920","0.0-245.0-2.0","""event"",""trial"",""time""
""fullscreenenter"",""0"",""1156""
","
","
","""event"",""trial"",""time""
""fullscreenenter"",""0"",""1156""
","
","null","<p></p>","null","","","","","","","",""
"","image","299","451788","0.0-246.0-0.0","""event"",""trial"",""time""
""fullscreenenter"",""0"",""1156""
","
","
","""event"",""trial"",""time""
""fullscreenenter"",""0"",""1156""
","
","865.7999999523163","run_exp/static/images/Set 6_rs/015a.jpg","78","","","","","","test","TF","4"
"","show_choice","300","452292","0.0-246.0-1.0","""event"",""trial"",""time""
""fullscreenenter"",""0"",""1156""
","
","
","""event"",""trial"",""time""
""fullscreenenter"",""0"",""1156""
","
","null","run_exp/static/images/Set 6_rs/015a.jpg","null","","","","","","test","TF",""
"","html-keyboard-response","301","452797","0.0-246.0-2.0","""event"",""trial"",""time""
""fullscreenenter"",""0"",""1156""
","
","
","""event"",""trial"",""time""
""fullscreenenter"",""0"",""1156""
","
","null","<p></p>","null","","","","","","","",""
"","image","302","454138","0.0-247.0-0.0","""event"",""trial"",""time""
""fullscreenenter"",""0"",""1156""
","
","
","""event"",""trial"",""time""
""fullscreenenter"",""0"",""1156""
","
","1337.8000000715256","run_exp/static/images/Set 6_rs/169a.jpg","86","","","","","","test","TR","4"
"","show_choice","303","454641","0.0-247.0-1.0","""event"",""trial"",""time""
""fullscreenenter"",""0"",""1156""
","
","
","""event"",""trial"",""time""
""fullscreenenter"",""0"",""1156""
","
","null","run_exp/static/images/Set 6_rs/169a.jpg","null","","","","","","test","TR",""
"","html-keyboard-response","304","455148","0.0-247.0-2.0","""event"",""trial"",""time""
""fullscreenenter"",""0"",""1156""
","
","
","""event"",""trial"",""time""
""fullscreenenter"",""0"",""1156""
","
","null","<p></p>","null","","","","","","","",""
"","image","305","456412","0.0-248.0-0.0","""event"",""trial"",""time""
""fullscreenenter"",""0"",""1156""
","
","
","""event"",""trial"",""time""
""fullscreenenter"",""0"",""1156""
","
","1262.2999999523163","run_exp/static/images/Set 6_rs/078a.jpg","78","","","","","","test","TF","1"
"","show_choice","306","456916","0.0-248.0-1.0","""event"",""trial"",""time""
""fullscreenenter"",""0"",""1156""
","
","
","""event"",""trial"",""time""
""fullscreenenter"",""0"",""1156""
","
","null","run_exp/static/images/Set 6_rs/078a.jpg","null","","","","","","test","TF",""
"","html-keyboard-response","307","457421","0.0-248.0-2.0","""event"",""trial"",""time""
""fullscreenenter"",""0"",""1156""
","
","
","""event"",""trial"",""time""
""fullscreenenter"",""0"",""1156""
","
","null","<p></p>","null","","","","","","","",""
"","image","308","458540","0.0-249.0-0.0","""event"",""trial"",""time""
""fullscreenenter"",""0"",""1156""
","
","
","""event"",""trial"",""time""
""fullscreenenter"",""0"",""1156""
","
","1116.2000000476837","run_exp/static/images/Set 6_rs/095b.jpg","66","","","","","","test","TL","5"
"","show_choice","309","459043","0.0-249.0-1.0","""event"",""trial"",""time""
""fullscreenenter"",""0"",""1156""
","
","
","""event"",""trial"",""time""
""fullscreenenter"",""0"",""1156""
","
","null","run_exp/static/images/Set 6_rs/095b.jpg","null","","","","","","test","TL",""
"","html-keyboard-response","310","459549","0.0-249.0-2.0","""event"",""trial"",""time""
""fullscreenenter"",""0"",""1156""
","
","
","""event"",""trial"",""time""
""fullscreenenter"",""0"",""1156""
","
","null","<p></p>","null","","","","","","","",""
"","image","311","460467","0.0-250.0-0.0","""event"",""trial"",""time""
""fullscreenenter"",""0"",""1156""
","
","
","""event"",""trial"",""time""
""fullscreenenter"",""0"",""1156""
","
","915.1000000238419","run_exp/static/images/Set 6_rs/045a.jpg","86","","","","","","test","TR","2"
"","show_choice","312","460969","0.0-250.0-1.0","""event"",""trial"",""time""
""fullscreenenter"",""0"",""1156""
","
","
","""event"",""trial"",""time""
""fullscreenenter"",""0"",""1156""
","
","null","run_exp/static/images/Set 6_rs/045a.jpg","null","","","","","","test","TR",""
"","html-keyboard-response","313","461475","0.0-250.0-2.0","""event"",""trial"",""time""
""fullscreenenter"",""0"",""1156""
","
","
","""event"",""trial"",""time""
""fullscreenenter"",""0"",""1156""
","
","null","<p></p>","null","","","","","","","",""
"","image","314","462648","0.0-251.0-0.0","""event"",""trial"",""time""
""fullscreenenter"",""0"",""1156""
","
","
","""event"",""trial"",""time""
""fullscreenenter"",""0"",""1156""
","
","1170.3999999761581","run_exp/static/images/Set 6_rs/100a.jpg","66","","","","","","test","TF","2"
"","show_choice","315","463153","0.0-251.0-1.0","""event"",""trial"",""time""
""fullscreenenter"",""0"",""1156""
","
","
","""event"",""trial"",""time""
""fullscreenenter"",""0"",""1156""
","
","null","run_exp/static/images/Set 6_rs/100a.jpg","null","","","","","","test","TF",""
"","html-keyboard-response","316","463659","0.0-251.0-2.0","""event"",""trial"",""time""
""fullscreenenter"",""0"",""1156""
","
","
","""event"",""trial"",""time""
""fullscreenenter"",""0"",""1156""
","
","null","<p></p>","null","","","","","","","",""
"","image","317","464748","0.0-252.0-0.0","""event"",""trial"",""time""
""fullscreenenter"",""0"",""1156""
","
","
","""event"",""trial"",""time""
""fullscreenenter"",""0"",""1156""
","
","1085.6999999284744","run_exp/static/images/Set 6_rs/056a.jpg","78","","","","","","test","TF","3"
"","show_choice","318","465251","0.0-252.0-1.0","""event"",""trial"",""time""
""fullscreenenter"",""0"",""1156""
","
","
","""event"",""trial"",""time""
""fullscreenenter"",""0"",""1156""
","
","null","run_exp/static/images/Set 6_rs/056a.jpg","null","","","","","","test","TF",""
"","html-keyboard-response","319","465757","0.0-252.0-2.0","""event"",""trial"",""time""
""fullscreenenter"",""0"",""1156""
","
","
","""event"",""trial"",""time""
""fullscreenenter"",""0"",""1156""
","
","null","<p></p>","null","","","","","","","",""
"","image","320","468393","0.0-253.0-0.0","""event"",""trial"",""time""
""fullscreenenter"",""0"",""1156""
","
","
","""event"",""trial"",""time""
""fullscreenenter"",""0"",""1156""
","
","2631.2000000476837","run_exp/static/images/Set 6_rs/048a.jpg","86","","","","","","test","TF","4"
"","show_choice","321","468897","0.0-253.0-1.0","""event"",""trial"",""time""
""fullscreenenter"",""0"",""1156""
","
","
","""event"",""trial"",""time""
""fullscreenenter"",""0"",""1156""
","
","null","run_exp/static/images/Set 6_rs/048a.jpg","null","","","","","","test","TF",""
"","html-keyboard-response","322","469401","0.0-253.0-2.0","""event"",""trial"",""time""
""fullscreenenter"",""0"",""1156""
","
","
","""event"",""trial"",""time""
""fullscreenenter"",""0"",""1156""
","
","null","<p></p>","null","","","","","","","",""
"","image","323","471294","0.0-254.0-0.0","""event"",""trial"",""time""
""fullscreenenter"",""0"",""1156""
","
","
","""event"",""trial"",""time""
""fullscreenenter"",""0"",""1156""
","
","1890.8999999761581","run_exp/static/images/Set 6_rs/168b.jpg","86","","","","","","test","TL","3"
"","show_choice","324","471797","0.0-254.0-1.0","""event"",""trial"",""time""
""fullscreenenter"",""0"",""1156""
","
","
","""event"",""trial"",""time""
""fullscreenenter"",""0"",""1156""
","
","null","run_exp/static/images/Set 6_rs/168b.jpg","null","","","","","","test","TL",""
"","html-keyboard-response","325","472303","0.0-254.0-2.0","""event"",""trial"",""time""
""fullscreenenter"",""0"",""1156""
","
","
","""event"",""trial"",""time""
""fullscreenenter"",""0"",""1156""
","
","null","<p></p>","null","","","","","","","",""
"","image","326","474394","0.0-255.0-0.0","""event"",""trial"",""time""
""fullscreenenter"",""0"",""1156""
","
","
","""event"",""trial"",""time""
""fullscreenenter"",""0"",""1156""
","
","2087.4000000953674","run_exp/static/images/Set 6_rs/086a.jpg","78","","","","","","test","TF","1"
"","show_choice","327","474897","0.0-255.0-1.0","""event"",""trial"",""time""
""fullscreenenter"",""0"",""1156""
","
","
","""event"",""trial"",""time""
""fullscreenenter"",""0"",""1156""
","
","null","run_exp/static/images/Set 6_rs/086a.jpg","null","","","","","","test","TF",""
"","html-keyboard-response","328","475401","0.0-255.0-2.0","""event"",""trial"",""time""
""fullscreenenter"",""0"",""1156""
","
","
","""event"",""trial"",""time""
""fullscreenenter"",""0"",""1156""
","
","null","<p></p>","null","","","","","","","",""
"","image","329","476761","0.0-256.0-0.0","""event"",""trial"",""time""
""fullscreenenter"",""0"",""1156""
","
","
","""event"",""trial"",""time""
""fullscreenenter"",""0"",""1156""
","
","1357.1000000238419","run_exp/static/images/Set 6_rs/073b.jpg","86","","","","","","test","TL","3"
"","show_choice","330","477265","0.0-256.0-1.0","""event"",""trial"",""time""
""fullscreenenter"",""0"",""1156""
","
","
","""event"",""trial"",""time""
""fullscreenenter"",""0"",""1156""
","
","null","run_exp/static/images/Set 6_rs/073b.jpg","null","","","","","","test","TL",""
"","html-keyboard-response","331","477771","0.0-256.0-2.0","""event"",""trial"",""time""
""fullscreenenter"",""0"",""1156""
","
","
","""event"",""trial"",""time""
""fullscreenenter"",""0"",""1156""
","
","null","<p></p>","null","","","","","","","",""
"","image","332","478514","0.0-257.0-0.0","""event"",""trial"",""time""
""fullscreenenter"",""0"",""1156""
","
","
","""event"",""trial"",""time""
""fullscreenenter"",""0"",""1156""
","
","739.7999999523163","run_exp/static/images/Set 6_rs/109a.jpg","78","","","","","","test","TF","5"
"","show_choice","333","479017","0.0-257.0-1.0","""event"",""trial"",""time""
""fullscreenenter"",""0"",""1156""
","
","
","""event"",""trial"",""time""
""fullscreenenter"",""0"",""1156""
","
","null","run_exp/static/images/Set 6_rs/109a.jpg","null","","","","","","test","TF",""
"","html-keyboard-response","334","479523","0.0-257.0-2.0","""event"",""trial"",""time""
""fullscreenenter"",""0"",""1156""
","
","
","""event"",""trial"",""time""
""fullscreenenter"",""0"",""1156""
","
","null","<p></p>","null","","","","","","","",""
"","image","335","480721","0.0-258.0-0.0","""event"",""trial"",""time""
""fullscreenenter"",""0"",""1156""
","
","
","""event"",""trial"",""time""
""fullscreenenter"",""0"",""1156""
","
","1195.8000000715256","run_exp/static/images/Set 6_rs/076a.jpg","86","","","","","","test","TR","4"
"","show_choice","336","481225","0.0-258.0-1.0","""event"",""trial"",""time""
""fullscreenenter"",""0"",""1156""
","
","
","""event"",""trial"",""time""
""fullscreenenter"",""0"",""1156""
","
","null","run_exp/static/images/Set 6_rs/076a.jpg","null","","","","","","test","TR",""
"","html-keyboard-response","337","481731","0.0-258.0-2.0","""event"",""trial"",""time""
""fullscreenenter"",""0"",""1156""
","
","
","""event"",""trial"",""time""
""fullscreenenter"",""0"",""1156""
","
","null","<p></p>","null","","","","","","","",""
"","image","338","483032","0.0-259.0-0.0","""event"",""trial"",""time""
