"success","trial_type","trial_index","time_elapsed","internal_node_id","rt","stimulus","key_press","subject_id","participant_id","age","gender","prompt","phase","condition","lure_bin"
"true","fullscreen","0","5552","0.0-0.0","","","","","","","","","","",""
"","pavlovia","1","5557","0.0-1.0","","","","","","","","","","",""
"","welcome","2","41284","0.0-2.0","null","run_exp/static/audio/clip_1_welcome.m4a","null","57","65","9","female","<div class='center'><p>This is your last game of the experiment! First, you'll be shown pictures of items one at a time. For each picture, you have to decide if the item is typically found indoors or outdoors.</p><p>If you think it's usually found indoors, then press <b>v</b> key on your keyboard. If you think it's usually found outdoors, then press the <b>n</b> key.There will be reminders on the screen to help you remember which keys to press. </p><p>If you're not sure whether the item is an indoor item or outdoor item, go ahead and take a guess but try your best not to skip that choice. </p></div>","","",""
"","html-keyboard-response","3","42962","0.0-3.0","1676","<div class='center'><p>This is your last game of the experiment! First, you'll be shown pictures of items one at a time. For each picture, you have to decide if the item is typically found indoors or outdoors.</p><p>If you think it's usually found indoors, then press <b>v</b> key on your keyboard. If you think it's usually found outdoors, then press the <b>n</b> key.There will be reminders on the screen to help you remember which keys to press. </p><p>If you're not sure whether the item is an indoor item or outdoor item, go ahead and take a guess but try your best not to skip that choice. </p><div><p><b>[Press the space bar to continue]</b></p></div>","32","","","","","","","",""
"","image","4","44921","0.0-4.0","1957.5","run_exp/static/images/Set 6_rs/073a.jpg","78","","","","","","learn","SL",""
"","show_choice","5","44966","0.0-5.0","null","run_exp/static/images/Set 6_rs/073a.jpg","null","","","","","","learn","SL",""
"","html-keyboard-response","6","45467","0.0-6.0","null","<p></p>","null","","","","","","","",""
"","image","7","47351","0.0-7.0","1882.4000000059605","run_exp/static/images/Set 6_rs/025a.jpg","78","","","","","","learn","SL",""
"","show_choice","8","47470","0.0-8.0","null","run_exp/static/images/Set 6_rs/025a.jpg","null","","","","","","learn","SL",""
"","html-keyboard-response","9","47973","0.0-9.0","null","<p></p>","null","","","","","","","",""
"","image","10","49535","0.0-10.0","1561.5","run_exp/static/images/Set 6_rs/061a.jpg","78","","","","","","learn","SR",""
"","show_choice","11","49977","0.0-11.0","null","run_exp/static/images/Set 6_rs/061a.jpg","null","","","","","","learn","SR",""
"","html-keyboard-response","12","50479","0.0-12.0","null","<p></p>","null","","","","","","","",""
"","image","13","51944","0.0-13.0","1463.7000000029802","run_exp/static/images/Set 6_rs/006a.jpg","86","","","","","","learn","SL",""
"","show_choice","14","52486","0.0-14.0","null","run_exp/static/images/Set 6_rs/006a.jpg","null","","","","","","learn","SL",""
"","html-keyboard-response","15","52986","0.0-15.0","null","<p></p>","null","","","","","","","",""
"","image","16","54989","0.0-16.0","null","run_exp/static/images/Set 6_rs/148a.jpg","null","","","","","","learn","SR",""
"","show_choice","17","56993","0.0-17.0","null","run_exp/static/images/blank.png","null","","","","","","learn","SR",""
"","html-keyboard-response","18","57496","0.0-18.0","null","<p></p>","null","","","","","","","",""
"","image","19","58693","0.0-19.0","1196.1000000014901","run_exp/static/images/Set 6_rs/166a.jpg","86","","","","","","learn","SR",""
"","show_choice","20","59502","0.0-20.0","null","run_exp/static/images/Set 6_rs/166a.jpg","null","","","","","","learn","SR",""
"","html-keyboard-response","21","60006","0.0-21.0","null","<p></p>","null","","","","","","","",""
"","image","22","61230","0.0-22.0","1222.5999999940395","run_exp/static/images/Set 6_rs/008a.jpg","86","","","","","","learn","SL",""
"","show_choice","23","62009","0.0-23.0","null","run_exp/static/images/Set 6_rs/008a.jpg","null","","","","","","learn","SL",""
"","html-keyboard-response","24","62510","0.0-24.0","null","<p></p>","null","","","","","","","",""
"","image","25","63702","0.0-25.0","1190.2999999970198","run_exp/static/images/Set 6_rs/181a.jpg","78","","","","","","learn","SL",""
"","show_choice","26","64517","0.0-26.0","null","run_exp/static/images/Set 6_rs/181a.jpg","null","","","","","","learn","SL",""
"","html-keyboard-response","27","65022","0.0-27.0","null","<p></p>","null","","","","","","","",""
"","image","28","66864","0.0-28.0","1840.2999999970198","run_exp/static/images/Set 6_rs/017a.jpg","78","","","","","","learn","SL",""
"","show_choice","29","67026","0.0-29.0","null","run_exp/static/images/Set 6_rs/017a.jpg","null","","","","","","learn","SL",""
"","html-keyboard-response","30","67528","0.0-30.0","null","<p></p>","null","","","","","","","",""
"","image","31","68752","0.0-31.0","1222.7000000029802","run_exp/static/images/Set 6_rs/088a.jpg","86","","","","","","learn","SR",""
"","show_choice","32","69534","0.0-32.0","null","run_exp/static/images/Set 6_rs/088a.jpg","null","","","","","","learn","SR",""
"","html-keyboard-response","33","70039","0.0-33.0","null","<p></p>","null","","","","","","","",""
"","image","34","71487","0.0-34.0","1446.6000000014901","run_exp/static/images/Set 6_rs/012a.jpg","86","","","","","","learn","SR",""
"","show_choice","35","72043","0.0-35.0","null","run_exp/static/images/Set 6_rs/012a.jpg","null","","","","","","learn","SR",""
"","html-keyboard-response","36","72549","0.0-36.0","null","<p></p>","null","","","","","","","",""
"","image","37","74163","0.0-37.0","1612.4000000059605","run_exp/static/images/Set 6_rs/122a.jpg","86","","","","","","learn","SR",""
"","show_choice","38","74555","0.0-38.0","null","run_exp/static/images/Set 6_rs/122a.jpg","null","","","","","","learn","SR",""
"","html-keyboard-response","39","75057","0.0-39.0","null","<p></p>","null","","","","","","","",""
"","image","40","75938","0.0-40.0","880","run_exp/static/images/Set 6_rs/057a.jpg","86","","","","","","learn","SL",""
"","show_choice","41","77061","0.0-41.0","null","run_exp/static/images/Set 6_rs/057a.jpg","null","","","","","","learn","SL",""
"","html-keyboard-response","42","77565","0.0-42.0","null","<p></p>","null","","","","","","","",""
"","image","43","78869","0.0-43.0","1303","run_exp/static/images/Set 6_rs/144a.jpg","86","","","","","","learn","SL",""
"","show_choice","44","79572","0.0-44.0","null","run_exp/static/images/Set 6_rs/144a.jpg","null","","","","","","learn","SL",""
"","html-keyboard-response","45","80074","0.0-45.0","null","<p></p>","null","","","","","","","",""
"","image","46","81427","0.0-46.0","1351.3000000044703","run_exp/static/images/Set 6_rs/152a.jpg","86","","","","","","learn","SR",""
"","show_choice","47","82076","0.0-47.0","null","run_exp/static/images/Set 6_rs/152a.jpg","null","","","","","","learn","SR",""
"","html-keyboard-response","48","82578","0.0-48.0","null","<p></p>","null","","","","","","","",""
"","image","49","84585","0.0-49.0","null","run_exp/static/images/Set 6_rs/138a.jpg","null","","","","","","learn","SL",""
"","show_choice","50","86591","0.0-50.0","null","run_exp/static/images/blank.png","null","","","","","","learn","SL",""
"","html-keyboard-response","51","87093","0.0-51.0","null","<p></p>","null","","","","","","","",""
"","image","52","87942","0.0-52.0","848.3999999985099","run_exp/static/images/Set 6_rs/060a.jpg","86","","","","","","learn","SL",""
"","show_choice","53","89099","0.0-53.0","null","run_exp/static/images/Set 6_rs/060a.jpg","null","","","","","","learn","SL",""
"","html-keyboard-response","54","89605","0.0-54.0","null","<p></p>","null","","","","","","","",""
"","image","55","90832","0.0-55.0","1225.7999999970198","run_exp/static/images/Set 6_rs/154a.jpg","86","","","","","","learn","SR",""
"","show_choice","56","91609","0.0-56.0","null","run_exp/static/images/Set 6_rs/154a.jpg","null","","","","","","learn","SR",""
"","html-keyboard-response","57","92115","0.0-57.0","null","<p></p>","null","","","","","","","",""
"","image","58","93487","0.0-58.0","1370.8000000044703","run_exp/static/images/Set 6_rs/055a.jpg","86","","","","","","learn","SL",""
"","show_choice","59","94122","0.0-59.0","null","run_exp/static/images/Set 6_rs/055a.jpg","null","","","","","","learn","SL",""
"","html-keyboard-response","60","94624","0.0-60.0","null","<p></p>","null","","","","","","","",""
"","image","61","95745","0.0-61.0","1120.5","run_exp/static/images/Set 6_rs/134a.jpg","86","","","","","","learn","SR",""
"","show_choice","62","96626","0.0-62.0","null","run_exp/static/images/Set 6_rs/134a.jpg","null","","","","","","learn","SR",""
"","html-keyboard-response","63","97132","0.0-63.0","null","<p></p>","null","","","","","","","",""
"","image","64","99138","0.0-64.0","null","run_exp/static/images/Set 6_rs/121a.jpg","null","","","","","","learn","SR",""
"","show_choice","65","101143","0.0-65.0","null","run_exp/static/images/blank.png","null","","","","","","learn","SR",""
"","html-keyboard-response","66","101649","0.0-66.0","null","<p></p>","null","","","","","","","",""
"","image","67","102983","0.0-67.0","1333.7999999970198","run_exp/static/images/Set 6_rs/076a.jpg","78","","","","","","learn","SR",""
"","show_choice","68","103655","0.0-68.0","null","run_exp/static/images/Set 6_rs/076a.jpg","null","","","","","","learn","SR",""
"","html-keyboard-response","69","104157","0.0-69.0","null","<p></p>","null","","","","","","","",""
"","image","70","105612","0.0-70.0","1454","run_exp/static/images/Set 6_rs/075a.jpg","86","","","","","","learn","SR",""
"","show_choice","71","106164","0.0-71.0","null","run_exp/static/images/Set 6_rs/075a.jpg","null","","","","","","learn","SR",""
"","html-keyboard-response","72","106665","0.0-72.0","null","<p></p>","null","","","","","","","",""
"","image","73","108170","0.0-73.0","1503.6000000014901","run_exp/static/images/Set 6_rs/187a.jpg","86","","","","","","learn","SR",""
"","show_choice","74","108668","0.0-74.0","null","run_exp/static/images/Set 6_rs/187a.jpg","null","","","","","","learn","SR",""
"","html-keyboard-response","75","109169","0.0-75.0","null","<p></p>","null","","","","","","","",""
"","image","76","110742","0.0-76.0","1571.7999999970198","run_exp/static/images/Set 6_rs/066a.jpg","86","","","","","","learn","SL",""
"","show_choice","77","111176","0.0-77.0","null","run_exp/static/images/Set 6_rs/066a.jpg","null","","","","","","learn","SL",""
"","html-keyboard-response","78","111681","0.0-78.0","null","<p></p>","null","","","","","","","",""
"","image","79","113127","0.0-79.0","1445.1000000014901","run_exp/static/images/Set 6_rs/117a.jpg","86","","","","","","learn","SL",""
"","show_choice","80","113687","0.0-80.0","null","run_exp/static/images/Set 6_rs/117a.jpg","null","","","","","","learn","SL",""
"","html-keyboard-response","81","114193","0.0-81.0","null","<p></p>","null","","","","","","","",""
"","image","82","116171","0.0-82.0","1977.1000000014901","run_exp/static/images/Set 6_rs/123a.jpg","86","","","","","","learn","SL",""
"","show_choice","83","116195","0.0-83.0","null","run_exp/static/images/Set 6_rs/123a.jpg","null","","","","","","learn","SL",""
"","html-keyboard-response","84","116701","0.0-84.0","null","<p></p>","null","","","","","","","",""
"","image","85","118703","0.0-85.0","null","run_exp/static/images/Set 6_rs/016a.jpg","null","","","","","","learn","SL",""
"","show_choice","86","120709","0.0-86.0","null","run_exp/static/images/blank.png","null","","","","","","learn","SL",""
"","html-keyboard-response","87","121214","0.0-87.0","null","<p></p>","null","","","","","","","",""
"","image","88","122450","0.0-88.0","1235.1999999955297","run_exp/static/images/Set 6_rs/126a.jpg","78","","","","","","learn","SR",""
"","show_choice","89","123220","0.0-89.0","null","run_exp/static/images/Set 6_rs/126a.jpg","null","","","","","","learn","SR",""
"","html-keyboard-response","90","123726","0.0-90.0","null","<p></p>","null","","","","","","","",""
"","image","91","125608","0.0-91.0","1881.2999999970198","run_exp/static/images/Set 6_rs/167a.jpg","86","","","","","","learn","SL",""
"","show_choice","92","125727","0.0-92.0","null","run_exp/static/images/Set 6_rs/167a.jpg","null","","","","","","learn","SL",""
"","html-keyboard-response","93","126229","0.0-93.0","null","<p></p>","null","","","","","","","",""
"","image","94","127942","0.0-94.0","1711.2999999970198","run_exp/static/images/Set 6_rs/177a.jpg","78","","","","","","learn","SR",""
"","show_choice","95","128233","0.0-95.0","null","run_exp/static/images/Set 6_rs/177a.jpg","null","","","","","","learn","SR",""
"","html-keyboard-response","96","128737","0.0-96.0","null","<p></p>","null","","","","","","","",""
"","image","97","130265","0.0-97.0","1526.7999999970198","run_exp/static/images/Set 6_rs/067a.jpg","86","","","","","","learn","SL",""
"","show_choice","98","130742","0.0-98.0","null","run_exp/static/images/Set 6_rs/067a.jpg","null","","","","","","learn","SL",""
"","html-keyboard-response","99","131246","0.0-99.0","null","<p></p>","null","","","","","","","",""
"","image","100","132604","0.0-100.0","1357.2000000029802","run_exp/static/images/Set 6_rs/079a.jpg","86","","","","","","learn","SL",""
"","show_choice","101","133251","0.0-101.0","null","run_exp/static/images/Set 6_rs/079a.jpg","null","","","","","","learn","SL",""
"","html-keyboard-response","102","133753","0.0-102.0","null","<p></p>","null","","","","","","","",""
"","image","103","135419","0.0-103.0","1665","run_exp/static/images/Set 6_rs/132a.jpg","78","","","","","","learn","SR",""
"","show_choice","104","135758","0.0-104.0","null","run_exp/static/images/Set 6_rs/132a.jpg","null","","","","","","learn","SR",""
"","html-keyboard-response","105","136259","0.0-105.0","null","<p></p>","null","","","","","","","",""
"","image","106","138265","0.0-106.0","null","run_exp/static/images/Set 6_rs/191a.jpg","null","","","","","","learn","SL",""
"","show_choice","107","140270","0.0-107.0","null","run_exp/static/images/blank.png","null","","","","","","learn","SL",""
"","html-keyboard-response","108","140774","0.0-108.0","null","<p></p>","null","","","","","","","",""
"","image","109","142277","0.0-109.0","1502.8999999985099","run_exp/static/images/Set 6_rs/111a.jpg","86","","","","","","learn","SL",""
"","show_choice","110","142777","0.0-110.0","null","run_exp/static/images/Set 6_rs/111a.jpg","null","","","","","","learn","SL",""
"","html-keyboard-response","111","143282","0.0-111.0","null","<p></p>","null","","","","","","","",""
"","image","112","144958","0.0-112.0","1674.8000000044703","run_exp/static/images/Set 6_rs/168a.jpg","86","","","","","","learn","SL",""
"","show_choice","113","145289","0.0-113.0","null","run_exp/static/images/Set 6_rs/168a.jpg","null","","","","","","learn","SL",""
"","html-keyboard-response","114","145792","0.0-114.0","null","<p></p>","null","","","","","","","",""
"","image","115","147083","0.0-115.0","1289.5","run_exp/static/images/Set 6_rs/141a.jpg","78","","","","","","learn","SR",""
"","show_choice","116","147799","0.0-116.0","null","run_exp/static/images/Set 6_rs/141a.jpg","null","","","","","","learn","SR",""
"","html-keyboard-response","117","148303","0.0-117.0","null","<p></p>","null","","","","","","","",""
"","image","118","149729","0.0-118.0","1425","run_exp/static/images/Set 6_rs/108a.jpg","86","","","","","","learn","SR",""
"","show_choice","119","150309","0.0-119.0","null","run_exp/static/images/Set 6_rs/108a.jpg","null","","","","","","learn","SR",""
"","html-keyboard-response","120","150815","0.0-120.0","null","<p></p>","null","","","","","","","",""
"","image","121","152148","0.0-121.0","1332.2000000029802","run_exp/static/images/Set 6_rs/064a.jpg","86","","","","","","learn","SR",""
"","show_choice","122","152821","0.0-122.0","null","run_exp/static/images/Set 6_rs/064a.jpg","null","","","","","","learn","SR",""
"","html-keyboard-response","123","153325","0.0-123.0","null","<p></p>","null","","","","","","","",""
"","image","124","155328","0.0-124.0","null","run_exp/static/images/Set 6_rs/063a.jpg","null","","","","","","learn","SR",""
"","show_choice","125","157330","0.0-125.0","null","run_exp/static/images/blank.png","null","","","","","","learn","SR",""
"","html-keyboard-response","126","157836","0.0-126.0","null","<p></p>","null","","","","","","","",""
"","image","127","158659","0.0-127.0","822.1000000014901","run_exp/static/images/Set 6_rs/095a.jpg","86","","","","","","learn","SL",""
"","show_choice","128","159841","0.0-128.0","null","run_exp/static/images/Set 6_rs/095a.jpg","null","","","","","","learn","SL",""
"","html-keyboard-response","129","160342","0.0-129.0","null","<p></p>","null","","","","","","","",""
"","image","130","161270","0.0-130.0","927.2000000029802","run_exp/static/images/Set 6_rs/129a.jpg","86","","","","","","learn","SL",""
"","show_choice","131","162348","0.0-131.0","null","run_exp/static/images/Set 6_rs/129a.jpg","null","","","","","","learn","SL",""
"","html-keyboard-response","132","162852","0.0-132.0","null","<p></p>","null","","","","","","","",""
"","image","133","164046","0.0-133.0","1192.6999999955297","run_exp/static/images/Set 6_rs/074a.jpg","78","","","","","","learn","SL",""
"","show_choice","134","164859","0.0-134.0","null","run_exp/static/images/Set 6_rs/074a.jpg","null","","","","","","learn","SL",""
"","html-keyboard-response","135","165361","0.0-135.0","null","<p></p>","null","","","","","","","",""
"","image","136","167157","0.0-136.0","1795","run_exp/static/images/Set 6_rs/131a.jpg","86","","","","","","learn","SR",""
"","show_choice","137","167364","0.0-137.0","null","run_exp/static/images/Set 6_rs/131a.jpg","null","","","","","","learn","SR",""
"","html-keyboard-response","138","167867","0.0-138.0","null","<p></p>","null","","","","","","","",""
"","image","139","169013","0.0-139.0","1145.0999999940395","run_exp/static/images/Set 6_rs/172a.jpg","78","","","","","","learn","SR",""
"","show_choice","140","169869","0.0-140.0","null","run_exp/static/images/Set 6_rs/172a.jpg","null","","","","","","learn","SR",""
"","html-keyboard-response","141","170375","0.0-141.0","null","<p></p>","null","","","","","","","",""
"","image","142","171393","0.0-142.0","1017.5999999940395","run_exp/static/images/Set 6_rs/169a.jpg","78","","","","","","learn","SR",""
"","show_choice","143","172380","0.0-143.0","null","run_exp/static/images/Set 6_rs/169a.jpg","null","","","","","","learn","SR",""
"","html-keyboard-response","144","172884","0.0-144.0","null","<p></p>","null","","","","","","","",""
"","image","145","174097","0.0-145.0","1212.5","run_exp/static/images/Set 6_rs/036a.jpg","86","","","","","","learn","SL",""
"","show_choice","146","174888","0.0-146.0","null","run_exp/static/images/Set 6_rs/036a.jpg","null","","","","","","learn","SL",""
"","html-keyboard-response","147","175389","0.0-147.0","null","<p></p>","null","","","","","","","",""
"","image","148","176494","0.0-148.0","1103.7000000029802","run_exp/static/images/Set 6_rs/071a.jpg","86","","","","","","learn","SL",""
"","show_choice","149","177392","0.0-149.0","null","run_exp/static/images/Set 6_rs/071a.jpg","null","","","","","","learn","SL",""
"","html-keyboard-response","150","177893","0.0-150.0","null","<p></p>","null","","","","","","","",""
"","image","151","179069","0.0-151.0","1175.5","run_exp/static/images/Set 6_rs/045a.jpg","86","","","","","","learn","SR",""
"","show_choice","152","179894","0.0-152.0","null","run_exp/static/images/Set 6_rs/045a.jpg","null","","","","","","learn","SR",""
"","html-keyboard-response","153","180396","0.0-153.0","null","<p></p>","null","","","","","","","",""
"","image","154","181660","0.0-154.0","1262.8999999985099","run_exp/static/images/Set 6_rs/019a.jpg","78","","","","","","learn","SL",""
"","show_choice","155","182403","0.0-155.0","null","run_exp/static/images/Set 6_rs/019a.jpg","null","","","","","","learn","SL",""
"","html-keyboard-response","156","182908","0.0-156.0","null","<p></p>","null","","","","","","","",""
"","image","157","183883","0.0-157.0","973.3999999985099","run_exp/static/images/Set 6_rs/089a.jpg","86","","","","","","learn","SL",""
"","show_choice","158","184915","0.0-158.0","null","run_exp/static/images/Set 6_rs/089a.jpg","null","","","","","","learn","SL",""
"","html-keyboard-response","159","185417","0.0-159.0","null","<p></p>","null","","","","","","","",""
"","image","160","186555","0.0-160.0","1136.6000000014901","run_exp/static/images/Set 6_rs/091a.jpg","86","","","","","","learn","SL",""
"","show_choice","161","187419","0.0-161.0","null","run_exp/static/images/Set 6_rs/091a.jpg","null","","","","","","learn","SL",""
"","html-keyboard-response","162","187923","0.0-162.0","null","<p></p>","null","","","","","","","",""
"","image","163","189020","0.0-163.0","1096","run_exp/static/images/Set 6_rs/150a.jpg","86","","","","","","learn","SR",""
"","show_choice","164","189925","0.0-164.0","null","run_exp/static/images/Set 6_rs/150a.jpg","null","","","","","","learn","SR",""
"","html-keyboard-response","165","190431","0.0-165.0","null","<p></p>","null","","","","","","","",""
"","image","166","191614","0.0-166.0","1182.5","run_exp/static/images/Set 6_rs/024a.jpg","86","","","","","","learn","SR",""
"","show_choice","167","192437","0.0-167.0","null","run_exp/static/images/Set 6_rs/024a.jpg","null","","","","","","learn","SR",""
"","html-keyboard-response","168","192938","0.0-168.0","null","<p></p>","null","","","","","","","",""
"","image","169","194004","0.0-169.0","1064.1999999955297","run_exp/static/images/Set 6_rs/007a.jpg","86","","","","","","learn","SR",""
"","show_choice","170","194942","0.0-170.0","null","run_exp/static/images/Set 6_rs/007a.jpg","null","","","","","","learn","SR",""
"","html-keyboard-response","171","195447","0.0-171.0","null","<p></p>","null","","","","","","","",""
"","image","172","196409","0.0-172.0","960","run_exp/static/images/Set 6_rs/023a.jpg","86","","","","","","learn","SR",""
"","show_choice","173","197451","0.0-173.0","null","run_exp/static/images/Set 6_rs/023a.jpg","null","","","","","","learn","SR",""
"","html-keyboard-response","174","197952","0.0-174.0","null","<p></p>","null","","","","","","","",""
"","image","175","199187","0.0-175.0","1234.2999999970198","run_exp/static/images/Set 6_rs/010a.jpg","86","","","","","","learn","SR",""
"","show_choice","176","199955","0.0-176.0","null","run_exp/static/images/Set 6_rs/010a.jpg","null","","","","","","learn","SR",""
"","html-keyboard-response","177","200459","0.0-177.0","null","<p></p>","null","","","","","","","",""
"","image","178","201316","0.0-178.0","856.3999999985099","run_exp/static/images/Set 6_rs/112a.jpg","86","","","","","","learn","SR",""
"","show_choice","179","202462","0.0-179.0","null","run_exp/static/images/Set 6_rs/112a.jpg","null","","","","","","learn","SR",""
"","html-keyboard-response","180","202964","0.0-180.0","null","<p></p>","null","","","","","","","",""
"","image","181","203870","0.0-181.0","905.1000000014901","run_exp/static/images/Set 6_rs/062a.jpg","86","","","","","","learn","SL",""
"","show_choice","182","204968","0.0-182.0","null","run_exp/static/images/Set 6_rs/062a.jpg","null","","","","","","learn","SL",""
"","html-keyboard-response","183","205469","0.0-183.0","null","<p></p>","null","","","","","","","",""
"","image","184","206557","0.0-184.0","1087.3999999985099","run_exp/static/images/Set 6_rs/116a.jpg","86","","","","","","learn","SL",""
"","show_choice","185","207471","0.0-185.0","null","run_exp/static/images/Set 6_rs/116a.jpg","null","","","","","","learn","SL",""
"","html-keyboard-response","186","207975","0.0-186.0","null","<p></p>","null","","","","","","","",""
"","image","187","208952","0.0-187.0","976.3999999985099","run_exp/static/images/Set 6_rs/178a.jpg","86","","","","","","learn","SR",""
"","show_choice","188","209981","0.0-188.0","null","run_exp/static/images/Set 6_rs/178a.jpg","null","","","","","","learn","SR",""
"","html-keyboard-response","189","210483","0.0-189.0","null","<p></p>","null","","","","","","","",""
"","image","190","211471","0.0-190.0","987.0999999940395","run_exp/static/images/Set 6_rs/085a.jpg","86","","","","","","learn","SL",""
"","show_choice","191","212489","0.0-191.0","null","run_exp/static/images/Set 6_rs/085a.jpg","null","","","","","","learn","SL",""
"","html-keyboard-response","192","212990","0.0-192.0","null","<p></p>","null","","","","","","","",""
"","image","193","214735","0.0-193.0","1744.5","run_exp/static/images/Set 6_rs/186a.jpg","86","","","","","","learn","SR",""
"","show_choice","194","214991","0.0-194.0","null","run_exp/static/images/Set 6_rs/186a.jpg","null","","","","","","learn","SR",""
"","html-keyboard-response","195","215495","0.0-195.0","null","<p></p>","null","","","","","","","",""
"","test_intro","196","256942","0.0-196.0","null","run_exp/static/audio/clip_2_memory.m4a","null","","","","","<div class='center'><p>Now, let’s see how much you remember about the items you just saw.  For each item, you need to indicate if it was <b>old</b> by pressing the <b>v</b> key, <b>similar</b> by pressing the <b>b</b> key, or <b>new</b> by pressing the <b>n</b> key.</p><p>Old refers to an item that you saw before in the indoor/outdoor game that you just played, new refers to an item you have <b>not</b> seen before within the indoor/outdoor game, and similar refers to an item that is similar to an item you’ve seen before but is not exactly the same. </p><p>Before we begin, let’s go over some brief demonstrations to make sure you understand.</p></div>","","",""
"","html-keyboard-response","197","257951","0.0-197.0","1007.5999999940395","<div class='center'><p>Now, let’s see how much you remember about the items you just saw.  For each item, you need to indicate if it was <b>old</b> by pressing the <b>v</b> key, <b>similar</b> by pressing the <b>b</b> key, or <b>new</b> by pressing the <b>n</b> key.</p><p>Old refers to an item that you saw before in the indoor/outdoor game that you just played, new refers to an item you have <b>not</b> seen before within the indoor/outdoor game, and similar refers to an item that is similar to an item you’ve seen before but is not exactly the same. </p><p>Before we begin, let’s go over some brief demonstrations to make sure you understand.</p><div><p><b>[Press the space bar to continue]</b></p></div>","32","","","","","","","",""
"","items","198","265454","0.0-198.0","null","run_exp/static/audio/clip_3_items.m4a","null","","","","","","","",""
"","mop","199","269957","0.0-199.0","null","run_exp/static/audio/clip_4_mop.m4a","null","","","","","","","",""
"","baseball","200","273459","0.0-200.0","null","run_exp/static/audio/clip_5_baseball.m4a","null","","","","","","","",""
"","trumpet","201","276963","0.0-201.0","null","run_exp/static/audio/clip_6_trumpet.m4a","null","","","","","","","",""
"","gummies","202","280465","0.0-202.0","null","run_exp/static/audio/clip_7_gummies.m4a","null","","","","","","","",""
"","osn","203","284972","0.0-203.0","null","run_exp/static/audio/clip_8_osn.m4a","null","","","","","","","",""
"","old_1","204","291474","0.0-204.0","null","run_exp/static/audio/clip_9_old_trumpet.m4a","null","","","","","","","",""
"","new_1","205","298981","0.0-205.0","null","run_exp/static/audio/clip_10_new_balloon.m4a","null","","","","","","","",""
"","similar_1a","206","303488","0.0-206.0","null","run_exp/static/audio/clip_11a_similar_mop.m4a","null","","","","","","","",""
"","similar_1b","207","309990","0.0-207.0","null","run_exp/static/audio/clip_11b_similar_mop.m4a","null","","","","","","","",""
"","new_2","208","313496","0.0-208.0","null","run_exp/static/audio/clip_12_new_stoplight.m4a","null","","","","","","","",""
"","old_2","209","317000","0.0-209.0","null","run_exp/static/audio/clip_13_old_baseball.m4a","null","","","","","","","",""
"","similar_2a","210","320507","0.0-210.0","null","run_exp/static/audio/clip_14a_similar_gummies.m4a","null","","","","","","","",""
"","similar_2b","211","328009","0.0-211.0","null","run_exp/static/audio/clip_14b_similar_gummies.m4a","null","","","","","","","",""
"","practice","212","343747","0.0-212.0","null","run_exp/static/audio/clip_15_practice.m4a","null","","","","","<div class='center'><p>Ok, let’s practice a little to make sure you understand the difference between new, similar, and old. Let’s say you saw these three items in the indoor/outdoor game. Study these because you’ll be tested on them soon in this practice game. </p><p><img src='run_exp/static/images/tutorial/test/three_indoor_outdoor.png' height='300'></p></div>","","",""
"","html-keyboard-response","213","345933","0.0-213.0","2184.8000000044703","<div class='center'><p>Ok, let’s practice a little to make sure you understand the difference between new, similar, and old. Let’s say you saw these three items in the indoor/outdoor game. Study these because you’ll be tested on them soon in this practice game. </p><p><img src='run_exp/static/images/tutorial/test/three_indoor_outdoor.png' height='300'></p><div><p><b>[Press the space bar to continue]</b></p></div>","32","","","","","","","",""
"","practice_q1","214","352549","0.0-214.0","6614.69999999553","run_exp/static/audio/clip_16_practice_question.m4a","78","","","","","","","",""
"","correct","215","354435","0.0-215.0-0.0","null","run_exp/static/audio/clip_17_correct.m4a","null","","","","","<div class='center'><p>That's correct!</p></div>","","",""
"","html-keyboard-response","216","355254","0.0-215.0-1.0","818.5","<div class='center'><p>That's correct!</p><div><p><b>[Press the space bar to continue]</b></p></div>","32","","","","","","","",""
"","practice_q2","217","361331","0.0-215.0-2.0","6075.5","run_exp/static/audio/clip_16_practice_question.m4a","86","","","","","","","",""
"","correct","218","363224","0.0-216.0-0.0","null","run_exp/static/audio/clip_17_correct.m4a","null","","","","","<div class='center'><p>That's correct!</p></div>","","",""
"","html-keyboard-response","219","363805","0.0-216.0-1.0","580.7999999970198","<div class='center'><p>That's correct!</p><div><p><b>[Press the space bar to continue]</b></p></div>","32","","","","","","","",""
"","practice_q3","220","369805","0.0-216.0-2.0","5999","run_exp/static/audio/clip_16_practice_question.m4a","86","","","","","","","",""
"","incorrect_q3","221","372526","0.0-217.0-0.0","null","run_exp/static/audio/clip_20_incorrect_similar.m4a","null","","","","","<div class='center'><p>That’s incorrect. It’s similar.</p><p><img src='run_exp/static/images/tutorial/test/boot_comparison.png' height='300'></p></div>","","",""
"","html-keyboard-response","222","373336","0.0-217.0-1.0","809.7999999970198","<div class='center'><p>That’s incorrect. It’s similar.</p><p><img src='run_exp/static/images/tutorial/test/boot_comparison.png' height='300'></p><div><p><b>[Press the space bar to continue]</b></p></div>","32","","","","","","","",""
"","repeat","223","378072","0.0-218.0-0.0","null","run_exp/static/audio/clip_21_practice_again.m4a","null","","","","","<div class='center'><p>Oops. you missed at least one of these questions. Let's try practiceing again. </p></div>","","",""
"","html-keyboard-response","224","378083","0.0-218.0-1.0","9.199999995529652","<div class='center'><p>Oops. you missed at least one of these questions. Let's try practiceing again. </p><div><p><b>[Press the space bar to continue]</b></p></div>","32","","","","","","","",""
"","practice_q1","225","383407","0.0-218.0-2.0","5323.89999999851","run_exp/static/audio/clip_16_practice_question.m4a","78","","","","","","","",""
"","correct","226","385304","0.0-219.0-0.0","null","run_exp/static/audio/clip_17_correct.m4a","null","","","","","<div class='center'><p>That's correct!</p></div>","","",""
"","html-keyboard-response","227","386066","0.0-219.0-1.0","761.3000000044703","<div class='center'><p>That's correct!</p><div><p><b>[Press the space bar to continue]</b></p></div>","32","","","","","","","",""
"","practice_q2","228","388516","0.0-219.0-2.0","2448.1999999955297","run_exp/static/audio/clip_16_practice_question.m4a","86","","","","","","","",""
"","correct","229","390403","0.0-220.0-0.0","null","run_exp/static/audio/clip_17_correct.m4a","null","","","","","<div class='center'><p>That's correct!</p></div>","","",""
"","html-keyboard-response","230","391442","0.0-220.0-1.0","1038.7000000029802","<div class='center'><p>That's correct!</p><div><p><b>[Press the space bar to continue]</b></p></div>","32","","","","","","","",""
"","practice_q3","231","392558","0.0-220.0-2.0","1115.1000000014901","run_exp/static/audio/clip_16_practice_question.m4a","66","","","","","","","",""
"","correct","232","394563","0.0-221.0-0.0","null","run_exp/static/audio/clip_17_correct.m4a","null","","","","","<div class='center'><p>That's correct!</p></div>","","",""
"","html-keyboard-response","233","395400","0.0-221.0-1.0","836.3999999985099","<div class='center'><p>That's correct!</p><div><p><b>[Press the space bar to continue]</b></p></div>","32","","","","","","","",""
"","begin_text","234","410456","0.0-222.0-0.0","null","run_exp/static/audio/clip_22_begin_test.m4a","null","","","","","<div class='center'><p>Now it’s your turn. For each item, you need to indicate if the item is <b>old</b> by pressing the <b>v</b> key, <b>similar</b> by pressing the <b>b</b> key, or <b>new</b> by pressing the <b>n</b> key. </p></div>","","",""
"","html-keyboard-response","235","410984","0.0-222.0-1.0","526.7000000029802","<div class='center'><p>Now it’s your turn. For each item, you need to indicate if the item is <b>old</b> by pressing the <b>v</b> key, <b>similar</b> by pressing the <b>b</b> key, or <b>new</b> by pressing the <b>n</b> key. </p><div><p><b>[Press the space bar to continue]</b></p></div>","32","","","","","","","",""
"","image","236","413989","0.0-223.0-0.0","null","run_exp/static/images/Set 6_rs/118a.jpg","null","","","","","","test","TF","5"
"","show_choice","237","414494","0.0-223.0-1.0","null","run_exp/static/images/Set 6_rs/118a.jpg","null","","","","","","test","TF",""
"","html-keyboard-response","238","414995","0.0-223.0-2.0","null","<p></p>","null","","","","","","","",""
"","image","239","416187","0.0-224.0-0.0","1190.2999999970198","run_exp/static/images/Set 6_rs/152a.jpg","86","","","","","","test","TR","2"
"","show_choice","240","416689","0.0-224.0-1.0","null","run_exp/static/images/Set 6_rs/152a.jpg","null","","","","","","test","TR",""
"","html-keyboard-response","241","417191","0.0-224.0-2.0","null","<p></p>","null","","","","","","","",""
"","image","242","418220","0.0-225.0-0.0","1028","run_exp/static/images/Set 6_rs/012a.jpg","86","","","","","","test","TR","1"
"","show_choice","243","418722","0.0-225.0-1.0","null","run_exp/static/images/Set 6_rs/012a.jpg","null","","","","","","test","TR",""
"","html-keyboard-response","244","419227","0.0-225.0-2.0","null","<p></p>","null","","","","","","","",""
"","image","245","421654","0.0-226.0-0.0","2425.60000000149","run_exp/static/images/Set 6_rs/154a.jpg","86","","","","","","test","TR","3"
"","show_choice","246","422155","0.0-226.0-1.0","null","run_exp/static/images/Set 6_rs/154a.jpg","null","","","","","","test","TR",""
"","html-keyboard-response","247","422658","0.0-226.0-2.0","null","<p></p>","null","","","","","","","",""
"","image","248","423536","0.0-227.0-0.0","876.8000000044703","run_exp/static/images/Set 6_rs/019b.jpg","86","","","","","","test","TL","2"
"","show_choice","249","424039","0.0-227.0-1.0","null","run_exp/static/images/Set 6_rs/019b.jpg","null","","","","","","test","TL",""
"","html-keyboard-response","250","424545","0.0-227.0-2.0","null","<p></p>","null","","","","","","","",""
"","image","251","425456","0.0-228.0-0.0","909.7999999970198","run_exp/static/images/Set 6_rs/166a.jpg","86","","","","","","test","TR","1"
"","show_choice","252","425960","0.0-228.0-1.0","null","run_exp/static/images/Set 6_rs/166a.jpg","null","","","","","","test","TR",""
"","html-keyboard-response","253","426466","0.0-228.0-2.0","null","<p></p>","null","","","","","","","",""
"","image","254","427202","0.0-229.0-0.0","734.2000000029802","run_exp/static/images/Set 6_rs/063a.jpg","86","","","","","","test","TR","2"
"","show_choice","255","427706","0.0-229.0-1.0","null","run_exp/static/images/Set 6_rs/063a.jpg","null","","","","","","test","TR",""
"","html-keyboard-response","256","428207","0.0-229.0-2.0","null","<p></p>","null","","","","","","","",""
"","image","257","430086","0.0-230.0-0.0","1877.6999999955297","run_exp/static/images/Set 6_rs/116b.jpg","66","","","","","","test","TL","2"
"","show_choice","258","430590","0.0-230.0-1.0","null","run_exp/static/images/Set 6_rs/116b.jpg","null","","","","","","test","TL",""
"","html-keyboard-response","259","431091","0.0-230.0-2.0","null","<p></p>","null","","","","","","","",""
"","image","260","432996","0.0-231.0-0.0","1903.9000000059605","run_exp/static/images/Set 6_rs/123b.jpg","66","","","","","","test","TL","2"
"","show_choice","261","433497","0.0-231.0-1.0","null","run_exp/static/images/Set 6_rs/123b.jpg","null","","","","","","test","TL",""
"","html-keyboard-response","262","433998","0.0-231.0-2.0","null","<p></p>","null","","","","","","","",""
"","image","263","435744","0.0-232.0-0.0","1745.4000000059605","run_exp/static/images/Set 6_rs/187a.jpg","86","","","","","","test","TR","3"
"","show_choice","264","436249","0.0-232.0-1.0","null","run_exp/static/images/Set 6_rs/187a.jpg","null","","","","","","test","TR",""
"","html-keyboard-response","265","436751","0.0-232.0-2.0","null","<p></p>","null","","","","","","","",""
"","image","266","438026","0.0-233.0-0.0","1274.2000000029802","run_exp/static/images/Set 6_rs/148a.jpg","86","","","","","","test","TR","2"
"","show_choice","267","438527","0.0-233.0-1.0","null","run_exp/static/images/Set 6_rs/148a.jpg","null","","","","","","test","TR",""
"","html-keyboard-response","268","439033","0.0-233.0-2.0","null","<p></p>","null","","","","","","","",""
"","image","269","439926","0.0-234.0-0.0","892","run_exp/static/images/Set 6_rs/105a.jpg","78","","","","","","test","TF","5"
"","show_choice","270","440430","0.0-234.0-1.0","null","run_exp/static/images/Set 6_rs/105a.jpg","null","","","","","","test","TF",""
"","html-keyboard-response","271","440936","0.0-234.0-2.0","null","<p></p>","null","","","","","","","",""
"","image","272","443011","0.0-235.0-0.0","2073.2999999970198","run_exp/static/images/Set 6_rs/140a.jpg","78","","","","","","test","TF","1"
"","show_choice","273","443512","0.0-235.0-1.0","null","run_exp/static/images/Set 6_rs/140a.jpg","null","","","","","","test","TF",""
"","html-keyboard-response","274","444014","0.0-235.0-2.0","null","<p></p>","null","","","","","","","",""
"","image","275","445118","0.0-236.0-0.0","1102.5","run_exp/static/images/Set 6_rs/074b.jpg","86","","","","","","test","TL","4"
"","show_choice","276","445622","0.0-236.0-1.0","null","run_exp/static/images/Set 6_rs/074b.jpg","null","","","","","","test","TL",""
"","html-keyboard-response","277","446127","0.0-236.0-2.0","null","<p></p>","null","","","","","","","",""
"","image","278","447003","0.0-237.0-0.0","874.6000000014901","run_exp/static/images/Set 6_rs/064a.jpg","86","","","","","","test","TR","5"
"","show_choice","279","447504","0.0-237.0-1.0","null","run_exp/static/images/Set 6_rs/064a.jpg","null","","","","","","test","TR",""
"","html-keyboard-response","280","448009","0.0-237.0-2.0","null","<p></p>","null","","","","","","","",""
"","image","281","449687","0.0-238.0-0.0","1676.6000000014901","run_exp/static/images/Set 6_rs/131a.jpg","66","","","","","","test","TR","5"
"","show_choice","282","450189","0.0-238.0-1.0","null","run_exp/static/images/Set 6_rs/131a.jpg","null","","","","","","test","TR",""
"","html-keyboard-response","283","450690","0.0-238.0-2.0","null","<p></p>","null","","","","","","","",""
"","image","284","452233","0.0-239.0-0.0","1541.6000000014901","run_exp/static/images/Set 6_rs/121a.jpg","86","","","","","","test","TR","4"
"","show_choice","285","452737","0.0-239.0-1.0","null","run_exp/static/images/Set 6_rs/121a.jpg","null","","","","","","test","TR",""
"","html-keyboard-response","286","453242","0.0-239.0-2.0","null","<p></p>","null","","","","","","","",""
"","image","287","454574","0.0-240.0-0.0","1330.7000000029802","run_exp/static/images/Set 6_rs/177a.jpg","86","","","","","","test","TR","5"
"","show_choice","288","455077","0.0-240.0-1.0","null","run_exp/static/images/Set 6_rs/177a.jpg","null","","","","","","test","TR",""
"","html-keyboard-response","289","455580","0.0-240.0-2.0","null","<p></p>","null","","","","","","","",""
"","image","290","457109","0.0-241.0-0.0","1528","run_exp/static/images/Set 6_rs/001a.jpg","78","","","","","","test","TF","1"
"","show_choice","291","457610","0.0-241.0-1.0","null","run_exp/static/images/Set 6_rs/001a.jpg","null","","","","","","test","TF",""
"","html-keyboard-response","292","458113","0.0-241.0-2.0","null","<p></p>","null","","","","","","","",""
"","image","293","459176","0.0-242.0-0.0","1062.1999999955297","run_exp/static/images/Set 6_rs/136a.jpg","78","","","","","","test","TF","4"
"","show_choice","294","459681","0.0-242.0-1.0","null","run_exp/static/images/Set 6_rs/136a.jpg","null","","","","","","test","TF",""
"","html-keyboard-response","295","460182","0.0-242.0-2.0","null","<p></p>","null","","","","","","","",""
"","image","296","461791","0.0-243.0-0.0","1607.3999999985099","run_exp/static/images/Set 6_rs/007a.jpg","86","","","","","","test","TR","3"
"","show_choice","297","462292","0.0-243.0-1.0","null","run_exp/static/images/Set 6_rs/007a.jpg","null","","","","","","test","TR",""
"","html-keyboard-response","298","462798","0.0-243.0-2.0","null","<p></p>","null","","","","","","","",""
"","image","299","464250","0.0-244.0-0.0","1450.8000000044703","run_exp/static/images/Set 6_rs/134a.jpg","86","","","","","","test","TR","3"
"","show_choice","300","464752","0.0-244.0-1.0","null","run_exp/static/images/Set 6_rs/134a.jpg","null","","","","","","test","TR",""
"","html-keyboard-response","301","465257","0.0-244.0-2.0","null","<p></p>","null","","","","","","","",""
"","image","302","466774","0.0-245.0-0.0","1515.5","run_exp/static/images/Set 6_rs/028a.jpg","78","","","","","","test","TF","1"
"","show_choice","303","467275","0.0-245.0-1.0","null","run_exp/static/images/Set 6_rs/028a.jpg","null","","","","","","test","TF",""
"","html-keyboard-response","304","467779","0.0-245.0-2.0","null","<p></p>","null","","","","","","","",""
"","image","305","469314","0.0-246.0-0.0","1534.7000000029802","run_exp/static/images/Set 6_rs/129b.jpg","86","","","","","","test","TL","1"
"","show_choice","306","469817","0.0-246.0-1.0","null","run_exp/static/images/Set 6_rs/129b.jpg","null","","","","","","test","TL",""
"","html-keyboard-response","307","470318","0.0-246.0-2.0","null","<p></p>","null","","","","","","","",""
"","image","308","472388","0.0-247.0-0.0","2069.2000000029802","run_exp/static/images/Set 6_rs/073b.jpg","86","","","","","","test","TL","3"
"","show_choice","309","472892","0.0-247.0-1.0","null","run_exp/static/images/Set 6_rs/073b.jpg","null","","","","","","test","TL",""
"","html-keyboard-response","310","473395","0.0-247.0-2.0","null","<p></p>","null","","","","","","","",""
"","image","311","474712","0.0-248.0-0.0","1315.6999999955297","run_exp/static/images/Set 6_rs/088a.jpg","86","","","","","","test","TR","2"
"","show_choice","312","475215","0.0-248.0-1.0","null","run_exp/static/images/Set 6_rs/088a.jpg","null","","","","","","test","TR",""
"","html-keyboard-response","313","475718","0.0-248.0-2.0","null","<p></p>","null","","","","","","","",""
"","image","314","477497","0.0-249.0-0.0","1778.1999999955297","run_exp/static/images/Set 6_rs/191b.jpg","86","","","","","","test","TL","2"
"","show_choice","315","477997","0.0-249.0-1.0","null","run_exp/static/images/Set 6_rs/191b.jpg","null","","","","","","test","TL",""
"","html-keyboard-response","316","478500","0.0-249.0-2.0","null","<p></p>","null","","","","","","","",""
"","image","317","479884","0.0-250.0-0.0","1382.6999999955297","run_exp/static/images/Set 6_rs/021a.jpg","78","","","","","","test","TF","2"
"","show_choice","318","480385","0.0-250.0-1.0","null","run_exp/static/images/Set 6_rs/021a.jpg","null","","","","","","test","TF",""
"","html-keyboard-response","319","480886","0.0-250.0-2.0","null","<p></p>","null","","","","","","","",""
"","image","320","482714","0.0-251.0-0.0","1827.0999999940395","run_exp/static/images/Set 6_rs/090a.jpg","78","","","","","","test","TF","5"
"","show_choice","321","483215","0.0-251.0-1.0","null","run_exp/static/images/Set 6_rs/090a.jpg","null","","","","","","test","TF",""
"","html-keyboard-response","322","483716","0.0-251.0-2.0","null","<p></p>","null","","","","","","","",""
"","image","323","485198","0.0-252.0-0.0","1481.1000000014901","run_exp/static/images/Set 6_rs/138b.jpg","86","","","","","","test","TL","1"
"","show_choice","324","485699","0.0-252.0-1.0","null","run_exp/static/images/Set 6_rs/138b.jpg","null","","","","","","test","TL",""
"","html-keyboard-response","325","486200","0.0-252.0-2.0","null","<p></p>","null","","","","","","","",""
"","image","326","488026","0.0-253.0-0.0","1825.3999999985099","run_exp/static/images/Set 6_rs/109a.jpg","78","","","","","","test","TF","5"
"","show_choice","327","488532","0.0-253.0-1.0","null","run_exp/static/images/Set 6_rs/109a.jpg","null","","","","","","test","TF",""
"","html-keyboard-response","328","489033","0.0-253.0-2.0","null","<p></p>","null","","","","","","","",""
"","image","329","490456","0.0-254.0-0.0","1421.2999999970198","run_exp/static/images/Set 6_rs/126a.jpg","86","","","","","","test","TR","2"
"","show_choice","330","490957","0.0-254.0-1.0","null","run_exp/static/images/Set 6_rs/126a.jpg","null","","","","","","test","TR",""
"","html-keyboard-response","331","491458","0.0-254.0-2.0","null","<p></p>","null","","","","","","","",""
"","image","332","493929","0.0-255.0-0.0","2470.0999999940395","run_exp/static/images/Set 6_rs/024a.jpg","66","","","","","","test","TR","5"
"","show_choice","333","494430","0.0-255.0-1.0","null","run_exp/static/images/Set 6_rs/024a.jpg","null","","","","","","test","TR",""
"","html-keyboard-response","334","494933","0.0-255.0-2.0","null","<p></p>","null","","","","","","","",""
"","image","335","497012","0.0-256.0-0.0","2078","run_exp/static/images/Set 6_rs/189a.jpg","66","","","","","","test","TF","5"
"","show_choice","336","497513","0.0-256.0-1.0","null","run_exp/static/images/Set 6_rs/189a.jpg","null","","","","","","test","TF",""
"","html-keyboard-response","337","498015","0.0-256.0-2.0","null","<p></p>","null","","","","","","","",""
"","image","338","499216","0.0-257.0-0.0","1199.8999999985099","run_exp/static/images/Set 6_rs/048a.jpg","78","","","","","","test","TF","4"
"","show_choice","339","499717","0.0-257.0-1.0","null","run_exp/static/images/Set 6_rs/048a.jpg","null","","","","","","test","TF",""
"","html-keyboard-response","340","500221","0.0-257.0-2.0","null","<p></p>","null","","","","","","","",""
"","image","341","501877","0.0-258.0-0.0","1654.0999999940395","run_exp/static/images/Set 6_rs/141a.jpg","66","","","","","","test","TR","2"
"","show_choice","342","502382","0.0-258.0-1.0","null","run_exp/static/images/Set 6_rs/141a.jpg","null","","","","","","test","TR",""
"","html-keyboard-response","343","502888","0.0-258.0-2.0","null","<p></p>","null","","","","","","","",""
"","image","344","505503","0.0-259.0-0.0","2613.5","run_exp/static/images/Set 6_rs/149a.jpg","78","","","","","","test","TF","1"
"","show_choice","345","506005","0.0-259.0-1.0","null","run_exp/static/images/Set 6_rs/149a.jpg","null","","","","","","test","TF",""
"","html-keyboard-response","346","506507","0.0-259.0-2.0","null","<p></p>","null","","","","","","","",""
"","image","347","507933","0.0-260.0-0.0","1424.7999999970198","run_exp/static/images/Set 6_rs/045a.jpg","86","","","","","","test","TR","2"
"","show_choice","348","508438","0.0-260.0-1.0","null","run_exp/static/images/Set 6_rs/045a.jpg","null","","","","","","test","TR",""
"","html-keyboard-response","349","508943","0.0-260.0-2.0","null","<p></p>","null","","","","","","","",""
"","image","350","510423","0.0-261.0-0.0","1478.1000000014901","run_exp/static/images/Set 6_rs/188a.jpg","78","","","","","","test","TF","3"
"","show_choice","351","510927","0.0-261.0-1.0","null","run_exp/static/images/Set 6_rs/188a.jpg","null","","","","","","test","TF",""
"","html-keyboard-response","352","511432","0.0-261.0-2.0","null","<p></p>","null","","","","","","","",""
"","image","353","512670","0.0-262.0-0.0","1237.1000000014901","run_exp/static/images/Set 6_rs/023a.jpg","86","","","","","","test","TR","3"
"","show_choice","354","513174","0.0-262.0-1.0","null","run_exp/static/images/Set 6_rs/023a.jpg","null","","","","","","test","TR",""
"","html-keyboard-response","355","513676","0.0-262.0-2.0","null","<p></p>","null","","","","","","","",""
"","image","356","515226","0.0-263.0-0.0","1548.6999999955297","run_exp/static/images/Set 6_rs/056a.jpg","78","","","","","","test","TF","3"
"","show_choice","357","515727","0.0-263.0-1.0","null","run_exp/static/images/Set 6_rs/056a.jpg","null","","","","","","test","TF",""
"","html-keyboard-response","358","516229","0.0-263.0-2.0","null","<p></p>","null","","","","","","","",""
"","image","359","518674","0.0-264.0-0.0","2443.5","run_exp/static/images/Set 6_rs/117b.jpg","66","","","","","","test","TL","5"
"","show_choice","360","519176","0.0-264.0-1.0","null","run_exp/static/images/Set 6_rs/117b.jpg","null","","","","","","test","TL",""
"","html-keyboard-response","361","519678","0.0-264.0-2.0","null","<p></p>","null","","","","","","","",""
"","image","362","521315","0.0-265.0-0.0","1636.2000000029802","run_exp/static/images/Set 6_rs/077a.jpg","78","","","","","","test","TF","3"
"","show_choice","363","521816","0.0-265.0-1.0","null","run_exp/static/images/Set 6_rs/077a.jpg","null","","","","","","test","TF",""
"","html-keyboard-response","364","522319","0.0-265.0-2.0","null","<p></p>","null","","","","","","","",""
"","image","365","523924","0.0-266.0-0.0","1604.4000000059605","run_exp/static/images/Set 6_rs/078a.jpg","78","","","","","","test","TF","1"
"","show_choice","366","524429","0.0-266.0-1.0","null","run_exp/static/images/Set 6_rs/078a.jpg","null","","","","","","test","TF",""
"","html-keyboard-response","367","524931","0.0-266.0-2.0","null","<p></p>","null","","","","","","","",""
"","image","368","526260","0.0-267.0-0.0","1327.8999999985099","run_exp/static/images/Set 6_rs/086a.jpg","78","","","","","","test","TF","1"
"","show_choice","369","526761","0.0-267.0-1.0","null","run_exp/static/images/Set 6_rs/086a.jpg","null","","","","","","test","TF",""
"","html-keyboard-response","370","527262","0.0-267.0-2.0","null","<p></p>","null","","","","","","","",""
"","image","371","529802","0.0-268.0-0.0","2538.7999999970198","run_exp/static/images/Set 6_rs/015a.jpg","78","","","","","","test","TF","4"
"","show_choice","372","530307","0.0-268.0-1.0","null","run_exp/static/images/Set 6_rs/015a.jpg","null","","","","","","test","TF",""
"","html-keyboard-response","373","530808","0.0-268.0-2.0","null","<p></p>","null","","","","","","","",""
"","image","374","531906","0.0-269.0-0.0","1096.6000000014901","run_exp/static/images/Set 6_rs/097a.jpg","78","","","","","","test","TF","5"
"","show_choice","375","532407","0.0-269.0-1.0","null","run_exp/static/images/Set 6_rs/097a.jpg","null","","","","","","test","TF",""
"","html-keyboard-response","376","532909","0.0-269.0-2.0","null","<p></p>","null","","","","","","","",""
"","image","377","533912","0.0-270.0-0.0","1002.6999999955297","run_exp/static/images/Set 6_rs/176a.jpg","78","","","","","","test","TF","4"
"","show_choice","378","534413","0.0-270.0-1.0","null","run_exp/static/images/Set 6_rs/176a.jpg","null","","","","","","test","TF",""
"","html-keyboard-response","379","534914","0.0-270.0-2.0","null","<p></p>","null","","","","","","","",""
"","image","380","536343","0.0-271.0-0.0","1427.2999999970198","run_exp/static/images/Set 6_rs/085b.jpg","66","","","","","","test","TL","1"
"","show_choice","381","536847","0.0-271.0-1.0","null","run_exp/static/images/Set 6_rs/085b.jpg","null","","","","","","test","TL",""
"","html-keyboard-response","382","537350","0.0-271.0-2.0","null","<p></p>","null","","","","","","","",""
"","image","383","538873","0.0-272.0-0.0","1522.4000000059605","run_exp/static/images/Set 6_rs/006b.jpg","86","","","","","","test","TL","2"
"","show_choice","384","539374","0.0-272.0-1.0","null","run_exp/static/images/Set 6_rs/006b.jpg","null","","","","","","test","TL",""
"","html-keyboard-response","385","539875","0.0-272.0-2.0","null","<p></p>","null","","","","","","","",""
"","image","386","540832","0.0-273.0-0.0","955.8999999985099","run_exp/static/images/Set 6_rs/095b.jpg","86","","","","","","test","TL","5"
"","show_choice","387","541334","0.0-273.0-1.0","null","run_exp/static/images/Set 6_rs/095b.jpg","null","","","","","","test","TL",""
"","html-keyboard-response","388","541839","0.0-273.0-2.0","null","<p></p>","null","","","","","","","",""
"","image","389","543264","0.0-274.0-0.0","1424.5999999940395","run_exp/static/images/Set 6_rs/172a.jpg","86","","","","","","test","TR","1"
"","show_choice","390","543765","0.0-274.0-1.0","null","run_exp/static/images/Set 6_rs/172a.jpg","null","","","","","","test","TR",""
"","html-keyboard-response","391","544266","0.0-274.0-2.0","null","<p></p>","null","","","","","","","",""
"","image","392","545656","0.0-275.0-0.0","1388.7000000029802","run_exp/static/images/Set 6_rs/133a.jpg","78","","","","","","test","TF","4"
"","show_choice","393","546157","0.0-275.0-1.0","null","run_exp/static/images/Set 6_rs/133a.jpg","null","","","","","","test","TF",""
"","html-keyboard-response","394","546658","0.0-275.0-2.0","null","<p></p>","null","","","","","","","",""
"","image","395","548064","0.0-276.0-0.0","1405","run_exp/static/images/Set 6_rs/178a.jpg","86","","","","","","test","TR","3"
"","show_choice","396","548565","0.0-276.0-1.0","null","run_exp/static/images/Set 6_rs/178a.jpg","null","","","","","","test","TR",""
"","html-keyboard-response","397","549066","0.0-276.0-2.0","null","<p></p>","null","","","","","","","",""
"","image","398","550563","0.0-277.0-0.0","1496.1000000014901","run_exp/static/images/Set 6_rs/168b.jpg","78","","","","","","test","TL","3"
"","show_choice","399","551064","0.0-277.0-1.0","null","run_exp/static/images/Set 6_rs/168b.jpg","null","","","","","","test","TL",""
"","html-keyboard-response","400","551565","0.0-277.0-2.0","null","<p></p>","null","","","","","","","",""
"","image","401","552743","0.0-278.0-0.0","1177","run_exp/static/images/Set 6_rs/169a.jpg","86","","","","","","test","TR","4"
"","show_choice","402","553244","0.0-278.0-1.0","null","run_exp/static/images/Set 6_rs/169a.jpg","null","","","","","","test","TR",""
"","html-keyboard-response","403","553745","0.0-278.0-2.0","null","<p></p>","null","","","","","","","",""
"","image","404","554870","0.0-279.0-0.0","1123.7999999970198","run_exp/static/images/Set 6_rs/055b.jpg","86","","","","","","test","TL","4"
"","show_choice","405","555371","0.0-279.0-1.0","null","run_exp/static/images/Set 6_rs/055b.jpg","null","","","","","","test","TL",""
"","html-keyboard-response","406","555874","0.0-279.0-2.0","null","<p></p>","null","","","","","","","",""
"","image","407","557126","0.0-280.0-0.0","1250.6999999955297","run_exp/static/images/Set 6_rs/167b.jpg","86","","","","","","test","TL","2"
"","show_choice","408","557630","0.0-280.0-1.0","null","run_exp/static/images/Set 6_rs/167b.jpg","null","","","","","","test","TL",""
"","html-keyboard-response","409","558131","0.0-280.0-2.0","null","<p></p>","null","","","","","","","",""
"","image","410","559867","0.0-281.0-0.0","1734.5","run_exp/static/images/Set 6_rs/052a.jpg","78","","","","","","test","TF","1"
"","show_choice","411","560371","0.0-281.0-1.0","null","run_exp/static/images/Set 6_rs/052a.jpg","null","","","","","","test","TF",""
"","html-keyboard-response","412","560872","0.0-281.0-2.0","null","<p></p>","null","","","","","","","",""
"","image","413","562412","0.0-282.0-0.0","1539.1000000014901","run_exp/static/images/Set 6_rs/067b.jpg","78","","","","","","test","TL","5"
"","show_choice","414","562913","0.0-282.0-1.0","null","run_exp/static/images/Set 6_rs/067b.jpg","null","","","","","","test","TL",""
"","html-keyboard-response","415","563416","0.0-282.0-2.0","null","<p></p>","null","","","","","","","",""
"","image","416","565662","0.0-283.0-0.0","2244.39999999851","run_exp/static/images/Set 6_rs/036b.jpg","78","","","","","","test","TL","4"
"","show_choice","417","566163","0.0-283.0-1.0","null","run_exp/static/images/Set 6_rs/036b.jpg","null","","","","","","test","TL",""
"","html-keyboard-response","418","566664","0.0-283.0-2.0","null","<p></p>","null","","","","","","","",""
"","image","419","568204","0.0-284.0-0.0","1539.5","run_exp/static/images/Set 6_rs/150a.jpg","86","","","","","","test","TR","1"
"","show_choice","420","568710","0.0-284.0-1.0","null","run_exp/static/images/Set 6_rs/150a.jpg","null","","","","","","test","TR",""
"","html-keyboard-response","421","569216","0.0-284.0-2.0","null","<p></p>","null","","","","","","","",""
"","image","422","571661","0.0-285.0-0.0","2444.1999999955297","run_exp/static/images/Set 6_rs/091b.jpg","66","","","","","","test","TL","3"
"","show_choice","423","572166","0.0-285.0-1.0","null","run_exp/static/images/Set 6_rs/091b.jpg","null","","","","","","test","TL",""
"","html-keyboard-response","424","572667","0.0-285.0-2.0","null","<p></p>","null","","","","","","","",""
"","image","425","574168","0.0-286.0-0.0","1499.2999999970198","run_exp/static/images/Set 6_rs/112a.jpg","86","","","","","","test","TR","5"
"","show_choice","426","574671","0.0-286.0-1.0","null","run_exp/static/images/Set 6_rs/112a.jpg","null","","","","","","test","TR",""
"","html-keyboard-response","427","575177","0.0-286.0-2.0","null","<p></p>","null","","","","","","","",""
"","image","428","576545","0.0-287.0-0.0","1367","run_exp/static/images/Set 6_rs/132a.jpg","86","","","","","","test","TR","5"
"","show_choice","429","577049","0.0-287.0-1.0","null","run_exp/static/images/Set 6_rs/132a.jpg","null","","","","","","test","TR",""
"","html-keyboard-response","430","577551","0.0-287.0-2.0","null","<p></p>","null","","","","","","","",""
"","image","431","579241","0.0-288.0-0.0","1688","run_exp/static/images/Set 6_rs/181b.jpg","66","","","","","","test","TL","1"
"","show_choice","432","579744","0.0-288.0-1.0","null","run_exp/static/images/Set 6_rs/181b.jpg","null","","","","","","test","TL",""
"","html-keyboard-response","433","580246","0.0-288.0-2.0","null","<p></p>","null","","","","","","","",""
"","image","434","581820","0.0-289.0-0.0","1572.8999999985099","run_exp/static/images/Set 6_rs/075a.jpg","86","","","","","","test","TR","1"
"","show_choice","435","582323","0.0-289.0-1.0","null","run_exp/static/images/Set 6_rs/075a.jpg","null","","","","","","test","TR",""
"","html-keyboard-response","436","582826","0.0-289.0-2.0","null","<p></p>","null","","","","","","","",""
"","image","437","584109","0.0-290.0-0.0","1282.6000000014901","run_exp/static/images/Set 6_rs/076a.jpg","86","","","","","","test","TR","4"
"","show_choice","438","584612","0.0-290.0-1.0","null","run_exp/static/images/Set 6_rs/076a.jpg","null","","","","","","test","TR",""
"","html-keyboard-response","439","585118","0.0-290.0-2.0","null","<p></p>","null","","","","","","","",""
"","image","440","586384","0.0-291.0-0.0","1265.5","run_exp/static/images/Set 6_rs/022a.jpg","78","","","","","","test","TF","4"
"","show_choice","441","586888","0.0-291.0-1.0","null","run_exp/static/images/Set 6_rs/022a.jpg","null","","","","","","test","TF",""
"","html-keyboard-response","442","587389","0.0-291.0-2.0","null","<p></p>","null","","","","","","","",""
"","image","443","588716","0.0-292.0-0.0","1325.7000000029802","run_exp/static/images/Set 6_rs/062b.jpg","86","","","","","","test","TL","1"
"","show_choice","444","589216","0.0-292.0-1.0","null","run_exp/static/images/Set 6_rs/062b.jpg","null","","","","","","test","TL",""
"","html-keyboard-response","445","589721","0.0-292.0-2.0","null","<p></p>","null","","","","","","","",""
"","image","446","591501","0.0-293.0-0.0","1778.7999999970198","run_exp/static/images/Set 6_rs/144b.jpg","66","","","","","","test","TL","4"
"","show_choice","447","592004","0.0-293.0-1.0","null","run_exp/static/images/Set 6_rs/144b.jpg","null","","","","","","test","TL",""
"","html-keyboard-response","448","592505","0.0-293.0-2.0","null","<p></p>","null","","","","","","","",""
"","image","449","593981","0.0-294.0-0.0","1474.8000000044703","run_exp/static/images/Set 6_rs/190a.jpg","78","","","","","","test","TF","3"
"","show_choice","450","594486","0.0-294.0-1.0","null","run_exp/static/images/Set 6_rs/190a.jpg","null","","","","","","test","TF",""
"","html-keyboard-response","451","594987","0.0-294.0-2.0","null","<p></p>","null","","","","","","","",""
"","image","452","596358","0.0-295.0-0.0","1369.7000000029802","run_exp/static/images/Set 6_rs/071b.jpg","66","","","","","","test","TL","4"
"","show_choice","453","596863","0.0-295.0-1.0","null","run_exp/static/images/Set 6_rs/071b.jpg","null","","","","","","test","TL",""
"","html-keyboard-response","454","597369","0.0-295.0-2.0","null","<p></p>","null","","","","","","","",""
"","image","455","598606","0.0-296.0-0.0","1235.2999999970198","run_exp/static/images/Set 6_rs/100a.jpg","86","","","","","","test","TF","2"
"","show_choice","456","599110","0.0-296.0-1.0","null","run_exp/static/images/Set 6_rs/100a.jpg","null","","","","","","test","TF",""
"","html-keyboard-response","457","599613","0.0-296.0-2.0","null","<p></p>","null","","","","","","","",""
"","image","458","601499","0.0-297.0-0.0","1885.1000000014901","run_exp/static/images/Set 6_rs/170a.jpg","78","","","","","","test","TF","2"
"","show_choice","459","602004","0.0-297.0-1.0","null","run_exp/static/images/Set 6_rs/170a.jpg","null","","","","","","test","TF",""
"","html-keyboard-response","460","602509","0.0-297.0-2.0","null","<p></p>","null","","","","","","","",""
"","image","461","603846","0.0-298.0-0.0","1336.1999999955297","run_exp/static/images/Set 6_rs/017b.jpg","78","","","","","","test","TL","3"
"","show_choice","462","604347","0.0-298.0-1.0","null","run_exp/static/images/Set 6_rs/017b.jpg","null","","","","","","test","TL",""
"","html-keyboard-response","463","604850","0.0-298.0-2.0","null","<p></p>","null","","","","","","","",""
"","image","464","606077","0.0-299.0-0.0","1225.7000000029802","run_exp/static/images/Set 6_rs/060b.jpg","86","","","","","","test","TL","3"
"","show_choice","465","606582","0.0-299.0-1.0","null","run_exp/static/images/Set 6_rs/060b.jpg","null","","","","","","test","TL",""
"","html-keyboard-response","466","607087","0.0-299.0-2.0","null","<p></p>","null","","","","","","","",""
"","image","467","608349","0.0-300.0-0.0","1260.6000000014901","run_exp/static/images/Set 6_rs/035a.jpg","78","","","","","","test","TF","4"
"","show_choice","468","608854","0.0-300.0-1.0","null","run_exp/static/images/Set 6_rs/035a.jpg","null","","","","","","test","TF",""
"","html-keyboard-response","469","609360","0.0-300.0-2.0","null","<p></p>","null","","","","","","","",""
"","image","470","611288","0.0-301.0-0.0","1926.6999999955297","run_exp/static/images/Set 6_rs/066b.jpg","66","","","","","","test","TL","5"
"","show_choice","471","611791","0.0-301.0-1.0","null","run_exp/static/images/Set 6_rs/066b.jpg","null","","","","","","test","TL",""
"","html-keyboard-response","472","612292","0.0-301.0-2.0","null","<p></p>","null","","","","","","","",""
"","image","473","614337","0.0-302.0-0.0","2043.3999999985099","run_exp/static/images/Set 6_rs/079b.jpg","66","","","","","","test","TL","5"
"","show_choice","474","614842","0.0-302.0-1.0","null","run_exp/static/images/Set 6_rs/079b.jpg","null","","","","","","test","TL",""
"","html-keyboard-response","475","615344","0.0-302.0-2.0","null","<p></p>","null","","","","","","","",""
"","image","476","616549","0.0-303.0-0.0","1203.6000000014901","run_exp/static/images/Set 6_rs/108a.jpg","86","","","","","","test","TR","5"
"","show_choice","477","617053","0.0-303.0-1.0","null","run_exp/static/images/Set 6_rs/108a.jpg","null","","","","","","test","TR",""
"","html-keyboard-response","478","617555","0.0-303.0-2.0","null","<p></p>","null","","","","","","","",""
"","image","479","618922","0.0-304.0-0.0","1366","run_exp/static/images/Set 6_rs/011a.jpg","66","","","","","","test","TF","3"
"","show_choice","480","619424","0.0-304.0-1.0","null","run_exp/static/images/Set 6_rs/011a.jpg","null","","","","","","test","TF",""
"","html-keyboard-response","481","619930","0.0-304.0-2.0","null","<p></p>","null","","","","","","","",""
"","image","482","621465","0.0-305.0-0.0","1534.6000000014901","run_exp/static/images/Set 6_rs/008b.jpg","66","","","","","","test","TL","2"
"","show_choice","483","621970","0.0-305.0-1.0","null","run_exp/static/images/Set 6_rs/008b.jpg","null","","","","","","test","TL",""
"","html-keyboard-response","484","622471","0.0-305.0-2.0","null","<p></p>","null","","","","","","","",""
"","image","485","623649","0.0-306.0-0.0","1177.0999999940395","run_exp/static/images/Set 6_rs/065a.jpg","66","","","","","","test","TF","3"
"","show_choice","486","624151","0.0-306.0-1.0","null","run_exp/static/images/Set 6_rs/065a.jpg","null","","","","","","test","TF",""
"","html-keyboard-response","487","624655","0.0-306.0-2.0","null","<p></p>","null","","","","","","","",""
"","image","488","625692","0.0-307.0-0.0","1035.8999999985099","run_exp/static/images/Set 6_rs/025b.jpg","66","","","","","","test","TL","5"
"","show_choice","489","626196","0.0-307.0-1.0","null","run_exp/static/images/Set 6_rs/025b.jpg","null","","","","","","test","TL",""
"","html-keyboard-response","490","626697","0.0-307.0-2.0","null","<p></p>","null","","","","","","","",""
"","image","491","628135","0.0-308.0-0.0","1436.7000000029802","run_exp/static/images/Set 6_rs/061a.jpg","86","","","","","","test","TR","5"
"","show_choice","492","628637","0.0-308.0-1.0","null","run_exp/static/images/Set 6_rs/061a.jpg","null","","","","","","test","TR",""
"","html-keyboard-response","493","629143","0.0-308.0-2.0","null","<p></p>","null","","","","","","","",""
"","image","494","630554","0.0-309.0-0.0","1410.5","run_exp/static/images/Set 6_rs/171a.jpg","78","","","","","","test","TF","1"
"","show_choice","495","631060","0.0-309.0-1.0","null","run_exp/static/images/Set 6_rs/171a.jpg","null","","","","","","test","TF",""
"","html-keyboard-response","496","631562","0.0-309.0-2.0","null","<p></p>","null","","","","","","","",""
"","image","497","632946","0.0-310.0-0.0","1383.5","run_exp/static/images/Set 6_rs/155a.jpg","78","","","","","","test","TF","4"
"","show_choice","498","633448","0.0-310.0-1.0","null","run_exp/static/images/Set 6_rs/155a.jpg","null","","","","","","test","TF",""
"","html-keyboard-response","499","633953","0.0-310.0-2.0","null","<p></p>","null","","","","","","","",""
"","image","500","635893","0.0-311.0-0.0","1939.2000000029802","run_exp/static/images/Set 6_rs/016b.jpg","86","","","","","","test","TL","1"
"","show_choice","501","636399","0.0-311.0-1.0","null","run_exp/static/images/Set 6_rs/016b.jpg","null","","","","","","test","TL",""
"","html-keyboard-response","502","636900","0.0-311.0-2.0","null","<p></p>","null","","","","","","","",""
"","image","503","638396","0.0-312.0-0.0","1495.1999999955297","run_exp/static/images/Set 6_rs/111b.jpg","66","","","","","","test","TL","3"
"","show_choice","504","638901","0.0-312.0-1.0","null","run_exp/static/images/Set 6_rs/111b.jpg","null","","","","","","test","TL",""
"","html-keyboard-response","505","639402","0.0-312.0-2.0","null","<p></p>","null","","","","","","","",""
"","image","506","641688","0.0-313.0-0.0","2284.3000000044703","run_exp/static/images/Set 6_rs/089b.jpg","78","","","","","","test","TL","4"
"","show_choice","507","642193","0.0-313.0-1.0","null","run_exp/static/images/Set 6_rs/089b.jpg","null","","","","","","test","TL",""
"","html-keyboard-response","508","642695","0.0-313.0-2.0","null","<p></p>","null","","","","","","","",""
"","image","509","643973","0.0-314.0-0.0","1277","run_exp/static/images/Set 6_rs/057b.jpg","86","","","","","","test","TL","1"
"","show_choice","510","644478","0.0-314.0-1.0","null","run_exp/static/images/Set 6_rs/057b.jpg","null","","","","","","test","TL",""
"","html-keyboard-response","511","644984","0.0-314.0-2.0","null","<p></p>","null","","","","","","","",""
"","image","512","646319","0.0-315.0-0.0","1333.8999999985099","run_exp/static/images/Set 6_rs/122a.jpg","86","","","","","","test","TR","5"
"","show_choice","513","646822","0.0-315.0-1.0","null","run_exp/static/images/Set 6_rs/122a.jpg","null","","","","","","test","TR",""
"","html-keyboard-response","514","647322","0.0-315.0-2.0","null","<p></p>","null","","","","","","","",""
"","image","515","649097","0.0-316.0-0.0","1774.3000000044703","run_exp/static/images/Set 6_rs/047a.jpg","78","","","","","","test","TF","3"
"","show_choice","516","649603","0.0-316.0-1.0","null","run_exp/static/images/Set 6_rs/047a.jpg","null","","","","","","test","TF",""
"","html-keyboard-response","517","650104","0.0-316.0-2.0","null","<p></p>","null","","","","","","","",""
"","image","518","651717","0.0-317.0-0.0","1611.8999999985099","run_exp/static/images/Set 6_rs/010a.jpg","86","","","","","","test","TR","5"
"","show_choice","519","652220","0.0-317.0-1.0","null","run_exp/static/images/Set 6_rs/010a.jpg","null","","","","","","test","TR",""
"","html-keyboard-response","520","652721","0.0-317.0-2.0","null","<p></p>","null","","","","","","","",""
"","image","521","653663","0.0-318.0-0.0","940.5","run_exp/static/images/Set 6_rs/186a.jpg","86","","","","","","test","TR","5"
"","show_choice","522","654168","0.0-318.0-1.0","null","run_exp/static/images/Set 6_rs/186a.jpg","null","","","","","","test","TR",""
"","html-keyboard-response","523","654670","0.0-318.0-2.0","null","<p></p>","null","","","","","","","",""
"","all_done","524","661683","0.0-319.0-0.0","null","run_exp/static/audio/clip_23_all_done.m4a","null","","","","","<div class='center'><p>You are finished with all three parts of the experiment! You can press the space bar to end the game now. </p></div>","","",""
"","html-keyboard-response","525","662390","0.0-319.0-1.0","706.2999999970198","<div class='center'><p>You are finished with all three parts of the experiment! You can press the space bar to end the game now. </p><div><p><b>[Press the space bar to continue]</b></p></div>","32","","","","","","","",""
