"success","trial_type","trial_index","time_elapsed","internal_node_id","interactions","blur_events","focus_events","fullscreenenter_events","fullscreenexit_events","rt","stimulus","key_press","subject_id","participant_id","age","gender","prompt","phase","condition","lure_bin"
"true","fullscreen","0","22689","0.0-0.0","""event"",""trial"",""time""
""fullscreenenter"",""0"",""21713""
","
","
","""event"",""trial"",""time""
""fullscreenenter"",""0"",""21713""
","
","","","","","","","","","","",""
"","pavlovia","1","22695","0.0-1.0","""event"",""trial"",""time""
""fullscreenenter"",""0"",""21713""
","
","
","""event"",""trial"",""time""
""fullscreenenter"",""0"",""21713""
","
","","","","","","","","","","",""
"","welcome","2","58277","0.0-2.0","""event"",""trial"",""time""
""fullscreenenter"",""0"",""21713""
","
","
","""event"",""trial"",""time""
""fullscreenenter"",""0"",""21713""
","
","null","run_exp/static/audio/clip_1_welcome.m4a","null","477","710","13","Female","<div class='center'><p>Welcome to the third part of the study! First, you'll be shown pictures of items one at a time. For each picture, you have to decide if the item is typically found indoors or outdoors.</p><p>If you think it's usually found indoors, then press <b>v</b> key on your keyboard. If you think it's usually found outdoors, then press the <b>n</b> key.There will be reminders on the screen to help you remember which keys to press. </p><p>If you're not sure whether the item is an indoor item or an outdoor item, go ahead and take a guess but try your best not to skip that choice. </p></div>","","",""
"","html-keyboard-response","3","61526","0.0-3.0","""event"",""trial"",""time""
""fullscreenenter"",""0"",""21713""
","
","
","""event"",""trial"",""time""
""fullscreenenter"",""0"",""21713""
","
","3245.399999976158","<div class='center'><p>Welcome to the third part of the study! First, you'll be shown pictures of items one at a time. For each picture, you have to decide if the item is typically found indoors or outdoors.</p><p>If you think it's usually found indoors, then press <b>v</b> key on your keyboard. If you think it's usually found outdoors, then press the <b>n</b> key.There will be reminders on the screen to help you remember which keys to press. </p><p>If you're not sure whether the item is an indoor item or an outdoor item, go ahead and take a guess but try your best not to skip that choice. </p><div><p><b>[Press the space bar to continue]</b></p></div>","32","","","","","","","",""
"","image","4","63543","0.0-4.0","""event"",""trial"",""time""
""fullscreenenter"",""0"",""21713""
","
","
","""event"",""trial"",""time""
""fullscreenenter"",""0"",""21713""
","
","null","run_exp/static/images/Set 6_rs/186a.jpg","null","","","","","","learn","SR",""
"","show_choice","5","65563","0.0-5.0","""event"",""trial"",""time""
""fullscreenenter"",""0"",""21713""
","
","
","""event"",""trial"",""time""
""fullscreenenter"",""0"",""21713""
","
","null","run_exp/static/images/blank.png","null","","","","","","learn","SR",""
"","html-keyboard-response","6","66082","0.0-6.0","""event"",""trial"",""time""
""fullscreenenter"",""0"",""21713""
","
","
","""event"",""trial"",""time""
""fullscreenenter"",""0"",""21713""
","
","null","<p></p>","null","","","","","","","",""
"","image","7","67346","0.0-7.0","""event"",""trial"",""time""
""fullscreenenter"",""0"",""21713""
","
","
","""event"",""trial"",""time""
""fullscreenenter"",""0"",""21713""
","
","1261.1000000238419","run_exp/static/images/Set 6_rs/121a.jpg","78","","","","","","learn","SR",""
"","show_choice","8","68093","0.0-8.0","""event"",""trial"",""time""
""fullscreenenter"",""0"",""21713""
","
","
","""event"",""trial"",""time""
""fullscreenenter"",""0"",""21713""
","
","null","run_exp/static/images/Set 6_rs/121a.jpg","null","","","","","","learn","SR",""
"","html-keyboard-response","9","68602","0.0-9.0","""event"",""trial"",""time""
""fullscreenenter"",""0"",""21713""
","
","
","""event"",""trial"",""time""
""fullscreenenter"",""0"",""21713""
","
","null","<p></p>","null","","","","","","","",""
"","image","10","70418","0.0-10.0","""event"",""trial"",""time""
""fullscreenenter"",""0"",""21713""
","
","
","""event"",""trial"",""time""
""fullscreenenter"",""0"",""21713""
","
","1813.3000000715256","run_exp/static/images/Set 6_rs/191a.jpg","78","","","","","","learn","SL",""
"","show_choice","11","70609","0.0-11.0","""event"",""trial"",""time""
""fullscreenenter"",""0"",""21713""
","
","
","""event"",""trial"",""time""
""fullscreenenter"",""0"",""21713""
","
","null","run_exp/static/images/Set 6_rs/191a.jpg","null","","","","","","learn","SL",""
"","html-keyboard-response","12","71132","0.0-12.0","""event"",""trial"",""time""
""fullscreenenter"",""0"",""21713""
","
","
","""event"",""trial"",""time""
""fullscreenenter"",""0"",""21713""
","
","null","<p></p>","null","","","","","","","",""
"","image","13","72117","0.0-13.0","""event"",""trial"",""time""
""fullscreenenter"",""0"",""21713""
","
","
","""event"",""trial"",""time""
""fullscreenenter"",""0"",""21713""
","
","983.5","run_exp/static/images/Set 6_rs/131a.jpg","86","","","","","","learn","SR",""
"","show_choice","14","73149","0.0-14.0","""event"",""trial"",""time""
""fullscreenenter"",""0"",""21713""
","
","
","""event"",""trial"",""time""
""fullscreenenter"",""0"",""21713""
","
","null","run_exp/static/images/Set 6_rs/131a.jpg","null","","","","","","learn","SR",""
"","html-keyboard-response","15","73662","0.0-15.0","""event"",""trial"",""time""
""fullscreenenter"",""0"",""21713""
","
","
","""event"",""trial"",""time""
""fullscreenenter"",""0"",""21713""
","
","null","<p></p>","null","","","","","","","",""
"","image","16","74518","0.0-16.0","""event"",""trial"",""time""
""fullscreenenter"",""0"",""21713""
","
","
","""event"",""trial"",""time""
""fullscreenenter"",""0"",""21713""
","
","855.4000000953674","run_exp/static/images/Set 6_rs/024a.jpg","86","","","","","","learn","SR",""
"","show_choice","17","75670","0.0-17.0","""event"",""trial"",""time""
""fullscreenenter"",""0"",""21713""
","
","
","""event"",""trial"",""time""
""fullscreenenter"",""0"",""21713""
","
","null","run_exp/static/images/Set 6_rs/024a.jpg","null","","","","","","learn","SR",""
"","html-keyboard-response","18","76174","0.0-18.0","""event"",""trial"",""time""
""fullscreenenter"",""0"",""21713""
","
","
","""event"",""trial"",""time""
""fullscreenenter"",""0"",""21713""
","
","null","<p></p>","null","","","","","","","",""
"","image","19","77423","0.0-19.0","""event"",""trial"",""time""
""fullscreenenter"",""0"",""21713""
","
","
","""event"",""trial"",""time""
""fullscreenenter"",""0"",""21713""
","
","1247.3000000715256","run_exp/static/images/Set 6_rs/150a.jpg","86","","","","","","learn","SR",""
"","show_choice","20","78188","0.0-20.0","""event"",""trial"",""time""
""fullscreenenter"",""0"",""21713""
","
","
","""event"",""trial"",""time""
""fullscreenenter"",""0"",""21713""
","
","null","run_exp/static/images/Set 6_rs/150a.jpg","null","","","","","","learn","SR",""
"","html-keyboard-response","21","78691","0.0-21.0","""event"",""trial"",""time""
""fullscreenenter"",""0"",""21713""
","
","
","""event"",""trial"",""time""
""fullscreenenter"",""0"",""21713""
","
","null","<p></p>","null","","","","","","","",""
"","image","22","79939","0.0-22.0","""event"",""trial"",""time""
""fullscreenenter"",""0"",""21713""
","
","
","""event"",""trial"",""time""
""fullscreenenter"",""0"",""21713""
","
","1246.6000000238419","run_exp/static/images/Set 6_rs/012a.jpg","86","","","","","","learn","SR",""
"","show_choice","23","80705","0.0-23.0","""event"",""trial"",""time""
""fullscreenenter"",""0"",""21713""
","
","
","""event"",""trial"",""time""
""fullscreenenter"",""0"",""21713""
","
","null","run_exp/static/images/Set 6_rs/012a.jpg","null","","","","","","learn","SR",""
"","html-keyboard-response","24","81207","0.0-24.0","""event"",""trial"",""time""
""fullscreenenter"",""0"",""21713""
","
","
","""event"",""trial"",""time""
""fullscreenenter"",""0"",""21713""
","
","null","<p></p>","null","","","","","","","",""
"","image","25","82257","0.0-25.0","""event"",""trial"",""time""
""fullscreenenter"",""0"",""21713""
","
","
","""event"",""trial"",""time""
""fullscreenenter"",""0"",""21713""
","
","1047.8999999761581","run_exp/static/images/Set 6_rs/144a.jpg","86","","","","","","learn","SL",""
"","show_choice","26","83224","0.0-26.0","""event"",""trial"",""time""
""fullscreenenter"",""0"",""21713""
","
","
","""event"",""trial"",""time""
""fullscreenenter"",""0"",""21713""
","
","null","run_exp/static/images/Set 6_rs/144a.jpg","null","","","","","","learn","SL",""
"","html-keyboard-response","27","83739","0.0-27.0","""event"",""trial"",""time""
""fullscreenenter"",""0"",""21713""
","
","
","""event"",""trial"",""time""
""fullscreenenter"",""0"",""21713""
","
","null","<p></p>","null","","","","","","","",""
"","image","28","84467","0.0-28.0","""event"",""trial"",""time""
""fullscreenenter"",""0"",""21713""
","
","
","""event"",""trial"",""time""
""fullscreenenter"",""0"",""21713""
","
","726.3000000715256","run_exp/static/images/Set 6_rs/154a.jpg","86","","","","","","learn","SR",""
"","show_choice","29","85756","0.0-29.0","""event"",""trial"",""time""
""fullscreenenter"",""0"",""21713""
","
","
","""event"",""trial"",""time""
""fullscreenenter"",""0"",""21713""
","
","null","run_exp/static/images/Set 6_rs/154a.jpg","null","","","","","","learn","SR",""
"","html-keyboard-response","30","86272","0.0-30.0","""event"",""trial"",""time""
""fullscreenenter"",""0"",""21713""
","
","
","""event"",""trial"",""time""
""fullscreenenter"",""0"",""21713""
","
","null","<p></p>","null","","","","","","","",""
"","image","31","86918","0.0-31.0","""event"",""trial"",""time""
""fullscreenenter"",""0"",""21713""
","
","
","""event"",""trial"",""time""
""fullscreenenter"",""0"",""21713""
","
","645.3000000715256","run_exp/static/images/Set 6_rs/095a.jpg","86","","","","","","learn","SL",""
"","show_choice","32","88282","0.0-32.0","""event"",""trial"",""time""
""fullscreenenter"",""0"",""21713""
","
","
","""event"",""trial"",""time""
""fullscreenenter"",""0"",""21713""
","
","null","run_exp/static/images/Set 6_rs/095a.jpg","null","","","","","","learn","SL",""
"","html-keyboard-response","33","88789","0.0-33.0","""event"",""trial"",""time""
""fullscreenenter"",""0"",""21713""
","
","
","""event"",""trial"",""time""
""fullscreenenter"",""0"",""21713""
","
","null","<p></p>","null","","","","","","","",""
"","image","34","89936","0.0-34.0","""event"",""trial"",""time""
""fullscreenenter"",""0"",""21713""
","
","
","""event"",""trial"",""time""
""fullscreenenter"",""0"",""21713""
","
","1144.6999999284744","run_exp/static/images/Set 6_rs/062a.jpg","86","","","","","","learn","SL",""
"","show_choice","35","90797","0.0-35.0","""event"",""trial"",""time""
""fullscreenenter"",""0"",""21713""
","
","
","""event"",""trial"",""time""
""fullscreenenter"",""0"",""21713""
","
","null","run_exp/static/images/Set 6_rs/062a.jpg","null","","","","","","learn","SL",""
"","html-keyboard-response","36","91305","0.0-36.0","""event"",""trial"",""time""
""fullscreenenter"",""0"",""21713""
","
","
","""event"",""trial"",""time""
""fullscreenenter"",""0"",""21713""
","
","null","<p></p>","null","","","","","","","",""
"","image","37","92904","0.0-37.0","""event"",""trial"",""time""
""fullscreenenter"",""0"",""21713""
","
","
","""event"",""trial"",""time""
""fullscreenenter"",""0"",""21713""
","
","1598","run_exp/static/images/Set 6_rs/085a.jpg","78","","","","","","learn","SL",""
"","show_choice","38","93311","0.0-38.0","""event"",""trial"",""time""
""fullscreenenter"",""0"",""21713""
","
","
","""event"",""trial"",""time""
""fullscreenenter"",""0"",""21713""
","
","null","run_exp/static/images/Set 6_rs/085a.jpg","null","","","","","","learn","SL",""
"","html-keyboard-response","39","93820","0.0-39.0","""event"",""trial"",""time""
""fullscreenenter"",""0"",""21713""
","
","
","""event"",""trial"",""time""
""fullscreenenter"",""0"",""21713""
","
","null","<p></p>","null","","","","","","","",""
"","image","40","95401","0.0-40.0","""event"",""trial"",""time""
""fullscreenenter"",""0"",""21713""
","
","
","""event"",""trial"",""time""
""fullscreenenter"",""0"",""21713""
","
","1578.8999999761581","run_exp/static/images/Set 6_rs/141a.jpg","86","","","","","","learn","SR",""
"","show_choice","41","95825","0.0-41.0","""event"",""trial"",""time""
""fullscreenenter"",""0"",""21713""
","
","
","""event"",""trial"",""time""
""fullscreenenter"",""0"",""21713""
","
","null","run_exp/static/images/Set 6_rs/141a.jpg","null","","","","","","learn","SR",""
"","html-keyboard-response","42","96335","0.0-42.0","""event"",""trial"",""time""
""fullscreenenter"",""0"",""21713""
","
","
","""event"",""trial"",""time""
""fullscreenenter"",""0"",""21713""
","
","null","<p></p>","null","","","","","","","",""
"","image","43","97795","0.0-43.0","""event"",""trial"",""time""
""fullscreenenter"",""0"",""21713""
","
","
","""event"",""trial"",""time""
""fullscreenenter"",""0"",""21713""
","
","1459","run_exp/static/images/Set 6_rs/071a.jpg","86","","","","","","learn","SL",""
"","show_choice","44","98349","0.0-44.0","""event"",""trial"",""time""
""fullscreenenter"",""0"",""21713""
","
","
","""event"",""trial"",""time""
""fullscreenenter"",""0"",""21713""
","
","null","run_exp/static/images/Set 6_rs/071a.jpg","null","","","","","","learn","SL",""
"","html-keyboard-response","45","98854","0.0-45.0","""event"",""trial"",""time""
""fullscreenenter"",""0"",""21713""
","
","
","""event"",""trial"",""time""
""fullscreenenter"",""0"",""21713""
","
","null","<p></p>","null","","","","","","","",""
"","image","46","99493","0.0-46.0","""event"",""trial"",""time""
""fullscreenenter"",""0"",""21713""
","
","
","""event"",""trial"",""time""
""fullscreenenter"",""0"",""21713""
","
","636.6000000238419","run_exp/static/images/Set 6_rs/064a.jpg","86","","","","","","learn","SR",""
"","show_choice","47","100868","0.0-47.0","""event"",""trial"",""time""
""fullscreenenter"",""0"",""21713""
","
","
","""event"",""trial"",""time""
""fullscreenenter"",""0"",""21713""
","
","null","run_exp/static/images/Set 6_rs/064a.jpg","null","","","","","","learn","SR",""
"","html-keyboard-response","48","101378","0.0-48.0","""event"",""trial"",""time""
""fullscreenenter"",""0"",""21713""
","
","
","""event"",""trial"",""time""
""fullscreenenter"",""0"",""21713""
","
","null","<p></p>","null","","","","","","","",""
"","image","49","102429","0.0-49.0","""event"",""trial"",""time""
""fullscreenenter"",""0"",""21713""
","
","
","""event"",""trial"",""time""
""fullscreenenter"",""0"",""21713""
","
","1049.6000000238419","run_exp/static/images/Set 6_rs/023a.jpg","86","","","","","","learn","SR",""
"","show_choice","50","103389","0.0-50.0","""event"",""trial"",""time""
""fullscreenenter"",""0"",""21713""
","
","
","""event"",""trial"",""time""
""fullscreenenter"",""0"",""21713""
","
","null","run_exp/static/images/Set 6_rs/023a.jpg","null","","","","","","learn","SR",""
"","html-keyboard-response","51","103902","0.0-51.0","""event"",""trial"",""time""
""fullscreenenter"",""0"",""21713""
","
","
","""event"",""trial"",""time""
""fullscreenenter"",""0"",""21713""
","
","null","<p></p>","null","","","","","","","",""
"","image","52","105030","0.0-52.0","""event"",""trial"",""time""
""fullscreenenter"",""0"",""21713""
","
","
","""event"",""trial"",""time""
""fullscreenenter"",""0"",""21713""
","
","1126.3999999761581","run_exp/static/images/Set 6_rs/014a.jpg","86","","","","","","learn","SL",""
"","show_choice","53","105910","0.0-53.0","""event"",""trial"",""time""
""fullscreenenter"",""0"",""21713""
","
","
","""event"",""trial"",""time""
""fullscreenenter"",""0"",""21713""
","
","null","run_exp/static/images/Set 6_rs/014a.jpg","null","","","","","","learn","SL",""
"","html-keyboard-response","54","106431","0.0-54.0","""event"",""trial"",""time""
""fullscreenenter"",""0"",""21713""
","
","
","""event"",""trial"",""time""
""fullscreenenter"",""0"",""21713""
","
","null","<p></p>","null","","","","","","","",""
"","image","55","107601","0.0-55.0","""event"",""trial"",""time""
""fullscreenenter"",""0"",""21713""
","
","
","""event"",""trial"",""time""
""fullscreenenter"",""0"",""21713""
","
","1168.8999999761581","run_exp/static/images/Set 6_rs/016a.jpg","86","","","","","","learn","SL",""
"","show_choice","56","108446","0.0-56.0","""event"",""trial"",""time""
""fullscreenenter"",""0"",""21713""
","
","
","""event"",""trial"",""time""
""fullscreenenter"",""0"",""21713""
","
","null","run_exp/static/images/Set 6_rs/016a.jpg","null","","","","","","learn","SL",""
"","html-keyboard-response","57","108947","0.0-57.0","""event"",""trial"",""time""
""fullscreenenter"",""0"",""21713""
","
","
","""event"",""trial"",""time""
""fullscreenenter"",""0"",""21713""
","
","null","<p></p>","null","","","","","","","",""
"","image","58","109699","0.0-58.0","""event"",""trial"",""time""
""fullscreenenter"",""0"",""21713""
","
","
","""event"",""trial"",""time""
""fullscreenenter"",""0"",""21713""
","
","750.2000000476837","run_exp/static/images/Set 6_rs/079a.jpg","86","","","","","","learn","SL",""
"","show_choice","59","110952","0.0-59.0","""event"",""trial"",""time""
""fullscreenenter"",""0"",""21713""
","
","
","""event"",""trial"",""time""
""fullscreenenter"",""0"",""21713""
","
","null","run_exp/static/images/Set 6_rs/079a.jpg","null","","","","","","learn","SL",""
"","html-keyboard-response","60","111465","0.0-60.0","""event"",""trial"",""time""
""fullscreenenter"",""0"",""21713""
","
","
","""event"",""trial"",""time""
""fullscreenenter"",""0"",""21713""
","
","null","<p></p>","null","","","","","","","",""
"","image","61","112554","0.0-61.0","""event"",""trial"",""time""
""fullscreenenter"",""0"",""21713""
","
","
","""event"",""trial"",""time""
""fullscreenenter"",""0"",""21713""
","
","1087.3999999761581","run_exp/static/images/Set 6_rs/063a.jpg","86","","","","","","learn","SR",""
"","show_choice","62","113473","0.0-62.0","""event"",""trial"",""time""
""fullscreenenter"",""0"",""21713""
","
","
","""event"",""trial"",""time""
""fullscreenenter"",""0"",""21713""
","
","null","run_exp/static/images/Set 6_rs/063a.jpg","null","","","","","","learn","SR",""
"","html-keyboard-response","63","113983","0.0-63.0","""event"",""trial"",""time""
""fullscreenenter"",""0"",""21713""
","
","
","""event"",""trial"",""time""
""fullscreenenter"",""0"",""21713""
","
","null","<p></p>","null","","","","","","","",""
"","image","64","114678","0.0-64.0","""event"",""trial"",""time""
""fullscreenenter"",""0"",""21713""
","
","
","""event"",""trial"",""time""
""fullscreenenter"",""0"",""21713""
","
","693.5","run_exp/static/images/Set 6_rs/073a.jpg","86","","","","","","learn","SL",""
"","show_choice","65","115995","0.0-65.0","""event"",""trial"",""time""
""fullscreenenter"",""0"",""21713""
","
","
","""event"",""trial"",""time""
""fullscreenenter"",""0"",""21713""
","
","null","run_exp/static/images/Set 6_rs/073a.jpg","null","","","","","","learn","SL",""
"","html-keyboard-response","66","116501","0.0-66.0","""event"",""trial"",""time""
""fullscreenenter"",""0"",""21713""
","
","
","""event"",""trial"",""time""
""fullscreenenter"",""0"",""21713""
","
","null","<p></p>","null","","","","","","","",""
"","image","67","117314","0.0-67.0","""event"",""trial"",""time""
""fullscreenenter"",""0"",""21713""
","
","
","""event"",""trial"",""time""
""fullscreenenter"",""0"",""21713""
","
","811.1000000238419","run_exp/static/images/Set 6_rs/070a.jpg","86","","","","","","learn","SR",""
"","show_choice","68","118504","0.0-68.0","""event"",""trial"",""time""
""fullscreenenter"",""0"",""21713""
","
","
","""event"",""trial"",""time""
""fullscreenenter"",""0"",""21713""
","
","null","run_exp/static/images/Set 6_rs/070a.jpg","null","","","","","","learn","SR",""
"","html-keyboard-response","69","119015","0.0-69.0","""event"",""trial"",""time""
""fullscreenenter"",""0"",""21713""
","
","
","""event"",""trial"",""time""
""fullscreenenter"",""0"",""21713""
","
","null","<p></p>","null","","","","","","","",""
"","image","70","120222","0.0-70.0","""event"",""trial"",""time""
""fullscreenenter"",""0"",""21713""
","
","
","""event"",""trial"",""time""
""fullscreenenter"",""0"",""21713""
","
","1204.6000000238419","run_exp/static/images/Set 6_rs/010a.jpg","86","","","","","","learn","SR",""
"","show_choice","71","121029","0.0-71.0","""event"",""trial"",""time""
""fullscreenenter"",""0"",""21713""
","
","
","""event"",""trial"",""time""
""fullscreenenter"",""0"",""21713""
","
","null","run_exp/static/images/Set 6_rs/010a.jpg","null","","","","","","learn","SR",""
"","html-keyboard-response","72","121533","0.0-72.0","""event"",""trial"",""time""
""fullscreenenter"",""0"",""21713""
","
","
","""event"",""trial"",""time""
""fullscreenenter"",""0"",""21713""
","
","null","<p></p>","null","","","","","","","",""
"","image","73","122756","0.0-73.0","""event"",""trial"",""time""
""fullscreenenter"",""0"",""21713""
","
","
","""event"",""trial"",""time""
""fullscreenenter"",""0"",""21713""
","
","1220.5","run_exp/static/images/Set 6_rs/138a.jpg","78","","","","","","learn","SL",""
"","show_choice","74","123547","0.0-74.0","""event"",""trial"",""time""
""fullscreenenter"",""0"",""21713""
","
","
","""event"",""trial"",""time""
""fullscreenenter"",""0"",""21713""
","
","null","run_exp/static/images/Set 6_rs/138a.jpg","null","","","","","","learn","SL",""
"","html-keyboard-response","75","124049","0.0-75.0","""event"",""trial"",""time""
""fullscreenenter"",""0"",""21713""
","
","
","""event"",""trial"",""time""
""fullscreenenter"",""0"",""21713""
","
","null","<p></p>","null","","","","","","","",""
"","image","76","125046","0.0-76.0","""event"",""trial"",""time""
""fullscreenenter"",""0"",""21713""
","
","
","""event"",""trial"",""time""
""fullscreenenter"",""0"",""21713""
","
","994.5999999046326","run_exp/static/images/Set 6_rs/045a.jpg","86","","","","","","learn","SR",""
"","show_choice","77","126064","0.0-77.0","""event"",""trial"",""time""
""fullscreenenter"",""0"",""21713""
","
","
","""event"",""trial"",""time""
""fullscreenenter"",""0"",""21713""
","
","null","run_exp/static/images/Set 6_rs/045a.jpg","null","","","","","","learn","SR",""
"","html-keyboard-response","78","126566","0.0-78.0","""event"",""trial"",""time""
""fullscreenenter"",""0"",""21713""
","
","
","""event"",""trial"",""time""
""fullscreenenter"",""0"",""21713""
","
","null","<p></p>","null","","","","","","","",""
"","image","79","128323","0.0-79.0","""event"",""trial"",""time""
""fullscreenenter"",""0"",""21713""
","
","
","""event"",""trial"",""time""
""fullscreenenter"",""0"",""21713""
","
","1755.2999999523163","run_exp/static/images/Set 6_rs/187a.jpg","78","","","","","","learn","SR",""
"","show_choice","80","128582","0.0-80.0","""event"",""trial"",""time""
""fullscreenenter"",""0"",""21713""
","
","
","""event"",""trial"",""time""
""fullscreenenter"",""0"",""21713""
","
","null","run_exp/static/images/Set 6_rs/187a.jpg","null","","","","","","learn","SR",""
"","html-keyboard-response","81","129097","0.0-81.0","""event"",""trial"",""time""
""fullscreenenter"",""0"",""21713""
","
","
","""event"",""trial"",""time""
""fullscreenenter"",""0"",""21713""
","
","null","<p></p>","null","","","","","","","",""
"","image","82","130119","0.0-82.0","""event"",""trial"",""time""
""fullscreenenter"",""0"",""21713""
","
","
","""event"",""trial"",""time""
""fullscreenenter"",""0"",""21713""
","
","1020.0999999046326","run_exp/static/images/Set 6_rs/055a.jpg","86","","","","","","learn","SL",""
"","show_choice","83","131115","0.0-83.0","""event"",""trial"",""time""
""fullscreenenter"",""0"",""21713""
","
","
","""event"",""trial"",""time""
""fullscreenenter"",""0"",""21713""
","
","null","run_exp/static/images/Set 6_rs/055a.jpg","null","","","","","","learn","SL",""
"","html-keyboard-response","84","131631","0.0-84.0","""event"",""trial"",""time""
""fullscreenenter"",""0"",""21713""
","
","
","""event"",""trial"",""time""
""fullscreenenter"",""0"",""21713""
","
","null","<p></p>","null","","","","","","","",""
"","image","85","132198","0.0-85.0","""event"",""trial"",""time""
""fullscreenenter"",""0"",""21713""
","
","
","""event"",""trial"",""time""
""fullscreenenter"",""0"",""21713""
","
","565.8999999761581","run_exp/static/images/Set 6_rs/112a.jpg","86","","","","","","learn","SR",""
"","show_choice","86","133635","0.0-86.0","""event"",""trial"",""time""
""fullscreenenter"",""0"",""21713""
","
","
","""event"",""trial"",""time""
""fullscreenenter"",""0"",""21713""
","
","null","run_exp/static/images/Set 6_rs/112a.jpg","null","","","","","","learn","SR",""
"","html-keyboard-response","87","134147","0.0-87.0","""event"",""trial"",""time""
""fullscreenenter"",""0"",""21713""
","
","
","""event"",""trial"",""time""
""fullscreenenter"",""0"",""21713""
","
","null","<p></p>","null","","","","","","","",""
"","image","88","135033","0.0-88.0","""event"",""trial"",""time""
""fullscreenenter"",""0"",""21713""
","
","
","""event"",""trial"",""time""
""fullscreenenter"",""0"",""21713""
","
","884.0999999046326","run_exp/static/images/Set 6_rs/152a.jpg","78","","","","","","learn","SR",""
"","show_choice","89","136155","0.0-89.0","""event"",""trial"",""time""
""fullscreenenter"",""0"",""21713""
","
","
","""event"",""trial"",""time""
""fullscreenenter"",""0"",""21713""
","
","null","run_exp/static/images/Set 6_rs/152a.jpg","null","","","","","","learn","SR",""
"","html-keyboard-response","90","136662","0.0-90.0","""event"",""trial"",""time""
""fullscreenenter"",""0"",""21713""
","
","
","""event"",""trial"",""time""
""fullscreenenter"",""0"",""21713""
","
","null","<p></p>","null","","","","","","","",""
"","image","91","138077","0.0-91.0","""event"",""trial"",""time""
""fullscreenenter"",""0"",""21713""
","
","
","""event"",""trial"",""time""
""fullscreenenter"",""0"",""21713""
","
","1413.3000000715256","run_exp/static/images/Set 6_rs/036a.jpg","78","","","","","","learn","SL",""
"","show_choice","92","138674","0.0-92.0","""event"",""trial"",""time""
""fullscreenenter"",""0"",""21713""
","
","
","""event"",""trial"",""time""
""fullscreenenter"",""0"",""21713""
","
","null","run_exp/static/images/Set 6_rs/036a.jpg","null","","","","","","learn","SL",""
"","html-keyboard-response","93","139180","0.0-93.0","""event"",""trial"",""time""
""fullscreenenter"",""0"",""21713""
","
","
","""event"",""trial"",""time""
""fullscreenenter"",""0"",""21713""
","
","null","<p></p>","null","","","","","","","",""
"","image","94","140263","0.0-94.0","""event"",""trial"",""time""
""fullscreenenter"",""0"",""21713""
","
","
","""event"",""trial"",""time""
""fullscreenenter"",""0"",""21713""
","
","1080.9000000953674","run_exp/static/images/Set 6_rs/019a.jpg","86","","","","","","learn","SL",""
"","show_choice","95","141185","0.0-95.0","""event"",""trial"",""time""
""fullscreenenter"",""0"",""21713""
","
","
","""event"",""trial"",""time""
""fullscreenenter"",""0"",""21713""
","
","null","run_exp/static/images/Set 6_rs/019a.jpg","null","","","","","","learn","SL",""
"","html-keyboard-response","96","141695","0.0-96.0","""event"",""trial"",""time""
""fullscreenenter"",""0"",""21713""
","
","
","""event"",""trial"",""time""
""fullscreenenter"",""0"",""21713""
","
","null","<p></p>","null","","","","","","","",""
"","image","97","143174","0.0-97.0","""event"",""trial"",""time""
""fullscreenenter"",""0"",""21713""
","
","
","""event"",""trial"",""time""
""fullscreenenter"",""0"",""21713""
","
","1477.7999999523163","run_exp/static/images/Set 6_rs/167a.jpg","86","","","","","","learn","SL",""
"","show_choice","98","143710","0.0-98.0","""event"",""trial"",""time""
""fullscreenenter"",""0"",""21713""
","
","
","""event"",""trial"",""time""
""fullscreenenter"",""0"",""21713""
","
","null","run_exp/static/images/Set 6_rs/167a.jpg","null","","","","","","learn","SL",""
"","html-keyboard-response","99","144213","0.0-99.0","""event"",""trial"",""time""
""fullscreenenter"",""0"",""21713""
","
","
","""event"",""trial"",""time""
""fullscreenenter"",""0"",""21713""
","
","null","<p></p>","null","","","","","","","",""
"","image","100","145109","0.0-100.0","""event"",""trial"",""time""
""fullscreenenter"",""0"",""21713""
","
","
","""event"",""trial"",""time""
""fullscreenenter"",""0"",""21713""
","
","894.8999999761581","run_exp/static/images/Set 6_rs/007a.jpg","86","","","","","","learn","SR",""
"","show_choice","101","146222","0.0-101.0","""event"",""trial"",""time""
""fullscreenenter"",""0"",""21713""
","
","
","""event"",""trial"",""time""
""fullscreenenter"",""0"",""21713""
","
","null","run_exp/static/images/Set 6_rs/007a.jpg","null","","","","","","learn","SR",""
"","html-keyboard-response","102","146729","0.0-102.0","""event"",""trial"",""time""
""fullscreenenter"",""0"",""21713""
","
","
","""event"",""trial"",""time""
""fullscreenenter"",""0"",""21713""
","
","null","<p></p>","null","","","","","","","",""
"","image","103","148288","0.0-103.0","""event"",""trial"",""time""
""fullscreenenter"",""0"",""21713""
","
","
","""event"",""trial"",""time""
""fullscreenenter"",""0"",""21713""
","
","1557.1000000238419","run_exp/static/images/Set 6_rs/132a.jpg","86","","","","","","learn","SR",""
"","show_choice","104","148733","0.0-104.0","""event"",""trial"",""time""
""fullscreenenter"",""0"",""21713""
","
","
","""event"",""trial"",""time""
""fullscreenenter"",""0"",""21713""
","
","null","run_exp/static/images/Set 6_rs/132a.jpg","null","","","","","","learn","SR",""
"","html-keyboard-response","105","149244","0.0-105.0","""event"",""trial"",""time""
""fullscreenenter"",""0"",""21713""
","
","
","""event"",""trial"",""time""
""fullscreenenter"",""0"",""21713""
","
","null","<p></p>","null","","","","","","","",""
"","image","106","150112","0.0-106.0","""event"",""trial"",""time""
""fullscreenenter"",""0"",""21713""
","
","
","""event"",""trial"",""time""
""fullscreenenter"",""0"",""21713""
","
","867.2999999523163","run_exp/static/images/Set 6_rs/166a.jpg","86","","","","","","learn","SR",""
"","show_choice","107","151252","0.0-107.0","""event"",""trial"",""time""
""fullscreenenter"",""0"",""21713""
","
","
","""event"",""trial"",""time""
""fullscreenenter"",""0"",""21713""
","
","null","run_exp/static/images/Set 6_rs/166a.jpg","null","","","","","","learn","SR",""
"","html-keyboard-response","108","151760","0.0-108.0","""event"",""trial"",""time""
""fullscreenenter"",""0"",""21713""
","
","
","""event"",""trial"",""time""
""fullscreenenter"",""0"",""21713""
","
","null","<p></p>","null","","","","","","","",""
"","image","109","152555","0.0-109.0","""event"",""trial"",""time""
""fullscreenenter"",""0"",""21713""
","
","
","""event"",""trial"",""time""
""fullscreenenter"",""0"",""21713""
","
","792.3000000715256","run_exp/static/images/Set 6_rs/025a.jpg","78","","","","","","learn","SL",""
"","show_choice","110","153766","0.0-110.0","""event"",""trial"",""time""
""fullscreenenter"",""0"",""21713""
","
","
","""event"",""trial"",""time""
""fullscreenenter"",""0"",""21713""
","
","null","run_exp/static/images/Set 6_rs/025a.jpg","null","","","","","","learn","SL",""
"","html-keyboard-response","111","154277","0.0-111.0","""event"",""trial"",""time""
""fullscreenenter"",""0"",""21713""
","
","
","""event"",""trial"",""time""
""fullscreenenter"",""0"",""21713""
","
","null","<p></p>","null","","","","","","","",""
"","image","112","155843","0.0-112.0","""event"",""trial"",""time""
""fullscreenenter"",""0"",""21713""
","
","
","""event"",""trial"",""time""
""fullscreenenter"",""0"",""21713""
","
","1564.6999999284744","run_exp/static/images/Set 6_rs/122a.jpg","86","","","","","","learn","SR",""
"","show_choice","113","156282","0.0-113.0","""event"",""trial"",""time""
""fullscreenenter"",""0"",""21713""
","
","
","""event"",""trial"",""time""
""fullscreenenter"",""0"",""21713""
","
","null","run_exp/static/images/Set 6_rs/122a.jpg","null","","","","","","learn","SR",""
"","html-keyboard-response","114","156793","0.0-114.0","""event"",""trial"",""time""
""fullscreenenter"",""0"",""21713""
","
","
","""event"",""trial"",""time""
""fullscreenenter"",""0"",""21713""
","
","null","<p></p>","null","","","","","","","",""
"","image","115","157842","0.0-115.0","""event"",""trial"",""time""
""fullscreenenter"",""0"",""21713""
","
","
","""event"",""trial"",""time""
""fullscreenenter"",""0"",""21713""
","
","1046.8999999761581","run_exp/static/images/Set 6_rs/075a.jpg","78","","","","","","learn","SR",""
"","show_choice","116","158797","0.0-116.0","""event"",""trial"",""time""
""fullscreenenter"",""0"",""21713""
","
","
","""event"",""trial"",""time""
""fullscreenenter"",""0"",""21713""
","
","null","run_exp/static/images/Set 6_rs/075a.jpg","null","","","","","","learn","SR",""
"","html-keyboard-response","117","159309","0.0-117.0","""event"",""trial"",""time""
""fullscreenenter"",""0"",""21713""
","
","
","""event"",""trial"",""time""
""fullscreenenter"",""0"",""21713""
","
","null","<p></p>","null","","","","","","","",""
"","image","118","160302","0.0-118.0","""event"",""trial"",""time""
""fullscreenenter"",""0"",""21713""
","
","
","""event"",""trial"",""time""
""fullscreenenter"",""0"",""21713""
","
","990.8000000715256","run_exp/static/images/Set 6_rs/168a.jpg","78","","","","","","learn","SL",""
"","show_choice","119","161319","0.0-119.0","""event"",""trial"",""time""
""fullscreenenter"",""0"",""21713""
","
","
","""event"",""trial"",""time""
""fullscreenenter"",""0"",""21713""
","
","null","run_exp/static/images/Set 6_rs/168a.jpg","null","","","","","","learn","SL",""
"","html-keyboard-response","120","161826","0.0-120.0","""event"",""trial"",""time""
""fullscreenenter"",""0"",""21713""
","
","
","""event"",""trial"",""time""
""fullscreenenter"",""0"",""21713""
","
","null","<p></p>","null","","","","","","","",""
"","image","121","162656","0.0-121.0","""event"",""trial"",""time""
""fullscreenenter"",""0"",""21713""
","
","
","""event"",""trial"",""time""
""fullscreenenter"",""0"",""21713""
","
","828.6000000238419","run_exp/static/images/Set 6_rs/123a.jpg","78","","","","","","learn","SL",""
"","show_choice","122","163832","0.0-122.0","""event"",""trial"",""time""
""fullscreenenter"",""0"",""21713""
","
","
","""event"",""trial"",""time""
""fullscreenenter"",""0"",""21713""
","
","null","run_exp/static/images/Set 6_rs/123a.jpg","null","","","","","","learn","SL",""
"","html-keyboard-response","123","164342","0.0-123.0","""event"",""trial"",""time""
""fullscreenenter"",""0"",""21713""
","
","
","""event"",""trial"",""time""
""fullscreenenter"",""0"",""21713""
","
","null","<p></p>","null","","","","","","","",""
"","image","124","165395","0.0-124.0","""event"",""trial"",""time""
""fullscreenenter"",""0"",""21713""
","
","
","""event"",""trial"",""time""
""fullscreenenter"",""0"",""21713""
","
","1050.9000000953674","run_exp/static/images/Set 6_rs/091a.jpg","78","","","","","","learn","SL",""
"","show_choice","125","166346","0.0-125.0","""event"",""trial"",""time""
""fullscreenenter"",""0"",""21713""
","
","
","""event"",""trial"",""time""
""fullscreenenter"",""0"",""21713""
","
","null","run_exp/static/images/Set 6_rs/091a.jpg","null","","","","","","learn","SL",""
"","html-keyboard-response","126","166858","0.0-126.0","""event"",""trial"",""time""
""fullscreenenter"",""0"",""21713""
","
","
","""event"",""trial"",""time""
""fullscreenenter"",""0"",""21713""
","
","null","<p></p>","null","","","","","","","",""
"","image","127","168622","0.0-127.0","""event"",""trial"",""time""
""fullscreenenter"",""0"",""21713""
","
","
","""event"",""trial"",""time""
""fullscreenenter"",""0"",""21713""
","
","1762.8999999761581","run_exp/static/images/Set 6_rs/134a.jpg","86","","","","","","learn","SR",""
"","show_choice","128","168876","0.0-128.0","""event"",""trial"",""time""
""fullscreenenter"",""0"",""21713""
","
","
","""event"",""trial"",""time""
""fullscreenenter"",""0"",""21713""
","
","null","run_exp/static/images/Set 6_rs/134a.jpg","null","","","","","","learn","SR",""
"","html-keyboard-response","129","169391","0.0-129.0","""event"",""trial"",""time""
""fullscreenenter"",""0"",""21713""
","
","
","""event"",""trial"",""time""
""fullscreenenter"",""0"",""21713""
","
","null","<p></p>","null","","","","","","","",""
"","image","130","170446","0.0-130.0","""event"",""trial"",""time""
""fullscreenenter"",""0"",""21713""
","
","
","""event"",""trial"",""time""
""fullscreenenter"",""0"",""21713""
","
","1054.3999999761581","run_exp/static/images/Set 6_rs/172a.jpg","78","","","","","","learn","SR",""
"","show_choice","131","171394","0.0-131.0","""event"",""trial"",""time""
""fullscreenenter"",""0"",""21713""
","
","
","""event"",""trial"",""time""
""fullscreenenter"",""0"",""21713""
","
","null","run_exp/static/images/Set 6_rs/172a.jpg","null","","","","","","learn","SR",""
"","html-keyboard-response","132","171907","0.0-132.0","""event"",""trial"",""time""
""fullscreenenter"",""0"",""21713""
","
","
","""event"",""trial"",""time""
""fullscreenenter"",""0"",""21713""
","
","null","<p></p>","null","","","","","","","",""
"","image","133","172783","0.0-133.0","""event"",""trial"",""time""
""fullscreenenter"",""0"",""21713""
","
","
","""event"",""trial"",""time""
""fullscreenenter"",""0"",""21713""
","
","874.3999999761581","run_exp/static/images/Set 6_rs/116a.jpg","78","","","","","","learn","SL",""
"","show_choice","134","173916","0.0-134.0","""event"",""trial"",""time""
""fullscreenenter"",""0"",""21713""
","
","
","""event"",""trial"",""time""
""fullscreenenter"",""0"",""21713""
","
","null","run_exp/static/images/Set 6_rs/116a.jpg","null","","","","","","learn","SL",""
"","html-keyboard-response","135","174423","0.0-135.0","""event"",""trial"",""time""
""fullscreenenter"",""0"",""21713""
","
","
","""event"",""trial"",""time""
""fullscreenenter"",""0"",""21713""
","
","null","<p></p>","null","","","","","","","",""
"","image","136","175495","0.0-136.0","""event"",""trial"",""time""
""fullscreenenter"",""0"",""21713""
","
","
","""event"",""trial"",""time""
""fullscreenenter"",""0"",""21713""
","
","1071.6000000238419","run_exp/static/images/Set 6_rs/181a.jpg","78","","","","","","learn","SL",""
"","show_choice","137","176429","0.0-137.0","""event"",""trial"",""time""
""fullscreenenter"",""0"",""21713""
","
","
","""event"",""trial"",""time""
""fullscreenenter"",""0"",""21713""
","
","null","run_exp/static/images/Set 6_rs/181a.jpg","null","","","","","","learn","SL",""
"","html-keyboard-response","138","176940","0.0-138.0","""event"",""trial"",""time""
""fullscreenenter"",""0"",""21713""
","
","
","""event"",""trial"",""time""
""fullscreenenter"",""0"",""21713""
","
","null","<p></p>","null","","","","","","","",""
"","image","139","178072","0.0-139.0","""event"",""trial"",""time""
""fullscreenenter"",""0"",""21713""
","
","
","""event"",""trial"",""time""
""fullscreenenter"",""0"",""21713""
","
","1130.7000000476837","run_exp/static/images/Set 6_rs/089a.jpg","86","","","","","","learn","SL",""
"","show_choice","140","178949","0.0-140.0","""event"",""trial"",""time""
""fullscreenenter"",""0"",""21713""
","
","
","""event"",""trial"",""time""
""fullscreenenter"",""0"",""21713""
","
","null","run_exp/static/images/Set 6_rs/089a.jpg","null","","","","","","learn","SL",""
"","html-keyboard-response","141","179455","0.0-141.0","""event"",""trial"",""time""
""fullscreenenter"",""0"",""21713""
","
","
","""event"",""trial"",""time""
""fullscreenenter"",""0"",""21713""
","
","null","<p></p>","null","","","","","","","",""
"","image","142","180824","0.0-142.0","""event"",""trial"",""time""
""fullscreenenter"",""0"",""21713""
","
","
","""event"",""trial"",""time""
""fullscreenenter"",""0"",""21713""
","
","1367.1000000238419","run_exp/static/images/Set 6_rs/066a.jpg","78","","","","","","learn","SL",""
"","show_choice","143","181470","0.0-143.0","""event"",""trial"",""time""
""fullscreenenter"",""0"",""21713""
","
","
","""event"",""trial"",""time""
""fullscreenenter"",""0"",""21713""
","
","null","run_exp/static/images/Set 6_rs/066a.jpg","null","","","","","","learn","SL",""
"","html-keyboard-response","144","181973","0.0-144.0","""event"",""trial"",""time""
""fullscreenenter"",""0"",""21713""
","
","
","""event"",""trial"",""time""
""fullscreenenter"",""0"",""21713""
","
","null","<p></p>","null","","","","","","","",""
"","image","145","183265","0.0-145.0","""event"",""trial"",""time""
""fullscreenenter"",""0"",""21713""
","
","
","""event"",""trial"",""time""
""fullscreenenter"",""0"",""21713""
","
","1289.8999999761581","run_exp/static/images/Set 6_rs/074a.jpg","78","","","","","","learn","SL",""
"","show_choice","146","183991","0.0-146.0","""event"",""trial"",""time""
""fullscreenenter"",""0"",""21713""
","
","
","""event"",""trial"",""time""
""fullscreenenter"",""0"",""21713""
","
","null","run_exp/static/images/Set 6_rs/074a.jpg","null","","","","","","learn","SL",""
"","html-keyboard-response","147","184505","0.0-147.0","""event"",""trial"",""time""
""fullscreenenter"",""0"",""21713""
","
","
","""event"",""trial"",""time""
""fullscreenenter"",""0"",""21713""
","
","null","<p></p>","null","","","","","","","",""
"","image","148","186137","0.0-148.0","""event"",""trial"",""time""
""fullscreenenter"",""0"",""21713""
","
","
","""event"",""trial"",""time""
""fullscreenenter"",""0"",""21713""
","
","1630.7999999523163","run_exp/static/images/Set 6_rs/108a.jpg","86","","","","","","learn","SR",""
"","show_choice","149","186514","0.0-149.0","""event"",""trial"",""time""
""fullscreenenter"",""0"",""21713""
","
","
","""event"",""trial"",""time""
""fullscreenenter"",""0"",""21713""
","
","null","run_exp/static/images/Set 6_rs/108a.jpg","null","","","","","","learn","SR",""
"","html-keyboard-response","150","187017","0.0-150.0","""event"",""trial"",""time""
""fullscreenenter"",""0"",""21713""
","
","
","""event"",""trial"",""time""
""fullscreenenter"",""0"",""21713""
","
","null","<p></p>","null","","","","","","","",""
"","image","151","188462","0.0-151.0","""event"",""trial"",""time""
""fullscreenenter"",""0"",""21713""
","
","
","""event"",""trial"",""time""
""fullscreenenter"",""0"",""21713""
","
","1442.8999999761581","run_exp/static/images/Set 6_rs/117a.jpg","78","","","","","","learn","SL",""
"","show_choice","152","189032","0.0-152.0","""event"",""trial"",""time""
""fullscreenenter"",""0"",""21713""
","
","
","""event"",""trial"",""time""
""fullscreenenter"",""0"",""21713""
","
","null","run_exp/static/images/Set 6_rs/117a.jpg","null","","","","","","learn","SL",""
"","html-keyboard-response","153","189537","0.0-153.0","""event"",""trial"",""time""
""fullscreenenter"",""0"",""21713""
","
","
","""event"",""trial"",""time""
""fullscreenenter"",""0"",""21713""
","
","null","<p></p>","null","","","","","","","",""
"","image","154","190485","0.0-154.0","""event"",""trial"",""time""
""fullscreenenter"",""0"",""21713""
","
","
","""event"",""trial"",""time""
""fullscreenenter"",""0"",""21713""
","
","947.3999999761581","run_exp/static/images/Set 6_rs/057a.jpg","86","","","","","","learn","SL",""
"","show_choice","155","191550","0.0-155.0","""event"",""trial"",""time""
""fullscreenenter"",""0"",""21713""
","
","
","""event"",""trial"",""time""
""fullscreenenter"",""0"",""21713""
","
","null","run_exp/static/images/Set 6_rs/057a.jpg","null","","","","","","learn","SL",""
"","html-keyboard-response","156","192056","0.0-156.0","""event"",""trial"",""time""
""fullscreenenter"",""0"",""21713""
","
","
","""event"",""trial"",""time""
""fullscreenenter"",""0"",""21713""
","
","null","<p></p>","null","","","","","","","",""
"","image","157","192871","0.0-157.0","""event"",""trial"",""time""
""fullscreenenter"",""0"",""21713""
","
","
","""event"",""trial"",""time""
""fullscreenenter"",""0"",""21713""
","
","813.8999999761581","run_exp/static/images/Set 6_rs/178a.jpg","78","","","","","","learn","SR",""
"","show_choice","158","194065","0.0-158.0","""event"",""trial"",""time""
""fullscreenenter"",""0"",""21713""
","
","
","""event"",""trial"",""time""
""fullscreenenter"",""0"",""21713""
","
","null","run_exp/static/images/Set 6_rs/178a.jpg","null","","","","","","learn","SR",""
"","html-keyboard-response","159","194571","0.0-159.0","""event"",""trial"",""time""
""fullscreenenter"",""0"",""21713""
","
","
","""event"",""trial"",""time""
""fullscreenenter"",""0"",""21713""
","
","null","<p></p>","null","","","","","","","",""
"","image","160","195710","0.0-160.0","""event"",""trial"",""time""
""fullscreenenter"",""0"",""21713""
","
","
","""event"",""trial"",""time""
""fullscreenenter"",""0"",""21713""
","
","1138.1000000238419","run_exp/static/images/Set 6_rs/006a.jpg","86","","","","","","learn","SL",""
"","show_choice","161","196578","0.0-161.0","""event"",""trial"",""time""
""fullscreenenter"",""0"",""21713""
","
","
","""event"",""trial"",""time""
""fullscreenenter"",""0"",""21713""
","
","null","run_exp/static/images/Set 6_rs/006a.jpg","null","","","","","","learn","SL",""
"","html-keyboard-response","162","197086","0.0-162.0","""event"",""trial"",""time""
""fullscreenenter"",""0"",""21713""
","
","
","""event"",""trial"",""time""
""fullscreenenter"",""0"",""21713""
","
","null","<p></p>","null","","","","","","","",""
"","image","163","198206","0.0-163.0","""event"",""trial"",""time""
""fullscreenenter"",""0"",""21713""
","
","
","""event"",""trial"",""time""
""fullscreenenter"",""0"",""21713""
","
","1118.8999999761581","run_exp/static/images/Set 6_rs/088a.jpg","86","","","","","","learn","SR",""
"","show_choice","164","199095","0.0-164.0","""event"",""trial"",""time""
""fullscreenenter"",""0"",""21713""
","
","
","""event"",""trial"",""time""
""fullscreenenter"",""0"",""21713""
","
","null","run_exp/static/images/Set 6_rs/088a.jpg","null","","","","","","learn","SR",""
"","html-keyboard-response","165","199603","0.0-165.0","""event"",""trial"",""time""
""fullscreenenter"",""0"",""21713""
","
","
","""event"",""trial"",""time""
""fullscreenenter"",""0"",""21713""
","
","null","<p></p>","null","","","","","","","",""
"","image","166","201388","0.0-166.0","""event"",""trial"",""time""
""fullscreenenter"",""0"",""21713""
","
","
","""event"",""trial"",""time""
""fullscreenenter"",""0"",""21713""
","
","1782.7000000476837","run_exp/static/images/Set 6_rs/008a.jpg","86","","","","","","learn","SL",""
"","show_choice","167","201622","0.0-167.0","""event"",""trial"",""time""
""fullscreenenter"",""0"",""21713""
","
","
","""event"",""trial"",""time""
""fullscreenenter"",""0"",""21713""
","
","null","run_exp/static/images/Set 6_rs/008a.jpg","null","","","","","","learn","SL",""
"","html-keyboard-response","168","202136","0.0-168.0","""event"",""trial"",""time""
""fullscreenenter"",""0"",""21713""
","
","
","""event"",""trial"",""time""
""fullscreenenter"",""0"",""21713""
","
","null","<p></p>","null","","","","","","","",""
"","image","169","202847","0.0-169.0","""event"",""trial"",""time""
""fullscreenenter"",""0"",""21713""
","
","
","""event"",""trial"",""time""
""fullscreenenter"",""0"",""21713""
","
","709.8999999761581","run_exp/static/images/Set 6_rs/169a.jpg","78","","","","","","learn","SR",""
"","show_choice","170","204150","0.0-170.0","""event"",""trial"",""time""
""fullscreenenter"",""0"",""21713""
","
","
","""event"",""trial"",""time""
""fullscreenenter"",""0"",""21713""
","
","null","run_exp/static/images/Set 6_rs/169a.jpg","null","","","","","","learn","SR",""
"","html-keyboard-response","171","204652","0.0-171.0","""event"",""trial"",""time""
""fullscreenenter"",""0"",""21713""
","
","
","""event"",""trial"",""time""
""fullscreenenter"",""0"",""21713""
","
","null","<p></p>","null","","","","","","","",""
"","image","172","205873","0.0-172.0","""event"",""trial"",""time""
""fullscreenenter"",""0"",""21713""
","
","
","""event"",""trial"",""time""
""fullscreenenter"",""0"",""21713""
","
","1219.3999999761581","run_exp/static/images/Set 6_rs/061a.jpg","78","","","","","","learn","SR",""
"","show_choice","173","206666","0.0-173.0","""event"",""trial"",""time""
""fullscreenenter"",""0"",""21713""
","
","
","""event"",""trial"",""time""
""fullscreenenter"",""0"",""21713""
","
","null","run_exp/static/images/Set 6_rs/061a.jpg","null","","","","","","learn","SR",""
"","html-keyboard-response","174","207185","0.0-174.0","""event"",""trial"",""time""
""fullscreenenter"",""0"",""21713""
","
","
","""event"",""trial"",""time""
""fullscreenenter"",""0"",""21713""
","
","null","<p></p>","null","","","","","","","",""
"","image","175","208412","0.0-175.0","""event"",""trial"",""time""
""fullscreenenter"",""0"",""21713""
","
","
","""event"",""trial"",""time""
""fullscreenenter"",""0"",""21713""
","
","1225.8999999761581","run_exp/static/images/Set 6_rs/126a.jpg","78","","","","","","learn","SR",""
"","show_choice","176","209200","0.0-176.0","""event"",""trial"",""time""
""fullscreenenter"",""0"",""21713""
","
","
","""event"",""trial"",""time""
""fullscreenenter"",""0"",""21713""
","
","null","run_exp/static/images/Set 6_rs/126a.jpg","null","","","","","","learn","SR",""
"","html-keyboard-response","177","209702","0.0-177.0","""event"",""trial"",""time""
""fullscreenenter"",""0"",""21713""
","
","
","""event"",""trial"",""time""
""fullscreenenter"",""0"",""21713""
","
","null","<p></p>","null","","","","","","","",""
"","image","178","210703","0.0-178.0","""event"",""trial"",""time""
""fullscreenenter"",""0"",""21713""
","
","
","""event"",""trial"",""time""
""fullscreenenter"",""0"",""21713""
","
","1000.1000000238419","run_exp/static/images/Set 6_rs/129a.jpg","86","","","","","","learn","SL",""
"","show_choice","179","211718","0.0-179.0","""event"",""trial"",""time""
""fullscreenenter"",""0"",""21713""
","
","
","""event"",""trial"",""time""
""fullscreenenter"",""0"",""21713""
","
","null","run_exp/static/images/Set 6_rs/129a.jpg","null","","","","","","learn","SL",""
"","html-keyboard-response","180","212220","0.0-180.0","""event"",""trial"",""time""
""fullscreenenter"",""0"",""21713""
","
","
","""event"",""trial"",""time""
""fullscreenenter"",""0"",""21713""
","
","null","<p></p>","null","","","","","","","",""
"","image","181","213551","0.0-181.0","""event"",""trial"",""time""
""fullscreenenter"",""0"",""21713""
","
","
","""event"",""trial"",""time""
""fullscreenenter"",""0"",""21713""
","
","1330","run_exp/static/images/Set 6_rs/050a.jpg","86","","","","","","learn","SL",""
"","show_choice","182","214228","0.0-182.0","""event"",""trial"",""time""
""fullscreenenter"",""0"",""21713""
","
","
","""event"",""trial"",""time""
""fullscreenenter"",""0"",""21713""
","
","null","run_exp/static/images/Set 6_rs/050a.jpg","null","","","","","","learn","SL",""
"","html-keyboard-response","183","214735","0.0-183.0","""event"",""trial"",""time""
""fullscreenenter"",""0"",""21713""
","
","
","""event"",""trial"",""time""
""fullscreenenter"",""0"",""21713""
","
","null","<p></p>","null","","","","","","","",""
"","image","184","216529","0.0-184.0","""event"",""trial"",""time""
""fullscreenenter"",""0"",""21713""
","
","
","""event"",""trial"",""time""
""fullscreenenter"",""0"",""21713""
","
","1793.6999999284744","run_exp/static/images/Set 6_rs/177a.jpg","86","","","","","","learn","SR",""
"","show_choice","185","216740","0.0-185.0","""event"",""trial"",""time""
""fullscreenenter"",""0"",""21713""
","
","
","""event"",""trial"",""time""
""fullscreenenter"",""0"",""21713""
","
","null","run_exp/static/images/Set 6_rs/177a.jpg","null","","","","","","learn","SR",""
"","html-keyboard-response","186","217249","0.0-186.0","""event"",""trial"",""time""
""fullscreenenter"",""0"",""21713""
","
","
","""event"",""trial"",""time""
""fullscreenenter"",""0"",""21713""
","
","null","<p></p>","null","","","","","","","",""
"","image","187","218539","0.0-187.0","""event"",""trial"",""time""
""fullscreenenter"",""0"",""21713""
","
","
","""event"",""trial"",""time""
""fullscreenenter"",""0"",""21713""
","
","1288.2000000476837","run_exp/static/images/Set 6_rs/076a.jpg","78","","","","","","learn","SR",""
"","show_choice","188","219253","0.0-188.0","""event"",""trial"",""time""
""fullscreenenter"",""0"",""21713""
","
","
","""event"",""trial"",""time""
""fullscreenenter"",""0"",""21713""
","
","null","run_exp/static/images/Set 6_rs/076a.jpg","null","","","","","","learn","SR",""
"","html-keyboard-response","189","219766","0.0-189.0","""event"",""trial"",""time""
""fullscreenenter"",""0"",""21713""
","
","
","""event"",""trial"",""time""
""fullscreenenter"",""0"",""21713""
","
","null","<p></p>","null","","","","","","","",""
"","image","190","221296","0.0-190.0","""event"",""trial"",""time""
""fullscreenenter"",""0"",""21713""
","
","
","""event"",""trial"",""time""
""fullscreenenter"",""0"",""21713""
","
","1528.7999999523163","run_exp/static/images/Set 6_rs/111a.jpg","86","","","","","","learn","SL",""
"","show_choice","191","221770","0.0-191.0","""event"",""trial"",""time""
""fullscreenenter"",""0"",""21713""
","
","
","""event"",""trial"",""time""
""fullscreenenter"",""0"",""21713""
","
","null","run_exp/static/images/Set 6_rs/111a.jpg","null","","","","","","learn","SL",""
"","html-keyboard-response","192","222283","0.0-192.0","""event"",""trial"",""time""
""fullscreenenter"",""0"",""21713""
","
","
","""event"",""trial"",""time""
""fullscreenenter"",""0"",""21713""
","
","null","<p></p>","null","","","","","","","",""
"","image","193","223858","0.0-193.0","""event"",""trial"",""time""
""fullscreenenter"",""0"",""21713""
","
","
","""event"",""trial"",""time""
""fullscreenenter"",""0"",""21713""
","
","1573.7999999523163","run_exp/static/images/Set 6_rs/017a.jpg","78","","","","","","learn","SL",""
"","show_choice","194","224288","0.0-194.0","""event"",""trial"",""time""
""fullscreenenter"",""0"",""21713""
","
","
","""event"",""trial"",""time""
""fullscreenenter"",""0"",""21713""
","
","null","run_exp/static/images/Set 6_rs/017a.jpg","null","","","","","","learn","SL",""
"","html-keyboard-response","195","224798","0.0-195.0","""event"",""trial"",""time""
""fullscreenenter"",""0"",""21713""
","
","
","""event"",""trial"",""time""
""fullscreenenter"",""0"",""21713""
","
","null","<p></p>","null","","","","","","","",""
"","test_intro","196","262393","0.0-196.0","""event"",""trial"",""time""
""fullscreenenter"",""0"",""21713""
","
","
","""event"",""trial"",""time""
""fullscreenenter"",""0"",""21713""
","
","null","run_exp/static/audio/clip_2_memory.m4a","null","","","","","<div class='center'><p>Now, lets see how much you remember about the items you just saw.  For each item, you need to indicate if it was <b>old</b> by pressing the <b>v</b> key, <b>similar</b> by pressing the <b>b</b> key, or <b>new</b> by pressing the <b>n</b> key.</p><p>Old refers to an item that you saw before in the indoor/outdoor game that you just played, new refers to an item you have <b>not</b> seen before within the indoor/outdoor game, and similar refers to an item that is similar to an item youve seen before but is not exactly the same. </p><p>Before we begin, lets go over some brief demonstrations to make sure you understand.</p></div>","","",""
"","html-keyboard-response","197","263864","0.0-197.0","""event"",""trial"",""time""
""fullscreenenter"",""0"",""21713""
","
","
","""event"",""trial"",""time""
""fullscreenenter"",""0"",""21713""
","
","1469.1000000238419","<div class='center'><p>Now, lets see how much you remember about the items you just saw.  For each item, you need to indicate if it was <b>old</b> by pressing the <b>v</b> key, <b>similar</b> by pressing the <b>b</b> key, or <b>new</b> by pressing the <b>n</b> key.</p><p>Old refers to an item that you saw before in the indoor/outdoor game that you just played, new refers to an item you have <b>not</b> seen before within the indoor/outdoor game, and similar refers to an item that is similar to an item youve seen before but is not exactly the same. </p><p>Before we begin, lets go over some brief demonstrations to make sure you understand.</p><div><p><b>[Press the space bar to continue]</b></p></div>","32","","","","","","","",""
"","items","198","271369","0.0-198.0","""event"",""trial"",""time""
""fullscreenenter"",""0"",""21713""
","
","
","""event"",""trial"",""time""
""fullscreenenter"",""0"",""21713""
","
","null","run_exp/static/audio/clip_3_items.m4a","null","","","","","","","",""
"","mop","199","275880","0.0-199.0","""event"",""trial"",""time""
""fullscreenenter"",""0"",""21713""
","
","
","""event"",""trial"",""time""
""fullscreenenter"",""0"",""21713""
","
","null","run_exp/static/audio/clip_4_mop.m4a","null","","","","","","","",""
"","baseball","200","279390","0.0-200.0","""event"",""trial"",""time""
""fullscreenenter"",""0"",""21713""
","
","
","""event"",""trial"",""time""
""fullscreenenter"",""0"",""21713""
","
","null","run_exp/static/audio/clip_5_baseball.m4a","null","","","","","","","",""
"","trumpet","201","282909","0.0-201.0","""event"",""trial"",""time""
""fullscreenenter"",""0"",""21713""
","
","
","""event"",""trial"",""time""
""fullscreenenter"",""0"",""21713""
","
","null","run_exp/static/audio/clip_6_trumpet.m4a","null","","","","","","","",""
"","gummies","202","286420","0.0-202.0","""event"",""trial"",""time""
""fullscreenenter"",""0"",""21713""
","
","
","""event"",""trial"",""time""
""fullscreenenter"",""0"",""21713""
","
","null","run_exp/static/audio/clip_7_gummies.m4a","null","","","","","","","",""
"","osn","203","290937","0.0-203.0","""event"",""trial"",""time""
""fullscreenenter"",""0"",""21713""
","
","
","""event"",""trial"",""time""
""fullscreenenter"",""0"",""21713""
","
","null","run_exp/static/audio/clip_8_osn.m4a","null","","","","","","","",""
"","old_1","204","297459","0.0-204.0","""event"",""trial"",""time""
""fullscreenenter"",""0"",""21713""
","
","
","""event"",""trial"",""time""
""fullscreenenter"",""0"",""21713""
","
","null","run_exp/static/audio/clip_9_old_trumpet.m4a","null","","","","","","","",""
"","new_1","205","304974","0.0-205.0","""event"",""trial"",""time""
""fullscreenenter"",""0"",""21713""
","
","
","""event"",""trial"",""time""
""fullscreenenter"",""0"",""21713""
","
","null","run_exp/static/audio/clip_10_new_balloon.m4a","null","","","","","","","",""
"","similar_1a","206","309490","0.0-206.0","""event"",""trial"",""time""
""fullscreenenter"",""0"",""21713""
","
","
","""event"",""trial"",""time""
""fullscreenenter"",""0"",""21713""
","
","null","run_exp/static/audio/clip_11a_similar_mop.m4a","null","","","","","","","",""
"","similar_1b","207","316000","0.0-207.0","""event"",""trial"",""time""
""fullscreenenter"",""0"",""21713""
","
","
","""event"",""trial"",""time""
""fullscreenenter"",""0"",""21713""
","
","null","run_exp/static/audio/clip_11b_similar_mop.m4a","null","","","","","","","",""
"","new_2","208","319519","0.0-208.0","""event"",""trial"",""time""
""fullscreenenter"",""0"",""21713""
","
","
","""event"",""trial"",""time""
""fullscreenenter"",""0"",""21713""
","
","null","run_exp/static/audio/clip_12_new_stoplight.m4a","null","","","","","","","",""
"","old_2","209","323033","0.0-209.0","""event"",""trial"",""time""
""fullscreenenter"",""0"",""21713""
","
","
","""event"",""trial"",""time""
""fullscreenenter"",""0"",""21713""
","
","null","run_exp/static/audio/clip_13_old_baseball.m4a","null","","","","","","","",""
"","similar_2a","210","326543","0.0-210.0","""event"",""trial"",""time""
""fullscreenenter"",""0"",""21713""
","
","
","""event"",""trial"",""time""
""fullscreenenter"",""0"",""21713""
","
","null","run_exp/static/audio/clip_14a_similar_gummies.m4a","null","","","","","","","",""
"","similar_2b","211","334062","0.0-211.0","""event"",""trial"",""time""
""fullscreenenter"",""0"",""21713""
","
","
","""event"",""trial"",""time""
""fullscreenenter"",""0"",""21713""
","
","null","run_exp/static/audio/clip_14b_similar_gummies.m4a","null","","","","","","","",""
"","practice","212","376176","0.0-212.0","""event"",""trial"",""time""
""fullscreenenter"",""0"",""21713""
","
","
","""event"",""trial"",""time""
""fullscreenenter"",""0"",""21713""
","
","null","run_exp/static/audio/clip_15_practice.m4a","null","","","","","<div class='center'><p>Lets practice a little to make sure you understand the difference between new, similar, and old. Lets say you saw these three items in the indoor/outdoor game.</p><p> Try your best to remember these images because youll soon be tested on them in a practice game. In the practice game, youll be shown images and youll have to say if they are old (one of the three images belows), similar (similar to one of the images below but not exactly the same), or new (are not one of the images below nor similar to them).</p><p>Once you press the space bar youll be shown these images again but one at time. Then youll begin the practice game.</p><p><img src='run_exp/static/images/tutorial/test/three_indoor_outdoor.png' height='300'></p></div>","","",""
"","html-keyboard-response","213","376554","0.0-213.0","""event"",""trial"",""time""
""fullscreenenter"",""0"",""21713""
","
","
","""event"",""trial"",""time""
""fullscreenenter"",""0"",""21713""
","
","375.39999997615814","<div class='center'><p>Lets practice a little to make sure you understand the difference between new, similar, and old. Lets say you saw these three items in the indoor/outdoor game.</p><p> Try your best to remember these images because youll soon be tested on them in a practice game. In the practice game, youll be shown images and youll have to say if they are old (one of the three images belows), similar (similar to one of the images below but not exactly the same), or new (are not one of the images below nor similar to them).</p><p>Once you press the space bar youll be shown these images again but one at time. Then youll begin the practice game.</p><p><img src='run_exp/static/images/tutorial/test/three_indoor_outdoor.png' height='300'></p><div><p><b>[Press the space bar to continue]</b></p></div>","32","","","","","","","",""
"","planet","214","378562","0.0-214.0","""event"",""trial"",""time""
""fullscreenenter"",""0"",""21713""
","
","
","""event"",""trial"",""time""
""fullscreenenter"",""0"",""21713""
","
","null","run_exp/static/images/tutorial/test/008a.jpg","null","","","","","","","",""
"","boot","215","380583","0.0-215.0","""event"",""trial"",""time""
""fullscreenenter"",""0"",""21713""
","
","
","""event"",""trial"",""time""
""fullscreenenter"",""0"",""21713""
","
","null","run_exp/static/images/tutorial/test/011a.jpg","null","","","","","","","",""
"","lemon","216","382592","0.0-216.0","""event"",""trial"",""time""
""fullscreenenter"",""0"",""21713""
","
","
","""event"",""trial"",""time""
""fullscreenenter"",""0"",""21713""
","
","null","run_exp/static/images/tutorial/test/018a.jpg","null","","","","","","","",""
"","practice_q1","217","389475","0.0-217.0","""event"",""trial"",""time""
""fullscreenenter"",""0"",""21713""
","
","
","""event"",""trial"",""time""
""fullscreenenter"",""0"",""21713""
","
","6882.399999976158","run_exp/static/audio/clip_16_practice_question.m4a","78","","","","","","","",""
"","correct","218","391393","0.0-218.0-0.0","""event"",""trial"",""time""
""fullscreenenter"",""0"",""21713""
","
","
","""event"",""trial"",""time""
""fullscreenenter"",""0"",""21713""
","
","null","run_exp/static/audio/clip_17_correct.m4a","null","","","","","<div class='center'><p>That's correct!</p></div>","","",""
"","html-keyboard-response","219","393693","0.0-218.0-1.0","""event"",""trial"",""time""
""fullscreenenter"",""0"",""21713""
","
","
","""event"",""trial"",""time""
""fullscreenenter"",""0"",""21713""
","
","2298.3000000715256","<div class='center'><p>That's correct!</p><div><p><b>[Press the space bar to continue]</b></p></div>","32","","","","","","","",""
"","practice_q2","220","399545","0.0-218.0-2.0","""event"",""trial"",""time""
""fullscreenenter"",""0"",""21713""
","
","
","""event"",""trial"",""time""
""fullscreenenter"",""0"",""21713""
","
","5849.899999976158","run_exp/static/audio/clip_16_practice_question.m4a","86","","","","","","","",""
"","correct","221","401433","0.0-219.0-0.0","""event"",""trial"",""time""
""fullscreenenter"",""0"",""21713""
","
","
","""event"",""trial"",""time""
""fullscreenenter"",""0"",""21713""
","
","null","run_exp/static/audio/clip_17_correct.m4a","null","","","","","<div class='center'><p>That's correct!</p></div>","","",""
"","html-keyboard-response","222","402770","0.0-219.0-1.0","""event"",""trial"",""time""
""fullscreenenter"",""0"",""21713""
","
","
","""event"",""trial"",""time""
""fullscreenenter"",""0"",""21713""
","
","1336","<div class='center'><p>That's correct!</p><div><p><b>[Press the space bar to continue]</b></p></div>","32","","","","","","","",""
"","practice_q3","223","408238","0.0-219.0-2.0","""event"",""trial"",""time""
""fullscreenenter"",""0"",""21713""
","
","
","""event"",""trial"",""time""
""fullscreenenter"",""0"",""21713""
","
","5464.799999952316","run_exp/static/audio/clip_16_practice_question.m4a","66","","","","","","","",""
"","correct","224","410253","0.0-220.0-0.0","""event"",""trial"",""time""
""fullscreenenter"",""0"",""21713""
","
","
","""event"",""trial"",""time""
""fullscreenenter"",""0"",""21713""
","
","null","run_exp/static/audio/clip_17_correct.m4a","null","","","","","<div class='center'><p>That's correct!</p></div>","","",""
"","html-keyboard-response","225","410765","0.0-220.0-1.0","""event"",""trial"",""time""
""fullscreenenter"",""0"",""21713""
","
","
","""event"",""trial"",""time""
""fullscreenenter"",""0"",""21713""
","
","510.59999990463257","<div class='center'><p>That's correct!</p><div><p><b>[Press the space bar to continue]</b></p></div>","32","","","","","","","",""
"","begin_text","226","429233","0.0-221.0-0.0","""event"",""trial"",""time""
""fullscreenenter"",""0"",""21713""
","
","
","""event"",""trial"",""time""
""fullscreenenter"",""0"",""21713""
","
","null","run_exp/static/audio/clip_22_begin_test.m4a","null","","","","","<div class='center'><p>On to the real game where well test your memory of items from the indoor/outdoor game. For each item, you need to indicate if the item is <b>old</b> by pressing the <b>v</b> key, <b>similar</b> by pressing the <b>b</b> key, or <b>new</b> by pressing the <b>n</b> key. </p></div>","","",""
"","html-keyboard-response","227","429586","0.0-221.0-1.0","""event"",""trial"",""time""
""fullscreenenter"",""0"",""21713""
","
","
","""event"",""trial"",""time""
""fullscreenenter"",""0"",""21713""
","
","349.89999997615814","<div class='center'><p>On to the real game where well test your memory of items from the indoor/outdoor game. For each item, you need to indicate if the item is <b>old</b> by pressing the <b>v</b> key, <b>similar</b> by pressing the <b>b</b> key, or <b>new</b> by pressing the <b>n</b> key. </p><div><p><b>[Press the space bar to continue]</b></p></div>","32","","","","","","","",""
"","image","228","431039","0.0-222.0-0.0","""event"",""trial"",""time""
""fullscreenenter"",""0"",""21713""
","
","
","""event"",""trial"",""time""
""fullscreenenter"",""0"",""21713""
","
","1451.3999999761581","run_exp/static/images/Set 6_rs/191b.jpg","78","","","","","","test","TL","2"
"","show_choice","229","431550","0.0-222.0-1.0","""event"",""trial"",""time""
""fullscreenenter"",""0"",""21713""
","
","
","""event"",""trial"",""time""
""fullscreenenter"",""0"",""21713""
","
","null","run_exp/static/images/Set 6_rs/191b.jpg","null","","","","","","test","TL",""
"","html-keyboard-response","230","432060","0.0-222.0-2.0","""event"",""trial"",""time""
""fullscreenenter"",""0"",""21713""
","
","
","""event"",""trial"",""time""
""fullscreenenter"",""0"",""21713""
","
","null","<p></p>","null","","","","","","","",""
"","image","231","433373","0.0-223.0-0.0","""event"",""trial"",""time""
""fullscreenenter"",""0"",""21713""
","
","
","""event"",""trial"",""time""
""fullscreenenter"",""0"",""21713""
","
","1311","run_exp/static/images/Set 6_rs/011a.jpg","66","","","","","","test","TF","3"
"","show_choice","232","433890","0.0-223.0-1.0","""event"",""trial"",""time""
""fullscreenenter"",""0"",""21713""
","
","
","""event"",""trial"",""time""
""fullscreenenter"",""0"",""21713""
","
","null","run_exp/static/images/Set 6_rs/011a.jpg","null","","","","","","test","TF",""
"","html-keyboard-response","233","434400","0.0-223.0-2.0","""event"",""trial"",""time""
""fullscreenenter"",""0"",""21713""
","
","
","""event"",""trial"",""time""
""fullscreenenter"",""0"",""21713""
","
","null","<p></p>","null","","","","","","","",""
"","image","234","435474","0.0-224.0-0.0","""event"",""trial"",""time""
""fullscreenenter"",""0"",""21713""
","
","
","""event"",""trial"",""time""
""fullscreenenter"",""0"",""21713""
","
","1072.2999999523163","run_exp/static/images/Set 6_rs/152a.jpg","86","","","","","","test","TR","2"
"","show_choice","235","435980","0.0-224.0-1.0","""event"",""trial"",""time""
""fullscreenenter"",""0"",""21713""
","
","
","""event"",""trial"",""time""
""fullscreenenter"",""0"",""21713""
","
","null","run_exp/static/images/Set 6_rs/152a.jpg","null","","","","","","test","TR",""
"","html-keyboard-response","236","436500","0.0-224.0-2.0","""event"",""trial"",""time""
""fullscreenenter"",""0"",""21713""
","
","
","""event"",""trial"",""time""
""fullscreenenter"",""0"",""21713""
","
","null","<p></p>","null","","","","","","","",""
"","image","237","437520","0.0-225.0-0.0","""event"",""trial"",""time""
""fullscreenenter"",""0"",""21713""
","
","
","""event"",""trial"",""time""
""fullscreenenter"",""0"",""21713""
","
","1017.3999999761581","run_exp/static/images/Set 6_rs/035a.jpg","78","","","","","","test","TF","4"
"","show_choice","238","438040","0.0-225.0-1.0","""event"",""trial"",""time""
""fullscreenenter"",""0"",""21713""
","
","
","""event"",""trial"",""time""
""fullscreenenter"",""0"",""21713""
","
","null","run_exp/static/images/Set 6_rs/035a.jpg","null","","","","","","test","TF",""
"","html-keyboard-response","239","438550","0.0-225.0-2.0","""event"",""trial"",""time""
""fullscreenenter"",""0"",""21713""
","
","
","""event"",""trial"",""time""
""fullscreenenter"",""0"",""21713""
","
","null","<p></p>","null","","","","","","","",""
"","image","240","439799","0.0-226.0-0.0","""event"",""trial"",""time""
""fullscreenenter"",""0"",""21713""
","
","
","""event"",""trial"",""time""
""fullscreenenter"",""0"",""21713""
","
","1247.6999999284744","run_exp/static/images/Set 6_rs/177a.jpg","86","","","","","","test","TR","5"
"","show_choice","241","440304","0.0-226.0-1.0","""event"",""trial"",""time""
""fullscreenenter"",""0"",""21713""
","
","
","""event"",""trial"",""time""
""fullscreenenter"",""0"",""21713""
","
","null","run_exp/static/images/Set 6_rs/177a.jpg","null","","","","","","test","TR",""
"","html-keyboard-response","242","440826","0.0-226.0-2.0","""event"",""trial"",""time""
""fullscreenenter"",""0"",""21713""
","
","
","""event"",""trial"",""time""
""fullscreenenter"",""0"",""21713""
","
","null","<p></p>","null","","","","","","","",""
"","image","243","441992","0.0-227.0-0.0","""event"",""trial"",""time""
""fullscreenenter"",""0"",""21713""
","
","
","""event"",""trial"",""time""
""fullscreenenter"",""0"",""21713""
","
","1163.6000000238419","run_exp/static/images/Set 6_rs/062b.jpg","86","","","","","","test","TL","1"
"","show_choice","244","442506","0.0-227.0-1.0","""event"",""trial"",""time""
""fullscreenenter"",""0"",""21713""
","
","
","""event"",""trial"",""time""
""fullscreenenter"",""0"",""21713""
","
","null","run_exp/static/images/Set 6_rs/062b.jpg","null","","","","","","test","TL",""
"","html-keyboard-response","245","443028","0.0-227.0-2.0","""event"",""trial"",""time""
""fullscreenenter"",""0"",""21713""
","
","
","""event"",""trial"",""time""
""fullscreenenter"",""0"",""21713""
","
","null","<p></p>","null","","","","","","","",""
"","image","246","444675","0.0-228.0-0.0","""event"",""trial"",""time""
""fullscreenenter"",""0"",""21713""
","
","
","""event"",""trial"",""time""
""fullscreenenter"",""0"",""21713""
","
","1642.9000000953674","run_exp/static/images/Set 6_rs/154a.jpg","86","","","","","","test","TR","3"
"","show_choice","247","445180","0.0-228.0-1.0","""event"",""trial"",""time""
""fullscreenenter"",""0"",""21713""
","
","
","""event"",""trial"",""time""
""fullscreenenter"",""0"",""21713""
","
","null","run_exp/static/images/Set 6_rs/154a.jpg","null","","","","","","test","TR",""
"","html-keyboard-response","248","445696","0.0-228.0-2.0","""event"",""trial"",""time""
""fullscreenenter"",""0"",""21713""
","
","
","""event"",""trial"",""time""
""fullscreenenter"",""0"",""21713""
","
","null","<p></p>","null","","","","","","","",""
"","image","249","447087","0.0-229.0-0.0","""event"",""trial"",""time""
""fullscreenenter"",""0"",""21713""
","
","
","""event"",""trial"",""time""
""fullscreenenter"",""0"",""21713""
","
","1388.6999999284744","run_exp/static/images/Set 6_rs/085b.jpg","86","","","","","","test","TL","1"
"","show_choice","250","447596","0.0-229.0-1.0","""event"",""trial"",""time""
""fullscreenenter"",""0"",""21713""
","
","
","""event"",""trial"",""time""
""fullscreenenter"",""0"",""21713""
","
","null","run_exp/static/images/Set 6_rs/085b.jpg","null","","","","","","test","TL",""
"","html-keyboard-response","251","448112","0.0-229.0-2.0","""event"",""trial"",""time""
""fullscreenenter"",""0"",""21713""
","
","
","""event"",""trial"",""time""
""fullscreenenter"",""0"",""21713""
","
","null","<p></p>","null","","","","","","","",""
"","image","252","449097","0.0-230.0-0.0","""event"",""trial"",""time""
""fullscreenenter"",""0"",""21713""
","
","
","""event"",""trial"",""time""
""fullscreenenter"",""0"",""21713""
","
","983.1000000238419","run_exp/static/images/Set 6_rs/134a.jpg","86","","","","","","test","TR","3"
"","show_choice","253","449612","0.0-230.0-1.0","""event"",""trial"",""time""
""fullscreenenter"",""0"",""21713""
","
","
","""event"",""trial"",""time""
""fullscreenenter"",""0"",""21713""
","
","null","run_exp/static/images/Set 6_rs/134a.jpg","null","","","","","","test","TR",""
"","html-keyboard-response","254","450128","0.0-230.0-2.0","""event"",""trial"",""time""
""fullscreenenter"",""0"",""21713""
","
","
","""event"",""trial"",""time""
""fullscreenenter"",""0"",""21713""
","
","null","<p></p>","null","","","","","","","",""
"","image","255","451127","0.0-231.0-0.0","""event"",""trial"",""time""
""fullscreenenter"",""0"",""21713""
","
","
","""event"",""trial"",""time""
""fullscreenenter"",""0"",""21713""
","
","997.2000000476837","run_exp/static/images/Set 6_rs/022a.jpg","78","","","","","","test","TF","4"
"","show_choice","256","451630","0.0-231.0-1.0","""event"",""trial"",""time""
""fullscreenenter"",""0"",""21713""
","
","
","""event"",""trial"",""time""
""fullscreenenter"",""0"",""21713""
","
","null","run_exp/static/images/Set 6_rs/022a.jpg","null","","","","","","test","TF",""
"","html-keyboard-response","257","452160","0.0-231.0-2.0","""event"",""trial"",""time""
""fullscreenenter"",""0"",""21713""
","
","
","""event"",""trial"",""time""
""fullscreenenter"",""0"",""21713""
","
","null","<p></p>","null","","","","","","","",""
"","image","258","453368","0.0-232.0-0.0","""event"",""trial"",""time""
""fullscreenenter"",""0"",""21713""
","
","
","""event"",""trial"",""time""
""fullscreenenter"",""0"",""21713""
","
","1206.6000000238419","run_exp/static/images/Set 6_rs/001a.jpg","78","","","","","","test","TF","1"
"","show_choice","259","453877","0.0-232.0-1.0","""event"",""trial"",""time""
""fullscreenenter"",""0"",""21713""
","
","
","""event"",""trial"",""time""
""fullscreenenter"",""0"",""21713""
","
","null","run_exp/static/images/Set 6_rs/001a.jpg","null","","","","","","test","TF",""
"","html-keyboard-response","260","454393","0.0-232.0-2.0","""event"",""trial"",""time""
""fullscreenenter"",""0"",""21713""
","
","
","""event"",""trial"",""time""
""fullscreenenter"",""0"",""21713""
","
","null","<p></p>","null","","","","","","","",""
"","image","261","455603","0.0-233.0-0.0","""event"",""trial"",""time""
""fullscreenenter"",""0"",""21713""
","
","
","""event"",""trial"",""time""
""fullscreenenter"",""0"",""21713""
","
","1208.8999999761581","run_exp/static/images/Set 6_rs/121a.jpg","86","","","","","","test","TR","4"
"","show_choice","262","456111","0.0-233.0-1.0","""event"",""trial"",""time""
""fullscreenenter"",""0"",""21713""
","
","
","""event"",""trial"",""time""
""fullscreenenter"",""0"",""21713""
","
","null","run_exp/static/images/Set 6_rs/121a.jpg","null","","","","","","test","TR",""
"","html-keyboard-response","263","456627","0.0-233.0-2.0","""event"",""trial"",""time""
""fullscreenenter"",""0"",""21713""
","
","
","""event"",""trial"",""time""
""fullscreenenter"",""0"",""21713""
","
","null","<p></p>","null","","","","","","","",""
"","image","264","457892","0.0-234.0-0.0","""event"",""trial"",""time""
""fullscreenenter"",""0"",""21713""
","
","
","""event"",""trial"",""time""
""fullscreenenter"",""0"",""21713""
","
","1263.2000000476837","run_exp/static/images/Set 6_rs/138b.jpg","86","","","","","","test","TL","1"
"","show_choice","265","458394","0.0-234.0-1.0","""event"",""trial"",""time""
""fullscreenenter"",""0"",""21713""
","
","
","""event"",""trial"",""time""
""fullscreenenter"",""0"",""21713""
","
","null","run_exp/static/images/Set 6_rs/138b.jpg","null","","","","","","test","TL",""
"","html-keyboard-response","266","458906","0.0-234.0-2.0","""event"",""trial"",""time""
""fullscreenenter"",""0"",""21713""
","
","
","""event"",""trial"",""time""
""fullscreenenter"",""0"",""21713""
","
","null","<p></p>","null","","","","","","","",""
"","image","267","460089","0.0-235.0-0.0","""event"",""trial"",""time""
""fullscreenenter"",""0"",""21713""
","
","
","""event"",""trial"",""time""
""fullscreenenter"",""0"",""21713""
","
","1180.6999999284744","run_exp/static/images/Set 6_rs/111b.jpg","86","","","","","","test","TL","3"
"","show_choice","268","460597","0.0-235.0-1.0","""event"",""trial"",""time""
""fullscreenenter"",""0"",""21713""
","
","
","""event"",""trial"",""time""
""fullscreenenter"",""0"",""21713""
","
","null","run_exp/static/images/Set 6_rs/111b.jpg","null","","","","","","test","TL",""
"","html-keyboard-response","269","461110","0.0-235.0-2.0","""event"",""trial"",""time""
""fullscreenenter"",""0"",""21713""
","
","
","""event"",""trial"",""time""
""fullscreenenter"",""0"",""21713""
","
","null","<p></p>","null","","","","","","","",""
"","image","270","462217","0.0-236.0-0.0","""event"",""trial"",""time""
""fullscreenenter"",""0"",""21713""
","
","
","""event"",""trial"",""time""
""fullscreenenter"",""0"",""21713""
","
","1105.5","run_exp/static/images/Set 6_rs/079b.jpg","66","","","","","","test","TL","5"
"","show_choice","271","462725","0.0-236.0-1.0","""event"",""trial"",""time""
""fullscreenenter"",""0"",""21713""
","
","
","""event"",""trial"",""time""
""fullscreenenter"",""0"",""21713""
","
","null","run_exp/static/images/Set 6_rs/079b.jpg","null","","","","","","test","TL",""
"","html-keyboard-response","272","463226","0.0-236.0-2.0","""event"",""trial"",""time""
""fullscreenenter"",""0"",""21713""
","
","
","""event"",""trial"",""time""
""fullscreenenter"",""0"",""21713""
","
","null","<p></p>","null","","","","","","","",""
"","image","273","464600","0.0-237.0-0.0","""event"",""trial"",""time""
""fullscreenenter"",""0"",""21713""
","
","
","""event"",""trial"",""time""
""fullscreenenter"",""0"",""21713""
","
","1371.2999999523163","run_exp/static/images/Set 6_rs/066b.jpg","66","","","","","","test","TL","5"
"","show_choice","274","465110","0.0-237.0-1.0","""event"",""trial"",""time""
""fullscreenenter"",""0"",""21713""
","
","
","""event"",""trial"",""time""
""fullscreenenter"",""0"",""21713""
","
","null","run_exp/static/images/Set 6_rs/066b.jpg","null","","","","","","test","TL",""
"","html-keyboard-response","275","465626","0.0-237.0-2.0","""event"",""trial"",""time""
""fullscreenenter"",""0"",""21713""
","
","
","""event"",""trial"",""time""
""fullscreenenter"",""0"",""21713""
","
","null","<p></p>","null","","","","","","","",""
"","image","276","467161","0.0-238.0-0.0","""event"",""trial"",""time""
""fullscreenenter"",""0"",""21713""
","
","
","""event"",""trial"",""time""
""fullscreenenter"",""0"",""21713""
","
","1534.3999999761581","run_exp/static/images/Set 6_rs/070a.jpg","66","","","","","","test","TR","2"
"","show_choice","277","467674","0.0-238.0-1.0","""event"",""trial"",""time""
""fullscreenenter"",""0"",""21713""
","
","
","""event"",""trial"",""time""
""fullscreenenter"",""0"",""21713""
","
","null","run_exp/static/images/Set 6_rs/070a.jpg","null","","","","","","test","TR",""
"","html-keyboard-response","278","468176","0.0-238.0-2.0","""event"",""trial"",""time""
""fullscreenenter"",""0"",""21713""
","
","
","""event"",""trial"",""time""
""fullscreenenter"",""0"",""21713""
","
","null","<p></p>","null","","","","","","","",""
"","image","279","469496","0.0-239.0-0.0","""event"",""trial"",""time""
""fullscreenenter"",""0"",""21713""
","
","
","""event"",""trial"",""time""
""fullscreenenter"",""0"",""21713""
","
","1317.3999999761581","run_exp/static/images/Set 6_rs/149a.jpg","78","","","","","","test","TF","1"
"","show_choice","280","470008","0.0-239.0-1.0","""event"",""trial"",""time""
""fullscreenenter"",""0"",""21713""
","
","
","""event"",""trial"",""time""
""fullscreenenter"",""0"",""21713""
","
","null","run_exp/static/images/Set 6_rs/149a.jpg","null","","","","","","test","TF",""
"","html-keyboard-response","281","470524","0.0-239.0-2.0","""event"",""trial"",""time""
""fullscreenenter"",""0"",""21713""
","
","
","""event"",""trial"",""time""
""fullscreenenter"",""0"",""21713""
","
","null","<p></p>","null","","","","","","","",""
"","image","282","471572","0.0-240.0-0.0","""event"",""trial"",""time""
""fullscreenenter"",""0"",""21713""
","
","
","""event"",""trial"",""time""
""fullscreenenter"",""0"",""21713""
","
","1045.5999999046326","run_exp/static/images/Set 6_rs/170a.jpg","78","","","","","","test","TF","2"
"","show_choice","283","472090","0.0-240.0-1.0","""event"",""trial"",""time""
""fullscreenenter"",""0"",""21713""
","
","
","""event"",""trial"",""time""
""fullscreenenter"",""0"",""21713""
","
","null","run_exp/static/images/Set 6_rs/170a.jpg","null","","","","","","test","TF",""
"","html-keyboard-response","284","472592","0.0-240.0-2.0","""event"",""trial"",""time""
""fullscreenenter"",""0"",""21713""
","
","
","""event"",""trial"",""time""
""fullscreenenter"",""0"",""21713""
","
","null","<p></p>","null","","","","","","","",""
"","image","285","473721","0.0-241.0-0.0","""event"",""trial"",""time""
""fullscreenenter"",""0"",""21713""
","
","
","""event"",""trial"",""time""
""fullscreenenter"",""0"",""21713""
","
","1127","run_exp/static/images/Set 6_rs/171a.jpg","66","","","","","","test","TF","1"
"","show_choice","286","474225","0.0-241.0-1.0","""event"",""trial"",""time""
""fullscreenenter"",""0"",""21713""
","
","
","""event"",""trial"",""time""
""fullscreenenter"",""0"",""21713""
","
","null","run_exp/static/images/Set 6_rs/171a.jpg","null","","","","","","test","TF",""
"","html-keyboard-response","287","474741","0.0-241.0-2.0","""event"",""trial"",""time""
""fullscreenenter"",""0"",""21713""
","
","
","""event"",""trial"",""time""
""fullscreenenter"",""0"",""21713""
","
","null","<p></p>","null","","","","","","","",""
"","image","288","476133","0.0-242.0-0.0","""event"",""trial"",""time""
""fullscreenenter"",""0"",""21713""
","
","
","""event"",""trial"",""time""
""fullscreenenter"",""0"",""21713""
","
","1391.1000000238419","run_exp/static/images/Set 6_rs/117b.jpg","86","","","","","","test","TL","5"
"","show_choice","289","476641","0.0-242.0-1.0","""event"",""trial"",""time""
""fullscreenenter"",""0"",""21713""
","
","
","""event"",""trial"",""time""
""fullscreenenter"",""0"",""21713""
","
","null","run_exp/static/images/Set 6_rs/117b.jpg","null","","","","","","test","TL",""
"","html-keyboard-response","290","477157","0.0-242.0-2.0","""event"",""trial"",""time""
""fullscreenenter"",""0"",""21713""
","
","
","""event"",""trial"",""time""
""fullscreenenter"",""0"",""21713""
","
","null","<p></p>","null","","","","","","","",""
"","image","291","477900","0.0-243.0-0.0","""event"",""trial"",""time""
""fullscreenenter"",""0"",""21713""
","
","
","""event"",""trial"",""time""
""fullscreenenter"",""0"",""21713""
","
","740.3999999761581","run_exp/static/images/Set 6_rs/057b.jpg","86","","","","","","test","TL","1"
"","show_choice","292","478407","0.0-243.0-1.0","""event"",""trial"",""time""
""fullscreenenter"",""0"",""21713""
","
","
","""event"",""trial"",""time""
""fullscreenenter"",""0"",""21713""
","
","null","run_exp/static/images/Set 6_rs/057b.jpg","null","","","","","","test","TL",""
"","html-keyboard-response","293","478923","0.0-243.0-2.0","""event"",""trial"",""time""
""fullscreenenter"",""0"",""21713""
","
","
","""event"",""trial"",""time""
""fullscreenenter"",""0"",""21713""
","
","null","<p></p>","null","","","","","","","",""
"","image","294","479639","0.0-244.0-0.0","""event"",""trial"",""time""
""fullscreenenter"",""0"",""21713""
","
","
","""event"",""trial"",""time""
""fullscreenenter"",""0"",""21713""
","
","714.8999999761581","run_exp/static/images/Set 6_rs/095b.jpg","86","","","","","","test","TL","5"
"","show_choice","295","480141","0.0-244.0-1.0","""event"",""trial"",""time""
""fullscreenenter"",""0"",""21713""
","
","
","""event"",""trial"",""time""
""fullscreenenter"",""0"",""21713""
","
","null","run_exp/static/images/Set 6_rs/095b.jpg","null","","","","","","test","TL",""
"","html-keyboard-response","296","480656","0.0-244.0-2.0","""event"",""trial"",""time""
""fullscreenenter"",""0"",""21713""
","
","
","""event"",""trial"",""time""
""fullscreenenter"",""0"",""21713""
","
","null","<p></p>","null","","","","","","","",""
"","image","297","481982","0.0-245.0-0.0","""event"",""trial"",""time""
""fullscreenenter"",""0"",""21713""
","
","
","""event"",""trial"",""time""
""fullscreenenter"",""0"",""21713""
","
","1324.2000000476837","run_exp/static/images/Set 6_rs/176a.jpg","66","","","","","","test","TF","4"
"","show_choice","298","482490","0.0-245.0-1.0","""event"",""trial"",""time""
""fullscreenenter"",""0"",""21713""
","
","
","""event"",""trial"",""time""
""fullscreenenter"",""0"",""21713""
","
","null","run_exp/static/images/Set 6_rs/176a.jpg","null","","","","","","test","TF",""
"","html-keyboard-response","299","483006","0.0-245.0-2.0","""event"",""trial"",""time""
""fullscreenenter"",""0"",""21713""
","
","
","""event"",""trial"",""time""
""fullscreenenter"",""0"",""21713""
","
","null","<p></p>","null","","","","","","","",""
"","image","300","483736","0.0-246.0-0.0","""event"",""trial"",""time""
""fullscreenenter"",""0"",""21713""
","
","
","""event"",""trial"",""time""
""fullscreenenter"",""0"",""21713""
","
","728","run_exp/static/images/Set 6_rs/112a.jpg","86","","","","","","test","TR","5"
"","show_choice","301","484241","0.0-246.0-1.0","""event"",""trial"",""time""
""fullscreenenter"",""0"",""21713""
","
","
","""event"",""trial"",""time""
""fullscreenenter"",""0"",""21713""
","
","null","run_exp/static/images/Set 6_rs/112a.jpg","null","","","","","","test","TR",""
"","html-keyboard-response","302","484755","0.0-246.0-2.0","""event"",""trial"",""time""
""fullscreenenter"",""0"",""21713""
","
","
","""event"",""trial"",""time""
""fullscreenenter"",""0"",""21713""
","
","null","<p></p>","null","","","","","","","",""
"","image","303","485829","0.0-247.0-0.0","""event"",""trial"",""time""
""fullscreenenter"",""0"",""21713""
","
","
","""event"",""trial"",""time""
""fullscreenenter"",""0"",""21713""
","
","1072.5","run_exp/static/images/Set 6_rs/050b.jpg","66","","","","","","test","TL","3"
"","show_choice","304","486338","0.0-247.0-1.0","""event"",""trial"",""time""
""fullscreenenter"",""0"",""21713""
","
","
","""event"",""trial"",""time""
""fullscreenenter"",""0"",""21713""
","
","null","run_exp/static/images/Set 6_rs/050b.jpg","null","","","","","","test","TL",""
"","html-keyboard-response","305","486855","0.0-247.0-2.0","""event"",""trial"",""time""
""fullscreenenter"",""0"",""21713""
","
","
","""event"",""trial"",""time""
""fullscreenenter"",""0"",""21713""
","
","null","<p></p>","null","","","","","","","",""
"","image","306","487703","0.0-248.0-0.0","""event"",""trial"",""time""
""fullscreenenter"",""0"",""21713""
","
","
","""event"",""trial"",""time""
""fullscreenenter"",""0"",""21713""
","
","846.6999999284744","run_exp/static/images/Set 6_rs/078a.jpg","78","","","","","","test","TF","1"
"","show_choice","307","488207","0.0-248.0-1.0","""event"",""trial"",""time""
""fullscreenenter"",""0"",""21713""
","
","
","""event"",""trial"",""time""
""fullscreenenter"",""0"",""21713""
","
","null","run_exp/static/images/Set 6_rs/078a.jpg","null","","","","","","test","TF",""
"","html-keyboard-response","308","488722","0.0-248.0-2.0","""event"",""trial"",""time""
""fullscreenenter"",""0"",""21713""
","
","
","""event"",""trial"",""time""
""fullscreenenter"",""0"",""21713""
","
","null","<p></p>","null","","","","","","","",""
"","image","309","490288","0.0-249.0-0.0","""event"",""trial"",""time""
""fullscreenenter"",""0"",""21713""
","
","
","""event"",""trial"",""time""
""fullscreenenter"",""0"",""21713""
","
","1564.2000000476837","run_exp/static/images/Set 6_rs/017b.jpg","86","","","","","","test","TL","3"
"","show_choice","310","490804","0.0-249.0-1.0","""event"",""trial"",""time""
""fullscreenenter"",""0"",""21713""
","
","
","""event"",""trial"",""time""
""fullscreenenter"",""0"",""21713""
","
","null","run_exp/static/images/Set 6_rs/017b.jpg","null","","","","","","test","TL",""
"","html-keyboard-response","311","491306","0.0-249.0-2.0","""event"",""trial"",""time""
""fullscreenenter"",""0"",""21713""
","
","
","""event"",""trial"",""time""
""fullscreenenter"",""0"",""21713""
","
","null","<p></p>","null","","","","","","","",""
"","image","312","492242","0.0-250.0-0.0","""event"",""trial"",""time""
""fullscreenenter"",""0"",""21713""
","
","
","""event"",""trial"",""time""
""fullscreenenter"",""0"",""21713""
","
","934.1999999284744","run_exp/static/images/Set 6_rs/118a.jpg","78","","","","","","test","TF","5"
"","show_choice","313","492754","0.0-250.0-1.0","""event"",""trial"",""time""
""fullscreenenter"",""0"",""21713""
","
","
","""event"",""trial"",""time""
""fullscreenenter"",""0"",""21713""
","
","null","run_exp/static/images/Set 6_rs/118a.jpg","null","","","","","","test","TF",""
"","html-keyboard-response","314","493271","0.0-250.0-2.0","""event"",""trial"",""time""
""fullscreenenter"",""0"",""21713""
","
","
","""event"",""trial"",""time""
""fullscreenenter"",""0"",""21713""
","
","null","<p></p>","null","","","","","","","",""
"","image","315","494410","0.0-251.0-0.0","""event"",""trial"",""time""
""fullscreenenter"",""0"",""21713""
","
","
","""event"",""trial"",""time""
""fullscreenenter"",""0"",""21713""
","
","1137.2000000476837","run_exp/static/images/Set 6_rs/024a.jpg","86","","","","","","test","TR","5"
"","show_choice","316","494920","0.0-251.0-1.0","""event"",""trial"",""time""
""fullscreenenter"",""0"",""21713""
","
","
","""event"",""trial"",""time""
""fullscreenenter"",""0"",""21713""
","
","null","run_exp/static/images/Set 6_rs/024a.jpg","null","","","","","","test","TR",""
"","html-keyboard-response","317","495437","0.0-251.0-2.0","""event"",""trial"",""time""
""fullscreenenter"",""0"",""21713""
","
","
","""event"",""trial"",""time""
""fullscreenenter"",""0"",""21713""
","
","null","<p></p>","null","","","","","","","",""
"","image","318","496252","0.0-252.0-0.0","""event"",""trial"",""time""
""fullscreenenter"",""0"",""21713""
","
","
","""event"",""trial"",""time""
""fullscreenenter"",""0"",""21713""
","
","814","run_exp/static/images/Set 6_rs/010a.jpg","86","","","","","","test","TR","5"
"","show_choice","319","496754","0.0-252.0-1.0","""event"",""trial"",""time""
""fullscreenenter"",""0"",""21713""
","
","
","""event"",""trial"",""time""
""fullscreenenter"",""0"",""21713""
","
","null","run_exp/static/images/Set 6_rs/010a.jpg","null","","","","","","test","TR",""
"","html-keyboard-response","320","497271","0.0-252.0-2.0","""event"",""trial"",""time""
""fullscreenenter"",""0"",""21713""
","
","
","""event"",""trial"",""time""
""fullscreenenter"",""0"",""21713""
","
","null","<p></p>","null","","","","","","","",""
"","image","321","498170","0.0-253.0-0.0","""event"",""trial"",""time""
""fullscreenenter"",""0"",""21713""
","
","
","""event"",""trial"",""time""
""fullscreenenter"",""0"",""21713""
","
","897.2000000476837","run_exp/static/images/Set 6_rs/047a.jpg","66","","","","","","test","TF","3"
"","show_choice","322","498687","0.0-253.0-1.0","""event"",""trial"",""time""
""fullscreenenter"",""0"",""21713""
","
","
","""event"",""trial"",""time""
""fullscreenenter"",""0"",""21713""
","
","null","run_exp/static/images/Set 6_rs/047a.jpg","null","","","","","","test","TF",""
"","html-keyboard-response","323","499194","0.0-253.0-2.0","""event"",""trial"",""time""
""fullscreenenter"",""0"",""21713""
","
","
","""event"",""trial"",""time""
""fullscreenenter"",""0"",""21713""
","
","null","<p></p>","null","","","","","","","",""
"","image","324","500590","0.0-254.0-0.0","""event"",""trial"",""time""
""fullscreenenter"",""0"",""21713""
","
","
","""event"",""trial"",""time""
""fullscreenenter"",""0"",""21713""
","
","1393.7999999523163","run_exp/static/images/Set 6_rs/100a.jpg","66","","","","","","test","TF","2"
"","show_choice","325","501103","0.0-254.0-1.0","""event"",""trial"",""time""
""fullscreenenter"",""0"",""21713""
","
","
","""event"",""trial"",""time""
""fullscreenenter"",""0"",""21713""
","
","null","run_exp/static/images/Set 6_rs/100a.jpg","null","","","","","","test","TF",""
"","html-keyboard-response","326","501604","0.0-254.0-2.0","""event"",""trial"",""time""
""fullscreenenter"",""0"",""21713""
","
","
","""event"",""trial"",""time""
""fullscreenenter"",""0"",""21713""
","
","null","<p></p>","null","","","","","","","",""
"","image","327","502871","0.0-255.0-0.0","""event"",""trial"",""time""
""fullscreenenter"",""0"",""21713""
","
","
","""event"",""trial"",""time""
""fullscreenenter"",""0"",""21713""
","
","1264.4000000953674","run_exp/static/images/Set 6_rs/065a.jpg","78","","","","","","test","TF","3"
"","show_choice","328","503386","0.0-255.0-1.0","""event"",""trial"",""time""
""fullscreenenter"",""0"",""21713""
","
","
","""event"",""trial"",""time""
""fullscreenenter"",""0"",""21713""
","
","null","run_exp/static/images/Set 6_rs/065a.jpg","null","","","","","","test","TF",""
"","html-keyboard-response","329","503902","0.0-255.0-2.0","""event"",""trial"",""time""
""fullscreenenter"",""0"",""21713""
","
","
","""event"",""trial"",""time""
""fullscreenenter"",""0"",""21713""
","
","null","<p></p>","null","","","","","","","",""
"","image","330","504889","0.0-256.0-0.0","""event"",""trial"",""time""
""fullscreenenter"",""0"",""21713""
","
","
","""event"",""trial"",""time""
""fullscreenenter"",""0"",""21713""
","
","996.5","run_exp/static/images/Set 6_rs/108a.jpg","86","","","","","","test","TR","5"
"","show_choice","331","505392","0.0-256.0-1.0","""event"",""trial"",""time""
""fullscreenenter"",""0"",""21713""
","
","
","""event"",""trial"",""time""
""fullscreenenter"",""0"",""21713""
","
","null","run_exp/static/images/Set 6_rs/108a.jpg","null","","","","","","test","TR",""
"","html-keyboard-response","332","505909","0.0-256.0-2.0","""event"",""trial"",""time""
""fullscreenenter"",""0"",""21713""
","
","
","""event"",""trial"",""time""
""fullscreenenter"",""0"",""21713""
","
","null","<p></p>","null","","","","","","","",""
"","image","333","506783","0.0-257.0-0.0","""event"",""trial"",""time""
""fullscreenenter"",""0"",""21713""
","
","
","""event"",""trial"",""time""
""fullscreenenter"",""0"",""21713""
","
","872.2999999523163","run_exp/static/images/Set 6_rs/028a.jpg","78","","","","","","test","TF","1"
"","show_choice","334","507289","0.0-257.0-1.0","""event"",""trial"",""time""
""fullscreenenter"",""0"",""21713""
","
","
","""event"",""trial"",""time""
""fullscreenenter"",""0"",""21713""
","
","null","run_exp/static/images/Set 6_rs/028a.jpg","null","","","","","","test","TF",""
"","html-keyboard-response","335","507792","0.0-257.0-2.0","""event"",""trial"",""time""
""fullscreenenter"",""0"",""21713""
","
","
","""event"",""trial"",""time""
""fullscreenenter"",""0"",""21713""
","
","null","<p></p>","null","","","","","","","",""
"","image","336","508866","0.0-258.0-0.0","""event"",""trial"",""time""
""fullscreenenter"",""0"",""21713""
","
","
","""event"",""trial"",""time""
""fullscreenenter"",""0"",""21713""
","
","1073.3000000715256","run_exp/static/images/Set 6_rs/071b.jpg","66","","","","","","test","TL","4"
"","show_choice","337","509374","0.0-258.0-1.0","""event"",""trial"",""time""
""fullscreenenter"",""0"",""21713""
","
","
","""event"",""trial"",""time""
""fullscreenenter"",""0"",""21713""
","
","null","run_exp/static/images/Set 6_rs/071b.jpg","null","","","","","","test","TL",""
