"success","trial_type","trial_index","time_elapsed","internal_node_id","interactions","blur_events","focus_events","fullscreenenter_events","fullscreenexit_events","rt","stimulus","key_press","subject_id","participant_id","age","gender","prompt","phase","condition","lure_bin"
"true","fullscreen","0","26052","0.0-0.0","""event"",""trial"",""time""
""fullscreenenter"",""0"",""25096""
","
","
","""event"",""trial"",""time""
""fullscreenenter"",""0"",""25096""
","
","","","","","","","","","","",""
"","pavlovia","1","26055","0.0-1.0","""event"",""trial"",""time""
""fullscreenenter"",""0"",""25096""
","
","
","""event"",""trial"",""time""
""fullscreenenter"",""0"",""25096""
","
","","","","","","","","","","",""
"","welcome","2","60840","0.0-2.0","""event"",""trial"",""time""
""fullscreenenter"",""0"",""25096""
","
","
","""event"",""trial"",""time""
""fullscreenenter"",""0"",""25096""
","
","null","run_exp/static/audio/clip_1_welcome.m4a","null","548","104","11","Female","<div class='center'><p>Welcome to the third part of the study! First, you'll be shown pictures of items one at a time. For each picture, you have to decide if the item is typically found indoors or outdoors.</p><p>If you think it's usually found indoors, then press <b>v</b> key on your keyboard. If you think it's usually found outdoors, then press the <b>n</b> key.There will be reminders on the screen to help you remember which keys to press. </p><p>If you're not sure whether the item is an indoor item or an outdoor item, go ahead and take a guess but try your best not to skip that choice. </p></div>","","",""
"","html-keyboard-response","3","62017","0.0-3.0","""event"",""trial"",""time""
""fullscreenenter"",""0"",""25096""
","
","
","""event"",""trial"",""time""
""fullscreenenter"",""0"",""25096""
","
","1173.3999999761581","<div class='center'><p>Welcome to the third part of the study! First, you'll be shown pictures of items one at a time. For each picture, you have to decide if the item is typically found indoors or outdoors.</p><p>If you think it's usually found indoors, then press <b>v</b> key on your keyboard. If you think it's usually found outdoors, then press the <b>n</b> key.There will be reminders on the screen to help you remember which keys to press. </p><p>If you're not sure whether the item is an indoor item or an outdoor item, go ahead and take a guess but try your best not to skip that choice. </p><div><p><b>[Press the space bar to continue]</b></p></div>","32","","","","","","","",""
"","image","4","64035","0.0-4.0","""event"",""trial"",""time""
""fullscreenenter"",""0"",""25096""
","
","
","""event"",""trial"",""time""
""fullscreenenter"",""0"",""25096""
","
","null","run_exp/static/images/Set 6_rs/177a.jpg","null","","","","","","learn","SR",""
"","show_choice","5","66047","0.0-5.0","""event"",""trial"",""time""
""fullscreenenter"",""0"",""25096""
","
","
","""event"",""trial"",""time""
""fullscreenenter"",""0"",""25096""
","
","null","run_exp/static/images/blank.png","null","","","","","","learn","SR",""
"","html-keyboard-response","6","66567","0.0-6.0","""event"",""trial"",""time""
""fullscreenenter"",""0"",""25096""
","
","
","""event"",""trial"",""time""
""fullscreenenter"",""0"",""25096""
","
","null","<p></p>","null","","","","","","","",""
"","image","7","68587","0.0-7.0","""event"",""trial"",""time""
""fullscreenenter"",""0"",""25096""
","
","
","""event"",""trial"",""time""
""fullscreenenter"",""0"",""25096""
","
","null","run_exp/static/images/Set 6_rs/168a.jpg","null","","","","","","learn","SL",""
"","show_choice","8","70604","0.0-8.0","""event"",""trial"",""time""
""fullscreenenter"",""0"",""25096""
","
","
","""event"",""trial"",""time""
""fullscreenenter"",""0"",""25096""
","
","null","run_exp/static/images/blank.png","null","","","","","","learn","SL",""
"","html-keyboard-response","9","71120","0.0-9.0","""event"",""trial"",""time""
""fullscreenenter"",""0"",""25096""
","
","
","""event"",""trial"",""time""
""fullscreenenter"",""0"",""25096""
","
","null","<p></p>","null","","","","","","","",""
"","image","10","72639","0.0-10.0","""event"",""trial"",""time""
""fullscreenenter"",""0"",""25096""
","
","
","""event"",""trial"",""time""
""fullscreenenter"",""0"",""25096""
","
","1516.7000000476837","run_exp/static/images/Set 6_rs/178a.jpg","78","","","","","","learn","SR",""
"","show_choice","11","73139","0.0-11.0","""event"",""trial"",""time""
""fullscreenenter"",""0"",""25096""
","
","
","""event"",""trial"",""time""
""fullscreenenter"",""0"",""25096""
","
","null","run_exp/static/images/Set 6_rs/178a.jpg","null","","","","","","learn","SR",""
"","html-keyboard-response","12","73654","0.0-12.0","""event"",""trial"",""time""
""fullscreenenter"",""0"",""25096""
","
","
","""event"",""trial"",""time""
""fullscreenenter"",""0"",""25096""
","
","null","<p></p>","null","","","","","","","",""
"","image","13","75070","0.0-13.0","""event"",""trial"",""time""
""fullscreenenter"",""0"",""25096""
","
","
","""event"",""trial"",""time""
""fullscreenenter"",""0"",""25096""
","
","1413.7000000476837","run_exp/static/images/Set 6_rs/123a.jpg","78","","","","","","learn","SL",""
"","show_choice","14","75665","0.0-14.0","""event"",""trial"",""time""
""fullscreenenter"",""0"",""25096""
","
","
","""event"",""trial"",""time""
""fullscreenenter"",""0"",""25096""
","
","null","run_exp/static/images/Set 6_rs/123a.jpg","null","","","","","","learn","SL",""
"","html-keyboard-response","15","76169","0.0-15.0","""event"",""trial"",""time""
""fullscreenenter"",""0"",""25096""
","
","
","""event"",""trial"",""time""
""fullscreenenter"",""0"",""25096""
","
","null","<p></p>","null","","","","","","","",""
"","image","16","77725","0.0-16.0","""event"",""trial"",""time""
""fullscreenenter"",""0"",""25096""
","
","
","""event"",""trial"",""time""
""fullscreenenter"",""0"",""25096""
","
","1554.6999999284744","run_exp/static/images/Set 6_rs/191a.jpg","78","","","","","","learn","SL",""
"","show_choice","17","78175","0.0-17.0","""event"",""trial"",""time""
""fullscreenenter"",""0"",""25096""
","
","
","""event"",""trial"",""time""
""fullscreenenter"",""0"",""25096""
","
","null","run_exp/static/images/Set 6_rs/191a.jpg","null","","","","","","learn","SL",""
"","html-keyboard-response","18","78684","0.0-18.0","""event"",""trial"",""time""
""fullscreenenter"",""0"",""25096""
","
","
","""event"",""trial"",""time""
""fullscreenenter"",""0"",""25096""
","
","null","<p></p>","null","","","","","","","",""
"","image","19","80503","0.0-19.0","""event"",""trial"",""time""
""fullscreenenter"",""0"",""25096""
","
","
","""event"",""trial"",""time""
""fullscreenenter"",""0"",""25096""
","
","1817","run_exp/static/images/Set 6_rs/017a.jpg","86","","","","","","learn","SL",""
"","show_choice","20","80692","0.0-20.0","""event"",""trial"",""time""
""fullscreenenter"",""0"",""25096""
","
","
","""event"",""trial"",""time""
""fullscreenenter"",""0"",""25096""
","
","null","run_exp/static/images/Set 6_rs/017a.jpg","null","","","","","","learn","SL",""
"","html-keyboard-response","21","81194","0.0-21.0","""event"",""trial"",""time""
""fullscreenenter"",""0"",""25096""
","
","
","""event"",""trial"",""time""
""fullscreenenter"",""0"",""25096""
","
","null","<p></p>","null","","","","","","","",""
"","image","22","82541","0.0-22.0","""event"",""trial"",""time""
""fullscreenenter"",""0"",""25096""
","
","
","""event"",""trial"",""time""
""fullscreenenter"",""0"",""25096""
","
","1345.7000000476837","run_exp/static/images/Set 6_rs/111a.jpg","86","","","","","","learn","SL",""
"","show_choice","23","83210","0.0-23.0","""event"",""trial"",""time""
""fullscreenenter"",""0"",""25096""
","
","
","""event"",""trial"",""time""
""fullscreenenter"",""0"",""25096""
","
","null","run_exp/static/images/Set 6_rs/111a.jpg","null","","","","","","learn","SL",""
"","html-keyboard-response","24","83720","0.0-24.0","""event"",""trial"",""time""
""fullscreenenter"",""0"",""25096""
","
","
","""event"",""trial"",""time""
""fullscreenenter"",""0"",""25096""
","
","null","<p></p>","null","","","","","","","",""
"","image","25","84839","0.0-25.0","""event"",""trial"",""time""
""fullscreenenter"",""0"",""25096""
","
","
","""event"",""trial"",""time""
""fullscreenenter"",""0"",""25096""
","
","1118","run_exp/static/images/Set 6_rs/132a.jpg","78","","","","","","learn","SR",""
"","show_choice","26","85733","0.0-26.0","""event"",""trial"",""time""
""fullscreenenter"",""0"",""25096""
","
","
","""event"",""trial"",""time""
""fullscreenenter"",""0"",""25096""
","
","null","run_exp/static/images/Set 6_rs/132a.jpg","null","","","","","","learn","SR",""
"","html-keyboard-response","27","86239","0.0-27.0","""event"",""trial"",""time""
""fullscreenenter"",""0"",""25096""
","
","
","""event"",""trial"",""time""
""fullscreenenter"",""0"",""25096""
","
","null","<p></p>","null","","","","","","","",""
"","image","28","87797","0.0-28.0","""event"",""trial"",""time""
""fullscreenenter"",""0"",""25096""
","
","
","""event"",""trial"",""time""
""fullscreenenter"",""0"",""25096""
","
","1556.7000000476837","run_exp/static/images/Set 6_rs/008a.jpg","86","","","","","","learn","SL",""
"","show_choice","29","88242","0.0-29.0","""event"",""trial"",""time""
""fullscreenenter"",""0"",""25096""
","
","
","""event"",""trial"",""time""
""fullscreenenter"",""0"",""25096""
","
","null","run_exp/static/images/Set 6_rs/008a.jpg","null","","","","","","learn","SL",""
"","html-keyboard-response","30","88750","0.0-30.0","""event"",""trial"",""time""
""fullscreenenter"",""0"",""25096""
","
","
","""event"",""trial"",""time""
""fullscreenenter"",""0"",""25096""
","
","null","<p></p>","null","","","","","","","",""
"","image","31","89807","0.0-31.0","""event"",""trial"",""time""
""fullscreenenter"",""0"",""25096""
","
","
","""event"",""trial"",""time""
""fullscreenenter"",""0"",""25096""
","
","1054.1000000238419","run_exp/static/images/Set 6_rs/150a.jpg","86","","","","","","learn","SR",""
"","show_choice","32","90766","0.0-32.0","""event"",""trial"",""time""
""fullscreenenter"",""0"",""25096""
","
","
","""event"",""trial"",""time""
""fullscreenenter"",""0"",""25096""
","
","null","run_exp/static/images/Set 6_rs/150a.jpg","null","","","","","","learn","SR",""
"","html-keyboard-response","33","91270","0.0-33.0","""event"",""trial"",""time""
""fullscreenenter"",""0"",""25096""
","
","
","""event"",""trial"",""time""
""fullscreenenter"",""0"",""25096""
","
","null","<p></p>","null","","","","","","","",""
"","image","34","92310","0.0-34.0","""event"",""trial"",""time""
""fullscreenenter"",""0"",""25096""
","
","
","""event"",""trial"",""time""
""fullscreenenter"",""0"",""25096""
","
","1037.7999999523163","run_exp/static/images/Set 6_rs/134a.jpg","86","","","","","","learn","SR",""
"","show_choice","35","93277","0.0-35.0","""event"",""trial"",""time""
""fullscreenenter"",""0"",""25096""
","
","
","""event"",""trial"",""time""
""fullscreenenter"",""0"",""25096""
","
","null","run_exp/static/images/Set 6_rs/134a.jpg","null","","","","","","learn","SR",""
"","html-keyboard-response","36","93786","0.0-36.0","""event"",""trial"",""time""
""fullscreenenter"",""0"",""25096""
","
","
","""event"",""trial"",""time""
""fullscreenenter"",""0"",""25096""
","
","null","<p></p>","null","","","","","","","",""
"","image","37","94606","0.0-37.0","""event"",""trial"",""time""
""fullscreenenter"",""0"",""25096""
","
","
","""event"",""trial"",""time""
""fullscreenenter"",""0"",""25096""
","
","818.2999999523163","run_exp/static/images/Set 6_rs/108a.jpg","78","","","","","","learn","SR",""
"","show_choice","38","95808","0.0-38.0","""event"",""trial"",""time""
""fullscreenenter"",""0"",""25096""
","
","
","""event"",""trial"",""time""
""fullscreenenter"",""0"",""25096""
","
","null","run_exp/static/images/Set 6_rs/108a.jpg","null","","","","","","learn","SR",""
"","html-keyboard-response","39","96320","0.0-39.0","""event"",""trial"",""time""
""fullscreenenter"",""0"",""25096""
","
","
","""event"",""trial"",""time""
""fullscreenenter"",""0"",""25096""
","
","null","<p></p>","null","","","","","","","",""
"","image","40","97021","0.0-40.0","""event"",""trial"",""time""
""fullscreenenter"",""0"",""25096""
","
","
","""event"",""trial"",""time""
""fullscreenenter"",""0"",""25096""
","
","699.1999999284744","run_exp/static/images/Set 6_rs/010a.jpg","86","","","","","","learn","SR",""
"","show_choice","41","98324","0.0-41.0","""event"",""trial"",""time""
""fullscreenenter"",""0"",""25096""
","
","
","""event"",""trial"",""time""
""fullscreenenter"",""0"",""25096""
","
","null","run_exp/static/images/Set 6_rs/010a.jpg","null","","","","","","learn","SR",""
"","html-keyboard-response","42","98835","0.0-42.0","""event"",""trial"",""time""
""fullscreenenter"",""0"",""25096""
","
","
","""event"",""trial"",""time""
""fullscreenenter"",""0"",""25096""
","
","null","<p></p>","null","","","","","","","",""
"","image","43","99686","0.0-43.0","""event"",""trial"",""time""
""fullscreenenter"",""0"",""25096""
","
","
","""event"",""trial"",""time""
""fullscreenenter"",""0"",""25096""
","
","849.1999999284744","run_exp/static/images/Set 6_rs/024a.jpg","86","","","","","","learn","SR",""
"","show_choice","44","100843","0.0-44.0","""event"",""trial"",""time""
""fullscreenenter"",""0"",""25096""
","
","
","""event"",""trial"",""time""
""fullscreenenter"",""0"",""25096""
","
","null","run_exp/static/images/Set 6_rs/024a.jpg","null","","","","","","learn","SR",""
"","html-keyboard-response","45","101352","0.0-45.0","""event"",""trial"",""time""
""fullscreenenter"",""0"",""25096""
","
","
","""event"",""trial"",""time""
""fullscreenenter"",""0"",""25096""
","
","null","<p></p>","null","","","","","","","",""
"","image","46","102415","0.0-46.0","""event"",""trial"",""time""
""fullscreenenter"",""0"",""25096""
","
","
","""event"",""trial"",""time""
""fullscreenenter"",""0"",""25096""
","
","1061.5","run_exp/static/images/Set 6_rs/025a.jpg","78","","","","","","learn","SL",""
"","show_choice","47","103361","0.0-47.0","""event"",""trial"",""time""
""fullscreenenter"",""0"",""25096""
","
","
","""event"",""trial"",""time""
""fullscreenenter"",""0"",""25096""
","
","null","run_exp/static/images/Set 6_rs/025a.jpg","null","","","","","","learn","SL",""
"","html-keyboard-response","48","103870","0.0-48.0","""event"",""trial"",""time""
""fullscreenenter"",""0"",""25096""
","
","
","""event"",""trial"",""time""
""fullscreenenter"",""0"",""25096""
","
","null","<p></p>","null","","","","","","","",""
"","image","49","104630","0.0-49.0","""event"",""trial"",""time""
""fullscreenenter"",""0"",""25096""
","
","
","""event"",""trial"",""time""
""fullscreenenter"",""0"",""25096""
","
","758.6000000238419","run_exp/static/images/Set 6_rs/186a.jpg","86","","","","","","learn","SR",""
"","show_choice","50","105882","0.0-50.0","""event"",""trial"",""time""
""fullscreenenter"",""0"",""25096""
","
","
","""event"",""trial"",""time""
""fullscreenenter"",""0"",""25096""
","
","null","run_exp/static/images/Set 6_rs/186a.jpg","null","","","","","","learn","SR",""
"","html-keyboard-response","51","106388","0.0-51.0","""event"",""trial"",""time""
""fullscreenenter"",""0"",""25096""
","
","
","""event"",""trial"",""time""
""fullscreenenter"",""0"",""25096""
","
","null","<p></p>","null","","","","","","","",""
"","image","52","107336","0.0-52.0","""event"",""trial"",""time""
""fullscreenenter"",""0"",""25096""
","
","
","""event"",""trial"",""time""
""fullscreenenter"",""0"",""25096""
","
","947.2000000476837","run_exp/static/images/Set 6_rs/062a.jpg","86","","","","","","learn","SL",""
"","show_choice","53","108405","0.0-53.0","""event"",""trial"",""time""
""fullscreenenter"",""0"",""25096""
","
","
","""event"",""trial"",""time""
""fullscreenenter"",""0"",""25096""
","
","null","run_exp/static/images/Set 6_rs/062a.jpg","null","","","","","","learn","SL",""
"","html-keyboard-response","54","108912","0.0-54.0","""event"",""trial"",""time""
""fullscreenenter"",""0"",""25096""
","
","
","""event"",""trial"",""time""
""fullscreenenter"",""0"",""25096""
","
","null","<p></p>","null","","","","","","","",""
"","image","55","109550","0.0-55.0","""event"",""trial"",""time""
""fullscreenenter"",""0"",""25096""
","
","
","""event"",""trial"",""time""
""fullscreenenter"",""0"",""25096""
","
","636.8999999761581","run_exp/static/images/Set 6_rs/070a.jpg","86","","","","","","learn","SR",""
"","show_choice","56","110926","0.0-56.0","""event"",""trial"",""time""
""fullscreenenter"",""0"",""25096""
","
","
","""event"",""trial"",""time""
""fullscreenenter"",""0"",""25096""
","
","null","run_exp/static/images/Set 6_rs/070a.jpg","null","","","","","","learn","SR",""
"","html-keyboard-response","57","111437","0.0-57.0","""event"",""trial"",""time""
""fullscreenenter"",""0"",""25096""
","
","
","""event"",""trial"",""time""
""fullscreenenter"",""0"",""25096""
","
","null","<p></p>","null","","","","","","","",""
"","image","58","112333","0.0-58.0","""event"",""trial"",""time""
""fullscreenenter"",""0"",""25096""
","
","
","""event"",""trial"",""time""
""fullscreenenter"",""0"",""25096""
","
","894.7999999523163","run_exp/static/images/Set 6_rs/141a.jpg","86","","","","","","learn","SR",""
"","show_choice","59","113448","0.0-59.0","""event"",""trial"",""time""
""fullscreenenter"",""0"",""25096""
","
","
","""event"",""trial"",""time""
""fullscreenenter"",""0"",""25096""
","
","null","run_exp/static/images/Set 6_rs/141a.jpg","null","","","","","","learn","SR",""
"","html-keyboard-response","60","113955","0.0-60.0","""event"",""trial"",""time""
""fullscreenenter"",""0"",""25096""
","
","
","""event"",""trial"",""time""
""fullscreenenter"",""0"",""25096""
","
","null","<p></p>","null","","","","","","","",""
"","image","61","114638","0.0-61.0","""event"",""trial"",""time""
""fullscreenenter"",""0"",""25096""
","
","
","""event"",""trial"",""time""
""fullscreenenter"",""0"",""25096""
","
","682","run_exp/static/images/Set 6_rs/112a.jpg","86","","","","","","learn","SR",""
"","show_choice","62","115960","0.0-62.0","""event"",""trial"",""time""
""fullscreenenter"",""0"",""25096""
","
","
","""event"",""trial"",""time""
""fullscreenenter"",""0"",""25096""
","
","null","run_exp/static/images/Set 6_rs/112a.jpg","null","","","","","","learn","SR",""
"","html-keyboard-response","63","116469","0.0-63.0","""event"",""trial"",""time""
""fullscreenenter"",""0"",""25096""
","
","
","""event"",""trial"",""time""
""fullscreenenter"",""0"",""25096""
","
","null","<p></p>","null","","","","","","","",""
"","image","64","117061","0.0-64.0","""event"",""trial"",""time""
""fullscreenenter"",""0"",""25096""
","
","
","""event"",""trial"",""time""
""fullscreenenter"",""0"",""25096""
","
","590.2999999523163","run_exp/static/images/Set 6_rs/014a.jpg","86","","","","","","learn","SL",""
"","show_choice","65","118474","0.0-65.0","""event"",""trial"",""time""
""fullscreenenter"",""0"",""25096""
","
","
","""event"",""trial"",""time""
""fullscreenenter"",""0"",""25096""
","
","null","run_exp/static/images/Set 6_rs/014a.jpg","null","","","","","","learn","SL",""
"","html-keyboard-response","66","118981","0.0-66.0","""event"",""trial"",""time""
""fullscreenenter"",""0"",""25096""
","
","
","""event"",""trial"",""time""
""fullscreenenter"",""0"",""25096""
","
","null","<p></p>","null","","","","","","","",""
"","image","67","119557","0.0-67.0","""event"",""trial"",""time""
""fullscreenenter"",""0"",""25096""
","
","
","""event"",""trial"",""time""
""fullscreenenter"",""0"",""25096""
","
","574.8999999761581","run_exp/static/images/Set 6_rs/095a.jpg","86","","","","","","learn","SL",""
"","show_choice","68","120987","0.0-68.0","""event"",""trial"",""time""
""fullscreenenter"",""0"",""25096""
","
","
","""event"",""trial"",""time""
""fullscreenenter"",""0"",""25096""
","
","null","run_exp/static/images/Set 6_rs/095a.jpg","null","","","","","","learn","SL",""
"","html-keyboard-response","69","121490","0.0-69.0","""event"",""trial"",""time""
""fullscreenenter"",""0"",""25096""
","
","
","""event"",""trial"",""time""
""fullscreenenter"",""0"",""25096""
","
","null","<p></p>","null","","","","","","","",""
"","image","70","122301","0.0-70.0","""event"",""trial"",""time""
""fullscreenenter"",""0"",""25096""
","
","
","""event"",""trial"",""time""
""fullscreenenter"",""0"",""25096""
","
","809.1000000238419","run_exp/static/images/Set 6_rs/152a.jpg","86","","","","","","learn","SR",""
"","show_choice","71","123495","0.0-71.0","""event"",""trial"",""time""
""fullscreenenter"",""0"",""25096""
","
","
","""event"",""trial"",""time""
""fullscreenenter"",""0"",""25096""
","
","null","run_exp/static/images/Set 6_rs/152a.jpg","null","","","","","","learn","SR",""
"","html-keyboard-response","72","124004","0.0-72.0","""event"",""trial"",""time""
""fullscreenenter"",""0"",""25096""
","
","
","""event"",""trial"",""time""
""fullscreenenter"",""0"",""25096""
","
","null","<p></p>","null","","","","","","","",""
"","image","73","124685","0.0-73.0","""event"",""trial"",""time""
""fullscreenenter"",""0"",""25096""
","
","
","""event"",""trial"",""time""
""fullscreenenter"",""0"",""25096""
","
","680","run_exp/static/images/Set 6_rs/121a.jpg","86","","","","","","learn","SR",""
"","show_choice","74","126006","0.0-74.0","""event"",""trial"",""time""
""fullscreenenter"",""0"",""25096""
","
","
","""event"",""trial"",""time""
""fullscreenenter"",""0"",""25096""
","
","null","run_exp/static/images/Set 6_rs/121a.jpg","null","","","","","","learn","SR",""
"","html-keyboard-response","75","126520","0.0-75.0","""event"",""trial"",""time""
""fullscreenenter"",""0"",""25096""
","
","
","""event"",""trial"",""time""
""fullscreenenter"",""0"",""25096""
","
","null","<p></p>","null","","","","","","","",""
"","image","76","127214","0.0-76.0","""event"",""trial"",""time""
""fullscreenenter"",""0"",""25096""
","
","
","""event"",""trial"",""time""
""fullscreenenter"",""0"",""25096""
","
","692","run_exp/static/images/Set 6_rs/045a.jpg","86","","","","","","learn","SR",""
"","show_choice","77","128539","0.0-77.0","""event"",""trial"",""time""
""fullscreenenter"",""0"",""25096""
","
","
","""event"",""trial"",""time""
""fullscreenenter"",""0"",""25096""
","
","null","run_exp/static/images/Set 6_rs/045a.jpg","null","","","","","","learn","SR",""
"","html-keyboard-response","78","129047","0.0-78.0","""event"",""trial"",""time""
""fullscreenenter"",""0"",""25096""
","
","
","""event"",""trial"",""time""
""fullscreenenter"",""0"",""25096""
","
","null","<p></p>","null","","","","","","","",""
"","image","79","129677","0.0-79.0","""event"",""trial"",""time""
""fullscreenenter"",""0"",""25096""
","
","
","""event"",""trial"",""time""
""fullscreenenter"",""0"",""25096""
","
","629.2000000476837","run_exp/static/images/Set 6_rs/172a.jpg","78","","","","","","learn","SR",""
"","show_choice","80","131049","0.0-80.0","""event"",""trial"",""time""
""fullscreenenter"",""0"",""25096""
","
","
","""event"",""trial"",""time""
""fullscreenenter"",""0"",""25096""
","
","null","run_exp/static/images/Set 6_rs/172a.jpg","null","","","","","","learn","SR",""
"","html-keyboard-response","81","131554","0.0-81.0","""event"",""trial"",""time""
""fullscreenenter"",""0"",""25096""
","
","
","""event"",""trial"",""time""
""fullscreenenter"",""0"",""25096""
","
","null","<p></p>","null","","","","","","","",""
"","image","82","132430","0.0-82.0","""event"",""trial"",""time""
""fullscreenenter"",""0"",""25096""
","
","
","""event"",""trial"",""time""
""fullscreenenter"",""0"",""25096""
","
","874.6000000238419","run_exp/static/images/Set 6_rs/117a.jpg","86","","","","","","learn","SL",""
"","show_choice","83","133564","0.0-83.0","""event"",""trial"",""time""
""fullscreenenter"",""0"",""25096""
","
","
","""event"",""trial"",""time""
""fullscreenenter"",""0"",""25096""
","
","null","run_exp/static/images/Set 6_rs/117a.jpg","null","","","","","","learn","SL",""
"","html-keyboard-response","84","134072","0.0-84.0","""event"",""trial"",""time""
""fullscreenenter"",""0"",""25096""
","
","
","""event"",""trial"",""time""
""fullscreenenter"",""0"",""25096""
","
","null","<p></p>","null","","","","","","","",""
"","image","85","134919","0.0-85.0","""event"",""trial"",""time""
""fullscreenenter"",""0"",""25096""
","
","
","""event"",""trial"",""time""
""fullscreenenter"",""0"",""25096""
","
","844.8999999761581","run_exp/static/images/Set 6_rs/064a.jpg","78","","","","","","learn","SR",""
"","show_choice","86","136085","0.0-86.0","""event"",""trial"",""time""
""fullscreenenter"",""0"",""25096""
","
","
","""event"",""trial"",""time""
""fullscreenenter"",""0"",""25096""
","
","null","run_exp/static/images/Set 6_rs/064a.jpg","null","","","","","","learn","SR",""
"","html-keyboard-response","87","136602","0.0-87.0","""event"",""trial"",""time""
""fullscreenenter"",""0"",""25096""
","
","
","""event"",""trial"",""time""
""fullscreenenter"",""0"",""25096""
","
","null","<p></p>","null","","","","","","","",""
"","image","88","137590","0.0-88.0","""event"",""trial"",""time""
""fullscreenenter"",""0"",""25096""
","
","
","""event"",""trial"",""time""
""fullscreenenter"",""0"",""25096""
","
","986.6000000238419","run_exp/static/images/Set 6_rs/187a.jpg","78","","","","","","learn","SR",""
"","show_choice","89","138608","0.0-89.0","""event"",""trial"",""time""
""fullscreenenter"",""0"",""25096""
","
","
","""event"",""trial"",""time""
""fullscreenenter"",""0"",""25096""
","
","null","run_exp/static/images/Set 6_rs/187a.jpg","null","","","","","","learn","SR",""
"","html-keyboard-response","90","139120","0.0-90.0","""event"",""trial"",""time""
""fullscreenenter"",""0"",""25096""
","
","
","""event"",""trial"",""time""
""fullscreenenter"",""0"",""25096""
","
","null","<p></p>","null","","","","","","","",""
"","image","91","140383","0.0-91.0","""event"",""trial"",""time""
""fullscreenenter"",""0"",""25096""
","
","
","""event"",""trial"",""time""
""fullscreenenter"",""0"",""25096""
","
","1262.2999999523163","run_exp/static/images/Set 6_rs/089a.jpg","78","","","","","","learn","SL",""
"","show_choice","92","141129","0.0-92.0","""event"",""trial"",""time""
""fullscreenenter"",""0"",""25096""
","
","
","""event"",""trial"",""time""
""fullscreenenter"",""0"",""25096""
","
","null","run_exp/static/images/Set 6_rs/089a.jpg","null","","","","","","learn","SL",""
"","html-keyboard-response","93","141638","0.0-93.0","""event"",""trial"",""time""
""fullscreenenter"",""0"",""25096""
","
","
","""event"",""trial"",""time""
""fullscreenenter"",""0"",""25096""
","
","null","<p></p>","null","","","","","","","",""
"","image","94","142502","0.0-94.0","""event"",""trial"",""time""
""fullscreenenter"",""0"",""25096""
","
","
","""event"",""trial"",""time""
""fullscreenenter"",""0"",""25096""
","
","862.2000000476837","run_exp/static/images/Set 6_rs/154a.jpg","86","","","","","","learn","SR",""
"","show_choice","95","143648","0.0-95.0","""event"",""trial"",""time""
""fullscreenenter"",""0"",""25096""
","
","
","""event"",""trial"",""time""
""fullscreenenter"",""0"",""25096""
","
","null","run_exp/static/images/Set 6_rs/154a.jpg","null","","","","","","learn","SR",""
"","html-keyboard-response","96","144155","0.0-96.0","""event"",""trial"",""time""
""fullscreenenter"",""0"",""25096""
","
","
","""event"",""trial"",""time""
""fullscreenenter"",""0"",""25096""
","
","null","<p></p>","null","","","","","","","",""
"","image","97","144935","0.0-97.0","""event"",""trial"",""time""
""fullscreenenter"",""0"",""25096""
","
","
","""event"",""trial"",""time""
""fullscreenenter"",""0"",""25096""
","
","777.5","run_exp/static/images/Set 6_rs/006a.jpg","86","","","","","","learn","SL",""
"","show_choice","98","146166","0.0-98.0","""event"",""trial"",""time""
""fullscreenenter"",""0"",""25096""
","
","
","""event"",""trial"",""time""
""fullscreenenter"",""0"",""25096""
","
","null","run_exp/static/images/Set 6_rs/006a.jpg","null","","","","","","learn","SL",""
"","html-keyboard-response","99","146668","0.0-99.0","""event"",""trial"",""time""
""fullscreenenter"",""0"",""25096""
","
","
","""event"",""trial"",""time""
""fullscreenenter"",""0"",""25096""
","
","null","<p></p>","null","","","","","","","",""
"","image","100","147270","0.0-100.0","""event"",""trial"",""time""
""fullscreenenter"",""0"",""25096""
","
","
","""event"",""trial"",""time""
""fullscreenenter"",""0"",""25096""
","
","599.7000000476837","run_exp/static/images/Set 6_rs/007a.jpg","86","","","","","","learn","SR",""
"","show_choice","101","148684","0.0-101.0","""event"",""trial"",""time""
""fullscreenenter"",""0"",""25096""
","
","
","""event"",""trial"",""time""
""fullscreenenter"",""0"",""25096""
","
","null","run_exp/static/images/Set 6_rs/007a.jpg","null","","","","","","learn","SR",""
"","html-keyboard-response","102","149187","0.0-102.0","""event"",""trial"",""time""
""fullscreenenter"",""0"",""25096""
","
","
","""event"",""trial"",""time""
""fullscreenenter"",""0"",""25096""
","
","null","<p></p>","null","","","","","","","",""
"","image","103","149918","0.0-103.0","""event"",""trial"",""time""
""fullscreenenter"",""0"",""25096""
","
","
","""event"",""trial"",""time""
""fullscreenenter"",""0"",""25096""
","
","729.7999999523163","run_exp/static/images/Set 6_rs/036a.jpg","86","","","","","","learn","SL",""
"","show_choice","104","151194","0.0-104.0","""event"",""trial"",""time""
""fullscreenenter"",""0"",""25096""
","
","
","""event"",""trial"",""time""
""fullscreenenter"",""0"",""25096""
","
","null","run_exp/static/images/Set 6_rs/036a.jpg","null","","","","","","learn","SL",""
"","html-keyboard-response","105","151703","0.0-105.0","""event"",""trial"",""time""
""fullscreenenter"",""0"",""25096""
","
","
","""event"",""trial"",""time""
""fullscreenenter"",""0"",""25096""
","
","null","<p></p>","null","","","","","","","",""
"","image","106","152448","0.0-106.0","""event"",""trial"",""time""
""fullscreenenter"",""0"",""25096""
","
","
","""event"",""trial"",""time""
""fullscreenenter"",""0"",""25096""
","
","744","run_exp/static/images/Set 6_rs/167a.jpg","86","","","","","","learn","SL",""
"","show_choice","107","153706","0.0-107.0","""event"",""trial"",""time""
""fullscreenenter"",""0"",""25096""
","
","
","""event"",""trial"",""time""
""fullscreenenter"",""0"",""25096""
","
","null","run_exp/static/images/Set 6_rs/167a.jpg","null","","","","","","learn","SL",""
"","html-keyboard-response","108","154221","0.0-108.0","""event"",""trial"",""time""
""fullscreenenter"",""0"",""25096""
","
","
","""event"",""trial"",""time""
""fullscreenenter"",""0"",""25096""
","
","null","<p></p>","null","","","","","","","",""
"","image","109","155078","0.0-109.0","""event"",""trial"",""time""
""fullscreenenter"",""0"",""25096""
","
","
","""event"",""trial"",""time""
""fullscreenenter"",""0"",""25096""
","
","855.5","run_exp/static/images/Set 6_rs/074a.jpg","78","","","","","","learn","SL",""
"","show_choice","110","156232","0.0-110.0","""event"",""trial"",""time""
""fullscreenenter"",""0"",""25096""
","
","
","""event"",""trial"",""time""
""fullscreenenter"",""0"",""25096""
","
","null","run_exp/static/images/Set 6_rs/074a.jpg","null","","","","","","learn","SL",""
"","html-keyboard-response","111","156738","0.0-111.0","""event"",""trial"",""time""
""fullscreenenter"",""0"",""25096""
","
","
","""event"",""trial"",""time""
""fullscreenenter"",""0"",""25096""
","
","null","<p></p>","null","","","","","","","",""
"","image","112","157590","0.0-112.0","""event"",""trial"",""time""
""fullscreenenter"",""0"",""25096""
","
","
","""event"",""trial"",""time""
""fullscreenenter"",""0"",""25096""
","
","851.1000000238419","run_exp/static/images/Set 6_rs/122a.jpg","86","","","","","","learn","SR",""
"","show_choice","113","158748","0.0-113.0","""event"",""trial"",""time""
""fullscreenenter"",""0"",""25096""
","
","
","""event"",""trial"",""time""
""fullscreenenter"",""0"",""25096""
","
","null","run_exp/static/images/Set 6_rs/122a.jpg","null","","","","","","learn","SR",""
"","html-keyboard-response","114","159255","0.0-114.0","""event"",""trial"",""time""
""fullscreenenter"",""0"",""25096""
","
","
","""event"",""trial"",""time""
""fullscreenenter"",""0"",""25096""
","
","null","<p></p>","null","","","","","","","",""
"","image","115","160197","0.0-115.0","""event"",""trial"",""time""
""fullscreenenter"",""0"",""25096""
","
","
","""event"",""trial"",""time""
""fullscreenenter"",""0"",""25096""
","
","940.2000000476837","run_exp/static/images/Set 6_rs/061a.jpg","78","","","","","","learn","SR",""
"","show_choice","116","161262","0.0-116.0","""event"",""trial"",""time""
""fullscreenenter"",""0"",""25096""
","
","
","""event"",""trial"",""time""
""fullscreenenter"",""0"",""25096""
","
","null","run_exp/static/images/Set 6_rs/061a.jpg","null","","","","","","learn","SR",""
"","html-keyboard-response","117","161771","0.0-117.0","""event"",""trial"",""time""
""fullscreenenter"",""0"",""25096""
","
","
","""event"",""trial"",""time""
""fullscreenenter"",""0"",""25096""
","
","null","<p></p>","null","","","","","","","",""
"","image","118","162535","0.0-118.0","""event"",""trial"",""time""
""fullscreenenter"",""0"",""25096""
","
","
","""event"",""trial"",""time""
""fullscreenenter"",""0"",""25096""
","
","762.5","run_exp/static/images/Set 6_rs/055a.jpg","86","","","","","","learn","SL",""
"","show_choice","119","163777","0.0-119.0","""event"",""trial"",""time""
""fullscreenenter"",""0"",""25096""
","
","
","""event"",""trial"",""time""
""fullscreenenter"",""0"",""25096""
","
","null","run_exp/static/images/Set 6_rs/055a.jpg","null","","","","","","learn","SL",""
"","html-keyboard-response","120","164287","0.0-120.0","""event"",""trial"",""time""
""fullscreenenter"",""0"",""25096""
","
","
","""event"",""trial"",""time""
""fullscreenenter"",""0"",""25096""
","
","null","<p></p>","null","","","","","","","",""
"","image","121","165087","0.0-121.0","""event"",""trial"",""time""
""fullscreenenter"",""0"",""25096""
","
","
","""event"",""trial"",""time""
""fullscreenenter"",""0"",""25096""
","
","798.6000000238419","run_exp/static/images/Set 6_rs/085a.jpg","78","","","","","","learn","SL",""
"","show_choice","122","166302","0.0-122.0","""event"",""trial"",""time""
""fullscreenenter"",""0"",""25096""
","
","
","""event"",""trial"",""time""
""fullscreenenter"",""0"",""25096""
","
","null","run_exp/static/images/Set 6_rs/085a.jpg","null","","","","","","learn","SL",""
"","html-keyboard-response","123","166804","0.0-123.0","""event"",""trial"",""time""
""fullscreenenter"",""0"",""25096""
","
","
","""event"",""trial"",""time""
""fullscreenenter"",""0"",""25096""
","
","null","<p></p>","null","","","","","","","",""
"","image","124","167533","0.0-124.0","""event"",""trial"",""time""
""fullscreenenter"",""0"",""25096""
","
","
","""event"",""trial"",""time""
""fullscreenenter"",""0"",""25096""
","
","727.5","run_exp/static/images/Set 6_rs/079a.jpg","86","","","","","","learn","SL",""
"","show_choice","125","168815","0.0-125.0","""event"",""trial"",""time""
""fullscreenenter"",""0"",""25096""
","
","
","""event"",""trial"",""time""
""fullscreenenter"",""0"",""25096""
","
","null","run_exp/static/images/Set 6_rs/079a.jpg","null","","","","","","learn","SL",""
"","html-keyboard-response","126","169321","0.0-126.0","""event"",""trial"",""time""
""fullscreenenter"",""0"",""25096""
","
","
","""event"",""trial"",""time""
""fullscreenenter"",""0"",""25096""
","
","null","<p></p>","null","","","","","","","",""
"","image","127","170399","0.0-127.0","""event"",""trial"",""time""
""fullscreenenter"",""0"",""25096""
","
","
","""event"",""trial"",""time""
""fullscreenenter"",""0"",""25096""
","
","1076","run_exp/static/images/Set 6_rs/071a.jpg","86","","","","","","learn","SL",""
"","show_choice","128","171334","0.0-128.0","""event"",""trial"",""time""
""fullscreenenter"",""0"",""25096""
","
","
","""event"",""trial"",""time""
""fullscreenenter"",""0"",""25096""
","
","null","run_exp/static/images/Set 6_rs/071a.jpg","null","","","","","","learn","SL",""
"","html-keyboard-response","129","171838","0.0-129.0","""event"",""trial"",""time""
""fullscreenenter"",""0"",""25096""
","
","
","""event"",""trial"",""time""
""fullscreenenter"",""0"",""25096""
","
","null","<p></p>","null","","","","","","","",""
"","image","130","173023","0.0-130.0","""event"",""trial"",""time""
""fullscreenenter"",""0"",""25096""
","
","
","""event"",""trial"",""time""
""fullscreenenter"",""0"",""25096""
","
","1184.6000000238419","run_exp/static/images/Set 6_rs/075a.jpg","78","","","","","","learn","SR",""
"","show_choice","131","173849","0.0-131.0","""event"",""trial"",""time""
""fullscreenenter"",""0"",""25096""
","
","
","""event"",""trial"",""time""
""fullscreenenter"",""0"",""25096""
","
","null","run_exp/static/images/Set 6_rs/075a.jpg","null","","","","","","learn","SR",""
"","html-keyboard-response","132","174356","0.0-132.0","""event"",""trial"",""time""
""fullscreenenter"",""0"",""25096""
","
","
","""event"",""trial"",""time""
""fullscreenenter"",""0"",""25096""
","
","null","<p></p>","null","","","","","","","",""
"","image","133","175351","0.0-133.0","""event"",""trial"",""time""
""fullscreenenter"",""0"",""25096""
","
","
","""event"",""trial"",""time""
""fullscreenenter"",""0"",""25096""
","
","993.6000000238419","run_exp/static/images/Set 6_rs/023a.jpg","86","","","","","","learn","SR",""
"","show_choice","134","176359","0.0-134.0","""event"",""trial"",""time""
""fullscreenenter"",""0"",""25096""
","
","
","""event"",""trial"",""time""
""fullscreenenter"",""0"",""25096""
","
","null","run_exp/static/images/Set 6_rs/023a.jpg","null","","","","","","learn","SR",""
"","html-keyboard-response","135","176870","0.0-135.0","""event"",""trial"",""time""
""fullscreenenter"",""0"",""25096""
","
","
","""event"",""trial"",""time""
""fullscreenenter"",""0"",""25096""
","
","null","<p></p>","null","","","","","","","",""
"","image","136","177575","0.0-136.0","""event"",""trial"",""time""
""fullscreenenter"",""0"",""25096""
","
","
","""event"",""trial"",""time""
""fullscreenenter"",""0"",""25096""
","
","703.6000000238419","run_exp/static/images/Set 6_rs/166a.jpg","78","","","","","","learn","SR",""
"","show_choice","137","178878","0.0-137.0","""event"",""trial"",""time""
""fullscreenenter"",""0"",""25096""
","
","
","""event"",""trial"",""time""
""fullscreenenter"",""0"",""25096""
","
","null","run_exp/static/images/Set 6_rs/166a.jpg","null","","","","","","learn","SR",""
"","html-keyboard-response","138","179387","0.0-138.0","""event"",""trial"",""time""
""fullscreenenter"",""0"",""25096""
","
","
","""event"",""trial"",""time""
""fullscreenenter"",""0"",""25096""
","
","null","<p></p>","null","","","","","","","",""
"","image","139","180237","0.0-139.0","""event"",""trial"",""time""
""fullscreenenter"",""0"",""25096""
","
","
","""event"",""trial"",""time""
""fullscreenenter"",""0"",""25096""
","
","848.7999999523163","run_exp/static/images/Set 6_rs/088a.jpg","86","","","","","","learn","SR",""
"","show_choice","140","181402","0.0-140.0","""event"",""trial"",""time""
""fullscreenenter"",""0"",""25096""
","
","
","""event"",""trial"",""time""
""fullscreenenter"",""0"",""25096""
","
","null","run_exp/static/images/Set 6_rs/088a.jpg","null","","","","","","learn","SR",""
"","html-keyboard-response","141","181904","0.0-141.0","""event"",""trial"",""time""
""fullscreenenter"",""0"",""25096""
","
","
","""event"",""trial"",""time""
""fullscreenenter"",""0"",""25096""
","
","null","<p></p>","null","","","","","","","",""
"","image","142","182550","0.0-142.0","""event"",""trial"",""time""
""fullscreenenter"",""0"",""25096""
","
","
","""event"",""trial"",""time""
""fullscreenenter"",""0"",""25096""
","
","644.2999999523163","run_exp/static/images/Set 6_rs/138a.jpg","78","","","","","","learn","SL",""
"","show_choice","143","183917","0.0-143.0","""event"",""trial"",""time""
""fullscreenenter"",""0"",""25096""
","
","
","""event"",""trial"",""time""
""fullscreenenter"",""0"",""25096""
","
","null","run_exp/static/images/Set 6_rs/138a.jpg","null","","","","","","learn","SL",""
"","html-keyboard-response","144","184421","0.0-144.0","""event"",""trial"",""time""
""fullscreenenter"",""0"",""25096""
","
","
","""event"",""trial"",""time""
""fullscreenenter"",""0"",""25096""
","
","null","<p></p>","null","","","","","","","",""
"","image","145","185080","0.0-145.0","""event"",""trial"",""time""
""fullscreenenter"",""0"",""25096""
","
","
","""event"",""trial"",""time""
""fullscreenenter"",""0"",""25096""
","
","658","run_exp/static/images/Set 6_rs/057a.jpg","86","","","","","","learn","SL",""
"","show_choice","146","186430","0.0-146.0","""event"",""trial"",""time""
""fullscreenenter"",""0"",""25096""
","
","
","""event"",""trial"",""time""
""fullscreenenter"",""0"",""25096""
","
","null","run_exp/static/images/Set 6_rs/057a.jpg","null","","","","","","learn","SL",""
"","html-keyboard-response","147","186940","0.0-147.0","""event"",""trial"",""time""
""fullscreenenter"",""0"",""25096""
","
","
","""event"",""trial"",""time""
""fullscreenenter"",""0"",""25096""
","
","null","<p></p>","null","","","","","","","",""
"","image","148","187517","0.0-148.0","""event"",""trial"",""time""
""fullscreenenter"",""0"",""25096""
","
","
","""event"",""trial"",""time""
""fullscreenenter"",""0"",""25096""
","
","575.5","run_exp/static/images/Set 6_rs/116a.jpg","78","","","","","","learn","SL",""
"","show_choice","149","188948","0.0-149.0","""event"",""trial"",""time""
""fullscreenenter"",""0"",""25096""
","
","
","""event"",""trial"",""time""
""fullscreenenter"",""0"",""25096""
","
","null","run_exp/static/images/Set 6_rs/116a.jpg","null","","","","","","learn","SL",""
"","html-keyboard-response","150","189454","0.0-150.0","""event"",""trial"",""time""
""fullscreenenter"",""0"",""25096""
","
","
","""event"",""trial"",""time""
""fullscreenenter"",""0"",""25096""
","
","null","<p></p>","null","","","","","","","",""
"","image","151","190094","0.0-151.0","""event"",""trial"",""time""
""fullscreenenter"",""0"",""25096""
","
","
","""event"",""trial"",""time""
""fullscreenenter"",""0"",""25096""
","
","637.7000000476837","run_exp/static/images/Set 6_rs/016a.jpg","86","","","","","","learn","SL",""
"","show_choice","152","191459","0.0-152.0","""event"",""trial"",""time""
""fullscreenenter"",""0"",""25096""
","
","
","""event"",""trial"",""time""
""fullscreenenter"",""0"",""25096""
","
","null","run_exp/static/images/Set 6_rs/016a.jpg","null","","","","","","learn","SL",""
"","html-keyboard-response","153","191970","0.0-153.0","""event"",""trial"",""time""
""fullscreenenter"",""0"",""25096""
","
","
","""event"",""trial"",""time""
""fullscreenenter"",""0"",""25096""
","
","null","<p></p>","null","","","","","","","",""
"","image","154","192709","0.0-154.0","""event"",""trial"",""time""
""fullscreenenter"",""0"",""25096""
","
","
","""event"",""trial"",""time""
""fullscreenenter"",""0"",""25096""
","
","736.9000000953674","run_exp/static/images/Set 6_rs/126a.jpg","78","","","","","","learn","SR",""
"","show_choice","155","193979","0.0-155.0","""event"",""trial"",""time""
""fullscreenenter"",""0"",""25096""
","
","
","""event"",""trial"",""time""
""fullscreenenter"",""0"",""25096""
","
","null","run_exp/static/images/Set 6_rs/126a.jpg","null","","","","","","learn","SR",""
"","html-keyboard-response","156","194488","0.0-156.0","""event"",""trial"",""time""
""fullscreenenter"",""0"",""25096""
","
","
","""event"",""trial"",""time""
""fullscreenenter"",""0"",""25096""
","
","null","<p></p>","null","","","","","","","",""
"","image","157","195216","0.0-157.0","""event"",""trial"",""time""
""fullscreenenter"",""0"",""25096""
","
","
","""event"",""trial"",""time""
""fullscreenenter"",""0"",""25096""
","
","726.5","run_exp/static/images/Set 6_rs/073a.jpg","86","","","","","","learn","SL",""
"","show_choice","158","196492","0.0-158.0","""event"",""trial"",""time""
""fullscreenenter"",""0"",""25096""
","
","
","""event"",""trial"",""time""
""fullscreenenter"",""0"",""25096""
","
","null","run_exp/static/images/Set 6_rs/073a.jpg","null","","","","","","learn","SL",""
"","html-keyboard-response","159","196995","0.0-159.0","""event"",""trial"",""time""
""fullscreenenter"",""0"",""25096""
","
","
","""event"",""trial"",""time""
""fullscreenenter"",""0"",""25096""
","
","null","<p></p>","null","","","","","","","",""
"","image","160","197830","0.0-160.0","""event"",""trial"",""time""
""fullscreenenter"",""0"",""25096""
","
","
","""event"",""trial"",""time""
""fullscreenenter"",""0"",""25096""
","
","834.2000000476837","run_exp/static/images/Set 6_rs/144a.jpg","86","","","","","","learn","SL",""
"","show_choice","161","199000","0.0-161.0","""event"",""trial"",""time""
""fullscreenenter"",""0"",""25096""
","
","
","""event"",""trial"",""time""
""fullscreenenter"",""0"",""25096""
","
","null","run_exp/static/images/Set 6_rs/144a.jpg","null","","","","","","learn","SL",""
"","html-keyboard-response","162","199504","0.0-162.0","""event"",""trial"",""time""
""fullscreenenter"",""0"",""25096""
","
","
","""event"",""trial"",""time""
""fullscreenenter"",""0"",""25096""
","
","null","<p></p>","null","","","","","","","",""
"","image","163","200071","0.0-163.0","""event"",""trial"",""time""
""fullscreenenter"",""0"",""25096""
","
","
","""event"",""trial"",""time""
""fullscreenenter"",""0"",""25096""
","
","565.7000000476837","run_exp/static/images/Set 6_rs/091a.jpg","78","","","","","","learn","SL",""
"","show_choice","164","201519","0.0-164.0","""event"",""trial"",""time""
""fullscreenenter"",""0"",""25096""
","
","
","""event"",""trial"",""time""
""fullscreenenter"",""0"",""25096""
","
","null","run_exp/static/images/Set 6_rs/091a.jpg","null","","","","","","learn","SL",""
"","html-keyboard-response","165","202021","0.0-165.0","""event"",""trial"",""time""
""fullscreenenter"",""0"",""25096""
","
","
","""event"",""trial"",""time""
""fullscreenenter"",""0"",""25096""
","
","null","<p></p>","null","","","","","","","",""
"","image","166","202782","0.0-166.0","""event"",""trial"",""time""
""fullscreenenter"",""0"",""25096""
","
","
","""event"",""trial"",""time""
""fullscreenenter"",""0"",""25096""
","
","759.8999999761581","run_exp/static/images/Set 6_rs/066a.jpg","78","","","","","","learn","SL",""
"","show_choice","167","204038","0.0-167.0","""event"",""trial"",""time""
""fullscreenenter"",""0"",""25096""
","
","
","""event"",""trial"",""time""
""fullscreenenter"",""0"",""25096""
","
","null","run_exp/static/images/Set 6_rs/066a.jpg","null","","","","","","learn","SL",""
"","html-keyboard-response","168","204553","0.0-168.0","""event"",""trial"",""time""
""fullscreenenter"",""0"",""25096""
","
","
","""event"",""trial"",""time""
""fullscreenenter"",""0"",""25096""
","
","null","<p></p>","null","","","","","","","",""
"","image","169","205269","0.0-169.0","""event"",""trial"",""time""
""fullscreenenter"",""0"",""25096""
","
","
","""event"",""trial"",""time""
""fullscreenenter"",""0"",""25096""
","
","714.6999999284744","run_exp/static/images/Set 6_rs/019a.jpg","86","","","","","","learn","SL",""
"","show_choice","170","206565","0.0-170.0","""event"",""trial"",""time""
""fullscreenenter"",""0"",""25096""
","
","
","""event"",""trial"",""time""
""fullscreenenter"",""0"",""25096""
","
","null","run_exp/static/images/Set 6_rs/019a.jpg","null","","","","","","learn","SL",""
"","html-keyboard-response","171","207071","0.0-171.0","""event"",""trial"",""time""
""fullscreenenter"",""0"",""25096""
","
","
","""event"",""trial"",""time""
""fullscreenenter"",""0"",""25096""
","
","null","<p></p>","null","","","","","","","",""
"","image","172","207709","0.0-172.0","""event"",""trial"",""time""
""fullscreenenter"",""0"",""25096""
","
","
","""event"",""trial"",""time""
""fullscreenenter"",""0"",""25096""
","
","636.7000000476837","run_exp/static/images/Set 6_rs/181a.jpg","78","","","","","","learn","SL",""
"","show_choice","173","209082","0.0-173.0","""event"",""trial"",""time""
""fullscreenenter"",""0"",""25096""
","
","
","""event"",""trial"",""time""
""fullscreenenter"",""0"",""25096""
","
","null","run_exp/static/images/Set 6_rs/181a.jpg","null","","","","","","learn","SL",""
"","html-keyboard-response","174","209588","0.0-174.0","""event"",""trial"",""time""
""fullscreenenter"",""0"",""25096""
","
","
","""event"",""trial"",""time""
""fullscreenenter"",""0"",""25096""
","
","null","<p></p>","null","","","","","","","",""
"","image","175","210351","0.0-175.0","""event"",""trial"",""time""
""fullscreenenter"",""0"",""25096""
","
","
","""event"",""trial"",""time""
""fullscreenenter"",""0"",""25096""
","
","761.3999999761581","run_exp/static/images/Set 6_rs/012a.jpg","86","","","","","","learn","SR",""
"","show_choice","176","211598","0.0-176.0","""event"",""trial"",""time""
""fullscreenenter"",""0"",""25096""
","
","
","""event"",""trial"",""time""
""fullscreenenter"",""0"",""25096""
","
","null","run_exp/static/images/Set 6_rs/012a.jpg","null","","","","","","learn","SR",""
"","html-keyboard-response","177","212105","0.0-177.0","""event"",""trial"",""time""
""fullscreenenter"",""0"",""25096""
","
","
","""event"",""trial"",""time""
""fullscreenenter"",""0"",""25096""
","
","null","<p></p>","null","","","","","","","",""
"","image","178","212854","0.0-178.0","""event"",""trial"",""time""
""fullscreenenter"",""0"",""25096""
","
","
","""event"",""trial"",""time""
""fullscreenenter"",""0"",""25096""
","
","748.1000000238419","run_exp/static/images/Set 6_rs/169a.jpg","78","","","","","","learn","SR",""
"","show_choice","179","214114","0.0-179.0","""event"",""trial"",""time""
""fullscreenenter"",""0"",""25096""
","
","
","""event"",""trial"",""time""
""fullscreenenter"",""0"",""25096""
","
","null","run_exp/static/images/Set 6_rs/169a.jpg","null","","","","","","learn","SR",""
"","html-keyboard-response","180","214622","0.0-180.0","""event"",""trial"",""time""
""fullscreenenter"",""0"",""25096""
","
","
","""event"",""trial"",""time""
""fullscreenenter"",""0"",""25096""
","
","null","<p></p>","null","","","","","","","",""
"","image","181","215296","0.0-181.0","""event"",""trial"",""time""
""fullscreenenter"",""0"",""25096""
","
","
","""event"",""trial"",""time""
""fullscreenenter"",""0"",""25096""
","
","671.6999999284744","run_exp/static/images/Set 6_rs/131a.jpg","86","","","","","","learn","SR",""
"","show_choice","182","216633","0.0-182.0","""event"",""trial"",""time""
""fullscreenenter"",""0"",""25096""
","
","
","""event"",""trial"",""time""
""fullscreenenter"",""0"",""25096""
","
","null","run_exp/static/images/Set 6_rs/131a.jpg","null","","","","","","learn","SR",""
"","html-keyboard-response","183","217138","0.0-183.0","""event"",""trial"",""time""
""fullscreenenter"",""0"",""25096""
","
","
","""event"",""trial"",""time""
""fullscreenenter"",""0"",""25096""
","
","null","<p></p>","null","","","","","","","",""
"","image","184","217965","0.0-184.0","""event"",""trial"",""time""
""fullscreenenter"",""0"",""25096""
","
","
","""event"",""trial"",""time""
""fullscreenenter"",""0"",""25096""
","
","825.2999999523163","run_exp/static/images/Set 6_rs/050a.jpg","86","","","","","","learn","SL",""
"","show_choice","185","219147","0.0-185.0","""event"",""trial"",""time""
""fullscreenenter"",""0"",""25096""
","
","
","""event"",""trial"",""time""
""fullscreenenter"",""0"",""25096""
","
","null","run_exp/static/images/Set 6_rs/050a.jpg","null","","","","","","learn","SL",""
"","html-keyboard-response","186","219656","0.0-186.0","""event"",""trial"",""time""
""fullscreenenter"",""0"",""25096""
","
","
","""event"",""trial"",""time""
""fullscreenenter"",""0"",""25096""
","
","null","<p></p>","null","","","","","","","",""
"","image","187","220399","0.0-187.0","""event"",""trial"",""time""
""fullscreenenter"",""0"",""25096""
","
","
","""event"",""trial"",""time""
""fullscreenenter"",""0"",""25096""
","
","741","run_exp/static/images/Set 6_rs/129a.jpg","86","","","","","","learn","SL",""
"","show_choice","188","221665","0.0-188.0","""event"",""trial"",""time""
""fullscreenenter"",""0"",""25096""
","
","
","""event"",""trial"",""time""
""fullscreenenter"",""0"",""25096""
","
","null","run_exp/static/images/Set 6_rs/129a.jpg","null","","","","","","learn","SL",""
"","html-keyboard-response","189","222172","0.0-189.0","""event"",""trial"",""time""
""fullscreenenter"",""0"",""25096""
","
","
","""event"",""trial"",""time""
""fullscreenenter"",""0"",""25096""
","
","null","<p></p>","null","","","","","","","",""
"","image","190","222974","0.0-190.0","""event"",""trial"",""time""
""fullscreenenter"",""0"",""25096""
","
","
","""event"",""trial"",""time""
""fullscreenenter"",""0"",""25096""
","
","801.3000000715256","run_exp/static/images/Set 6_rs/063a.jpg","86","","","","","","learn","SR",""
"","show_choice","191","224178","0.0-191.0","""event"",""trial"",""time""
""fullscreenenter"",""0"",""25096""
","
","
","""event"",""trial"",""time""
""fullscreenenter"",""0"",""25096""
","
","null","run_exp/static/images/Set 6_rs/063a.jpg","null","","","","","","learn","SR",""
"","html-keyboard-response","192","224681","0.0-192.0","""event"",""trial"",""time""
""fullscreenenter"",""0"",""25096""
","
","
","""event"",""trial"",""time""
""fullscreenenter"",""0"",""25096""
","
","null","<p></p>","null","","","","","","","",""
"","image","193","225527","0.0-193.0","""event"",""trial"",""time""
""fullscreenenter"",""0"",""25096""
","
","
","""event"",""trial"",""time""
""fullscreenenter"",""0"",""25096""
","
","845","run_exp/static/images/Set 6_rs/076a.jpg","78","","","","","","learn","SR",""
"","show_choice","194","226688","0.0-194.0","""event"",""trial"",""time""
""fullscreenenter"",""0"",""25096""
","
","
","""event"",""trial"",""time""
""fullscreenenter"",""0"",""25096""
","
","null","run_exp/static/images/Set 6_rs/076a.jpg","null","","","","","","learn","SR",""
"","html-keyboard-response","195","227193","0.0-195.0","""event"",""trial"",""time""
""fullscreenenter"",""0"",""25096""
","
","
","""event"",""trial"",""time""
""fullscreenenter"",""0"",""25096""
","
","null","<p></p>","null","","","","","","","",""
"","test_intro","196","264013","0.0-196.0","""event"",""trial"",""time""
""fullscreenenter"",""0"",""25096""
","
","
","""event"",""trial"",""time""
""fullscreenenter"",""0"",""25096""
","
","null","run_exp/static/audio/clip_2_memory.m4a","null","","","","","<div class='center'><p>Now, lets see how much you remember about the items you just saw.  For each item, you need to indicate if it was <b>old</b> by pressing the <b>v</b> key, <b>similar</b> by pressing the <b>b</b> key, or <b>new</b> by pressing the <b>n</b> key.</p><p>Old refers to an item that you saw before in the indoor/outdoor game that you just played, new refers to an item you have <b>not</b> seen before within the indoor/outdoor game, and similar refers to an item that is similar to an item youve seen before but is not exactly the same. </p><p>Before we begin, lets go over some brief demonstrations to make sure you understand.</p></div>","","",""
"","html-keyboard-response","197","265701","0.0-197.0","""event"",""trial"",""time""
""fullscreenenter"",""0"",""25096""
","
","
","""event"",""trial"",""time""
""fullscreenenter"",""0"",""25096""
","
","1687.3999999761581","<div class='center'><p>Now, lets see how much you remember about the items you just saw.  For each item, you need to indicate if it was <b>old</b> by pressing the <b>v</b> key, <b>similar</b> by pressing the <b>b</b> key, or <b>new</b> by pressing the <b>n</b> key.</p><p>Old refers to an item that you saw before in the indoor/outdoor game that you just played, new refers to an item you have <b>not</b> seen before within the indoor/outdoor game, and similar refers to an item that is similar to an item youve seen before but is not exactly the same. </p><p>Before we begin, lets go over some brief demonstrations to make sure you understand.</p><div><p><b>[Press the space bar to continue]</b></p></div>","32","","","","","","","",""
"","items","198","273211","0.0-198.0","""event"",""trial"",""time""
""fullscreenenter"",""0"",""25096""
","
","
","""event"",""trial"",""time""
""fullscreenenter"",""0"",""25096""
","
","null","run_exp/static/audio/clip_3_items.m4a","null","","","","","","","",""
"","mop","199","277720","0.0-199.0","""event"",""trial"",""time""
""fullscreenenter"",""0"",""25096""
","
","
","""event"",""trial"",""time""
""fullscreenenter"",""0"",""25096""
","
","null","run_exp/static/audio/clip_4_mop.m4a","null","","","","","","","",""
"","baseball","200","281231","0.0-200.0","""event"",""trial"",""time""
""fullscreenenter"",""0"",""25096""
","
","
","""event"",""trial"",""time""
""fullscreenenter"",""0"",""25096""
","
","null","run_exp/static/audio/clip_5_baseball.m4a","null","","","","","","","",""
"","trumpet","201","284741","0.0-201.0","""event"",""trial"",""time""
""fullscreenenter"",""0"",""25096""
","
","
","""event"",""trial"",""time""
""fullscreenenter"",""0"",""25096""
","
","null","run_exp/static/audio/clip_6_trumpet.m4a","null","","","","","","","",""
"","gummies","202","288251","0.0-202.0","""event"",""trial"",""time""
""fullscreenenter"",""0"",""25096""
","
","
","""event"",""trial"",""time""
""fullscreenenter"",""0"",""25096""
","
","null","run_exp/static/audio/clip_7_gummies.m4a","null","","","","","","","",""
"","osn","203","292756","0.0-203.0","""event"",""trial"",""time""
""fullscreenenter"",""0"",""25096""
","
","
","""event"",""trial"",""time""
""fullscreenenter"",""0"",""25096""
","
","null","run_exp/static/audio/clip_8_osn.m4a","null","","","","","","","",""
"","old_1","204","299261","0.0-204.0","""event"",""trial"",""time""
""fullscreenenter"",""0"",""25096""
","
","
","""event"",""trial"",""time""
""fullscreenenter"",""0"",""25096""
","
","null","run_exp/static/audio/clip_9_old_trumpet.m4a","null","","","","","","","",""
"","new_1","205","306781","0.0-205.0","""event"",""trial"",""time""
""fullscreenenter"",""0"",""25096""
","
","
","""event"",""trial"",""time""
""fullscreenenter"",""0"",""25096""
","
","null","run_exp/static/audio/clip_10_new_balloon.m4a","null","","","","","","","",""
"","similar_1a","206","311297","0.0-206.0","""event"",""trial"",""time""
""fullscreenenter"",""0"",""25096""
","
","
","""event"",""trial"",""time""
""fullscreenenter"",""0"",""25096""
","
","null","run_exp/static/audio/clip_11a_similar_mop.m4a","null","","","","","","","",""
"","similar_1b","207","317810","0.0-207.0","""event"",""trial"",""time""
""fullscreenenter"",""0"",""25096""
","
","
","""event"",""trial"",""time""
""fullscreenenter"",""0"",""25096""
","
","null","run_exp/static/audio/clip_11b_similar_mop.m4a","null","","","","","","","",""
"","new_2","208","321321","0.0-208.0","""event"",""trial"",""time""
""fullscreenenter"",""0"",""25096""
","
","
","""event"",""trial"",""time""
""fullscreenenter"",""0"",""25096""
","
","null","run_exp/static/audio/clip_12_new_stoplight.m4a","null","","","","","","","",""
"","old_2","209","324840","0.0-209.0","""event"",""trial"",""time""
""fullscreenenter"",""0"",""25096""
","
","
","""event"",""trial"",""time""
""fullscreenenter"",""0"",""25096""
","
","null","run_exp/static/audio/clip_13_old_baseball.m4a","null","","","","","","","",""
"","similar_2a","210","328352","0.0-210.0","""event"",""trial"",""time""
""fullscreenenter"",""0"",""25096""
","
","
","""event"",""trial"",""time""
""fullscreenenter"",""0"",""25096""
","
","null","run_exp/static/audio/clip_14a_similar_gummies.m4a","null","","","","","","","",""
"","similar_2b","211","335858","0.0-211.0","""event"",""trial"",""time""
""fullscreenenter"",""0"",""25096""
","
","
","""event"",""trial"",""time""
""fullscreenenter"",""0"",""25096""
","
","null","run_exp/static/audio/clip_14b_similar_gummies.m4a","null","","","","","","","",""
"","practice","212","377953","0.0-212.0","""event"",""trial"",""time""
""fullscreenenter"",""0"",""25096""
","
","
","""event"",""trial"",""time""
""fullscreenenter"",""0"",""25096""
","
","null","run_exp/static/audio/clip_15_practice.m4a","null","","","","","<div class='center'><p>Lets practice a little to make sure you understand the difference between new, similar, and old. Lets say you saw these three items in the indoor/outdoor game.</p><p> Try your best to remember these images because youll soon be tested on them in a practice game. In the practice game, youll be shown images and youll have to say if they are old (one of the three images belows), similar (similar to one of the images below but not exactly the same), or new (are not one of the images below nor similar to them).</p><p>Once you press the space bar youll be shown these images again but one at time. Then youll begin the practice game.</p><p><img src='run_exp/static/images/tutorial/test/three_indoor_outdoor.png' height='300'></p></div>","","",""
"","html-keyboard-response","213","379769","0.0-213.0","""event"",""trial"",""time""
""fullscreenenter"",""0"",""25096""
","
","
","""event"",""trial"",""time""
""fullscreenenter"",""0"",""25096""
","
","1813","<div class='center'><p>Lets practice a little to make sure you understand the difference between new, similar, and old. Lets say you saw these three items in the indoor/outdoor game.</p><p> Try your best to remember these images because youll soon be tested on them in a practice game. In the practice game, youll be shown images and youll have to say if they are old (one of the three images belows), similar (similar to one of the images below but not exactly the same), or new (are not one of the images below nor similar to them).</p><p>Once you press the space bar youll be shown these images again but one at time. Then youll begin the practice game.</p><p><img src='run_exp/static/images/tutorial/test/three_indoor_outdoor.png' height='300'></p><div><p><b>[Press the space bar to continue]</b></p></div>","32","","","","","","","",""
"","planet","214","381782","0.0-214.0","""event"",""trial"",""time""
""fullscreenenter"",""0"",""25096""
","
","
","""event"",""trial"",""time""
""fullscreenenter"",""0"",""25096""
","
","null","run_exp/static/images/tutorial/test/008a.jpg","null","","","","","","","",""
"","boot","215","383802","0.0-215.0","""event"",""trial"",""time""
""fullscreenenter"",""0"",""25096""
","
","
","""event"",""trial"",""time""
""fullscreenenter"",""0"",""25096""
","
","null","run_exp/static/images/tutorial/test/011a.jpg","null","","","","","","","",""
"","lemon","216","385813","0.0-216.0","""event"",""trial"",""time""
""fullscreenenter"",""0"",""25096""
","
","
","""event"",""trial"",""time""
""fullscreenenter"",""0"",""25096""
","
","null","run_exp/static/images/tutorial/test/018a.jpg","null","","","","","","","",""
"","practice_q1","217","391002","0.0-217.0","""event"",""trial"",""time""
""fullscreenenter"",""0"",""25096""
","
","
","""event"",""trial"",""time""
""fullscreenenter"",""0"",""25096""
","
","5192.600000023842","run_exp/static/audio/clip_16_practice_question.m4a","78","","","","","","","",""
"","correct","218","392907","0.0-218.0-0.0","""event"",""trial"",""time""
""fullscreenenter"",""0"",""25096""
","
","
","""event"",""trial"",""time""
""fullscreenenter"",""0"",""25096""
","
","null","run_exp/static/audio/clip_17_correct.m4a","null","","","","","<div class='center'><p>That's correct!</p></div>","","",""
"","html-keyboard-response","219","393600","0.0-218.0-1.0","""event"",""trial"",""time""
""fullscreenenter"",""0"",""25096""
","
","
","""event"",""trial"",""time""
""fullscreenenter"",""0"",""25096""
","
","691.7000000476837","<div class='center'><p>That's correct!</p><div><p><b>[Press the space bar to continue]</b></p></div>","32","","","","","","","",""
"","practice_q2","220","398233","0.0-218.0-2.0","""event"",""trial"",""time""
""fullscreenenter"",""0"",""25096""
","
","
","""event"",""trial"",""time""
""fullscreenenter"",""0"",""25096""
","
","4631.800000071526","run_exp/static/audio/clip_16_practice_question.m4a","78","","","","","","","",""
"","incorrect_q2","221","401288","0.0-219.0-0.0","""event"",""trial"",""time""
""fullscreenenter"",""0"",""25096""
","
","
","""event"",""trial"",""time""
""fullscreenenter"",""0"",""25096""
","
","null","run_exp/static/audio/clip_19_incorrect_old.m4a","null","","","","","<div class='center'><p>Thats incorrect. Its old.</p></div>","","",""
"","html-keyboard-response","222","402353","0.0-219.0-1.0","""event"",""trial"",""time""
""fullscreenenter"",""0"",""25096""
","
","
","""event"",""trial"",""time""
""fullscreenenter"",""0"",""25096""
","
","1063.6000000238419","<div class='center'><p>Thats incorrect. Its old.</p><div><p><b>[Press the space bar to continue]</b></p></div>","32","","","","","","","",""
"","practice_q3","223","407896","0.0-219.0-2.0","""event"",""trial"",""time""
""fullscreenenter"",""0"",""25096""
","
","
","""event"",""trial"",""time""
""fullscreenenter"",""0"",""25096""
","
","5540.300000071526","run_exp/static/audio/clip_16_practice_question.m4a","86","","","","","","","",""
"","incorrect_q3","224","410627","0.0-220.0-0.0","""event"",""trial"",""time""
""fullscreenenter"",""0"",""25096""
","
","
","""event"",""trial"",""time""
""fullscreenenter"",""0"",""25096""
","
","null","run_exp/static/audio/clip_20_incorrect_similar.m4a","null","","","","","<div class='center'><p>Thats incorrect. Its similar.</p><p><img src='run_exp/static/images/tutorial/test/boot_comparison.png' height='300'></p></div>","","",""
"","html-keyboard-response","225","411209","0.0-220.0-1.0","""event"",""trial"",""time""
""fullscreenenter"",""0"",""25096""
","
","
","""event"",""trial"",""time""
""fullscreenenter"",""0"",""25096""
","
","579.7999999523163","<div class='center'><p>Thats incorrect. Its similar.</p><p><img src='run_exp/static/images/tutorial/test/boot_comparison.png' height='300'></p><div><p><b>[Press the space bar to continue]</b></p></div>","32","","","","","","","",""
"","repeat","226","415968","0.0-221.0-0.0","""event"",""trial"",""time""
""fullscreenenter"",""0"",""25096""
","
","
","""event"",""trial"",""time""
""fullscreenenter"",""0"",""25096""
","
","null","run_exp/static/audio/clip_21_practice_again.m4a","null","","","","","<div class='center'><p>Oops. you missed at least one of these questions. Let's try practicing again. </p></div>","","",""
"","html-keyboard-response","227","420687","0.0-221.0-1.0","""event"",""trial"",""time""
""fullscreenenter"",""0"",""25096""
","
","
","""event"",""trial"",""time""
""fullscreenenter"",""0"",""25096""
","
","4716.800000071526","<div class='center'><p>Oops. you missed at least one of these questions. Let's try practicing again. </p><div><p><b>[Press the space bar to continue]</b></p></div>","32","","","","","","","",""
"","practice_q1","228","422319","0.0-221.0-2.0","""event"",""trial"",""time""
""fullscreenenter"",""0"",""25096""
","
","
","""event"",""trial"",""time""
""fullscreenenter"",""0"",""25096""
","
","1631","run_exp/static/audio/clip_16_practice_question.m4a","78","","","","","","","",""
"","correct","229","424228","0.0-222.0-0.0","""event"",""trial"",""time""
""fullscreenenter"",""0"",""25096""
","
","
","""event"",""trial"",""time""
""fullscreenenter"",""0"",""25096""
","
","null","run_exp/static/audio/clip_17_correct.m4a","null","","","","","<div class='center'><p>That's correct!</p></div>","","",""
"","html-keyboard-response","230","424873","0.0-222.0-1.0","""event"",""trial"",""time""
""fullscreenenter"",""0"",""25096""
","
","
","""event"",""trial"",""time""
""fullscreenenter"",""0"",""25096""
","
","643.5","<div class='center'><p>That's correct!</p><div><p><b>[Press the space bar to continue]</b></p></div>","32","","","","","","","",""
"","practice_q2","231","427065","0.0-222.0-2.0","""event"",""trial"",""time""
""fullscreenenter"",""0"",""25096""
","
","
","""event"",""trial"",""time""
""fullscreenenter"",""0"",""25096""
","
","2189.4000000953674","run_exp/static/audio/clip_16_practice_question.m4a","86","","","","","","","",""
"","correct","232","428967","0.0-223.0-0.0","""event"",""trial"",""time""
""fullscreenenter"",""0"",""25096""
","
","
","""event"",""trial"",""time""
""fullscreenenter"",""0"",""25096""
","
","null","run_exp/static/audio/clip_17_correct.m4a","null","","","","","<div class='center'><p>That's correct!</p></div>","","",""
"","html-keyboard-response","233","432329","0.0-223.0-1.0","""event"",""trial"",""time""
""fullscreenenter"",""0"",""25096""
","
","
","""event"",""trial"",""time""
""fullscreenenter"",""0"",""25096""
","
","3361.399999976158","<div class='center'><p>That's correct!</p><div><p><b>[Press the space bar to continue]</b></p></div>","32","","","","","","","",""
"","practice_q3","234","433385","0.0-223.0-2.0","""event"",""trial"",""time""
""fullscreenenter"",""0"",""25096""
","
","
","""event"",""trial"",""time""
""fullscreenenter"",""0"",""25096""
","
","1052.7000000476837","run_exp/static/audio/clip_16_practice_question.m4a","66","","","","","","","",""
"","correct","235","435408","0.0-224.0-0.0","""event"",""trial"",""time""
""fullscreenenter"",""0"",""25096""
","
","
","""event"",""trial"",""time""
""fullscreenenter"",""0"",""25096""
","
","null","run_exp/static/audio/clip_17_correct.m4a","null","","","","","<div class='center'><p>That's correct!</p></div>","","",""
"","html-keyboard-response","236","440825","0.0-224.0-1.0","""event"",""trial"",""time""
""fullscreenenter"",""0"",""25096""
","
","
","""event"",""trial"",""time""
""fullscreenenter"",""0"",""25096""
","
","5415.5","<div class='center'><p>That's correct!</p><div><p><b>[Press the space bar to continue]</b></p></div>","32","","","","","","","",""
"","begin_text","237","459332","0.0-225.0-0.0","""event"",""trial"",""time""
""fullscreenenter"",""0"",""25096""
","
","
","""event"",""trial"",""time""
""fullscreenenter"",""0"",""25096""
","
","null","run_exp/static/audio/clip_22_begin_test.m4a","null","","","","","<div class='center'><p>On to the real game where well test your memory of items from the indoor/outdoor game. For each item, you need to indicate if the item is <b>old</b> by pressing the <b>v</b> key, <b>similar</b> by pressing the <b>b</b> key, or <b>new</b> by pressing the <b>n</b> key. </p></div>","","",""
"","html-keyboard-response","238","459949","0.0-225.0-1.0","""event"",""trial"",""time""
""fullscreenenter"",""0"",""25096""
","
","
","""event"",""trial"",""time""
""fullscreenenter"",""0"",""25096""
","
","614.7000000476837","<div class='center'><p>On to the real game where well test your memory of items from the indoor/outdoor game. For each item, you need to indicate if the item is <b>old</b> by pressing the <b>v</b> key, <b>similar</b> by pressing the <b>b</b> key, or <b>new</b> by pressing the <b>n</b> key. </p><div><p><b>[Press the space bar to continue]</b></p></div>","32","","","","","","","",""
"","image","239","462411","0.0-226.0-0.0","""event"",""trial"",""time""
""fullscreenenter"",""0"",""25096""
","
","
","""event"",""trial"",""time""
""fullscreenenter"",""0"",""25096""
","
","2460.7000000476837","run_exp/static/images/Set 6_rs/086a.jpg","78","","","","","","test","TF","1"
"","show_choice","240","462921","0.0-226.0-1.0","""event"",""trial"",""time""
""fullscreenenter"",""0"",""25096""
","
","
","""event"",""trial"",""time""
""fullscreenenter"",""0"",""25096""
","
","null","run_exp/static/images/Set 6_rs/086a.jpg","null","","","","","","test","TF",""
"","html-keyboard-response","241","463441","0.0-226.0-2.0","""event"",""trial"",""time""
""fullscreenenter"",""0"",""25096""
","
","
","""event"",""trial"",""time""
""fullscreenenter"",""0"",""25096""
","
","null","<p></p>","null","","","","","","","",""
"","image","242","465069","0.0-227.0-0.0","""event"",""trial"",""time""
""fullscreenenter"",""0"",""25096""
","
","
","""event"",""trial"",""time""
""fullscreenenter"",""0"",""25096""
","
","1626.8999999761581","run_exp/static/images/Set 6_rs/140a.jpg","78","","","","","","test","TF","1"
"","show_choice","243","465582","0.0-227.0-1.0","""event"",""trial"",""time""
""fullscreenenter"",""0"",""25096""
","
","
","""event"",""trial"",""time""
""fullscreenenter"",""0"",""25096""
","
","null","run_exp/static/images/Set 6_rs/140a.jpg","null","","","","","","test","TF",""
"","html-keyboard-response","244","466101","0.0-227.0-2.0","""event"",""trial"",""time""
""fullscreenenter"",""0"",""25096""
","
","
","""event"",""trial"",""time""
""fullscreenenter"",""0"",""25096""
","
","null","<p></p>","null","","","","","","","",""
"","image","245","467645","0.0-228.0-0.0","""event"",""trial"",""time""
""fullscreenenter"",""0"",""25096""
","
","
","""event"",""trial"",""time""
""fullscreenenter"",""0"",""25096""
","
","1542.7999999523163","run_exp/static/images/Set 6_rs/152a.jpg","86","","","","","","test","TR","2"
"","show_choice","246","468156","0.0-228.0-1.0","""event"",""trial"",""time""
""fullscreenenter"",""0"",""25096""
","
","
","""event"",""trial"",""time""
""fullscreenenter"",""0"",""25096""
","
","null","run_exp/static/images/Set 6_rs/152a.jpg","null","","","","","","test","TR",""
"","html-keyboard-response","247","468671","0.0-228.0-2.0","""event"",""trial"",""time""
""fullscreenenter"",""0"",""25096""
","
","
","""event"",""trial"",""time""
""fullscreenenter"",""0"",""25096""
","
","null","<p></p>","null","","","","","","","",""
"","image","248","470022","0.0-229.0-0.0","""event"",""trial"",""time""
""fullscreenenter"",""0"",""25096""
","
","
","""event"",""trial"",""time""
""fullscreenenter"",""0"",""25096""
","
","1348.1999999284744","run_exp/static/images/Set 6_rs/116b.jpg","86","","","","","","test","TL","2"
"","show_choice","249","470536","0.0-229.0-1.0","""event"",""trial"",""time""
""fullscreenenter"",""0"",""25096""
","
","
","""event"",""trial"",""time""
""fullscreenenter"",""0"",""25096""
","
","null","run_exp/static/images/Set 6_rs/116b.jpg","null","","","","","","test","TL",""
"","html-keyboard-response","250","471053","0.0-229.0-2.0","""event"",""trial"",""time""
""fullscreenenter"",""0"",""25096""
","
","
","""event"",""trial"",""time""
""fullscreenenter"",""0"",""25096""
","
","null","<p></p>","null","","","","","","","",""
"","image","251","472847","0.0-230.0-0.0","""event"",""trial"",""time""
""fullscreenenter"",""0"",""25096""
","
","
","""event"",""trial"",""time""
""fullscreenenter"",""0"",""25096""
","
","1791.8999999761581","run_exp/static/images/Set 6_rs/025b.jpg","66","","","","","","test","TL","5"
"","show_choice","252","473355","0.0-230.0-1.0","""event"",""trial"",""time""
""fullscreenenter"",""0"",""25096""
","
","
","""event"",""trial"",""time""
""fullscreenenter"",""0"",""25096""
","
","null","run_exp/static/images/Set 6_rs/025b.jpg","null","","","","","","test","TL",""
"","html-keyboard-response","253","473869","0.0-230.0-2.0","""event"",""trial"",""time""
""fullscreenenter"",""0"",""25096""
","
","
","""event"",""trial"",""time""
""fullscreenenter"",""0"",""25096""
","
","null","<p></p>","null","","","","","","","",""
"","image","254","475604","0.0-231.0-0.0","""event"",""trial"",""time""
""fullscreenenter"",""0"",""25096""
","
","
","""event"",""trial"",""time""
""fullscreenenter"",""0"",""25096""
","
","1733.6999999284744","run_exp/static/images/Set 6_rs/057b.jpg","86","","","","","","test","TL","1"
"","show_choice","255","476117","0.0-231.0-1.0","""event"",""trial"",""time""
""fullscreenenter"",""0"",""25096""
","
","
","""event"",""trial"",""time""
""fullscreenenter"",""0"",""25096""
","
","null","run_exp/static/images/Set 6_rs/057b.jpg","null","","","","","","test","TL",""
"","html-keyboard-response","256","476627","0.0-231.0-2.0","""event"",""trial"",""time""
""fullscreenenter"",""0"",""25096""
","
","
","""event"",""trial"",""time""
""fullscreenenter"",""0"",""25096""
","
","null","<p></p>","null","","","","","","","",""
"","image","257","478093","0.0-232.0-0.0","""event"",""trial"",""time""
""fullscreenenter"",""0"",""25096""
","
","
","""event"",""trial"",""time""
""fullscreenenter"",""0"",""25096""
","
","1463.7999999523163","run_exp/static/images/Set 6_rs/015a.jpg","78","","","","","","test","TF","4"
"","show_choice","258","478603","0.0-232.0-1.0","""event"",""trial"",""time""
""fullscreenenter"",""0"",""25096""
","
","
","""event"",""trial"",""time""
""fullscreenenter"",""0"",""25096""
","
","null","run_exp/static/images/Set 6_rs/015a.jpg","null","","","","","","test","TF",""
"","html-keyboard-response","259","479119","0.0-232.0-2.0","""event"",""trial"",""time""
""fullscreenenter"",""0"",""25096""
","
","
","""event"",""trial"",""time""
""fullscreenenter"",""0"",""25096""
","
","null","<p></p>","null","","","","","","","",""
"","image","260","480214","0.0-233.0-0.0","""event"",""trial"",""time""
""fullscreenenter"",""0"",""25096""
","
","
","""event"",""trial"",""time""
""fullscreenenter"",""0"",""25096""
","
","1092.8999999761581","run_exp/static/images/Set 6_rs/005a.jpg","78","","","","","","test","TF","5"
"","show_choice","261","480723","0.0-233.0-1.0","""event"",""trial"",""time""
""fullscreenenter"",""0"",""25096""
","
","
","""event"",""trial"",""time""
""fullscreenenter"",""0"",""25096""
","
","null","run_exp/static/images/Set 6_rs/005a.jpg","null","","","","","","test","TF",""
"","html-keyboard-response","262","481236","0.0-233.0-2.0","""event"",""trial"",""time""
""fullscreenenter"",""0"",""25096""
","
","
","""event"",""trial"",""time""
""fullscreenenter"",""0"",""25096""
","
","null","<p></p>","null","","","","","","","",""
"","image","263","481957","0.0-234.0-0.0","""event"",""trial"",""time""
""fullscreenenter"",""0"",""25096""
","
","
","""event"",""trial"",""time""
""fullscreenenter"",""0"",""25096""
","
","720","run_exp/static/images/Set 6_rs/188a.jpg","78","","","","","","test","TF","3"
"","show_choice","264","482469","0.0-234.0-1.0","""event"",""trial"",""time""
""fullscreenenter"",""0"",""25096""
","
","
","""event"",""trial"",""time""
""fullscreenenter"",""0"",""25096""
","
","null","run_exp/static/images/Set 6_rs/188a.jpg","null","","","","","","test","TF",""
"","html-keyboard-response","265","482971","0.0-234.0-2.0","""event"",""trial"",""time""
""fullscreenenter"",""0"",""25096""
","
","
","""event"",""trial"",""time""
""fullscreenenter"",""0"",""25096""
","
","null","<p></p>","null","","","","","","","",""
"","image","266","483941","0.0-235.0-0.0","""event"",""trial"",""time""
""fullscreenenter"",""0"",""25096""
","
","
","""event"",""trial"",""time""
""fullscreenenter"",""0"",""25096""
","
","968.3999999761581","run_exp/static/images/Set 6_rs/109a.jpg","78","","","","","","test","TF","5"
"","show_choice","267","484455","0.0-235.0-1.0","""event"",""trial"",""time""
""fullscreenenter"",""0"",""25096""
","
","
","""event"",""trial"",""time""
""fullscreenenter"",""0"",""25096""
","
","null","run_exp/static/images/Set 6_rs/109a.jpg","null","","","","","","test","TF",""
"","html-keyboard-response","268","484969","0.0-235.0-2.0","""event"",""trial"",""time""
""fullscreenenter"",""0"",""25096""
","
","
","""event"",""trial"",""time""
""fullscreenenter"",""0"",""25096""
","
","null","<p></p>","null","","","","","","","",""
"","image","269","486252","0.0-236.0-0.0","""event"",""trial"",""time""
""fullscreenenter"",""0"",""25096""
","
","
","""event"",""trial"",""time""
""fullscreenenter"",""0"",""25096""
","
","1281.1999999284744","run_exp/static/images/Set 6_rs/187a.jpg","86","","","","","","test","TR","3"
"","show_choice","270","486753","0.0-236.0-1.0","""event"",""trial"",""time""
""fullscreenenter"",""0"",""25096""
","
","
","""event"",""trial"",""time""
""fullscreenenter"",""0"",""25096""
","
","null","run_exp/static/images/Set 6_rs/187a.jpg","null","","","","","","test","TR",""
"","html-keyboard-response","271","487270","0.0-236.0-2.0","""event"",""trial"",""time""
""fullscreenenter"",""0"",""25096""
","
","
","""event"",""trial"",""time""
""fullscreenenter"",""0"",""25096""
","
","null","<p></p>","null","","","","","","","",""
"","image","272","488878","0.0-237.0-0.0","""event"",""trial"",""time""
""fullscreenenter"",""0"",""25096""
","
","
","""event"",""trial"",""time""
""fullscreenenter"",""0"",""25096""
","
","1605.8999999761581","run_exp/static/images/Set 6_rs/131a.jpg","86","","","","","","test","TR","5"
"","show_choice","273","489386","0.0-237.0-1.0","""event"",""trial"",""time""
""fullscreenenter"",""0"",""25096""
","
","
","""event"",""trial"",""time""
""fullscreenenter"",""0"",""25096""
","
","null","run_exp/static/images/Set 6_rs/131a.jpg","null","","","","","","test","TR",""
"","html-keyboard-response","274","489892","0.0-237.0-2.0","""event"",""trial"",""time""
""fullscreenenter"",""0"",""25096""
","
","
","""event"",""trial"",""time""
""fullscreenenter"",""0"",""25096""
","
","null","<p></p>","null","","","","","","","",""
"","image","275","492311","0.0-238.0-0.0","""event"",""trial"",""time""
""fullscreenenter"",""0"",""25096""
","
","
","""event"",""trial"",""time""
""fullscreenenter"",""0"",""25096""
","
","2416.8000000715256","run_exp/static/images/Set 6_rs/177a.jpg","78","","","","","","test","TR","5"
"","show_choice","276","492821","0.0-238.0-1.0","""event"",""trial"",""time""
""fullscreenenter"",""0"",""25096""
","
","
","""event"",""trial"",""time""
""fullscreenenter"",""0"",""25096""
","
","null","run_exp/static/images/Set 6_rs/177a.jpg","null","","","","","","test","TR",""
"","html-keyboard-response","277","493336","0.0-238.0-2.0","""event"",""trial"",""time""
""fullscreenenter"",""0"",""25096""
","
","
","""event"",""trial"",""time""
""fullscreenenter"",""0"",""25096""
","
","null","<p></p>","null","","","","","","","",""
"","image","278","494453","0.0-239.0-0.0","""event"",""trial"",""time""
""fullscreenenter"",""0"",""25096""
","
","
","""event"",""trial"",""time""
""fullscreenenter"",""0"",""25096""
","
","1115.2000000476837","run_exp/static/images/Set 6_rs/186a.jpg","86","","","","","","test","TR","5"
"","show_choice","279","494970","0.0-239.0-1.0","""event"",""trial"",""time""
""fullscreenenter"",""0"",""25096""
","
","
","""event"",""trial"",""time""
""fullscreenenter"",""0"",""25096""
","
","null","run_exp/static/images/Set 6_rs/186a.jpg","null","","","","","","test","TR",""
"","html-keyboard-response","280","495481","0.0-239.0-2.0","""event"",""trial"",""time""
""fullscreenenter"",""0"",""25096""
","
","
","""event"",""trial"",""time""
""fullscreenenter"",""0"",""25096""
","
","null","<p></p>","null","","","","","","","",""
"","image","281","497317","0.0-240.0-0.0","""event"",""trial"",""time""
""fullscreenenter"",""0"",""25096""
","
","
","""event"",""trial"",""time""
""fullscreenenter"",""0"",""25096""
","
","1835.1000000238419","run_exp/static/images/Set 6_rs/023a.jpg","86","","","","","","test","TR","3"
"","show_choice","282","497820","0.0-240.0-1.0","""event"",""trial"",""time""
""fullscreenenter"",""0"",""25096""
","
","
","""event"",""trial"",""time""
""fullscreenenter"",""0"",""25096""
","
","null","run_exp/static/images/Set 6_rs/023a.jpg","null","","","","","","test","TR",""
"","html-keyboard-response","283","498334","0.0-240.0-2.0","""event"",""trial"",""time""
""fullscreenenter"",""0"",""25096""
","
","
","""event"",""trial"",""time""
""fullscreenenter"",""0"",""25096""
","
","null","<p></p>","null","","","","","","","",""
"","image","284","500093","0.0-241.0-0.0","""event"",""trial"",""time""
""fullscreenenter"",""0"",""25096""
","
","
","""event"",""trial"",""time""
""fullscreenenter"",""0"",""25096""
","
","1756.5999999046326","run_exp/static/images/Set 6_rs/076a.jpg","86","","","","","","test","TR","4"
"","show_choice","285","500604","0.0-241.0-1.0","""event"",""trial"",""time""
""fullscreenenter"",""0"",""25096""
","
","
","""event"",""trial"",""time""
""fullscreenenter"",""0"",""25096""
","
","null","run_exp/static/images/Set 6_rs/076a.jpg","null","","","","","","test","TR",""
"","html-keyboard-response","286","501119","0.0-241.0-2.0","""event"",""trial"",""time""
""fullscreenenter"",""0"",""25096""
","
","
","""event"",""trial"",""time""
""fullscreenenter"",""0"",""25096""
","
","null","<p></p>","null","","","","","","","",""
"","image","287","504126","0.0-242.0-0.0","""event"",""trial"",""time""
""fullscreenenter"",""0"",""25096""
","
","
","""event"",""trial"",""time""
""fullscreenenter"",""0"",""25096""
","
","3004.7999999523163","run_exp/static/images/Set 6_rs/100a.jpg","78","","","","","","test","TF","2"
"","show_choice","288","504637","0.0-242.0-1.0","""event"",""trial"",""time""
""fullscreenenter"",""0"",""25096""
","
","
","""event"",""trial"",""time""
""fullscreenenter"",""0"",""25096""
","
","null","run_exp/static/images/Set 6_rs/100a.jpg","null","","","","","","test","TF",""
"","html-keyboard-response","289","505153","0.0-242.0-2.0","""event"",""trial"",""time""
""fullscreenenter"",""0"",""25096""
","
","
","""event"",""trial"",""time""
""fullscreenenter"",""0"",""25096""
","
","null","<p></p>","null","","","","","","","",""
"","image","290","508157","0.0-243.0-0.0","""event"",""trial"",""time""
""fullscreenenter"",""0"",""25096""
","
","
","""event"",""trial"",""time""
""fullscreenenter"",""0"",""25096""
","
","null","run_exp/static/images/Set 6_rs/133a.jpg","null","","","","","","test","TF","4"
"","show_choice","291","508669","0.0-243.0-1.0","""event"",""trial"",""time""
""fullscreenenter"",""0"",""25096""
","
","
","""event"",""trial"",""time""
""fullscreenenter"",""0"",""25096""
","
","null","run_exp/static/images/Set 6_rs/133a.jpg","null","","","","","","test","TF",""
"","html-keyboard-response","292","509171","0.0-243.0-2.0","""event"",""trial"",""time""
""fullscreenenter"",""0"",""25096""
","
","
","""event"",""trial"",""time""
""fullscreenenter"",""0"",""25096""
","
","null","<p></p>","null","","","","","","","",""
"","image","293","510525","0.0-244.0-0.0","""event"",""trial"",""time""
""fullscreenenter"",""0"",""25096""
","
","
","""event"",""trial"",""time""
""fullscreenenter"",""0"",""25096""
","
","1353.5","run_exp/static/images/Set 6_rs/167b.jpg","86","","","","","","test","TL","2"
"","show_choice","294","511035","0.0-244.0-1.0","""event"",""trial"",""time""
""fullscreenenter"",""0"",""25096""
","
","
","""event"",""trial"",""time""
""fullscreenenter"",""0"",""25096""
","
","null","run_exp/static/images/Set 6_rs/167b.jpg","null","","","","","","test","TL",""
"","html-keyboard-response","295","511543","0.0-244.0-2.0","""event"",""trial"",""time""
""fullscreenenter"",""0"",""25096""
","
","
","""event"",""trial"",""time""
""fullscreenenter"",""0"",""25096""
","
","null","<p></p>","null","","","","","","","",""
"","image","296","513078","0.0-245.0-0.0","""event"",""trial"",""time""
""fullscreenenter"",""0"",""25096""
","
","
","""event"",""trial"",""time""
""fullscreenenter"",""0"",""25096""
","
","1533","run_exp/static/images/Set 6_rs/028a.jpg","66","","","","","","test","TF","1"
"","show_choice","297","513586","0.0-245.0-1.0","""event"",""trial"",""time""
""fullscreenenter"",""0"",""25096""
","
","
","""event"",""trial"",""time""
""fullscreenenter"",""0"",""25096""
","
","null","run_exp/static/images/Set 6_rs/028a.jpg","null","","","","","","test","TF",""
"","html-keyboard-response","298","514103","0.0-245.0-2.0","""event"",""trial"",""time""
""fullscreenenter"",""0"",""25096""
","
","
","""event"",""trial"",""time""
""fullscreenenter"",""0"",""25096""
","
","null","<p></p>","null","","","","","","","",""
"","image","299","515518","0.0-246.0-0.0","""event"",""trial"",""time""
""fullscreenenter"",""0"",""25096""
","
","
","""event"",""trial"",""time""
""fullscreenenter"",""0"",""25096""
","
","1413.2000000476837","run_exp/static/images/Set 6_rs/071b.jpg","86","","","","","","test","TL","4"
"","show_choice","300","516036","0.0-246.0-1.0","""event"",""trial"",""time""
""fullscreenenter"",""0"",""25096""
","
","
","""event"",""trial"",""time""
""fullscreenenter"",""0"",""25096""
","
","null","run_exp/static/images/Set 6_rs/071b.jpg","null","","","","","","test","TL",""
"","html-keyboard-response","301","516544","0.0-246.0-2.0","""event"",""trial"",""time""
""fullscreenenter"",""0"",""25096""
","
","
","""event"",""trial"",""time""
""fullscreenenter"",""0"",""25096""
","
","null","<p></p>","null","","","","","","","",""
"","image","302","518477","0.0-247.0-0.0","""event"",""trial"",""time""
""fullscreenenter"",""0"",""25096""
","
","
","""event"",""trial"",""time""
""fullscreenenter"",""0"",""25096""
","
","1932","run_exp/static/images/Set 6_rs/001a.jpg","78","","","","","","test","TF","1"
"","show_choice","303","518987","0.0-247.0-1.0","""event"",""trial"",""time""
""fullscreenenter"",""0"",""25096""
","
","
","""event"",""trial"",""time""
""fullscreenenter"",""0"",""25096""
","
","null","run_exp/static/images/Set 6_rs/001a.jpg","null","","","","","","test","TF",""
"","html-keyboard-response","304","519504","0.0-247.0-2.0","""event"",""trial"",""time""
""fullscreenenter"",""0"",""25096""
","
","
","""event"",""trial"",""time""
""fullscreenenter"",""0"",""25096""
","
","null","<p></p>","null","","","","","","","",""
"","image","305","521118","0.0-248.0-0.0","""event"",""trial"",""time""
""fullscreenenter"",""0"",""25096""
","
","
","""event"",""trial"",""time""
""fullscreenenter"",""0"",""25096""
","
","1612.6000000238419","run_exp/static/images/Set 6_rs/056a.jpg","66","","","","","","test","TF","3"
"","show_choice","306","521627","0.0-248.0-1.0","""event"",""trial"",""time""
""fullscreenenter"",""0"",""25096""
","
","
","""event"",""trial"",""time""
""fullscreenenter"",""0"",""25096""
","
","null","run_exp/static/images/Set 6_rs/056a.jpg","null","","","","","","test","TF",""
"","html-keyboard-response","307","522131","0.0-248.0-2.0","""event"",""trial"",""time""
""fullscreenenter"",""0"",""25096""
","
","
","""event"",""trial"",""time""
""fullscreenenter"",""0"",""25096""
","
","null","<p></p>","null","","","","","","","",""
"","image","308","523535","0.0-249.0-0.0","""event"",""trial"",""time""
""fullscreenenter"",""0"",""25096""
","
","
","""event"",""trial"",""time""
""fullscreenenter"",""0"",""25096""
","
","1402.6000000238419","run_exp/static/images/Set 6_rs/168b.jpg","86","","","","","","test","TL","3"
"","show_choice","309","524043","0.0-249.0-1.0","""event"",""trial"",""time""
""fullscreenenter"",""0"",""25096""
","
","
","""event"",""trial"",""time""
""fullscreenenter"",""0"",""25096""
","
","null","run_exp/static/images/Set 6_rs/168b.jpg","null","","","","","","test","TL",""
"","html-keyboard-response","310","524552","0.0-249.0-2.0","""event"",""trial"",""time""
""fullscreenenter"",""0"",""25096""
","
","
","""event"",""trial"",""time""
""fullscreenenter"",""0"",""25096""
","
","null","<p></p>","null","","","","","","","",""
"","image","311","526701","0.0-250.0-0.0","""event"",""trial"",""time""
""fullscreenenter"",""0"",""25096""
","
","
","""event"",""trial"",""time""
""fullscreenenter"",""0"",""25096""
","
","2147.2000000476837","run_exp/static/images/Set 6_rs/155a.jpg","78","","","","","","test","TF","4"
"","show_choice","312","527214","0.0-250.0-1.0","""event"",""trial"",""time""
""fullscreenenter"",""0"",""25096""
","
","
","""event"",""trial"",""time""
""fullscreenenter"",""0"",""25096""
","
","null","run_exp/static/images/Set 6_rs/155a.jpg","null","","","","","","test","TF",""
"","html-keyboard-response","313","527720","0.0-250.0-2.0","""event"",""trial"",""time""
""fullscreenenter"",""0"",""25096""
","
","
","""event"",""trial"",""time""
""fullscreenenter"",""0"",""25096""
","
","null","<p></p>","null","","","","","","","",""
"","image","314","528855","0.0-251.0-0.0","""event"",""trial"",""time""
""fullscreenenter"",""0"",""25096""
","
","
","""event"",""trial"",""time""
""fullscreenenter"",""0"",""25096""
","
","1132.7999999523163","run_exp/static/images/Set 6_rs/132a.jpg","86","","","","","","test","TR","5"
"","show_choice","315","529369","0.0-251.0-1.0","""event"",""trial"",""time""
""fullscreenenter"",""0"",""25096""
","
","
","""event"",""trial"",""time""
""fullscreenenter"",""0"",""25096""
","
","null","run_exp/static/images/Set 6_rs/132a.jpg","null","","","","","","test","TR",""
"","html-keyboard-response","316","529885","0.0-251.0-2.0","""event"",""trial"",""time""
""fullscreenenter"",""0"",""25096""
","
","
","""event"",""trial"",""time""
""fullscreenenter"",""0"",""25096""
","
","null","<p></p>","null","","","","","","","",""
"","image","317","530917","0.0-252.0-0.0","""event"",""trial"",""time""
""fullscreenenter"",""0"",""25096""
","
","
","""event"",""trial"",""time""
""fullscreenenter"",""0"",""25096""
","
","1030.5","run_exp/static/images/Set 6_rs/012a.jpg","86","","","","","","test","TR","1"
"","show_choice","318","531428","0.0-252.0-1.0","""event"",""trial"",""time""
""fullscreenenter"",""0"",""25096""
","
","
","""event"",""trial"",""time""
""fullscreenenter"",""0"",""25096""
","
","null","run_exp/static/images/Set 6_rs/012a.jpg","null","","","","","","test","TR",""
"","html-keyboard-response","319","531943","0.0-252.0-2.0","""event"",""trial"",""time""
""fullscreenenter"",""0"",""25096""
","
","
","""event"",""trial"",""time""
""fullscreenenter"",""0"",""25096""
","
","null","<p></p>","null","","","","","","","",""
"","image","320","533118","0.0-253.0-0.0","""event"",""trial"",""time""
""fullscreenenter"",""0"",""25096""
","
","
","""event"",""trial"",""time""
""fullscreenenter"",""0"",""25096""
","
","1173.5999999046326","run_exp/static/images/Set 6_rs/048a.jpg","78","","","","","","test","TF","4"
"","show_choice","321","533629","0.0-253.0-1.0","""event"",""trial"",""time""
""fullscreenenter"",""0"",""25096""
","
","
","""event"",""trial"",""time""
""fullscreenenter"",""0"",""25096""
","
","null","run_exp/static/images/Set 6_rs/048a.jpg","null","","","","","","test","TF",""
"","html-keyboard-response","322","534136","0.0-253.0-2.0","""event"",""trial"",""time""
""fullscreenenter"",""0"",""25096""
","
","
","""event"",""trial"",""time""
""fullscreenenter"",""0"",""25096""
","
","null","<p></p>","null","","","","","","","",""
"","image","323","535183","0.0-254.0-0.0","""event"",""trial"",""time""
""fullscreenenter"",""0"",""25096""
","
","
","""event"",""trial"",""time""
""fullscreenenter"",""0"",""25096""
","
","1044.8999999761581","run_exp/static/images/Set 6_rs/117b.jpg","86","","","","","","test","TL","5"
"","show_choice","324","535691","0.0-254.0-1.0","""event"",""trial"",""time""
""fullscreenenter"",""0"",""25096""
","
","
","""event"",""trial"",""time""
""fullscreenenter"",""0"",""25096""
","
","null","run_exp/static/images/Set 6_rs/117b.jpg","null","","","","","","test","TL",""
"","html-keyboard-response","325","536197","0.0-254.0-2.0","""event"",""trial"",""time""
""fullscreenenter"",""0"",""25096""
","
","
","""event"",""trial"",""time""
""fullscreenenter"",""0"",""25096""
","
","null","<p></p>","null","","","","","","","",""
"","image","326","537517","0.0-255.0-0.0","""event"",""trial"",""time""
""fullscreenenter"",""0"",""25096""
","
","
","""event"",""trial"",""time""
""fullscreenenter"",""0"",""25096""
","
","1318.7000000476837","run_exp/static/images/Set 6_rs/066b.jpg","66","","","","","","test","TL","5"
"","show_choice","327","538023","0.0-255.0-1.0","""event"",""trial"",""time""
""fullscreenenter"",""0"",""25096""
","
","
","""event"",""trial"",""time""
""fullscreenenter"",""0"",""25096""
","
","null","run_exp/static/images/Set 6_rs/066b.jpg","null","","","","","","test","TL",""
"","html-keyboard-response","328","538528","0.0-255.0-2.0","""event"",""trial"",""time""
""fullscreenenter"",""0"",""25096""
","
","
","""event"",""trial"",""time""
""fullscreenenter"",""0"",""25096""
","
","null","<p></p>","null","","","","","","","",""
"","image","329","540184","0.0-256.0-0.0","""event"",""trial"",""time""
""fullscreenenter"",""0"",""25096""
","
","
","""event"",""trial"",""time""
""fullscreenenter"",""0"",""25096""
","
","1652.7999999523163","run_exp/static/images/Set 6_rs/141a.jpg","86","","","","","","test","TR","2"
"","show_choice","330","540688","0.0-256.0-1.0","""event"",""trial"",""time""
""fullscreenenter"",""0"",""25096""
","
","
","""event"",""trial"",""time""
""fullscreenenter"",""0"",""25096""
","
","null","run_exp/static/images/Set 6_rs/141a.jpg","null","","","","","","test","TR",""
"","html-keyboard-response","331","541203","0.0-256.0-2.0","""event"",""trial"",""time""
""fullscreenenter"",""0"",""25096""
","
","
","""event"",""trial"",""time""
""fullscreenenter"",""0"",""25096""
","
","null","<p></p>","null","","","","","","","",""
"","image","332","542470","0.0-257.0-0.0","""event"",""trial"",""time""
""fullscreenenter"",""0"",""25096""
","
","
","""event"",""trial"",""time""
""fullscreenenter"",""0"",""25096""
","
","1265.4000000953674","run_exp/static/images/Set 6_rs/118a.jpg","78","","","","","","test","TF","5"
"","show_choice","333","542972","0.0-257.0-1.0","""event"",""trial"",""time""
""fullscreenenter"",""0"",""25096""
","
","
","""event"",""trial"",""time""
""fullscreenenter"",""0"",""25096""
","
","null","run_exp/static/images/Set 6_rs/118a.jpg","null","","","","","","test","TF",""
"","html-keyboard-response","334","543488","0.0-257.0-2.0","""event"",""trial"",""time""
""fullscreenenter"",""0"",""25096""
","
","
","""event"",""trial"",""time""
""fullscreenenter"",""0"",""25096""
","
","null","<p></p>","null","","","","","","","",""
"","image","335","545342","0.0-258.0-0.0","""event"",""trial"",""time""
""fullscreenenter"",""0"",""25096""
","
","
","""event"",""trial"",""time""
""fullscreenenter"",""0"",""25096""
","
