"success","trial_type","trial_index","time_elapsed","internal_node_id","interactions","blur_events","focus_events","fullscreenenter_events","fullscreenexit_events","rt","stimulus","key_press","subject_id","participant_id","age","gender","prompt","phase","condition","lure_bin"
"true","fullscreen","0","2655","0.0-0.0","""event"",""trial"",""time""
""fullscreenenter"",""0"",""1700""
","
","
","""event"",""trial"",""time""
""fullscreenenter"",""0"",""1700""
","
","","","","","","","","","","",""
"","pavlovia","1","2666","0.0-1.0","""event"",""trial"",""time""
""fullscreenenter"",""0"",""1700""
","
","
","""event"",""trial"",""time""
""fullscreenenter"",""0"",""1700""
","
","","","","","","","","","","",""
"","welcome","2","37527","0.0-2.0","""event"",""trial"",""time""
""fullscreenenter"",""0"",""1700""
","
","
","""event"",""trial"",""time""
""fullscreenenter"",""0"",""1700""
","
","null","run_exp/static/audio/clip_1_welcome.m4a","null","834","916","8","Female","<div class='center'><p>Welcome to the third part of the study! First, you'll be shown pictures of items one at a time. For each picture, you have to decide if the item is typically found indoors or outdoors.</p><p>If you think it's usually found indoors, then press <b>v</b> key on your keyboard. If you think it's usually found outdoors, then press the <b>n</b> key.There will be reminders on the screen to help you remember which keys to press. </p><p>If you're not sure whether the item is an indoor item or an outdoor item, go ahead and take a guess but try your best not to skip that choice. </p></div>","","",""
"","html-keyboard-response","3","38084","0.0-3.0","""event"",""trial"",""time""
""fullscreenenter"",""0"",""1700""
","
","
","""event"",""trial"",""time""
""fullscreenenter"",""0"",""1700""
","
","552.7000000001863","<div class='center'><p>Welcome to the third part of the study! First, you'll be shown pictures of items one at a time. For each picture, you have to decide if the item is typically found indoors or outdoors.</p><p>If you think it's usually found indoors, then press <b>v</b> key on your keyboard. If you think it's usually found outdoors, then press the <b>n</b> key.There will be reminders on the screen to help you remember which keys to press. </p><p>If you're not sure whether the item is an indoor item or an outdoor item, go ahead and take a guess but try your best not to skip that choice. </p><div><p><b>[Press the space bar to continue]</b></p></div>","32","","","","","","","",""
"","image","4","40090","0.0-4.0","""event"",""trial"",""time""
""fullscreenenter"",""0"",""1700""
","
","
","""event"",""trial"",""time""
""fullscreenenter"",""0"",""1700""
","
","null","run_exp/static/images/Set 6_rs/088a.jpg","null","","","","","","learn","SR",""
"","show_choice","5","42094","0.0-5.0","""event"",""trial"",""time""
""fullscreenenter"",""0"",""1700""
","
","
","""event"",""trial"",""time""
""fullscreenenter"",""0"",""1700""
","
","null","run_exp/static/images/blank.png","null","","","","","","learn","SR",""
"","html-keyboard-response","6","42597","0.0-6.0","""event"",""trial"",""time""
""fullscreenenter"",""0"",""1700""
","
","
","""event"",""trial"",""time""
""fullscreenenter"",""0"",""1700""
","
","null","<p></p>","null","","","","","","","",""
"","image","7","43272","0.0-7.0","""event"",""trial"",""time""
""fullscreenenter"",""0"",""1700""
","
","
","""event"",""trial"",""time""
""fullscreenenter"",""0"",""1700""
","
","672.8000000000466","run_exp/static/images/Set 6_rs/085a.jpg","78","","","","","","learn","SL",""
"","show_choice","8","44602","0.0-8.0","""event"",""trial"",""time""
""fullscreenenter"",""0"",""1700""
","
","
","""event"",""trial"",""time""
""fullscreenenter"",""0"",""1700""
","
","null","run_exp/static/images/Set 6_rs/085a.jpg","null","","","","","","learn","SL",""
"","html-keyboard-response","9","45105","0.0-9.0","""event"",""trial"",""time""
""fullscreenenter"",""0"",""1700""
","
","
","""event"",""trial"",""time""
""fullscreenenter"",""0"",""1700""
","
","null","<p></p>","null","","","","","","","",""
"","image","10","45759","0.0-10.0","""event"",""trial"",""time""
""fullscreenenter"",""0"",""1700""
","
","
","""event"",""trial"",""time""
""fullscreenenter"",""0"",""1700""
","
","651.1999999999534","run_exp/static/images/Set 6_rs/071a.jpg","86","","","","","","learn","SL",""
"","show_choice","11","47110","0.0-11.0","""event"",""trial"",""time""
""fullscreenenter"",""0"",""1700""
","
","
","""event"",""trial"",""time""
""fullscreenenter"",""0"",""1700""
","
","null","run_exp/static/images/Set 6_rs/071a.jpg","null","","","","","","learn","SL",""
"","html-keyboard-response","12","47613","0.0-12.0","""event"",""trial"",""time""
""fullscreenenter"",""0"",""1700""
","
","
","""event"",""trial"",""time""
""fullscreenenter"",""0"",""1700""
","
","null","<p></p>","null","","","","","","","",""
"","image","13","48148","0.0-13.0","""event"",""trial"",""time""
""fullscreenenter"",""0"",""1700""
","
","
","""event"",""trial"",""time""
""fullscreenenter"",""0"",""1700""
","
","527.9000000001397","run_exp/static/images/Set 6_rs/062a.jpg","78","","","","","","learn","SL",""
"","show_choice","14","49623","0.0-14.0","""event"",""trial"",""time""
""fullscreenenter"",""0"",""1700""
","
","
","""event"",""trial"",""time""
""fullscreenenter"",""0"",""1700""
","
","null","run_exp/static/images/Set 6_rs/062a.jpg","null","","","","","","learn","SL",""
"","html-keyboard-response","15","50125","0.0-15.0","""event"",""trial"",""time""
""fullscreenenter"",""0"",""1700""
","
","
","""event"",""trial"",""time""
""fullscreenenter"",""0"",""1700""
","
","null","<p></p>","null","","","","","","","",""
"","image","16","50808","0.0-16.0","""event"",""trial"",""time""
""fullscreenenter"",""0"",""1700""
","
","
","""event"",""trial"",""time""
""fullscreenenter"",""0"",""1700""
","
","679.6999999999534","run_exp/static/images/Set 6_rs/036a.jpg","86","","","","","","learn","SL",""
"","show_choice","17","52131","0.0-17.0","""event"",""trial"",""time""
""fullscreenenter"",""0"",""1700""
","
","
","""event"",""trial"",""time""
""fullscreenenter"",""0"",""1700""
","
","null","run_exp/static/images/Set 6_rs/036a.jpg","null","","","","","","learn","SL",""
"","html-keyboard-response","18","52632","0.0-18.0","""event"",""trial"",""time""
""fullscreenenter"",""0"",""1700""
","
","
","""event"",""trial"",""time""
""fullscreenenter"",""0"",""1700""
","
","null","<p></p>","null","","","","","","","",""
"","image","19","53239","0.0-19.0","""event"",""trial"",""time""
""fullscreenenter"",""0"",""1700""
","
","
","""event"",""trial"",""time""
""fullscreenenter"",""0"",""1700""
","
","604.3999999999069","run_exp/static/images/Set 6_rs/108a.jpg","86","","","","","","learn","SR",""
"","show_choice","20","54637","0.0-20.0","""event"",""trial"",""time""
""fullscreenenter"",""0"",""1700""
","
","
","""event"",""trial"",""time""
""fullscreenenter"",""0"",""1700""
","
","null","run_exp/static/images/Set 6_rs/108a.jpg","null","","","","","","learn","SR",""
"","html-keyboard-response","21","55139","0.0-21.0","""event"",""trial"",""time""
""fullscreenenter"",""0"",""1700""
","
","
","""event"",""trial"",""time""
""fullscreenenter"",""0"",""1700""
","
","null","<p></p>","null","","","","","","","",""
"","image","22","55824","0.0-22.0","""event"",""trial"",""time""
""fullscreenenter"",""0"",""1700""
","
","
","""event"",""trial"",""time""
""fullscreenenter"",""0"",""1700""
","
","681.4000000001397","run_exp/static/images/Set 6_rs/066a.jpg","86","","","","","","learn","SL",""
"","show_choice","23","57145","0.0-23.0","""event"",""trial"",""time""
""fullscreenenter"",""0"",""1700""
","
","
","""event"",""trial"",""time""
""fullscreenenter"",""0"",""1700""
","
","null","run_exp/static/images/Set 6_rs/066a.jpg","null","","","","","","learn","SL",""
"","html-keyboard-response","24","57646","0.0-24.0","""event"",""trial"",""time""
""fullscreenenter"",""0"",""1700""
","
","
","""event"",""trial"",""time""
""fullscreenenter"",""0"",""1700""
","
","null","<p></p>","null","","","","","","","",""
"","image","25","58344","0.0-25.0","""event"",""trial"",""time""
""fullscreenenter"",""0"",""1700""
","
","
","""event"",""trial"",""time""
""fullscreenenter"",""0"",""1700""
","
","696.2000000001863","run_exp/static/images/Set 6_rs/073a.jpg","78","","","","","","learn","SL",""
"","show_choice","26","59650","0.0-26.0","""event"",""trial"",""time""
""fullscreenenter"",""0"",""1700""
","
","
","""event"",""trial"",""time""
""fullscreenenter"",""0"",""1700""
","
","null","run_exp/static/images/Set 6_rs/073a.jpg","null","","","","","","learn","SL",""
"","html-keyboard-response","27","60152","0.0-27.0","""event"",""trial"",""time""
""fullscreenenter"",""0"",""1700""
","
","
","""event"",""trial"",""time""
""fullscreenenter"",""0"",""1700""
","
","null","<p></p>","null","","","","","","","",""
"","image","28","60800","0.0-28.0","""event"",""trial"",""time""
""fullscreenenter"",""0"",""1700""
","
","
","""event"",""trial"",""time""
""fullscreenenter"",""0"",""1700""
","
","643.5","run_exp/static/images/Set 6_rs/019a.jpg","86","","","","","","learn","SL",""
"","show_choice","29","62159","0.0-29.0","""event"",""trial"",""time""
""fullscreenenter"",""0"",""1700""
","
","
","""event"",""trial"",""time""
""fullscreenenter"",""0"",""1700""
","
","null","run_exp/static/images/Set 6_rs/019a.jpg","null","","","","","","learn","SL",""
"","html-keyboard-response","30","62662","0.0-30.0","""event"",""trial"",""time""
""fullscreenenter"",""0"",""1700""
","
","
","""event"",""trial"",""time""
""fullscreenenter"",""0"",""1700""
","
","null","<p></p>","null","","","","","","","",""
"","image","31","63304","0.0-31.0","""event"",""trial"",""time""
""fullscreenenter"",""0"",""1700""
","
","
","""event"",""trial"",""time""
""fullscreenenter"",""0"",""1700""
","
","638.8999999999069","run_exp/static/images/Set 6_rs/057a.jpg","86","","","","","","learn","SL",""
"","show_choice","32","64668","0.0-32.0","""event"",""trial"",""time""
""fullscreenenter"",""0"",""1700""
","
","
","""event"",""trial"",""time""
""fullscreenenter"",""0"",""1700""
","
","null","run_exp/static/images/Set 6_rs/057a.jpg","null","","","","","","learn","SL",""
"","html-keyboard-response","33","65170","0.0-33.0","""event"",""trial"",""time""
""fullscreenenter"",""0"",""1700""
","
","
","""event"",""trial"",""time""
""fullscreenenter"",""0"",""1700""
","
","null","<p></p>","null","","","","","","","",""
"","image","34","65712","0.0-34.0","""event"",""trial"",""time""
""fullscreenenter"",""0"",""1700""
","
","
","""event"",""trial"",""time""
""fullscreenenter"",""0"",""1700""
","
","537.8000000000466","run_exp/static/images/Set 6_rs/181a.jpg","86","","","","","","learn","SL",""
"","show_choice","35","67178","0.0-35.0","""event"",""trial"",""time""
""fullscreenenter"",""0"",""1700""
","
","
","""event"",""trial"",""time""
""fullscreenenter"",""0"",""1700""
","
","null","run_exp/static/images/Set 6_rs/181a.jpg","null","","","","","","learn","SL",""
"","html-keyboard-response","36","67681","0.0-36.0","""event"",""trial"",""time""
""fullscreenenter"",""0"",""1700""
","
","
","""event"",""trial"",""time""
""fullscreenenter"",""0"",""1700""
","
","null","<p></p>","null","","","","","","","",""
"","image","37","68624","0.0-37.0","""event"",""trial"",""time""
""fullscreenenter"",""0"",""1700""
","
","
","""event"",""trial"",""time""
""fullscreenenter"",""0"",""1700""
","
","939.1000000000931","run_exp/static/images/Set 6_rs/187a.jpg","78","","","","","","learn","SR",""
"","show_choice","38","69686","0.0-38.0","""event"",""trial"",""time""
""fullscreenenter"",""0"",""1700""
","
","
","""event"",""trial"",""time""
""fullscreenenter"",""0"",""1700""
","
","null","run_exp/static/images/Set 6_rs/187a.jpg","null","","","","","","learn","SR",""
"","html-keyboard-response","39","70189","0.0-39.0","""event"",""trial"",""time""
""fullscreenenter"",""0"",""1700""
","
","
","""event"",""trial"",""time""
""fullscreenenter"",""0"",""1700""
","
","null","<p></p>","null","","","","","","","",""
"","image","40","71048","0.0-40.0","""event"",""trial"",""time""
""fullscreenenter"",""0"",""1700""
","
","
","""event"",""trial"",""time""
""fullscreenenter"",""0"",""1700""
","
","855.8000000000466","run_exp/static/images/Set 6_rs/169a.jpg","86","","","","","","learn","SR",""
"","show_choice","41","72194","0.0-41.0","""event"",""trial"",""time""
""fullscreenenter"",""0"",""1700""
","
","
","""event"",""trial"",""time""
""fullscreenenter"",""0"",""1700""
","
","null","run_exp/static/images/Set 6_rs/169a.jpg","null","","","","","","learn","SR",""
"","html-keyboard-response","42","72696","0.0-42.0","""event"",""trial"",""time""
""fullscreenenter"",""0"",""1700""
","
","
","""event"",""trial"",""time""
""fullscreenenter"",""0"",""1700""
","
","null","<p></p>","null","","","","","","","",""
"","image","43","74160","0.0-43.0","""event"",""trial"",""time""
""fullscreenenter"",""0"",""1700""
","
","
","""event"",""trial"",""time""
""fullscreenenter"",""0"",""1700""
","
","1459.8999999999069","run_exp/static/images/Set 6_rs/007a.jpg","86","","","","","","learn","SR",""
"","show_choice","44","74703","0.0-44.0","""event"",""trial"",""time""
""fullscreenenter"",""0"",""1700""
","
","
","""event"",""trial"",""time""
""fullscreenenter"",""0"",""1700""
","
","null","run_exp/static/images/Set 6_rs/007a.jpg","null","","","","","","learn","SR",""
"","html-keyboard-response","45","75205","0.0-45.0","""event"",""trial"",""time""
""fullscreenenter"",""0"",""1700""
","
","
","""event"",""trial"",""time""
""fullscreenenter"",""0"",""1700""
","
","null","<p></p>","null","","","","","","","",""
"","image","46","76016","0.0-46.0","""event"",""trial"",""time""
""fullscreenenter"",""0"",""1700""
","
","
","""event"",""trial"",""time""
""fullscreenenter"",""0"",""1700""
","
","807.2000000001863","run_exp/static/images/Set 6_rs/055a.jpg","86","","","","","","learn","SL",""
"","show_choice","47","77210","0.0-47.0","""event"",""trial"",""time""
""fullscreenenter"",""0"",""1700""
","
","
","""event"",""trial"",""time""
""fullscreenenter"",""0"",""1700""
","
","null","run_exp/static/images/Set 6_rs/055a.jpg","null","","","","","","learn","SL",""
"","html-keyboard-response","48","77713","0.0-48.0","""event"",""trial"",""time""
""fullscreenenter"",""0"",""1700""
","
","
","""event"",""trial"",""time""
""fullscreenenter"",""0"",""1700""
","
","null","<p></p>","null","","","","","","","",""
"","image","49","78376","0.0-49.0","""event"",""trial"",""time""
""fullscreenenter"",""0"",""1700""
","
","
","""event"",""trial"",""time""
""fullscreenenter"",""0"",""1700""
","
","658.8999999999069","run_exp/static/images/Set 6_rs/116a.jpg","86","","","","","","learn","SL",""
"","show_choice","50","79719","0.0-50.0","""event"",""trial"",""time""
""fullscreenenter"",""0"",""1700""
","
","
","""event"",""trial"",""time""
""fullscreenenter"",""0"",""1700""
","
","null","run_exp/static/images/Set 6_rs/116a.jpg","null","","","","","","learn","SL",""
"","html-keyboard-response","51","80222","0.0-51.0","""event"",""trial"",""time""
""fullscreenenter"",""0"",""1700""
","
","
","""event"",""trial"",""time""
""fullscreenenter"",""0"",""1700""
","
","null","<p></p>","null","","","","","","","",""
"","image","52","82226","0.0-52.0","""event"",""trial"",""time""
""fullscreenenter"",""0"",""1700""
","
","
","""event"",""trial"",""time""
""fullscreenenter"",""0"",""1700""
","
","null","run_exp/static/images/Set 6_rs/063a.jpg","null","","","","","","learn","SR",""
"","show_choice","53","84229","0.0-53.0","""event"",""trial"",""time""
""fullscreenenter"",""0"",""1700""
","
","
","""event"",""trial"",""time""
""fullscreenenter"",""0"",""1700""
","
","null","run_exp/static/images/blank.png","null","","","","","","learn","SR",""
"","html-keyboard-response","54","84732","0.0-54.0","""event"",""trial"",""time""
""fullscreenenter"",""0"",""1700""
","
","
","""event"",""trial"",""time""
""fullscreenenter"",""0"",""1700""
","
","null","<p></p>","null","","","","","","","",""
"","image","55","85720","0.0-55.0","""event"",""trial"",""time""
""fullscreenenter"",""0"",""1700""
","
","
","""event"",""trial"",""time""
""fullscreenenter"",""0"",""1700""
","
","985","run_exp/static/images/Set 6_rs/166a.jpg","86","","","","","","learn","SR",""
"","show_choice","56","86737","0.0-56.0","""event"",""trial"",""time""
""fullscreenenter"",""0"",""1700""
","
","
","""event"",""trial"",""time""
""fullscreenenter"",""0"",""1700""
","
","null","run_exp/static/images/Set 6_rs/166a.jpg","null","","","","","","learn","SR",""
"","html-keyboard-response","57","87239","0.0-57.0","""event"",""trial"",""time""
""fullscreenenter"",""0"",""1700""
","
","
","""event"",""trial"",""time""
""fullscreenenter"",""0"",""1700""
","
","null","<p></p>","null","","","","","","","",""
"","image","58","88504","0.0-58.0","""event"",""trial"",""time""
""fullscreenenter"",""0"",""1700""
","
","
","""event"",""trial"",""time""
""fullscreenenter"",""0"",""1700""
","
","1261.3000000000466","run_exp/static/images/Set 6_rs/186a.jpg","86","","","","","","learn","SR",""
"","show_choice","59","89244","0.0-59.0","""event"",""trial"",""time""
""fullscreenenter"",""0"",""1700""
","
","
","""event"",""trial"",""time""
""fullscreenenter"",""0"",""1700""
","
","null","run_exp/static/images/Set 6_rs/186a.jpg","null","","","","","","learn","SR",""
"","html-keyboard-response","60","89747","0.0-60.0","""event"",""trial"",""time""
""fullscreenenter"",""0"",""1700""
","
","
","""event"",""trial"",""time""
""fullscreenenter"",""0"",""1700""
","
","null","<p></p>","null","","","","","","","",""
"","image","61","90425","0.0-61.0","""event"",""trial"",""time""
""fullscreenenter"",""0"",""1700""
","
","
","""event"",""trial"",""time""
""fullscreenenter"",""0"",""1700""
","
","674.6000000000931","run_exp/static/images/Set 6_rs/012a.jpg","86","","","","","","learn","SR",""
"","show_choice","62","91752","0.0-62.0","""event"",""trial"",""time""
""fullscreenenter"",""0"",""1700""
","
","
","""event"",""trial"",""time""
""fullscreenenter"",""0"",""1700""
","
","null","run_exp/static/images/Set 6_rs/012a.jpg","null","","","","","","learn","SR",""
"","html-keyboard-response","63","92259","0.0-63.0","""event"",""trial"",""time""
""fullscreenenter"",""0"",""1700""
","
","
","""event"",""trial"",""time""
""fullscreenenter"",""0"",""1700""
","
","null","<p></p>","null","","","","","","","",""
"","image","64","93048","0.0-64.0","""event"",""trial"",""time""
""fullscreenenter"",""0"",""1700""
","
","
","""event"",""trial"",""time""
""fullscreenenter"",""0"",""1700""
","
","784.1999999999534","run_exp/static/images/Set 6_rs/131a.jpg","86","","","","","","learn","SR",""
"","show_choice","65","94266","0.0-65.0","""event"",""trial"",""time""
""fullscreenenter"",""0"",""1700""
","
","
","""event"",""trial"",""time""
""fullscreenenter"",""0"",""1700""
","
","null","run_exp/static/images/Set 6_rs/131a.jpg","null","","","","","","learn","SR",""
"","html-keyboard-response","66","94768","0.0-66.0","""event"",""trial"",""time""
""fullscreenenter"",""0"",""1700""
","
","
","""event"",""trial"",""time""
""fullscreenenter"",""0"",""1700""
","
","null","<p></p>","null","","","","","","","",""
"","image","67","95424","0.0-67.0","""event"",""trial"",""time""
""fullscreenenter"",""0"",""1700""
","
","
","""event"",""trial"",""time""
""fullscreenenter"",""0"",""1700""
","
","652.0999999998603","run_exp/static/images/Set 6_rs/123a.jpg","86","","","","","","learn","SL",""
"","show_choice","68","96773","0.0-68.0","""event"",""trial"",""time""
""fullscreenenter"",""0"",""1700""
","
","
","""event"",""trial"",""time""
""fullscreenenter"",""0"",""1700""
","
","null","run_exp/static/images/Set 6_rs/123a.jpg","null","","","","","","learn","SL",""
"","html-keyboard-response","69","97276","0.0-69.0","""event"",""trial"",""time""
""fullscreenenter"",""0"",""1700""
","
","
","""event"",""trial"",""time""
""fullscreenenter"",""0"",""1700""
","
","null","<p></p>","null","","","","","","","",""
"","image","70","98050","0.0-70.0","""event"",""trial"",""time""
""fullscreenenter"",""0"",""1700""
","
","
","""event"",""trial"",""time""
""fullscreenenter"",""0"",""1700""
","
","769.8999999999069","run_exp/static/images/Set 6_rs/024a.jpg","86","","","","","","learn","SR",""
"","show_choice","71","99282","0.0-71.0","""event"",""trial"",""time""
""fullscreenenter"",""0"",""1700""
","
","
","""event"",""trial"",""time""
""fullscreenenter"",""0"",""1700""
","
","null","run_exp/static/images/Set 6_rs/024a.jpg","null","","","","","","learn","SR",""
"","html-keyboard-response","72","99784","0.0-72.0","""event"",""trial"",""time""
""fullscreenenter"",""0"",""1700""
","
","
","""event"",""trial"",""time""
""fullscreenenter"",""0"",""1700""
","
","null","<p></p>","null","","","","","","","",""
"","image","73","100569","0.0-73.0","""event"",""trial"",""time""
""fullscreenenter"",""0"",""1700""
","
","
","""event"",""trial"",""time""
""fullscreenenter"",""0"",""1700""
","
","781.0999999998603","run_exp/static/images/Set 6_rs/045a.jpg","78","","","","","","learn","SR",""
"","show_choice","74","101790","0.0-74.0","""event"",""trial"",""time""
""fullscreenenter"",""0"",""1700""
","
","
","""event"",""trial"",""time""
""fullscreenenter"",""0"",""1700""
","
","null","run_exp/static/images/Set 6_rs/045a.jpg","null","","","","","","learn","SR",""
"","html-keyboard-response","75","102292","0.0-75.0","""event"",""trial"",""time""
""fullscreenenter"",""0"",""1700""
","
","
","""event"",""trial"",""time""
""fullscreenenter"",""0"",""1700""
","
","null","<p></p>","null","","","","","","","",""
"","image","76","102912","0.0-76.0","""event"",""trial"",""time""
""fullscreenenter"",""0"",""1700""
","
","
","""event"",""trial"",""time""
""fullscreenenter"",""0"",""1700""
","
","616.1000000000931","run_exp/static/images/Set 6_rs/112a.jpg","86","","","","","","learn","SR",""
"","show_choice","77","104298","0.0-77.0","""event"",""trial"",""time""
""fullscreenenter"",""0"",""1700""
","
","
","""event"",""trial"",""time""
""fullscreenenter"",""0"",""1700""
","
","null","run_exp/static/images/Set 6_rs/112a.jpg","null","","","","","","learn","SR",""
"","html-keyboard-response","78","104800","0.0-78.0","""event"",""trial"",""time""
""fullscreenenter"",""0"",""1700""
","
","
","""event"",""trial"",""time""
""fullscreenenter"",""0"",""1700""
","
","null","<p></p>","null","","","","","","","",""
"","image","79","105512","0.0-79.0","""event"",""trial"",""time""
""fullscreenenter"",""0"",""1700""
","
","
","""event"",""trial"",""time""
""fullscreenenter"",""0"",""1700""
","
","707.8999999999069","run_exp/static/images/Set 6_rs/050a.jpg","86","","","","","","learn","SL",""
"","show_choice","80","106806","0.0-80.0","""event"",""trial"",""time""
""fullscreenenter"",""0"",""1700""
","
","
","""event"",""trial"",""time""
""fullscreenenter"",""0"",""1700""
","
","null","run_exp/static/images/Set 6_rs/050a.jpg","null","","","","","","learn","SL",""
"","html-keyboard-response","81","107308","0.0-81.0","""event"",""trial"",""time""
""fullscreenenter"",""0"",""1700""
","
","
","""event"",""trial"",""time""
""fullscreenenter"",""0"",""1700""
","
","null","<p></p>","null","","","","","","","",""
"","image","82","108016","0.0-82.0","""event"",""trial"",""time""
""fullscreenenter"",""0"",""1700""
","
","
","""event"",""trial"",""time""
""fullscreenenter"",""0"",""1700""
","
","704.1000000000931","run_exp/static/images/Set 6_rs/061a.jpg","86","","","","","","learn","SR",""
"","show_choice","83","109313","0.0-83.0","""event"",""trial"",""time""
""fullscreenenter"",""0"",""1700""
","
","
","""event"",""trial"",""time""
""fullscreenenter"",""0"",""1700""
","
","null","run_exp/static/images/Set 6_rs/061a.jpg","null","","","","","","learn","SR",""
"","html-keyboard-response","84","109815","0.0-84.0","""event"",""trial"",""time""
""fullscreenenter"",""0"",""1700""
","
","
","""event"",""trial"",""time""
""fullscreenenter"",""0"",""1700""
","
","null","<p></p>","null","","","","","","","",""
"","image","85","110880","0.0-85.0","""event"",""trial"",""time""
""fullscreenenter"",""0"",""1700""
","
","
","""event"",""trial"",""time""
""fullscreenenter"",""0"",""1700""
","
","1062","run_exp/static/images/Set 6_rs/129a.jpg","86","","","","","","learn","SL",""
"","show_choice","86","111821","0.0-86.0","""event"",""trial"",""time""
""fullscreenenter"",""0"",""1700""
","
","
","""event"",""trial"",""time""
""fullscreenenter"",""0"",""1700""
","
","null","run_exp/static/images/Set 6_rs/129a.jpg","null","","","","","","learn","SL",""
"","html-keyboard-response","87","112323","0.0-87.0","""event"",""trial"",""time""
""fullscreenenter"",""0"",""1700""
","
","
","""event"",""trial"",""time""
""fullscreenenter"",""0"",""1700""
","
","null","<p></p>","null","","","","","","","",""
"","image","88","113183","0.0-88.0","""event"",""trial"",""time""
""fullscreenenter"",""0"",""1700""
","
","
","""event"",""trial"",""time""
""fullscreenenter"",""0"",""1700""
","
","857.3000000000466","run_exp/static/images/Set 6_rs/177a.jpg","86","","","","","","learn","SR",""
"","show_choice","89","114328","0.0-89.0","""event"",""trial"",""time""
""fullscreenenter"",""0"",""1700""
","
","
","""event"",""trial"",""time""
""fullscreenenter"",""0"",""1700""
","
","null","run_exp/static/images/Set 6_rs/177a.jpg","null","","","","","","learn","SR",""
"","html-keyboard-response","90","114830","0.0-90.0","""event"",""trial"",""time""
""fullscreenenter"",""0"",""1700""
","
","
","""event"",""trial"",""time""
""fullscreenenter"",""0"",""1700""
","
","null","<p></p>","null","","","","","","","",""
"","image","91","115824","0.0-91.0","""event"",""trial"",""time""
""fullscreenenter"",""0"",""1700""
","
","
","""event"",""trial"",""time""
""fullscreenenter"",""0"",""1700""
","
","991.5999999998603","run_exp/static/images/Set 6_rs/178a.jpg","78","","","","","","learn","SR",""
"","show_choice","92","116835","0.0-92.0","""event"",""trial"",""time""
""fullscreenenter"",""0"",""1700""
","
","
","""event"",""trial"",""time""
""fullscreenenter"",""0"",""1700""
","
","null","run_exp/static/images/Set 6_rs/178a.jpg","null","","","","","","learn","SR",""
"","html-keyboard-response","93","117337","0.0-93.0","""event"",""trial"",""time""
""fullscreenenter"",""0"",""1700""
","
","
","""event"",""trial"",""time""
""fullscreenenter"",""0"",""1700""
","
","null","<p></p>","null","","","","","","","",""
"","image","94","118248","0.0-94.0","""event"",""trial"",""time""
""fullscreenenter"",""0"",""1700""
","
","
","""event"",""trial"",""time""
""fullscreenenter"",""0"",""1700""
","
","907.5","run_exp/static/images/Set 6_rs/075a.jpg","86","","","","","","learn","SR",""
"","show_choice","95","119342","0.0-95.0","""event"",""trial"",""time""
""fullscreenenter"",""0"",""1700""
","
","
","""event"",""trial"",""time""
""fullscreenenter"",""0"",""1700""
","
","null","run_exp/static/images/Set 6_rs/075a.jpg","null","","","","","","learn","SR",""
"","html-keyboard-response","96","119845","0.0-96.0","""event"",""trial"",""time""
""fullscreenenter"",""0"",""1700""
","
","
","""event"",""trial"",""time""
""fullscreenenter"",""0"",""1700""
","
","null","<p></p>","null","","","","","","","",""
"","image","97","120473","0.0-97.0","""event"",""trial"",""time""
""fullscreenenter"",""0"",""1700""
","
","
","""event"",""trial"",""time""
""fullscreenenter"",""0"",""1700""
","
","620.2000000001863","run_exp/static/images/Set 6_rs/079a.jpg","78","","","","","","learn","SL",""
"","show_choice","98","121857","0.0-98.0","""event"",""trial"",""time""
""fullscreenenter"",""0"",""1700""
","
","
","""event"",""trial"",""time""
""fullscreenenter"",""0"",""1700""
","
","null","run_exp/static/images/Set 6_rs/079a.jpg","null","","","","","","learn","SL",""
"","html-keyboard-response","99","122359","0.0-99.0","""event"",""trial"",""time""
""fullscreenenter"",""0"",""1700""
","
","
","""event"",""trial"",""time""
""fullscreenenter"",""0"",""1700""
","
","null","<p></p>","null","","","","","","","",""
"","image","100","123608","0.0-100.0","""event"",""trial"",""time""
""fullscreenenter"",""0"",""1700""
","
","
","""event"",""trial"",""time""
""fullscreenenter"",""0"",""1700""
","
","1245.3000000000466","run_exp/static/images/Set 6_rs/016a.jpg","86","","","","","","learn","SL",""
"","show_choice","101","124365","0.0-101.0","""event"",""trial"",""time""
""fullscreenenter"",""0"",""1700""
","
","
","""event"",""trial"",""time""
""fullscreenenter"",""0"",""1700""
","
","null","run_exp/static/images/Set 6_rs/016a.jpg","null","","","","","","learn","SL",""
"","html-keyboard-response","102","124867","0.0-102.0","""event"",""trial"",""time""
""fullscreenenter"",""0"",""1700""
","
","
","""event"",""trial"",""time""
""fullscreenenter"",""0"",""1700""
","
","null","<p></p>","null","","","","","","","",""
"","image","103","125751","0.0-103.0","""event"",""trial"",""time""
""fullscreenenter"",""0"",""1700""
","
","
","""event"",""trial"",""time""
""fullscreenenter"",""0"",""1700""
","
","881.1999999999534","run_exp/static/images/Set 6_rs/014a.jpg","86","","","","","","learn","SL",""
"","show_choice","104","126871","0.0-104.0","""event"",""trial"",""time""
""fullscreenenter"",""0"",""1700""
","
","
","""event"",""trial"",""time""
""fullscreenenter"",""0"",""1700""
","
","null","run_exp/static/images/Set 6_rs/014a.jpg","null","","","","","","learn","SL",""
"","html-keyboard-response","105","127373","0.0-105.0","""event"",""trial"",""time""
""fullscreenenter"",""0"",""1700""
","
","
","""event"",""trial"",""time""
""fullscreenenter"",""0"",""1700""
","
","null","<p></p>","null","","","","","","","",""
"","image","106","128440","0.0-106.0","""event"",""trial"",""time""
""fullscreenenter"",""0"",""1700""
","
","
","""event"",""trial"",""time""
""fullscreenenter"",""0"",""1700""
","
","1062.8000000000466","run_exp/static/images/Set 6_rs/126a.jpg","78","","","","","","learn","SR",""
"","show_choice","107","129379","0.0-107.0","""event"",""trial"",""time""
""fullscreenenter"",""0"",""1700""
","
","
","""event"",""trial"",""time""
""fullscreenenter"",""0"",""1700""
","
","null","run_exp/static/images/Set 6_rs/126a.jpg","null","","","","","","learn","SR",""
"","html-keyboard-response","108","129882","0.0-108.0","""event"",""trial"",""time""
""fullscreenenter"",""0"",""1700""
","
","
","""event"",""trial"",""time""
""fullscreenenter"",""0"",""1700""
","
","null","<p></p>","null","","","","","","","",""
"","image","109","130712","0.0-109.0","""event"",""trial"",""time""
""fullscreenenter"",""0"",""1700""
","
","
","""event"",""trial"",""time""
""fullscreenenter"",""0"",""1700""
","
","828.3000000000466","run_exp/static/images/Set 6_rs/138a.jpg","86","","","","","","learn","SL",""
"","show_choice","110","131885","0.0-110.0","""event"",""trial"",""time""
""fullscreenenter"",""0"",""1700""
","
","
","""event"",""trial"",""time""
""fullscreenenter"",""0"",""1700""
","
","null","run_exp/static/images/Set 6_rs/138a.jpg","null","","","","","","learn","SL",""
"","html-keyboard-response","111","132387","0.0-111.0","""event"",""trial"",""time""
""fullscreenenter"",""0"",""1700""
","
","
","""event"",""trial"",""time""
""fullscreenenter"",""0"",""1700""
","
","null","<p></p>","null","","","","","","","",""
"","image","112","133232","0.0-112.0","""event"",""trial"",""time""
""fullscreenenter"",""0"",""1700""
","
","
","""event"",""trial"",""time""
""fullscreenenter"",""0"",""1700""
","
","840.8999999999069","run_exp/static/images/Set 6_rs/117a.jpg","78","","","","","","learn","SL",""
"","show_choice","113","134393","0.0-113.0","""event"",""trial"",""time""
""fullscreenenter"",""0"",""1700""
","
","
","""event"",""trial"",""time""
""fullscreenenter"",""0"",""1700""
","
","null","run_exp/static/images/Set 6_rs/117a.jpg","null","","","","","","learn","SL",""
"","html-keyboard-response","114","134896","0.0-114.0","""event"",""trial"",""time""
""fullscreenenter"",""0"",""1700""
","
","
","""event"",""trial"",""time""
""fullscreenenter"",""0"",""1700""
","
","null","<p></p>","null","","","","","","","",""
"","image","115","135640","0.0-115.0","""event"",""trial"",""time""
""fullscreenenter"",""0"",""1700""
","
","
","""event"",""trial"",""time""
""fullscreenenter"",""0"",""1700""
","
","741.5999999998603","run_exp/static/images/Set 6_rs/121a.jpg","86","","","","","","learn","SR",""
"","show_choice","116","136901","0.0-116.0","""event"",""trial"",""time""
""fullscreenenter"",""0"",""1700""
","
","
","""event"",""trial"",""time""
""fullscreenenter"",""0"",""1700""
","
","null","run_exp/static/images/Set 6_rs/121a.jpg","null","","","","","","learn","SR",""
"","html-keyboard-response","117","137403","0.0-117.0","""event"",""trial"",""time""
""fullscreenenter"",""0"",""1700""
","
","
","""event"",""trial"",""time""
""fullscreenenter"",""0"",""1700""
","
","null","<p></p>","null","","","","","","","",""
"","image","118","138080","0.0-118.0","""event"",""trial"",""time""
""fullscreenenter"",""0"",""1700""
","
","
","""event"",""trial"",""time""
""fullscreenenter"",""0"",""1700""
","
","672.3000000000466","run_exp/static/images/Set 6_rs/006a.jpg","86","","","","","","learn","SL",""
"","show_choice","119","139410","0.0-119.0","""event"",""trial"",""time""
""fullscreenenter"",""0"",""1700""
","
","
","""event"",""trial"",""time""
""fullscreenenter"",""0"",""1700""
","
","null","run_exp/static/images/Set 6_rs/006a.jpg","null","","","","","","learn","SL",""
"","html-keyboard-response","120","139912","0.0-120.0","""event"",""trial"",""time""
""fullscreenenter"",""0"",""1700""
","
","
","""event"",""trial"",""time""
""fullscreenenter"",""0"",""1700""
","
","null","<p></p>","null","","","","","","","",""
"","image","121","140856","0.0-121.0","""event"",""trial"",""time""
""fullscreenenter"",""0"",""1700""
","
","
","""event"",""trial"",""time""
""fullscreenenter"",""0"",""1700""
","
","939.5","run_exp/static/images/Set 6_rs/095a.jpg","78","","","","","","learn","SL",""
"","show_choice","122","141918","0.0-122.0","""event"",""trial"",""time""
""fullscreenenter"",""0"",""1700""
","
","
","""event"",""trial"",""time""
""fullscreenenter"",""0"",""1700""
","
","null","run_exp/static/images/Set 6_rs/095a.jpg","null","","","","","","learn","SL",""
"","html-keyboard-response","123","142420","0.0-123.0","""event"",""trial"",""time""
""fullscreenenter"",""0"",""1700""
","
","
","""event"",""trial"",""time""
""fullscreenenter"",""0"",""1700""
","
","null","<p></p>","null","","","","","","","",""
"","image","124","143360","0.0-124.0","""event"",""trial"",""time""
""fullscreenenter"",""0"",""1700""
","
","
","""event"",""trial"",""time""
""fullscreenenter"",""0"",""1700""
","
","936.6999999999534","run_exp/static/images/Set 6_rs/172a.jpg","86","","","","","","learn","SR",""
"","show_choice","125","144426","0.0-125.0","""event"",""trial"",""time""
""fullscreenenter"",""0"",""1700""
","
","
","""event"",""trial"",""time""
""fullscreenenter"",""0"",""1700""
","
","null","run_exp/static/images/Set 6_rs/172a.jpg","null","","","","","","learn","SR",""
"","html-keyboard-response","126","144928","0.0-126.0","""event"",""trial"",""time""
""fullscreenenter"",""0"",""1700""
","
","
","""event"",""trial"",""time""
""fullscreenenter"",""0"",""1700""
","
","null","<p></p>","null","","","","","","","",""
"","image","127","146376","0.0-127.0","""event"",""trial"",""time""
""fullscreenenter"",""0"",""1700""
","
","
","""event"",""trial"",""time""
""fullscreenenter"",""0"",""1700""
","
","1444.8000000000466","run_exp/static/images/Set 6_rs/144a.jpg","86","","","","","","learn","SL",""
"","show_choice","128","146934","0.0-128.0","""event"",""trial"",""time""
""fullscreenenter"",""0"",""1700""
","
","
","""event"",""trial"",""time""
""fullscreenenter"",""0"",""1700""
","
","null","run_exp/static/images/Set 6_rs/144a.jpg","null","","","","","","learn","SL",""
"","html-keyboard-response","129","147436","0.0-129.0","""event"",""trial"",""time""
""fullscreenenter"",""0"",""1700""
","
","
","""event"",""trial"",""time""
""fullscreenenter"",""0"",""1700""
","
","null","<p></p>","null","","","","","","","",""
"","image","130","148152","0.0-130.0","""event"",""trial"",""time""
""fullscreenenter"",""0"",""1700""
","
","
","""event"",""trial"",""time""
""fullscreenenter"",""0"",""1700""
","
","711.5","run_exp/static/images/Set 6_rs/070a.jpg","86","","","","","","learn","SR",""
"","show_choice","131","149442","0.0-131.0","""event"",""trial"",""time""
""fullscreenenter"",""0"",""1700""
","
","
","""event"",""trial"",""time""
""fullscreenenter"",""0"",""1700""
","
","null","run_exp/static/images/Set 6_rs/070a.jpg","null","","","","","","learn","SR",""
"","html-keyboard-response","132","149944","0.0-132.0","""event"",""trial"",""time""
""fullscreenenter"",""0"",""1700""
","
","
","""event"",""trial"",""time""
""fullscreenenter"",""0"",""1700""
","
","null","<p></p>","null","","","","","","","",""
"","image","133","151064","0.0-133.0","""event"",""trial"",""time""
""fullscreenenter"",""0"",""1700""
","
","
","""event"",""trial"",""time""
""fullscreenenter"",""0"",""1700""
","
","1117.5","run_exp/static/images/Set 6_rs/076a.jpg","78","","","","","","learn","SR",""
"","show_choice","134","151949","0.0-134.0","""event"",""trial"",""time""
""fullscreenenter"",""0"",""1700""
","
","
","""event"",""trial"",""time""
""fullscreenenter"",""0"",""1700""
","
","null","run_exp/static/images/Set 6_rs/076a.jpg","null","","","","","","learn","SR",""
"","html-keyboard-response","135","152451","0.0-135.0","""event"",""trial"",""time""
""fullscreenenter"",""0"",""1700""
","
","
","""event"",""trial"",""time""
""fullscreenenter"",""0"",""1700""
","
","null","<p></p>","null","","","","","","","",""
"","image","136","153360","0.0-136.0","""event"",""trial"",""time""
""fullscreenenter"",""0"",""1700""
","
","
","""event"",""trial"",""time""
""fullscreenenter"",""0"",""1700""
","
","905.1999999999534","run_exp/static/images/Set 6_rs/025a.jpg","78","","","","","","learn","SL",""
"","show_choice","137","154456","0.0-137.0","""event"",""trial"",""time""
""fullscreenenter"",""0"",""1700""
","
","
","""event"",""trial"",""time""
""fullscreenenter"",""0"",""1700""
","
","null","run_exp/static/images/Set 6_rs/025a.jpg","null","","","","","","learn","SL",""
"","html-keyboard-response","138","154958","0.0-138.0","""event"",""trial"",""time""
""fullscreenenter"",""0"",""1700""
","
","
","""event"",""trial"",""time""
""fullscreenenter"",""0"",""1700""
","
","null","<p></p>","null","","","","","","","",""
"","image","139","156152","0.0-139.0","""event"",""trial"",""time""
""fullscreenenter"",""0"",""1700""
","
","
","""event"",""trial"",""time""
""fullscreenenter"",""0"",""1700""
","
","1189.8999999999069","run_exp/static/images/Set 6_rs/154a.jpg","78","","","","","","learn","SR",""
"","show_choice","140","156964","0.0-140.0","""event"",""trial"",""time""
""fullscreenenter"",""0"",""1700""
","
","
","""event"",""trial"",""time""
""fullscreenenter"",""0"",""1700""
","
","null","run_exp/static/images/Set 6_rs/154a.jpg","null","","","","","","learn","SR",""
"","html-keyboard-response","141","157466","0.0-141.0","""event"",""trial"",""time""
""fullscreenenter"",""0"",""1700""
","
","
","""event"",""trial"",""time""
""fullscreenenter"",""0"",""1700""
","
","null","<p></p>","null","","","","","","","",""
"","image","142","158584","0.0-142.0","""event"",""trial"",""time""
""fullscreenenter"",""0"",""1700""
","
","
","""event"",""trial"",""time""
""fullscreenenter"",""0"",""1700""
","
","1114.5","run_exp/static/images/Set 6_rs/023a.jpg","86","","","","","","learn","SR",""
"","show_choice","143","159472","0.0-143.0","""event"",""trial"",""time""
""fullscreenenter"",""0"",""1700""
","
","
","""event"",""trial"",""time""
""fullscreenenter"",""0"",""1700""
","
","null","run_exp/static/images/Set 6_rs/023a.jpg","null","","","","","","learn","SR",""
"","html-keyboard-response","144","159975","0.0-144.0","""event"",""trial"",""time""
""fullscreenenter"",""0"",""1700""
","
","
","""event"",""trial"",""time""
""fullscreenenter"",""0"",""1700""
","
","null","<p></p>","null","","","","","","","",""
"","image","145","161376","0.0-145.0","""event"",""trial"",""time""
""fullscreenenter"",""0"",""1700""
","
","
","""event"",""trial"",""time""
""fullscreenenter"",""0"",""1700""
","
","1397.5999999998603","run_exp/static/images/Set 6_rs/017a.jpg","78","","","","","","learn","SL",""
"","show_choice","146","161981","0.0-146.0","""event"",""trial"",""time""
""fullscreenenter"",""0"",""1700""
","
","
","""event"",""trial"",""time""
""fullscreenenter"",""0"",""1700""
","
","null","run_exp/static/images/Set 6_rs/017a.jpg","null","","","","","","learn","SL",""
"","html-keyboard-response","147","162483","0.0-147.0","""event"",""trial"",""time""
""fullscreenenter"",""0"",""1700""
","
","
","""event"",""trial"",""time""
""fullscreenenter"",""0"",""1700""
","
","null","<p></p>","null","","","","","","","",""
"","image","148","163519","0.0-148.0","""event"",""trial"",""time""
""fullscreenenter"",""0"",""1700""
","
","
","""event"",""trial"",""time""
""fullscreenenter"",""0"",""1700""
","
","1032","run_exp/static/images/Set 6_rs/134a.jpg","86","","","","","","learn","SR",""
"","show_choice","149","164490","0.0-149.0","""event"",""trial"",""time""
""fullscreenenter"",""0"",""1700""
","
","
","""event"",""trial"",""time""
""fullscreenenter"",""0"",""1700""
","
","null","run_exp/static/images/Set 6_rs/134a.jpg","null","","","","","","learn","SR",""
"","html-keyboard-response","150","164992","0.0-150.0","""event"",""trial"",""time""
""fullscreenenter"",""0"",""1700""
","
","
","""event"",""trial"",""time""
""fullscreenenter"",""0"",""1700""
","
","null","<p></p>","null","","","","","","","",""
"","image","151","166008","0.0-151.0","""event"",""trial"",""time""
""fullscreenenter"",""0"",""1700""
","
","
","""event"",""trial"",""time""
""fullscreenenter"",""0"",""1700""
","
","1012.3000000000466","run_exp/static/images/Set 6_rs/152a.jpg","78","","","","","","learn","SR",""
"","show_choice","152","166997","0.0-152.0","""event"",""trial"",""time""
""fullscreenenter"",""0"",""1700""
","
","
","""event"",""trial"",""time""
""fullscreenenter"",""0"",""1700""
","
","null","run_exp/static/images/Set 6_rs/152a.jpg","null","","","","","","learn","SR",""
"","html-keyboard-response","153","167499","0.0-153.0","""event"",""trial"",""time""
""fullscreenenter"",""0"",""1700""
","
","
","""event"",""trial"",""time""
""fullscreenenter"",""0"",""1700""
","
","null","<p></p>","null","","","","","","","",""
"","image","154","168439","0.0-154.0","""event"",""trial"",""time""
""fullscreenenter"",""0"",""1700""
","
","
","""event"",""trial"",""time""
""fullscreenenter"",""0"",""1700""
","
","937.1000000000931","run_exp/static/images/Set 6_rs/167a.jpg","86","","","","","","learn","SL",""
"","show_choice","155","169504","0.0-155.0","""event"",""trial"",""time""
""fullscreenenter"",""0"",""1700""
","
","
","""event"",""trial"",""time""
""fullscreenenter"",""0"",""1700""
","
","null","run_exp/static/images/Set 6_rs/167a.jpg","null","","","","","","learn","SL",""
"","html-keyboard-response","156","170006","0.0-156.0","""event"",""trial"",""time""
""fullscreenenter"",""0"",""1700""
","
","
","""event"",""trial"",""time""
""fullscreenenter"",""0"",""1700""
","
","null","<p></p>","null","","","","","","","",""
"","image","157","172010","0.0-157.0","""event"",""trial"",""time""
""fullscreenenter"",""0"",""1700""
","
","
","""event"",""trial"",""time""
""fullscreenenter"",""0"",""1700""
","
","null","run_exp/static/images/Set 6_rs/191a.jpg","null","","","","","","learn","SL",""
"","show_choice","158","174014","0.0-158.0","""event"",""trial"",""time""
""fullscreenenter"",""0"",""1700""
","
","
","""event"",""trial"",""time""
""fullscreenenter"",""0"",""1700""
","
","null","run_exp/static/images/blank.png","null","","","","","","learn","SL",""
"","html-keyboard-response","159","174523","0.0-159.0","""event"",""trial"",""time""
""fullscreenenter"",""0"",""1700""
","
","
","""event"",""trial"",""time""
""fullscreenenter"",""0"",""1700""
","
","null","<p></p>","null","","","","","","","",""
"","image","160","175560","0.0-160.0","""event"",""trial"",""time""
""fullscreenenter"",""0"",""1700""
","
","
","""event"",""trial"",""time""
""fullscreenenter"",""0"",""1700""
","
","1033.6999999999534","run_exp/static/images/Set 6_rs/008a.jpg","86","","","","","","learn","SL",""
"","show_choice","161","176528","0.0-161.0","""event"",""trial"",""time""
""fullscreenenter"",""0"",""1700""
","
","
","""event"",""trial"",""time""
""fullscreenenter"",""0"",""1700""
","
","null","run_exp/static/images/Set 6_rs/008a.jpg","null","","","","","","learn","SL",""
"","html-keyboard-response","162","177031","0.0-162.0","""event"",""trial"",""time""
""fullscreenenter"",""0"",""1700""
","
","
","""event"",""trial"",""time""
""fullscreenenter"",""0"",""1700""
","
","null","<p></p>","null","","","","","","","",""
"","image","163","178064","0.0-163.0","""event"",""trial"",""time""
""fullscreenenter"",""0"",""1700""
","
","
","""event"",""trial"",""time""
""fullscreenenter"",""0"",""1700""
","
","1029.1999999999534","run_exp/static/images/Set 6_rs/064a.jpg","78","","","","","","learn","SR",""
"","show_choice","164","179036","0.0-164.0","""event"",""trial"",""time""
""fullscreenenter"",""0"",""1700""
","
","
","""event"",""trial"",""time""
""fullscreenenter"",""0"",""1700""
","
","null","run_exp/static/images/Set 6_rs/064a.jpg","null","","","","","","learn","SR",""
"","html-keyboard-response","165","179538","0.0-165.0","""event"",""trial"",""time""
""fullscreenenter"",""0"",""1700""
","
","
","""event"",""trial"",""time""
""fullscreenenter"",""0"",""1700""
","
","null","<p></p>","null","","","","","","","",""
"","image","166","180231","0.0-166.0","""event"",""trial"",""time""
""fullscreenenter"",""0"",""1700""
","
","
","""event"",""trial"",""time""
""fullscreenenter"",""0"",""1700""
","
","690","run_exp/static/images/Set 6_rs/150a.jpg","86","","","","","","learn","SR",""
"","show_choice","167","181544","0.0-167.0","""event"",""trial"",""time""
""fullscreenenter"",""0"",""1700""
","
","
","""event"",""trial"",""time""
""fullscreenenter"",""0"",""1700""
","
","null","run_exp/static/images/Set 6_rs/150a.jpg","null","","","","","","learn","SR",""
"","html-keyboard-response","168","182047","0.0-168.0","""event"",""trial"",""time""
""fullscreenenter"",""0"",""1700""
","
","
","""event"",""trial"",""time""
""fullscreenenter"",""0"",""1700""
","
","null","<p></p>","null","","","","","","","",""
"","image","169","182592","0.0-169.0","""event"",""trial"",""time""
""fullscreenenter"",""0"",""1700""
","
","
","""event"",""trial"",""time""
""fullscreenenter"",""0"",""1700""
","
","542.1999999999534","run_exp/static/images/Set 6_rs/089a.jpg","86","","","","","","learn","SL",""
"","show_choice","170","184051","0.0-170.0","""event"",""trial"",""time""
""fullscreenenter"",""0"",""1700""
","
","
","""event"",""trial"",""time""
""fullscreenenter"",""0"",""1700""
","
","null","run_exp/static/images/Set 6_rs/089a.jpg","null","","","","","","learn","SL",""
"","html-keyboard-response","171","184553","0.0-171.0","""event"",""trial"",""time""
""fullscreenenter"",""0"",""1700""
","
","
","""event"",""trial"",""time""
""fullscreenenter"",""0"",""1700""
","
","null","<p></p>","null","","","","","","","",""
"","image","172","185367","0.0-172.0","""event"",""trial"",""time""
""fullscreenenter"",""0"",""1700""
","
","
","""event"",""trial"",""time""
""fullscreenenter"",""0"",""1700""
","
","811","run_exp/static/images/Set 6_rs/074a.jpg","86","","","","","","learn","SL",""
"","show_choice","173","186559","0.0-173.0","""event"",""trial"",""time""
""fullscreenenter"",""0"",""1700""
","
","
","""event"",""trial"",""time""
""fullscreenenter"",""0"",""1700""
","
","null","run_exp/static/images/Set 6_rs/074a.jpg","null","","","","","","learn","SL",""
"","html-keyboard-response","174","187062","0.0-174.0","""event"",""trial"",""time""
""fullscreenenter"",""0"",""1700""
","
","
","""event"",""trial"",""time""
""fullscreenenter"",""0"",""1700""
","
","null","<p></p>","null","","","","","","","",""
"","image","175","188089","0.0-175.0","""event"",""trial"",""time""
""fullscreenenter"",""0"",""1700""
","
","
","""event"",""trial"",""time""
""fullscreenenter"",""0"",""1700""
","
","1023.0999999998603","run_exp/static/images/Set 6_rs/132a.jpg","86","","","","","","learn","SR",""
"","show_choice","176","189067","0.0-176.0","""event"",""trial"",""time""
""fullscreenenter"",""0"",""1700""
","
","
","""event"",""trial"",""time""
""fullscreenenter"",""0"",""1700""
","
","null","run_exp/static/images/Set 6_rs/132a.jpg","null","","","","","","learn","SR",""
"","html-keyboard-response","177","189570","0.0-177.0","""event"",""trial"",""time""
""fullscreenenter"",""0"",""1700""
","
","
","""event"",""trial"",""time""
""fullscreenenter"",""0"",""1700""
","
","null","<p></p>","null","","","","","","","",""
"","image","178","190464","0.0-178.0","""event"",""trial"",""time""
""fullscreenenter"",""0"",""1700""
","
","
","""event"",""trial"",""time""
""fullscreenenter"",""0"",""1700""
","
","890.5999999998603","run_exp/static/images/Set 6_rs/091a.jpg","86","","","","","","learn","SL",""
"","show_choice","179","191575","0.0-179.0","""event"",""trial"",""time""
""fullscreenenter"",""0"",""1700""
","
","
","""event"",""trial"",""time""
""fullscreenenter"",""0"",""1700""
","
","null","run_exp/static/images/Set 6_rs/091a.jpg","null","","","","","","learn","SL",""
"","html-keyboard-response","180","192078","0.0-180.0","""event"",""trial"",""time""
""fullscreenenter"",""0"",""1700""
","
","
","""event"",""trial"",""time""
""fullscreenenter"",""0"",""1700""
","
","null","<p></p>","null","","","","","","","",""
"","image","181","192952","0.0-181.0","""event"",""trial"",""time""
""fullscreenenter"",""0"",""1700""
","
","
","""event"",""trial"",""time""
""fullscreenenter"",""0"",""1700""
","
","869.7999999998137","run_exp/static/images/Set 6_rs/141a.jpg","78","","","","","","learn","SR",""
"","show_choice","182","194084","0.0-182.0","""event"",""trial"",""time""
""fullscreenenter"",""0"",""1700""
","
","
","""event"",""trial"",""time""
""fullscreenenter"",""0"",""1700""
","
","null","run_exp/static/images/Set 6_rs/141a.jpg","null","","","","","","learn","SR",""
"","html-keyboard-response","183","194586","0.0-183.0","""event"",""trial"",""time""
""fullscreenenter"",""0"",""1700""
","
","
","""event"",""trial"",""time""
""fullscreenenter"",""0"",""1700""
","
","null","<p></p>","null","","","","","","","",""
"","image","184","195496","0.0-184.0","""event"",""trial"",""time""
""fullscreenenter"",""0"",""1700""
","
","
","""event"",""trial"",""time""
""fullscreenenter"",""0"",""1700""
","
","905.8999999999069","run_exp/static/images/Set 6_rs/111a.jpg","86","","","","","","learn","SL",""
"","show_choice","185","196592","0.0-185.0","""event"",""trial"",""time""
""fullscreenenter"",""0"",""1700""
","
","
","""event"",""trial"",""time""
""fullscreenenter"",""0"",""1700""
","
","null","run_exp/static/images/Set 6_rs/111a.jpg","null","","","","","","learn","SL",""
"","html-keyboard-response","186","197095","0.0-186.0","""event"",""trial"",""time""
""fullscreenenter"",""0"",""1700""
","
","
","""event"",""trial"",""time""
""fullscreenenter"",""0"",""1700""
","
","null","<p></p>","null","","","","","","","",""
"","image","187","198136","0.0-187.0","""event"",""trial"",""time""
""fullscreenenter"",""0"",""1700""
","
","
","""event"",""trial"",""time""
""fullscreenenter"",""0"",""1700""
","
","1037.4000000001397","run_exp/static/images/Set 6_rs/122a.jpg","86","","","","","","learn","SR",""
"","show_choice","188","199101","0.0-188.0","""event"",""trial"",""time""
""fullscreenenter"",""0"",""1700""
","
","
","""event"",""trial"",""time""
""fullscreenenter"",""0"",""1700""
","
","null","run_exp/static/images/Set 6_rs/122a.jpg","null","","","","","","learn","SR",""
"","html-keyboard-response","189","199603","0.0-189.0","""event"",""trial"",""time""
""fullscreenenter"",""0"",""1700""
","
","
","""event"",""trial"",""time""
""fullscreenenter"",""0"",""1700""
","
","null","<p></p>","null","","","","","","","",""
"","image","190","200432","0.0-190.0","""event"",""trial"",""time""
""fullscreenenter"",""0"",""1700""
","
","
","""event"",""trial"",""time""
""fullscreenenter"",""0"",""1700""
","
","824","run_exp/static/images/Set 6_rs/168a.jpg","86","","","","","","learn","SL",""
"","show_choice","191","201612","0.0-191.0","""event"",""trial"",""time""
""fullscreenenter"",""0"",""1700""
","
","
","""event"",""trial"",""time""
""fullscreenenter"",""0"",""1700""
","
","null","run_exp/static/images/Set 6_rs/168a.jpg","null","","","","","","learn","SL",""
"","html-keyboard-response","192","202114","0.0-192.0","""event"",""trial"",""time""
""fullscreenenter"",""0"",""1700""
","
","
","""event"",""trial"",""time""
""fullscreenenter"",""0"",""1700""
","
","null","<p></p>","null","","","","","","","",""
"","image","193","202896","0.0-193.0","""event"",""trial"",""time""
""fullscreenenter"",""0"",""1700""
","
","
","""event"",""trial"",""time""
""fullscreenenter"",""0"",""1700""
","
","778.0999999998603","run_exp/static/images/Set 6_rs/010a.jpg","86","","","","","","learn","SR",""
"","show_choice","194","204121","0.0-194.0","""event"",""trial"",""time""
""fullscreenenter"",""0"",""1700""
","
","
","""event"",""trial"",""time""
""fullscreenenter"",""0"",""1700""
","
","null","run_exp/static/images/Set 6_rs/010a.jpg","null","","","","","","learn","SR",""
"","html-keyboard-response","195","204623","0.0-195.0","""event"",""trial"",""time""
""fullscreenenter"",""0"",""1700""
","
","
","""event"",""trial"",""time""
""fullscreenenter"",""0"",""1700""
","
","null","<p></p>","null","","","","","","","",""
"","test_intro","196","241558","0.0-196.0","""event"",""trial"",""time""
""fullscreenenter"",""0"",""1700""
","
","
","""event"",""trial"",""time""
""fullscreenenter"",""0"",""1700""
","
","null","run_exp/static/audio/clip_2_memory.m4a","null","","","","","<div class='center'><p>Now, lets see how much you remember about the items you just saw.  For each item, you need to indicate if it was <b>old</b> by pressing the <b>v</b> key, <b>similar</b> by pressing the <b>b</b> key, or <b>new</b> by pressing the <b>n</b> key.</p><p>Old refers to an item that you saw before in the indoor/outdoor game that you just played, new refers to an item you have <b>not</b> seen before within the indoor/outdoor game, and similar refers to an item that is similar to an item youve seen before but is not exactly the same. </p><p>Before we begin, lets go over some brief demonstrations to make sure you understand.</p></div>","","",""
"","html-keyboard-response","197","242216","0.0-197.0","""event"",""trial"",""time""
""fullscreenenter"",""0"",""1700""
","
","
","""event"",""trial"",""time""
""fullscreenenter"",""0"",""1700""
","
","654.3000000000466","<div class='center'><p>Now, lets see how much you remember about the items you just saw.  For each item, you need to indicate if it was <b>old</b> by pressing the <b>v</b> key, <b>similar</b> by pressing the <b>b</b> key, or <b>new</b> by pressing the <b>n</b> key.</p><p>Old refers to an item that you saw before in the indoor/outdoor game that you just played, new refers to an item you have <b>not</b> seen before within the indoor/outdoor game, and similar refers to an item that is similar to an item youve seen before but is not exactly the same. </p><p>Before we begin, lets go over some brief demonstrations to make sure you understand.</p><div><p><b>[Press the space bar to continue]</b></p></div>","32","","","","","","","",""
"","items","198","249720","0.0-198.0","""event"",""trial"",""time""
""fullscreenenter"",""0"",""1700""
","
","
","""event"",""trial"",""time""
""fullscreenenter"",""0"",""1700""
","
","null","run_exp/static/audio/clip_3_items.m4a","null","","","","","","","",""
"","mop","199","254228","0.0-199.0","""event"",""trial"",""time""
""fullscreenenter"",""0"",""1700""
","
","
","""event"",""trial"",""time""
""fullscreenenter"",""0"",""1700""
","
","null","run_exp/static/audio/clip_4_mop.m4a","null","","","","","","","",""
"","baseball","200","257737","0.0-200.0","""event"",""trial"",""time""
""fullscreenenter"",""0"",""1700""
","
","
","""event"",""trial"",""time""
""fullscreenenter"",""0"",""1700""
","
","null","run_exp/static/audio/clip_5_baseball.m4a","null","","","","","","","",""
"","trumpet","201","261245","0.0-201.0","""event"",""trial"",""time""
""fullscreenenter"",""0"",""1700""
","
","
","""event"",""trial"",""time""
""fullscreenenter"",""0"",""1700""
","
","null","run_exp/static/audio/clip_6_trumpet.m4a","null","","","","","","","",""
"","gummies","202","264756","0.0-202.0","""event"",""trial"",""time""
""fullscreenenter"",""0"",""1700""
","
","
","""event"",""trial"",""time""
""fullscreenenter"",""0"",""1700""
","
","null","run_exp/static/audio/clip_7_gummies.m4a","null","","","","","","","",""
"","osn","203","269261","0.0-203.0","""event"",""trial"",""time""
""fullscreenenter"",""0"",""1700""
","
","
","""event"",""trial"",""time""
""fullscreenenter"",""0"",""1700""
","
","null","run_exp/static/audio/clip_8_osn.m4a","null","","","","","","","",""
"","old_1","204","275767","0.0-204.0","""event"",""trial"",""time""
""fullscreenenter"",""0"",""1700""
","
","
","""event"",""trial"",""time""
""fullscreenenter"",""0"",""1700""
","
","null","run_exp/static/audio/clip_9_old_trumpet.m4a","null","","","","","","","",""
"","new_1","205","283273","0.0-205.0","""event"",""trial"",""time""
""fullscreenenter"",""0"",""1700""
","
","
","""event"",""trial"",""time""
""fullscreenenter"",""0"",""1700""
","
","null","run_exp/static/audio/clip_10_new_balloon.m4a","null","","","","","","","",""
"","similar_1a","206","287779","0.0-206.0","""event"",""trial"",""time""
""fullscreenenter"",""0"",""1700""
","
","
","""event"",""trial"",""time""
""fullscreenenter"",""0"",""1700""
","
","null","run_exp/static/audio/clip_11a_similar_mop.m4a","null","","","","","","","",""
"","similar_1b","207","294284","0.0-207.0","""event"",""trial"",""time""
""fullscreenenter"",""0"",""1700""
","
","
","""event"",""trial"",""time""
""fullscreenenter"",""0"",""1700""
","
","null","run_exp/static/audio/clip_11b_similar_mop.m4a","null","","","","","","","",""
"","new_2","208","297795","0.0-208.0","""event"",""trial"",""time""
""fullscreenenter"",""0"",""1700""
","
","
","""event"",""trial"",""time""
""fullscreenenter"",""0"",""1700""
","
","null","run_exp/static/audio/clip_12_new_stoplight.m4a","null","","","","","","","",""
"","old_2","209","301300","0.0-209.0","""event"",""trial"",""time""
""fullscreenenter"",""0"",""1700""
","
","
","""event"",""trial"",""time""
""fullscreenenter"",""0"",""1700""
","
","null","run_exp/static/audio/clip_13_old_baseball.m4a","null","","","","","","","",""
"","similar_2a","210","304813","0.0-210.0","""event"",""trial"",""time""
""fullscreenenter"",""0"",""1700""
","
","
","""event"",""trial"",""time""
""fullscreenenter"",""0"",""1700""
","
","null","run_exp/static/audio/clip_14a_similar_gummies.m4a","null","","","","","","","",""
"","similar_2b","211","312319","0.0-211.0","""event"",""trial"",""time""
""fullscreenenter"",""0"",""1700""
","
","
","""event"",""trial"",""time""
""fullscreenenter"",""0"",""1700""
","
","null","run_exp/static/audio/clip_14b_similar_gummies.m4a","null","","","","","","","",""
"","practice","212","354627","0.0-212.0","""event"",""trial"",""time""
""fullscreenenter"",""0"",""1700""
","
","
","""event"",""trial"",""time""
""fullscreenenter"",""0"",""1700""
","
","null","run_exp/static/audio/clip_15_practice.m4a","null","","","","","<div class='center'><p>Lets practice a little to make sure you understand the difference between new, similar, and old. Lets say you saw these three items in the indoor/outdoor game.</p><p> Try your best to remember these images because youll soon be tested on them in a practice game. In the practice game, youll be shown images and youll have to say if they are old (one of the three images belows), similar (similar to one of the images below but not exactly the same), or new (are not one of the images below nor similar to them).</p><p>Once you press the space bar youll be shown these images again but one at time. Then youll begin the practice game.</p><p><img src='run_exp/static/images/tutorial/test/three_indoor_outdoor.png' height='300'></p></div>","","",""
"","html-keyboard-response","213","355248","0.0-213.0","""event"",""trial"",""time""
""fullscreenenter"",""0"",""1700""
","
","
","""event"",""trial"",""time""
""fullscreenenter"",""0"",""1700""
","
","612.6999999999534","<div class='center'><p>Lets practice a little to make sure you understand the difference between new, similar, and old. Lets say you saw these three items in the indoor/outdoor game.</p><p> Try your best to remember these images because youll soon be tested on them in a practice game. In the practice game, youll be shown images and youll have to say if they are old (one of the three images belows), similar (similar to one of the images below but not exactly the same), or new (are not one of the images below nor similar to them).</p><p>Once you press the space bar youll be shown these images again but one at time. Then youll begin the practice game.</p><p><img src='run_exp/static/images/tutorial/test/three_indoor_outdoor.png' height='300'></p><div><p><b>[Press the space bar to continue]</b></p></div>","32","","","","","","","",""
"","planet","214","357251","0.0-214.0","""event"",""trial"",""time""
""fullscreenenter"",""0"",""1700""
","
","
","""event"",""trial"",""time""
""fullscreenenter"",""0"",""1700""
","
","null","run_exp/static/images/tutorial/test/008a.jpg","null","","","","","","","",""
"","boot","215","359254","0.0-215.0","""event"",""trial"",""time""
""fullscreenenter"",""0"",""1700""
","
","
","""event"",""trial"",""time""
""fullscreenenter"",""0"",""1700""
","
","null","run_exp/static/images/tutorial/test/011a.jpg","null","","","","","","","",""
"","lemon","216","361258","0.0-216.0","""event"",""trial"",""time""
""fullscreenenter"",""0"",""1700""
","
","
","""event"",""trial"",""time""
""fullscreenenter"",""0"",""1700""
","
","null","run_exp/static/images/tutorial/test/018a.jpg","null","","","","","","","",""
"","practice_q1","217","367352","0.0-217.0","""event"",""trial"",""time""
""fullscreenenter"",""0"",""1700""
","
","
","""event"",""trial"",""time""
""fullscreenenter"",""0"",""1700""
","
","6087.899999999907","run_exp/static/audio/clip_16_practice_question.m4a","78","","","","","","","",""
"","correct","218","369473","0.0-218.0-0.0","""event"",""trial"",""time""
""fullscreenenter"",""0"",""1700""
","
","
","""event"",""trial"",""time""
""fullscreenenter"",""0"",""1700""
","
","null","run_exp/static/audio/clip_17_correct.m4a","null","","","","","<div class='center'><p>That's correct!</p></div>","","",""
"","html-keyboard-response","219","370327","0.0-218.0-1.0","""event"",""trial"",""time""
""fullscreenenter"",""0"",""1700""
","
","
","""event"",""trial"",""time""
""fullscreenenter"",""0"",""1700""
","
","849.8999999999069","<div class='center'><p>That's correct!</p><div><p><b>[Press the space bar to continue]</b></p></div>","32","","","","","","","",""
"","practice_q2","220","372848","0.0-218.0-2.0","""event"",""trial"",""time""
""fullscreenenter"",""0"",""1700""
","
","
","""event"",""trial"",""time""
""fullscreenenter"",""0"",""1700""
","
","2518","run_exp/static/audio/clip_16_practice_question.m4a","86","","","","","","","",""
"","correct","221","374934","0.0-219.0-0.0","""event"",""trial"",""time""
""fullscreenenter"",""0"",""1700""
","
","
","""event"",""trial"",""time""
""fullscreenenter"",""0"",""1700""
","
","null","run_exp/static/audio/clip_17_correct.m4a","null","","","","","<div class='center'><p>That's correct!</p></div>","","",""
"","html-keyboard-response","222","375624","0.0-219.0-1.0","""event"",""trial"",""time""
""fullscreenenter"",""0"",""1700""
","
","
","""event"",""trial"",""time""
""fullscreenenter"",""0"",""1700""
","
","684.8000000000466","<div class='center'><p>That's correct!</p><div><p><b>[Press the space bar to continue]</b></p></div>","32","","","","","","","",""
"","practice_q3","223","377432","0.0-219.0-2.0","""event"",""trial"",""time""
""fullscreenenter"",""0"",""1700""
","
","
","""event"",""trial"",""time""
""fullscreenenter"",""0"",""1700""
","
","1804.1000000000931","run_exp/static/audio/clip_16_practice_question.m4a","66","","","","","","","",""
"","correct","224","379969","0.0-220.0-0.0","""event"",""trial"",""time""
""fullscreenenter"",""0"",""1700""
","
","
","""event"",""trial"",""time""
""fullscreenenter"",""0"",""1700""
","
","null","run_exp/static/audio/clip_17_correct.m4a","null","","","","","<div class='center'><p>That's correct!</p></div>","","",""
"","html-keyboard-response","225","381064","0.0-220.0-1.0","""event"",""trial"",""time""
""fullscreenenter"",""0"",""1700""
","
","
","""event"",""trial"",""time""
""fullscreenenter"",""0"",""1700""
","
","1092.6000000000931","<div class='center'><p>That's correct!</p><div><p><b>[Press the space bar to continue]</b></p></div>","32","","","","","","","",""
"","begin_text","226","399681","0.0-221.0-0.0","""event"",""trial"",""time""
""fullscreenenter"",""0"",""1700""
","
","
","""event"",""trial"",""time""
""fullscreenenter"",""0"",""1700""
","
","null","run_exp/static/audio/clip_22_begin_test.m4a","null","","","","","<div class='center'><p>On to the real game where well test your memory of items from the indoor/outdoor game. For each item, you need to indicate if the item is <b>old</b> by pressing the <b>v</b> key, <b>similar</b> by pressing the <b>b</b> key, or <b>new</b> by pressing the <b>n</b> key. </p></div>","","",""
"","html-keyboard-response","227","399936","0.0-221.0-1.0","""event"",""trial"",""time""
""fullscreenenter"",""0"",""1700""
","
","
","""event"",""trial"",""time""
""fullscreenenter"",""0"",""1700""
","
","250.89999999990687","<div class='center'><p>On to the real game where well test your memory of items from the indoor/outdoor game. For each item, you need to indicate if the item is <b>old</b> by pressing the <b>v</b> key, <b>similar</b> by pressing the <b>b</b> key, or <b>new</b> by pressing the <b>n</b> key. </p><div><p><b>[Press the space bar to continue]</b></p></div>","32","","","","","","","",""
"","image","228","402232","0.0-222.0-0.0","""event"",""trial"",""time""
""fullscreenenter"",""0"",""1700""
","
","
","""event"",""trial"",""time""
""fullscreenenter"",""0"",""1700""
","
","2292.6999999999534","run_exp/static/images/Set 6_rs/187a.jpg","86","","","","","","test","TR","3"
"","show_choice","229","402735","0.0-222.0-1.0","""event"",""trial"",""time""
""fullscreenenter"",""0"",""1700""
","
","
","""event"",""trial"",""time""
""fullscreenenter"",""0"",""1700""
","
","null","run_exp/static/images/Set 6_rs/187a.jpg","null","","","","","","test","TR",""
"","html-keyboard-response","230","403238","0.0-222.0-2.0","""event"",""trial"",""time""
""fullscreenenter"",""0"",""1700""
","
","
","""event"",""trial"",""time""
""fullscreenenter"",""0"",""1700""
","
","null","<p></p>","null","","","","","","","",""
"","image","231","404472","0.0-223.0-0.0","""event"",""trial"",""time""
""fullscreenenter"",""0"",""1700""
","
","
","""event"",""trial"",""time""
""fullscreenenter"",""0"",""1700""
","
","1227.5","run_exp/static/images/Set 6_rs/061a.jpg","86","","","","","","test","TR","5"
"","show_choice","232","404975","0.0-223.0-1.0","""event"",""trial"",""time""
""fullscreenenter"",""0"",""1700""
","
","
","""event"",""trial"",""time""
""fullscreenenter"",""0"",""1700""
","
","null","run_exp/static/images/Set 6_rs/061a.jpg","null","","","","","","test","TR",""
"","html-keyboard-response","233","405479","0.0-223.0-2.0","""event"",""trial"",""time""
""fullscreenenter"",""0"",""1700""
","
","
","""event"",""trial"",""time""
""fullscreenenter"",""0"",""1700""
","
","null","<p></p>","null","","","","","","","",""
"","image","234","406568","0.0-224.0-0.0","""event"",""trial"",""time""
""fullscreenenter"",""0"",""1700""
","
","
","""event"",""trial"",""time""
""fullscreenenter"",""0"",""1700""
","
","1084.5","run_exp/static/images/Set 6_rs/186a.jpg","86","","","","","","test","TR","5"
"","show_choice","235","407071","0.0-224.0-1.0","""event"",""trial"",""time""
""fullscreenenter"",""0"",""1700""
","
","
","""event"",""trial"",""time""
""fullscreenenter"",""0"",""1700""
","
","null","run_exp/static/images/Set 6_rs/186a.jpg","null","","","","","","test","TR",""
"","html-keyboard-response","236","407574","0.0-224.0-2.0","""event"",""trial"",""time""
""fullscreenenter"",""0"",""1700""
","
","
","""event"",""trial"",""time""
""fullscreenenter"",""0"",""1700""
","
","null","<p></p>","null","","","","","","","",""
"","image","237","408625","0.0-225.0-0.0","""event"",""trial"",""time""
""fullscreenenter"",""0"",""1700""
","
","
","""event"",""trial"",""time""
""fullscreenenter"",""0"",""1700""
","
","1045.7999999998137","run_exp/static/images/Set 6_rs/176a.jpg","66","","","","","","test","TF","4"
"","show_choice","238","409130","0.0-225.0-1.0","""event"",""trial"",""time""
""fullscreenenter"",""0"",""1700""
","
","
","""event"",""trial"",""time""
""fullscreenenter"",""0"",""1700""
","
","null","run_exp/static/images/Set 6_rs/176a.jpg","null","","","","","","test","TF",""
"","html-keyboard-response","239","409633","0.0-225.0-2.0","""event"",""trial"",""time""
""fullscreenenter"",""0"",""1700""
","
","
","""event"",""trial"",""time""
""fullscreenenter"",""0"",""1700""
","
","null","<p></p>","null","","","","","","","",""
"","image","240","410952","0.0-226.0-0.0","""event"",""trial"",""time""
""fullscreenenter"",""0"",""1700""
","
","
","""event"",""trial"",""time""
""fullscreenenter"",""0"",""1700""
","
","1314.7999999998137","run_exp/static/images/Set 6_rs/091b.jpg","86","","","","","","test","TL","3"
"","show_choice","241","411455","0.0-226.0-1.0","""event"",""trial"",""time""
""fullscreenenter"",""0"",""1700""
","
","
","""event"",""trial"",""time""
""fullscreenenter"",""0"",""1700""
","
","null","run_exp/static/images/Set 6_rs/091b.jpg","null","","","","","","test","TL",""
"","html-keyboard-response","242","411957","0.0-226.0-2.0","""event"",""trial"",""time""
""fullscreenenter"",""0"",""1700""
","
","
","""event"",""trial"",""time""
""fullscreenenter"",""0"",""1700""
","
","null","<p></p>","null","","","","","","","",""
"","image","243","413336","0.0-227.0-0.0","""event"",""trial"",""time""
""fullscreenenter"",""0"",""1700""
","
","
","""event"",""trial"",""time""
""fullscreenenter"",""0"",""1700""
","
","1375.1999999999534","run_exp/static/images/Set 6_rs/089b.jpg","86","","","","","","test","TL","4"
"","show_choice","244","413839","0.0-227.0-1.0","""event"",""trial"",""time""
""fullscreenenter"",""0"",""1700""
","
","
","""event"",""trial"",""time""
""fullscreenenter"",""0"",""1700""
","
","null","run_exp/static/images/Set 6_rs/089b.jpg","null","","","","","","test","TL",""
"","html-keyboard-response","245","414342","0.0-227.0-2.0","""event"",""trial"",""time""
""fullscreenenter"",""0"",""1700""
","
","
","""event"",""trial"",""time""
""fullscreenenter"",""0"",""1700""
","
","null","<p></p>","null","","","","","","","",""
"","image","246","416048","0.0-228.0-0.0","""event"",""trial"",""time""
""fullscreenenter"",""0"",""1700""
","
","
","""event"",""trial"",""time""
""fullscreenenter"",""0"",""1700""
","
","1701.6000000000931","run_exp/static/images/Set 6_rs/045a.jpg","86","","","","","","test","TR","2"
"","show_choice","247","416551","0.0-228.0-1.0","""event"",""trial"",""time""
""fullscreenenter"",""0"",""1700""
","
","
","""event"",""trial"",""time""
""fullscreenenter"",""0"",""1700""
","
","null","run_exp/static/images/Set 6_rs/045a.jpg","null","","","","","","test","TR",""
"","html-keyboard-response","248","417054","0.0-228.0-2.0","""event"",""trial"",""time""
""fullscreenenter"",""0"",""1700""
","
","
","""event"",""trial"",""time""
""fullscreenenter"",""0"",""1700""
","
","null","<p></p>","null","","","","","","","",""
"","image","249","418392","0.0-229.0-0.0","""event"",""trial"",""time""
""fullscreenenter"",""0"",""1700""
","
","
","""event"",""trial"",""time""
""fullscreenenter"",""0"",""1700""
","
","1333.3999999999069","run_exp/static/images/Set 6_rs/024a.jpg","86","","","","","","test","TR","5"
"","show_choice","250","418895","0.0-229.0-1.0","""event"",""trial"",""time""
""fullscreenenter"",""0"",""1700""
","
","
","""event"",""trial"",""time""
""fullscreenenter"",""0"",""1700""
","
","null","run_exp/static/images/Set 6_rs/024a.jpg","null","","","","","","test","TR",""
"","html-keyboard-response","251","419398","0.0-229.0-2.0","""event"",""trial"",""time""
""fullscreenenter"",""0"",""1700""
","
","
","""event"",""trial"",""time""
""fullscreenenter"",""0"",""1700""
","
","null","<p></p>","null","","","","","","","",""
"","image","252","420272","0.0-230.0-0.0","""event"",""trial"",""time""
""fullscreenenter"",""0"",""1700""
","
","
","""event"",""trial"",""time""
""fullscreenenter"",""0"",""1700""
","
","870","run_exp/static/images/Set 6_rs/050b.jpg","66","","","","","","test","TL","3"
"","show_choice","253","420775","0.0-230.0-1.0","""event"",""trial"",""time""
""fullscreenenter"",""0"",""1700""
","
","
","""event"",""trial"",""time""
""fullscreenenter"",""0"",""1700""
","
","null","run_exp/static/images/Set 6_rs/050b.jpg","null","","","","","","test","TL",""
"","html-keyboard-response","254","421278","0.0-230.0-2.0","""event"",""trial"",""time""
""fullscreenenter"",""0"",""1700""
","
","
","""event"",""trial"",""time""
""fullscreenenter"",""0"",""1700""
","
","null","<p></p>","null","","","","","","","",""
"","image","255","422640","0.0-231.0-0.0","""event"",""trial"",""time""
""fullscreenenter"",""0"",""1700""
","
","
","""event"",""trial"",""time""
""fullscreenenter"",""0"",""1700""
","
","1358","run_exp/static/images/Set 6_rs/019b.jpg","66","","","","","","test","TL","2"
"","show_choice","256","423143","0.0-231.0-1.0","""event"",""trial"",""time""
""fullscreenenter"",""0"",""1700""
","
","
","""event"",""trial"",""time""
""fullscreenenter"",""0"",""1700""
","
","null","run_exp/static/images/Set 6_rs/019b.jpg","null","","","","","","test","TL",""
"","html-keyboard-response","257","423646","0.0-231.0-2.0","""event"",""trial"",""time""
""fullscreenenter"",""0"",""1700""
","
","
","""event"",""trial"",""time""
""fullscreenenter"",""0"",""1700""
","
","null","<p></p>","null","","","","","","","",""
"","image","258","425616","0.0-232.0-0.0","""event"",""trial"",""time""
""fullscreenenter"",""0"",""1700""
","
","
","""event"",""trial"",""time""
""fullscreenenter"",""0"",""1700""
","
","1966.4000000001397","run_exp/static/images/Set 6_rs/017b.jpg","86","","","","","","test","TL","3"
"","show_choice","259","426119","0.0-232.0-1.0","""event"",""trial"",""time""
""fullscreenenter"",""0"",""1700""
","
","
","""event"",""trial"",""time""
""fullscreenenter"",""0"",""1700""
","
","null","run_exp/static/images/Set 6_rs/017b.jpg","null","","","","","","test","TL",""
"","html-keyboard-response","260","426622","0.0-232.0-2.0","""event"",""trial"",""time""
""fullscreenenter"",""0"",""1700""
","
","
","""event"",""trial"",""time""
""fullscreenenter"",""0"",""1700""
","
","null","<p></p>","null","","","","","","","",""
"","image","261","428032","0.0-233.0-0.0","""event"",""trial"",""time""
""fullscreenenter"",""0"",""1700""
","
","
","""event"",""trial"",""time""
""fullscreenenter"",""0"",""1700""
","
","1405.7999999998137","run_exp/static/images/Set 6_rs/117b.jpg","86","","","","","","test","TL","5"
"","show_choice","262","428535","0.0-233.0-1.0","""event"",""trial"",""time""
""fullscreenenter"",""0"",""1700""
","
","
","""event"",""trial"",""time""
""fullscreenenter"",""0"",""1700""
","
","null","run_exp/static/images/Set 6_rs/117b.jpg","null","","","","","","test","TL",""
"","html-keyboard-response","263","429037","0.0-233.0-2.0","""event"",""trial"",""time""
""fullscreenenter"",""0"",""1700""
","
","
","""event"",""trial"",""time""
""fullscreenenter"",""0"",""1700""
","
","null","<p></p>","null","","","","","","","",""
"","image","264","431496","0.0-234.0-0.0","""event"",""trial"",""time""
""fullscreenenter"",""0"",""1700""
","
","
","""event"",""trial"",""time""
""fullscreenenter"",""0"",""1700""
","
","2455.1999999999534","run_exp/static/images/Set 6_rs/097a.jpg","78","","","","","","test","TF","5"
"","show_choice","265","431999","0.0-234.0-1.0","""event"",""trial"",""time""
""fullscreenenter"",""0"",""1700""
","
","
","""event"",""trial"",""time""
""fullscreenenter"",""0"",""1700""
","
","null","run_exp/static/images/Set 6_rs/097a.jpg","null","","","","","","test","TF",""
"","html-keyboard-response","266","432501","0.0-234.0-2.0","""event"",""trial"",""time""
""fullscreenenter"",""0"",""1700""
","
","
","""event"",""trial"",""time""
""fullscreenenter"",""0"",""1700""
","
","null","<p></p>","null","","","","","","","",""
"","image","267","433560","0.0-235.0-0.0","""event"",""trial"",""time""
""fullscreenenter"",""0"",""1700""
","
","
","""event"",""trial"",""time""
""fullscreenenter"",""0"",""1700""
","
","1055.8000000000466","run_exp/static/images/Set 6_rs/138b.jpg","78","","","","","","test","TL","1"
"","show_choice","268","434064","0.0-235.0-1.0","""event"",""trial"",""time""
""fullscreenenter"",""0"",""1700""
","
","
","""event"",""trial"",""time""
""fullscreenenter"",""0"",""1700""
","
","null","run_exp/static/images/Set 6_rs/138b.jpg","null","","","","","","test","TL",""
"","html-keyboard-response","269","434567","0.0-235.0-2.0","""event"",""trial"",""time""
""fullscreenenter"",""0"",""1700""
","
","
","""event"",""trial"",""time""
""fullscreenenter"",""0"",""1700""
","
","null","<p></p>","null","","","","","","","",""
"","image","270","437320","0.0-236.0-0.0","""event"",""trial"",""time""
""fullscreenenter"",""0"",""1700""
","
","
","""event"",""trial"",""time""
""fullscreenenter"",""0"",""1700""
","
","2749.1999999999534","run_exp/static/images/Set 6_rs/155a.jpg","86","","","","","","test","TF","4"
"","show_choice","271","437824","0.0-236.0-1.0","""event"",""trial"",""time""
""fullscreenenter"",""0"",""1700""
","
","
","""event"",""trial"",""time""
""fullscreenenter"",""0"",""1700""
","
","null","run_exp/static/images/Set 6_rs/155a.jpg","null","","","","","","test","TF",""
"","html-keyboard-response","272","438327","0.0-236.0-2.0","""event"",""trial"",""time""
""fullscreenenter"",""0"",""1700""
","
","
","""event"",""trial"",""time""
""fullscreenenter"",""0"",""1700""
","
","null","<p></p>","null","","","","","","","",""
"","image","273","439448","0.0-237.0-0.0","""event"",""trial"",""time""
""fullscreenenter"",""0"",""1700""
","
","
","""event"",""trial"",""time""
""fullscreenenter"",""0"",""1700""
","
","1116.9000000001397","run_exp/static/images/Set 6_rs/141a.jpg","86","","","","","","test","TR","2"
"","show_choice","274","439951","0.0-237.0-1.0","""event"",""trial"",""time""
""fullscreenenter"",""0"",""1700""
","
","
","""event"",""trial"",""time""
""fullscreenenter"",""0"",""1700""
","
","null","run_exp/static/images/Set 6_rs/141a.jpg","null","","","","","","test","TR",""
"","html-keyboard-response","275","440454","0.0-237.0-2.0","""event"",""trial"",""time""
""fullscreenenter"",""0"",""1700""
","
","
","""event"",""trial"",""time""
""fullscreenenter"",""0"",""1700""
","
","null","<p></p>","null","","","","","","","",""
"","image","276","442008","0.0-238.0-0.0","""event"",""trial"",""time""
""fullscreenenter"",""0"",""1700""
","
","
","""event"",""trial"",""time""
""fullscreenenter"",""0"",""1700""
","
","1550.5","run_exp/static/images/Set 6_rs/006b.jpg","86","","","","","","test","TL","2"
"","show_choice","277","442511","0.0-238.0-1.0","""event"",""trial"",""time""
""fullscreenenter"",""0"",""1700""
","
","
","""event"",""trial"",""time""
""fullscreenenter"",""0"",""1700""
","
","null","run_exp/static/images/Set 6_rs/006b.jpg","null","","","","","","test","TL",""
"","html-keyboard-response","278","443013","0.0-238.0-2.0","""event"",""trial"",""time""
""fullscreenenter"",""0"",""1700""
","
","
","""event"",""trial"",""time""
""fullscreenenter"",""0"",""1700""
","
","null","<p></p>","null","","","","","","","",""
"","image","279","443969","0.0-239.0-0.0","""event"",""trial"",""time""
""fullscreenenter"",""0"",""1700""
","
","
","""event"",""trial"",""time""
""fullscreenenter"",""0"",""1700""
","
","951.8999999999069","run_exp/static/images/Set 6_rs/025b.jpg","86","","","","","","test","TL","5"
"","show_choice","280","444472","0.0-239.0-1.0","""event"",""trial"",""time""
""fullscreenenter"",""0"",""1700""
","
","
","""event"",""trial"",""time""
""fullscreenenter"",""0"",""1700""
","
","null","run_exp/static/images/Set 6_rs/025b.jpg","null","","","","","","test","TL",""
"","html-keyboard-response","281","444974","0.0-239.0-2.0","""event"",""trial"",""time""
""fullscreenenter"",""0"",""1700""
","
","
","""event"",""trial"",""time""
""fullscreenenter"",""0"",""1700""
","
","null","<p></p>","null","","","","","","","",""
"","image","282","446048","0.0-240.0-0.0","""event"",""trial"",""time""
""fullscreenenter"",""0"",""1700""
","
","
","""event"",""trial"",""time""
""fullscreenenter"",""0"",""1700""
","
","1069.7999999998137","run_exp/static/images/Set 6_rs/122a.jpg","86","","","","","","test","TR","5"
"","show_choice","283","446551","0.0-240.0-1.0","""event"",""trial"",""time""
""fullscreenenter"",""0"",""1700""
","
","
","""event"",""trial"",""time""
""fullscreenenter"",""0"",""1700""
","
","null","run_exp/static/images/Set 6_rs/122a.jpg","null","","","","","","test","TR",""
"","html-keyboard-response","284","447053","0.0-240.0-2.0","""event"",""trial"",""time""
""fullscreenenter"",""0"",""1700""
","
","
","""event"",""trial"",""time""
""fullscreenenter"",""0"",""1700""
","
","null","<p></p>","null","","","","","","","",""
"","image","285","448032","0.0-241.0-0.0","""event"",""trial"",""time""
""fullscreenenter"",""0"",""1700""
","
","
","""event"",""trial"",""time""
""fullscreenenter"",""0"",""1700""
","
","974.1999999999534","run_exp/static/images/Set 6_rs/166a.jpg","86","","","","","","test","TR","1"
"","show_choice","286","448535","0.0-241.0-1.0","""event"",""trial"",""time""
""fullscreenenter"",""0"",""1700""
","
","
","""event"",""trial"",""time""
""fullscreenenter"",""0"",""1700""
","
","null","run_exp/static/images/Set 6_rs/166a.jpg","null","","","","","","test","TR",""
"","html-keyboard-response","287","449038","0.0-241.0-2.0","""event"",""trial"",""time""
""fullscreenenter"",""0"",""1700""
","
","
","""event"",""trial"",""time""
""fullscreenenter"",""0"",""1700""
","
","null","<p></p>","null","","","","","","","",""
"","image","288","450424","0.0-242.0-0.0","""event"",""trial"",""time""
""fullscreenenter"",""0"",""1700""
","
","
","""event"",""trial"",""time""
""fullscreenenter"",""0"",""1700""
","
","1382.5999999998603","run_exp/static/images/Set 6_rs/016b.jpg","66","","","","","","test","TL","1"
"","show_choice","289","450927","0.0-242.0-1.0","""event"",""trial"",""time""
""fullscreenenter"",""0"",""1700""
","
","
","""event"",""trial"",""time""
""fullscreenenter"",""0"",""1700""
","
","null","run_exp/static/images/Set 6_rs/016b.jpg","null","","","","","","test","TL",""
"","html-keyboard-response","290","451430","0.0-242.0-2.0","""event"",""trial"",""time""
""fullscreenenter"",""0"",""1700""
","
","
","""event"",""trial"",""time""
""fullscreenenter"",""0"",""1700""
","
","null","<p></p>","null","","","","","","","",""
"","image","291","452456","0.0-243.0-0.0","""event"",""trial"",""time""
""fullscreenenter"",""0"",""1700""
","
","
","""event"",""trial"",""time""
""fullscreenenter"",""0"",""1700""
","
","1022.3000000000466","run_exp/static/images/Set 6_rs/055b.jpg","86","","","","","","test","TL","4"
"","show_choice","292","452959","0.0-243.0-1.0","""event"",""trial"",""time""
""fullscreenenter"",""0"",""1700""
","
","
","""event"",""trial"",""time""
""fullscreenenter"",""0"",""1700""
","
","null","run_exp/static/images/Set 6_rs/055b.jpg","null","","","","","","test","TL",""
"","html-keyboard-response","293","453462","0.0-243.0-2.0","""event"",""trial"",""time""
""fullscreenenter"",""0"",""1700""
","
","
","""event"",""trial"",""time""
""fullscreenenter"",""0"",""1700""
","
","null","<p></p>","null","","","","","","","",""
"","image","294","454417","0.0-244.0-0.0","""event"",""trial"",""time""
""fullscreenenter"",""0"",""1700""
","
","
","""event"",""trial"",""time""
""fullscreenenter"",""0"",""1700""
","
","948.9000000001397","run_exp/static/images/Set 6_rs/085b.jpg","86","","","","","","test","TL","1"
"","show_choice","295","454920","0.0-244.0-1.0","""event"",""trial"",""time""
""fullscreenenter"",""0"",""1700""
","
","
","""event"",""trial"",""time""
""fullscreenenter"",""0"",""1700""
","
","null","run_exp/static/images/Set 6_rs/085b.jpg","null","","","","","","test","TL",""
"","html-keyboard-response","296","455423","0.0-244.0-2.0","""event"",""trial"",""time""
""fullscreenenter"",""0"",""1700""
","
","
","""event"",""trial"",""time""
""fullscreenenter"",""0"",""1700""
","
","null","<p></p>","null","","","","","","","",""
"","image","297","456808","0.0-245.0-0.0","""event"",""trial"",""time""
""fullscreenenter"",""0"",""1700""
","
","
","""event"",""trial"",""time""
""fullscreenenter"",""0"",""1700""
","
","1380.6999999999534","run_exp/static/images/Set 6_rs/090a.jpg","78","","","","","","test","TF","5"
"","show_choice","298","457311","0.0-245.0-1.0","""event"",""trial"",""time""
""fullscreenenter"",""0"",""1700""
","
","
","""event"",""trial"",""time""
""fullscreenenter"",""0"",""1700""
","
","null","run_exp/static/images/Set 6_rs/090a.jpg","null","","","","","","test","TF",""
"","html-keyboard-response","299","457813","0.0-245.0-2.0","""event"",""trial"",""time""
""fullscreenenter"",""0"",""1700""
","
","
","""event"",""trial"",""time""
""fullscreenenter"",""0"",""1700""
","
","null","<p></p>","null","","","","","","","",""
"","image","300","458808","0.0-246.0-0.0","""event"",""trial"",""time""
""fullscreenenter"",""0"",""1700""
","
","
","""event"",""trial"",""time""
""fullscreenenter"",""0"",""1700""
","
","991.3999999999069","run_exp/static/images/Set 6_rs/171a.jpg","86","","","","","","test","TF","1"
"","show_choice","301","459310","0.0-246.0-1.0","""event"",""trial"",""time""
""fullscreenenter"",""0"",""1700""
","
","
","""event"",""trial"",""time""
""fullscreenenter"",""0"",""1700""
","
","null","run_exp/static/images/Set 6_rs/171a.jpg","null","","","","","","test","TF",""
"","html-keyboard-response","302","459814","0.0-246.0-2.0","""event"",""trial"",""time""
""fullscreenenter"",""0"",""1700""
","
","
","""event"",""trial"",""time""
""fullscreenenter"",""0"",""1700""
","
","null","<p></p>","null","","","","","","","",""
"","image","303","461824","0.0-247.0-0.0","""event"",""trial"",""time""
""fullscreenenter"",""0"",""1700""
","
","
","""event"",""trial"",""time""
""fullscreenenter"",""0"",""1700""
","
","2006","run_exp/static/images/Set 6_rs/109a.jpg","78","","","","","","test","TF","5"
"","show_choice","304","462327","0.0-247.0-1.0","""event"",""trial"",""time""
""fullscreenenter"",""0"",""1700""
","
","
","""event"",""trial"",""time""
""fullscreenenter"",""0"",""1700""
","
","null","run_exp/static/images/Set 6_rs/109a.jpg","null","","","","","","test","TF",""
"","html-keyboard-response","305","462830","0.0-247.0-2.0","""event"",""trial"",""time""
""fullscreenenter"",""0"",""1700""
","
","
","""event"",""trial"",""time""
""fullscreenenter"",""0"",""1700""
","
","null","<p></p>","null","","","","","","","",""
"","image","306","465835","0.0-248.0-0.0","""event"",""trial"",""time""
""fullscreenenter"",""0"",""1700""
","
","
","""event"",""trial"",""time""
""fullscreenenter"",""0"",""1700""
","
","null","run_exp/static/images/Set 6_rs/047a.jpg","null","","","","","","test","TF","3"
"","show_choice","307","466339","0.0-248.0-1.0","""event"",""trial"",""time""
""fullscreenenter"",""0"",""1700""
","
","
","""event"",""trial"",""time""
""fullscreenenter"",""0"",""1700""
","
","null","run_exp/static/images/Set 6_rs/047a.jpg","null","","","","","","test","TF",""
"","html-keyboard-response","308","466841","0.0-248.0-2.0","""event"",""trial"",""time""
""fullscreenenter"",""0"",""1700""
","
","
","""event"",""trial"",""time""
""fullscreenenter"",""0"",""1700""
","
","null","<p></p>","null","","","","","","","",""
"","image","309","467800","0.0-249.0-0.0","""event"",""trial"",""time""
""fullscreenenter"",""0"",""1700""
","
","
","""event"",""trial"",""time""
""fullscreenenter"",""0"",""1700""
","
","955","run_exp/static/images/Set 6_rs/177a.jpg","86","","","","","","test","TR","5"
"","show_choice","310","468303","0.0-249.0-1.0","""event"",""trial"",""time""
""fullscreenenter"",""0"",""1700""
","
","
","""event"",""trial"",""time""
""fullscreenenter"",""0"",""1700""
","
","null","run_exp/static/images/Set 6_rs/177a.jpg","null","","","","","","test","TR",""
"","html-keyboard-response","311","468805","0.0-249.0-2.0","""event"",""trial"",""time""
""fullscreenenter"",""0"",""1700""
","
","
","""event"",""trial"",""time""
""fullscreenenter"",""0"",""1700""
","
","null","<p></p>","null","","","","","","","",""
"","image","312","469696","0.0-250.0-0.0","""event"",""trial"",""time""
""fullscreenenter"",""0"",""1700""
","
","
","""event"",""trial"",""time""
""fullscreenenter"",""0"",""1700""
","
","886.5999999998603","run_exp/static/images/Set 6_rs/071b.jpg","86","","","","","","test","TL","4"
"","show_choice","313","470200","0.0-250.0-1.0","""event"",""trial"",""time""
""fullscreenenter"",""0"",""1700""
","
","
","""event"",""trial"",""time""
""fullscreenenter"",""0"",""1700""
","
","null","run_exp/static/images/Set 6_rs/071b.jpg","null","","","","","","test","TL",""
"","html-keyboard-response","314","470703","0.0-250.0-2.0","""event"",""trial"",""time""
""fullscreenenter"",""0"",""1700""
","
","
","""event"",""trial"",""time""
""fullscreenenter"",""0"",""1700""
","
","null","<p></p>","null","","","","","","","",""
"","image","315","471680","0.0-251.0-0.0","""event"",""trial"",""time""
""fullscreenenter"",""0"",""1700""
","
","
","""event"",""trial"",""time""
""fullscreenenter"",""0"",""1700""
","
","974.1000000000931","run_exp/static/images/Set 6_rs/133a.jpg","78","","","","","","test","TF","4"
"","show_choice","316","472183","0.0-251.0-1.0","""event"",""trial"",""time""
""fullscreenenter"",""0"",""1700""
","
","
","""event"",""trial"",""time""
""fullscreenenter"",""0"",""1700""
","
","null","run_exp/static/images/Set 6_rs/133a.jpg","null","","","","","","test","TF",""
"","html-keyboard-response","317","472686","0.0-251.0-2.0","""event"",""trial"",""time""
""fullscreenenter"",""0"",""1700""
","
","
","""event"",""trial"",""time""
""fullscreenenter"",""0"",""1700""
","
","null","<p></p>","null","","","","","","","",""
"","image","318","473896","0.0-252.0-0.0","""event"",""trial"",""time""
""fullscreenenter"",""0"",""1700""
","
","
","""event"",""trial"",""time""
""fullscreenenter"",""0"",""1700""
","
","1205.8999999999069","run_exp/static/images/Set 6_rs/073b.jpg","86","","","","","","test","TL","3"
"","show_choice","319","474399","0.0-252.0-1.0","""event"",""trial"",""time""
""fullscreenenter"",""0"",""1700""
","
","
","""event"",""trial"",""time""
""fullscreenenter"",""0"",""1700""
","
","null","run_exp/static/images/Set 6_rs/073b.jpg","null","","","","","","test","TL",""
"","html-keyboard-response","320","474902","0.0-252.0-2.0","""event"",""trial"",""time""
""fullscreenenter"",""0"",""1700""
","
","
","""event"",""trial"",""time""
""fullscreenenter"",""0"",""1700""
","
","null","<p></p>","null","","","","","","","",""
"","image","321","476008","0.0-253.0-0.0","""event"",""trial"",""time""
""fullscreenenter"",""0"",""1700""
","
","
","""event"",""trial"",""time""
""fullscreenenter"",""0"",""1700""
","
","1103.8999999999069","run_exp/static/images/Set 6_rs/057b.jpg","86","","","","","","test","TL","1"
"","show_choice","322","476511","0.0-253.0-1.0","""event"",""trial"",""time""
""fullscreenenter"",""0"",""1700""
","
","
","""event"",""trial"",""time""
""fullscreenenter"",""0"",""1700""
","
","null","run_exp/static/images/Set 6_rs/057b.jpg","null","","","","","","test","TL",""
"","html-keyboard-response","323","477013","0.0-253.0-2.0","""event"",""trial"",""time""
""fullscreenenter"",""0"",""1700""
","
","
","""event"",""trial"",""time""
""fullscreenenter"",""0"",""1700""
","
","null","<p></p>","null","","","","","","","",""
"","image","324","478064","0.0-254.0-0.0","""event"",""trial"",""time""
""fullscreenenter"",""0"",""1700""
","
","
","""event"",""trial"",""time""
""fullscreenenter"",""0"",""1700""
","
","1047.3999999999069","run_exp/static/images/Set 6_rs/150a.jpg","86","","","","","","test","TR","1"
"","show_choice","325","478567","0.0-254.0-1.0","""event"",""trial"",""time""
""fullscreenenter"",""0"",""1700""
","
","
","""event"",""trial"",""time""
""fullscreenenter"",""0"",""1700""
","
","null","run_exp/static/images/Set 6_rs/150a.jpg","null","","","","","","test","TR",""
"","html-keyboard-response","326","479070","0.0-254.0-2.0","""event"",""trial"",""time""
""fullscreenenter"",""0"",""1700""
","
","
","""event"",""trial"",""time""
""fullscreenenter"",""0"",""1700""
","
","null","<p></p>","null","","","","","","","",""
"","image","327","480080","0.0-255.0-0.0","""event"",""trial"",""time""
""fullscreenenter"",""0"",""1700""
","
","
","""event"",""trial"",""time""
""fullscreenenter"",""0"",""1700""
","
","1005.5","run_exp/static/images/Set 6_rs/014b.jpg","86","","","","","","test","TL","5"
"","show_choice","328","480583","0.0-255.0-1.0","""event"",""trial"",""time""
""fullscreenenter"",""0"",""1700""
","
","
","""event"",""trial"",""time""
""fullscreenenter"",""0"",""1700""
","
","null","run_exp/static/images/Set 6_rs/014b.jpg","null","","","","","","test","TL",""
"","html-keyboard-response","329","481086","0.0-255.0-2.0","""event"",""trial"",""time""
""fullscreenenter"",""0"",""1700""
","
","
","""event"",""trial"",""time""
""fullscreenenter"",""0"",""1700""
","
","null","<p></p>","null","","","","","","","",""
"","image","330","483392","0.0-256.0-0.0","""event"",""trial"",""time""
""fullscreenenter"",""0"",""1700""
","
","
","""event"",""trial"",""time""
""fullscreenenter"",""0"",""1700""
","
","2301.4000000001397","run_exp/static/images/Set 6_rs/011a.jpg","66","","","","","","test","TF","3"
"","show_choice","331","483895","0.0-256.0-1.0","""event"",""trial"",""time""
""fullscreenenter"",""0"",""1700""
","
","
","""event"",""trial"",""time""
""fullscreenenter"",""0"",""1700""
","
","null","run_exp/static/images/Set 6_rs/011a.jpg","null","","","","","","test","TF",""
"","html-keyboard-response","332","484397","0.0-256.0-2.0","""event"",""trial"",""time""
""fullscreenenter"",""0"",""1700""
","
","
","""event"",""trial"",""time""
""fullscreenenter"",""0"",""1700""
","
","null","<p></p>","null","","","","","","","",""
"","image","333","485632","0.0-257.0-0.0","""event"",""trial"",""time""
""fullscreenenter"",""0"",""1700""
","
","
","""event"",""trial"",""time""
""fullscreenenter"",""0"",""1700""
","
","1231.6000000000931","run_exp/static/images/Set 6_rs/121a.jpg","86","","","","","","test","TR","4"
"","show_choice","334","486135","0.0-257.0-1.0","""event"",""trial"",""time""
""fullscreenenter"",""0"",""1700""
","
","
","""event"",""trial"",""time""
""fullscreenenter"",""0"",""1700""
","
","null","run_exp/static/images/Set 6_rs/121a.jpg","null","","","","","","test","TR",""
"","html-keyboard-response","335","486638","0.0-257.0-2.0","""event"",""trial"",""time""
""fullscreenenter"",""0"",""1700""
","
","
","""event"",""trial"",""time""
""fullscreenenter"",""0"",""1700""
","
","null","<p></p>","null","","","","","","","",""
"","image","336","487807","0.0-258.0-0.0","""event"",""trial"",""time""
""fullscreenenter"",""0"",""1700""
","
","
","""event"",""trial"",""time""
""fullscreenenter"",""0"",""1700""
","
","1157.6999999999534","run_exp/static/images/Set 6_rs/178a.jpg","86","","","","","","test","TR","3"
"","show_choice","337","488310","0.0-258.0-1.0","""event"",""trial"",""time""
""fullscreenenter"",""0"",""1700""
","
","
","""event"",""trial"",""time""
""fullscreenenter"",""0"",""1700""
","
","null","run_exp/static/images/Set 6_rs/178a.jpg","null","","","","","","test","TR",""
"","html-keyboard-response","338","488817","0.0-258.0-2.0","""event"",""trial"",""time""
""fullscreenenter"",""0"",""1700""
","
","
","""event"",""trial"",""time""
""fullscreenenter"",""0"",""1700""
","
","null","<p></p>","null","","","","","","","",""
"","image","339","489808","0.0-259.0-0.0","""event"",""trial"",""time""
""fullscreenenter"",""0"",""1700""
","
","
","""event"",""trial"",""time""
""fullscreenenter"",""0"",""1700""
","
","986","run_exp/static/images/Set 6_rs/048a.jpg","66","","","","","","test","TF","4"
"","show_choice","340","490310","0.0-259.0-1.0","""event"",""trial"",""time""
""fullscreenenter"",""0"",""1700""
","
","
","""event"",""trial"",""time""
""fullscreenenter"",""0"",""1700""
","
","null","run_exp/static/images/Set 6_rs/048a.jpg","null","","","","","","test","TF",""
"","html-keyboard-response","341","490813","0.0-259.0-2.0","""event"",""trial"",""time""
""fullscreenenter"",""0"",""1700""
","