"success","trial_type","trial_index","time_elapsed","internal_node_id","interactions","blur_events","focus_events","fullscreenenter_events","fullscreenexit_events","rt","stimulus","key_press","subject_id","participant_id","age","gender","prompt","phase","condition","lure_bin"
"true","fullscreen","0","11370","0.0-0.0","""event"",""trial"",""time""
""fullscreenenter"",""0"",""10423""
","
","
","""event"",""trial"",""time""
""fullscreenenter"",""0"",""10423""
","
","","","","","","","","","","",""
"","pavlovia","1","11386","0.0-1.0","""event"",""trial"",""time""
""fullscreenenter"",""0"",""10423""
","
","
","""event"",""trial"",""time""
""fullscreenenter"",""0"",""10423""
","
","","","","","","","","","","",""
"","welcome","2","46270","0.0-2.0","""event"",""trial"",""time""
""fullscreenenter"",""0"",""10423""
","
","
","""event"",""trial"",""time""
""fullscreenenter"",""0"",""10423""
","
","null","run_exp/static/audio/clip_1_welcome.m4a","null","1411","1352","15","Female","<div class='center'><p>Welcome to the third part of the study! First, you'll be shown pictures of items one at a time. For each picture, you have to decide if the item is typically found indoors or outdoors.</p><p>If you think it's usually found indoors, then press <b>v</b> key on your keyboard. If you think it's usually found outdoors, then press the <b>n</b> key.There will be reminders on the screen to help you remember which keys to press. </p><p>If you're not sure whether the item is an indoor item or an outdoor item, go ahead and take a guess but try your best not to skip that choice. </p></div>","","",""
"","html-keyboard-response","3","107269","0.0-3.0","""event"",""trial"",""time""
""fullscreenenter"",""0"",""10423""
","
","
","""event"",""trial"",""time""
""fullscreenenter"",""0"",""10423""
","
","60995.39999999106","<div class='center'><p>Welcome to the third part of the study! First, you'll be shown pictures of items one at a time. For each picture, you have to decide if the item is typically found indoors or outdoors.</p><p>If you think it's usually found indoors, then press <b>v</b> key on your keyboard. If you think it's usually found outdoors, then press the <b>n</b> key.There will be reminders on the screen to help you remember which keys to press. </p><p>If you're not sure whether the item is an indoor item or an outdoor item, go ahead and take a guess but try your best not to skip that choice. </p><div><p><b>[Press the space bar to continue]</b></p></div>","32","","","","","","","",""
"","image","4","109275","0.0-4.0","""event"",""trial"",""time""
""fullscreenenter"",""0"",""10423""
","
","
","""event"",""trial"",""time""
""fullscreenenter"",""0"",""10423""
","
","null","run_exp/static/images/Set 6_rs/123a.jpg","null","","","","","","learn","SL",""
"","show_choice","5","111283","0.0-5.0","""event"",""trial"",""time""
""fullscreenenter"",""0"",""10423""
","
","
","""event"",""trial"",""time""
""fullscreenenter"",""0"",""10423""
","
","null","run_exp/static/images/blank.png","null","","","","","","learn","SL",""
"","html-keyboard-response","6","111802","0.0-6.0","""event"",""trial"",""time""
""fullscreenenter"",""0"",""10423""
","
","
","""event"",""trial"",""time""
""fullscreenenter"",""0"",""10423""
","
","null","<p></p>","null","","","","","","","",""
"","image","7","113254","0.0-7.0","""event"",""trial"",""time""
""fullscreenenter"",""0"",""10423""
","
","
","""event"",""trial"",""time""
""fullscreenenter"",""0"",""10423""
","
","1449","run_exp/static/images/Set 6_rs/019a.jpg","86","","","","","","learn","SL",""
"","show_choice","8","113812","0.0-8.0","""event"",""trial"",""time""
""fullscreenenter"",""0"",""10423""
","
","
","""event"",""trial"",""time""
""fullscreenenter"",""0"",""10423""
","
","null","run_exp/static/images/Set 6_rs/019a.jpg","null","","","","","","learn","SL",""
"","html-keyboard-response","9","114324","0.0-9.0","""event"",""trial"",""time""
""fullscreenenter"",""0"",""10423""
","
","
","""event"",""trial"",""time""
""fullscreenenter"",""0"",""10423""
","
","null","<p></p>","null","","","","","","","",""
"","image","10","115318","0.0-10.0","""event"",""trial"",""time""
""fullscreenenter"",""0"",""10423""
","
","
","""event"",""trial"",""time""
""fullscreenenter"",""0"",""10423""
","
","992.6999999880791","run_exp/static/images/Set 6_rs/063a.jpg","86","","","","","","learn","SR",""
"","show_choice","11","116337","0.0-11.0","""event"",""trial"",""time""
""fullscreenenter"",""0"",""10423""
","
","
","""event"",""trial"",""time""
""fullscreenenter"",""0"",""10423""
","
","null","run_exp/static/images/Set 6_rs/063a.jpg","null","","","","","","learn","SR",""
"","html-keyboard-response","12","116846","0.0-12.0","""event"",""trial"",""time""
""fullscreenenter"",""0"",""10423""
","
","
","""event"",""trial"",""time""
""fullscreenenter"",""0"",""10423""
","
","null","<p></p>","null","","","","","","","",""
"","image","13","117831","0.0-13.0","""event"",""trial"",""time""
""fullscreenenter"",""0"",""10423""
","
","
","""event"",""trial"",""time""
""fullscreenenter"",""0"",""10423""
","
","982.2999999970198","run_exp/static/images/Set 6_rs/131a.jpg","86","","","","","","learn","SR",""
"","show_choice","14","118861","0.0-14.0","""event"",""trial"",""time""
""fullscreenenter"",""0"",""10423""
","
","
","""event"",""trial"",""time""
""fullscreenenter"",""0"",""10423""
","
","null","run_exp/static/images/Set 6_rs/131a.jpg","null","","","","","","learn","SR",""
"","html-keyboard-response","15","119363","0.0-15.0","""event"",""trial"",""time""
""fullscreenenter"",""0"",""10423""
","
","
","""event"",""trial"",""time""
""fullscreenenter"",""0"",""10423""
","
","null","<p></p>","null","","","","","","","",""
"","image","16","120514","0.0-16.0","""event"",""trial"",""time""
""fullscreenenter"",""0"",""10423""
","
","
","""event"",""trial"",""time""
""fullscreenenter"",""0"",""10423""
","
","1149.2999999970198","run_exp/static/images/Set 6_rs/144a.jpg","86","","","","","","learn","SL",""
"","show_choice","17","121370","0.0-17.0","""event"",""trial"",""time""
""fullscreenenter"",""0"",""10423""
","
","
","""event"",""trial"",""time""
""fullscreenenter"",""0"",""10423""
","
","null","run_exp/static/images/Set 6_rs/144a.jpg","null","","","","","","learn","SL",""
"","html-keyboard-response","18","121880","0.0-18.0","""event"",""trial"",""time""
""fullscreenenter"",""0"",""10423""
","
","
","""event"",""trial"",""time""
""fullscreenenter"",""0"",""10423""
","
","null","<p></p>","null","","","","","","","",""
"","image","19","122985","0.0-19.0","""event"",""trial"",""time""
""fullscreenenter"",""0"",""10423""
","
","
","""event"",""trial"",""time""
""fullscreenenter"",""0"",""10423""
","
","1102.800000011921","run_exp/static/images/Set 6_rs/134a.jpg","86","","","","","","learn","SR",""
"","show_choice","20","123892","0.0-20.0","""event"",""trial"",""time""
""fullscreenenter"",""0"",""10423""
","
","
","""event"",""trial"",""time""
""fullscreenenter"",""0"",""10423""
","
","null","run_exp/static/images/Set 6_rs/134a.jpg","null","","","","","","learn","SR",""
"","html-keyboard-response","21","124405","0.0-21.0","""event"",""trial"",""time""
""fullscreenenter"",""0"",""10423""
","
","
","""event"",""trial"",""time""
""fullscreenenter"",""0"",""10423""
","
","null","<p></p>","null","","","","","","","",""
"","image","22","125340","0.0-22.0","""event"",""trial"",""time""
""fullscreenenter"",""0"",""10423""
","
","
","""event"",""trial"",""time""
""fullscreenenter"",""0"",""10423""
","
","933.5","run_exp/static/images/Set 6_rs/181a.jpg","78","","","","","","learn","SL",""
"","show_choice","23","126412","0.0-23.0","""event"",""trial"",""time""
""fullscreenenter"",""0"",""10423""
","
","
","""event"",""trial"",""time""
""fullscreenenter"",""0"",""10423""
","
","null","run_exp/static/images/Set 6_rs/181a.jpg","null","","","","","","learn","SL",""
"","html-keyboard-response","24","126919","0.0-24.0","""event"",""trial"",""time""
""fullscreenenter"",""0"",""10423""
","
","
","""event"",""trial"",""time""
""fullscreenenter"",""0"",""10423""
","
","null","<p></p>","null","","","","","","","",""
"","image","25","127849","0.0-25.0","""event"",""trial"",""time""
""fullscreenenter"",""0"",""10423""
","
","
","""event"",""trial"",""time""
""fullscreenenter"",""0"",""10423""
","
","928.2000000029802","run_exp/static/images/Set 6_rs/169a.jpg","78","","","","","","learn","SR",""
"","show_choice","26","128926","0.0-26.0","""event"",""trial"",""time""
""fullscreenenter"",""0"",""10423""
","
","
","""event"",""trial"",""time""
""fullscreenenter"",""0"",""10423""
","
","null","run_exp/static/images/Set 6_rs/169a.jpg","null","","","","","","learn","SR",""
"","html-keyboard-response","27","129443","0.0-27.0","""event"",""trial"",""time""
""fullscreenenter"",""0"",""10423""
","
","
","""event"",""trial"",""time""
""fullscreenenter"",""0"",""10423""
","
","null","<p></p>","null","","","","","","","",""
"","image","28","130457","0.0-28.0","""event"",""trial"",""time""
""fullscreenenter"",""0"",""10423""
","
","
","""event"",""trial"",""time""
""fullscreenenter"",""0"",""10423""
","
","1012.5","run_exp/static/images/Set 6_rs/095a.jpg","86","","","","","","learn","SL",""
"","show_choice","29","131457","0.0-29.0","""event"",""trial"",""time""
""fullscreenenter"",""0"",""10423""
","
","
","""event"",""trial"",""time""
""fullscreenenter"",""0"",""10423""
","
","null","run_exp/static/images/Set 6_rs/095a.jpg","null","","","","","","learn","SL",""
"","html-keyboard-response","30","131973","0.0-30.0","""event"",""trial"",""time""
""fullscreenenter"",""0"",""10423""
","
","
","""event"",""trial"",""time""
""fullscreenenter"",""0"",""10423""
","
","null","<p></p>","null","","","","","","","",""
"","image","31","132827","0.0-31.0","""event"",""trial"",""time""
""fullscreenenter"",""0"",""10423""
","
","
","""event"",""trial"",""time""
""fullscreenenter"",""0"",""10423""
","
","852.7000000029802","run_exp/static/images/Set 6_rs/055a.jpg","86","","","","","","learn","SL",""
"","show_choice","32","133980","0.0-32.0","""event"",""trial"",""time""
""fullscreenenter"",""0"",""10423""
","
","
","""event"",""trial"",""time""
""fullscreenenter"",""0"",""10423""
","
","null","run_exp/static/images/Set 6_rs/055a.jpg","null","","","","","","learn","SL",""
"","html-keyboard-response","33","134485","0.0-33.0","""event"",""trial"",""time""
""fullscreenenter"",""0"",""10423""
","
","
","""event"",""trial"",""time""
""fullscreenenter"",""0"",""10423""
","
","null","<p></p>","null","","","","","","","",""
"","image","34","135650","0.0-34.0","""event"",""trial"",""time""
""fullscreenenter"",""0"",""10423""
","
","
","""event"",""trial"",""time""
""fullscreenenter"",""0"",""10423""
","
","1162.7000000029802","run_exp/static/images/Set 6_rs/138a.jpg","78","","","","","","learn","SL",""
"","show_choice","35","136496","0.0-35.0","""event"",""trial"",""time""
""fullscreenenter"",""0"",""10423""
","
","
","""event"",""trial"",""time""
""fullscreenenter"",""0"",""10423""
","
","null","run_exp/static/images/Set 6_rs/138a.jpg","null","","","","","","learn","SL",""
"","html-keyboard-response","36","137001","0.0-36.0","""event"",""trial"",""time""
""fullscreenenter"",""0"",""10423""
","
","
","""event"",""trial"",""time""
""fullscreenenter"",""0"",""10423""
","
","null","<p></p>","null","","","","","","","",""
"","image","37","137815","0.0-37.0","""event"",""trial"",""time""
""fullscreenenter"",""0"",""10423""
","
","
","""event"",""trial"",""time""
""fullscreenenter"",""0"",""10423""
","
","813.3999999910593","run_exp/static/images/Set 6_rs/024a.jpg","86","","","","","","learn","SR",""
"","show_choice","38","139018","0.0-38.0","""event"",""trial"",""time""
""fullscreenenter"",""0"",""10423""
","
","
","""event"",""trial"",""time""
""fullscreenenter"",""0"",""10423""
","
","null","run_exp/static/images/Set 6_rs/024a.jpg","null","","","","","","learn","SR",""
"","html-keyboard-response","39","139524","0.0-39.0","""event"",""trial"",""time""
""fullscreenenter"",""0"",""10423""
","
","
","""event"",""trial"",""time""
""fullscreenenter"",""0"",""10423""
","
","null","<p></p>","null","","","","","","","",""
"","image","40","140495","0.0-40.0","""event"",""trial"",""time""
""fullscreenenter"",""0"",""10423""
","
","
","""event"",""trial"",""time""
""fullscreenenter"",""0"",""10423""
","
","969","run_exp/static/images/Set 6_rs/112a.jpg","86","","","","","","learn","SR",""
"","show_choice","41","141535","0.0-41.0","""event"",""trial"",""time""
""fullscreenenter"",""0"",""10423""
","
","
","""event"",""trial"",""time""
""fullscreenenter"",""0"",""10423""
","
","null","run_exp/static/images/Set 6_rs/112a.jpg","null","","","","","","learn","SR",""
"","html-keyboard-response","42","142037","0.0-42.0","""event"",""trial"",""time""
""fullscreenenter"",""0"",""10423""
","
","
","""event"",""trial"",""time""
""fullscreenenter"",""0"",""10423""
","
","null","<p></p>","null","","","","","","","",""
"","image","43","143045","0.0-43.0","""event"",""trial"",""time""
""fullscreenenter"",""0"",""10423""
","
","
","""event"",""trial"",""time""
""fullscreenenter"",""0"",""10423""
","
","1007.2000000029802","run_exp/static/images/Set 6_rs/070a.jpg","86","","","","","","learn","SR",""
"","show_choice","44","144055","0.0-44.0","""event"",""trial"",""time""
""fullscreenenter"",""0"",""10423""
","
","
","""event"",""trial"",""time""
""fullscreenenter"",""0"",""10423""
","
","null","run_exp/static/images/Set 6_rs/070a.jpg","null","","","","","","learn","SR",""
"","html-keyboard-response","45","144567","0.0-45.0","""event"",""trial"",""time""
""fullscreenenter"",""0"",""10423""
","
","
","""event"",""trial"",""time""
""fullscreenenter"",""0"",""10423""
","
","null","<p></p>","null","","","","","","","",""
"","image","46","146049","0.0-46.0","""event"",""trial"",""time""
""fullscreenenter"",""0"",""10423""
","
","
","""event"",""trial"",""time""
""fullscreenenter"",""0"",""10423""
","
","1480.4000000059605","run_exp/static/images/Set 6_rs/132a.jpg","86","","","","","","learn","SR",""
"","show_choice","47","146570","0.0-47.0","""event"",""trial"",""time""
""fullscreenenter"",""0"",""10423""
","
","
","""event"",""trial"",""time""
""fullscreenenter"",""0"",""10423""
","
","null","run_exp/static/images/Set 6_rs/132a.jpg","null","","","","","","learn","SR",""
"","html-keyboard-response","48","147073","0.0-48.0","""event"",""trial"",""time""
""fullscreenenter"",""0"",""10423""
","
","
","""event"",""trial"",""time""
""fullscreenenter"",""0"",""10423""
","
","null","<p></p>","null","","","","","","","",""
"","image","49","148237","0.0-49.0","""event"",""trial"",""time""
""fullscreenenter"",""0"",""10423""
","
","
","""event"",""trial"",""time""
""fullscreenenter"",""0"",""10423""
","
","1162","run_exp/static/images/Set 6_rs/167a.jpg","78","","","","","","learn","SL",""
"","show_choice","50","149089","0.0-50.0","""event"",""trial"",""time""
""fullscreenenter"",""0"",""10423""
","
","
","""event"",""trial"",""time""
""fullscreenenter"",""0"",""10423""
","
","null","run_exp/static/images/Set 6_rs/167a.jpg","null","","","","","","learn","SL",""
"","html-keyboard-response","51","149592","0.0-51.0","""event"",""trial"",""time""
""fullscreenenter"",""0"",""10423""
","
","
","""event"",""trial"",""time""
""fullscreenenter"",""0"",""10423""
","
","null","<p></p>","null","","","","","","","",""
"","image","52","151174","0.0-52.0","""event"",""trial"",""time""
""fullscreenenter"",""0"",""10423""
","
","
","""event"",""trial"",""time""
""fullscreenenter"",""0"",""10423""
","
","1580","run_exp/static/images/Set 6_rs/085a.jpg","86","","","","","","learn","SL",""
"","show_choice","53","151606","0.0-53.0","""event"",""trial"",""time""
""fullscreenenter"",""0"",""10423""
","
","
","""event"",""trial"",""time""
""fullscreenenter"",""0"",""10423""
","
","null","run_exp/static/images/Set 6_rs/085a.jpg","null","","","","","","learn","SL",""
"","html-keyboard-response","54","152114","0.0-54.0","""event"",""trial"",""time""
""fullscreenenter"",""0"",""10423""
","
","
","""event"",""trial"",""time""
""fullscreenenter"",""0"",""10423""
","
","null","<p></p>","null","","","","","","","",""
"","image","55","153980","0.0-55.0","""event"",""trial"",""time""
""fullscreenenter"",""0"",""10423""
","
","
","""event"",""trial"",""time""
""fullscreenenter"",""0"",""10423""
","
","1864.5999999940395","run_exp/static/images/Set 6_rs/191a.jpg","86","","","","","","learn","SL",""
"","show_choice","56","154128","0.0-56.0","""event"",""trial"",""time""
""fullscreenenter"",""0"",""10423""
","
","
","""event"",""trial"",""time""
""fullscreenenter"",""0"",""10423""
","
","null","run_exp/static/images/Set 6_rs/191a.jpg","null","","","","","","learn","SL",""
"","html-keyboard-response","57","154640","0.0-57.0","""event"",""trial"",""time""
""fullscreenenter"",""0"",""10423""
","
","
","""event"",""trial"",""time""
""fullscreenenter"",""0"",""10423""
","
","null","<p></p>","null","","","","","","","",""
"","image","58","155621","0.0-58.0","""event"",""trial"",""time""
""fullscreenenter"",""0"",""10423""
","
","
","""event"",""trial"",""time""
""fullscreenenter"",""0"",""10423""
","
","979.9000000059605","run_exp/static/images/Set 6_rs/111a.jpg","86","","","","","","learn","SL",""
"","show_choice","59","156652","0.0-59.0","""event"",""trial"",""time""
""fullscreenenter"",""0"",""10423""
","
","
","""event"",""trial"",""time""
""fullscreenenter"",""0"",""10423""
","
","null","run_exp/static/images/Set 6_rs/111a.jpg","null","","","","","","learn","SL",""
"","html-keyboard-response","60","157165","0.0-60.0","""event"",""trial"",""time""
""fullscreenenter"",""0"",""10423""
","
","
","""event"",""trial"",""time""
""fullscreenenter"",""0"",""10423""
","
","null","<p></p>","null","","","","","","","",""
"","image","61","158191","0.0-61.0","""event"",""trial"",""time""
""fullscreenenter"",""0"",""10423""
","
","
","""event"",""trial"",""time""
""fullscreenenter"",""0"",""10423""
","
","1024.9000000059605","run_exp/static/images/Set 6_rs/050a.jpg","86","","","","","","learn","SL",""
"","show_choice","62","159176","0.0-62.0","""event"",""trial"",""time""
""fullscreenenter"",""0"",""10423""
","
","
","""event"",""trial"",""time""
""fullscreenenter"",""0"",""10423""
","
","null","run_exp/static/images/Set 6_rs/050a.jpg","null","","","","","","learn","SL",""
"","html-keyboard-response","63","159686","0.0-63.0","""event"",""trial"",""time""
""fullscreenenter"",""0"",""10423""
","
","
","""event"",""trial"",""time""
""fullscreenenter"",""0"",""10423""
","
","null","<p></p>","null","","","","","","","",""
"","image","64","160715","0.0-64.0","""event"",""trial"",""time""
""fullscreenenter"",""0"",""10423""
","
","
","""event"",""trial"",""time""
""fullscreenenter"",""0"",""10423""
","
","1027.2999999970198","run_exp/static/images/Set 6_rs/074a.jpg","78","","","","","","learn","SL",""
"","show_choice","65","161700","0.0-65.0","""event"",""trial"",""time""
""fullscreenenter"",""0"",""10423""
","
","
","""event"",""trial"",""time""
""fullscreenenter"",""0"",""10423""
","
","null","run_exp/static/images/Set 6_rs/074a.jpg","null","","","","","","learn","SL",""
"","html-keyboard-response","66","162214","0.0-66.0","""event"",""trial"",""time""
""fullscreenenter"",""0"",""10423""
","
","
","""event"",""trial"",""time""
""fullscreenenter"",""0"",""10423""
","
","null","<p></p>","null","","","","","","","",""
"","image","67","163154","0.0-67.0","""event"",""trial"",""time""
""fullscreenenter"",""0"",""10423""
","
","
","""event"",""trial"",""time""
""fullscreenenter"",""0"",""10423""
","
","938.8999999910593","run_exp/static/images/Set 6_rs/126a.jpg","78","","","","","","learn","SR",""
"","show_choice","68","164228","0.0-68.0","""event"",""trial"",""time""
""fullscreenenter"",""0"",""10423""
","
","
","""event"",""trial"",""time""
""fullscreenenter"",""0"",""10423""
","
","null","run_exp/static/images/Set 6_rs/126a.jpg","null","","","","","","learn","SR",""
"","html-keyboard-response","69","164732","0.0-69.0","""event"",""trial"",""time""
""fullscreenenter"",""0"",""10423""
","
","
","""event"",""trial"",""time""
""fullscreenenter"",""0"",""10423""
","
","null","<p></p>","null","","","","","","","",""
"","image","70","165751","0.0-70.0","""event"",""trial"",""time""
""fullscreenenter"",""0"",""10423""
","
","
","""event"",""trial"",""time""
""fullscreenenter"",""0"",""10423""
","
","1017.2999999970198","run_exp/static/images/Set 6_rs/014a.jpg","86","","","","","","learn","SL",""
"","show_choice","71","166738","0.0-71.0","""event"",""trial"",""time""
""fullscreenenter"",""0"",""10423""
","
","
","""event"",""trial"",""time""
""fullscreenenter"",""0"",""10423""
","
","null","run_exp/static/images/Set 6_rs/014a.jpg","null","","","","","","learn","SL",""
"","html-keyboard-response","72","167248","0.0-72.0","""event"",""trial"",""time""
""fullscreenenter"",""0"",""10423""
","
","
","""event"",""trial"",""time""
""fullscreenenter"",""0"",""10423""
","
","null","<p></p>","null","","","","","","","",""
"","image","73","168295","0.0-73.0","""event"",""trial"",""time""
""fullscreenenter"",""0"",""10423""
","
","
","""event"",""trial"",""time""
""fullscreenenter"",""0"",""10423""
","
","1057.8999999910593","run_exp/static/images/Set 6_rs/141a.jpg","78","","","","","","learn","SR",""
"","show_choice","74","169239","0.0-74.0","""event"",""trial"",""time""
""fullscreenenter"",""0"",""10423""
","
","
","""event"",""trial"",""time""
""fullscreenenter"",""0"",""10423""
","
","null","run_exp/static/images/Set 6_rs/141a.jpg","null","","","","","","learn","SR",""
"","html-keyboard-response","75","169749","0.0-75.0","""event"",""trial"",""time""
""fullscreenenter"",""0"",""10423""
","
","
","""event"",""trial"",""time""
""fullscreenenter"",""0"",""10423""
","
","null","<p></p>","null","","","","","","","",""
"","image","76","171045","0.0-76.0","""event"",""trial"",""time""
""fullscreenenter"",""0"",""10423""
","
","
","""event"",""trial"",""time""
""fullscreenenter"",""0"",""10423""
","
","1293.8999999910593","run_exp/static/images/Set 6_rs/108a.jpg","78","","","","","","learn","SR",""
"","show_choice","77","171760","0.0-77.0","""event"",""trial"",""time""
""fullscreenenter"",""0"",""10423""
","
","
","""event"",""trial"",""time""
""fullscreenenter"",""0"",""10423""
","
","null","run_exp/static/images/Set 6_rs/108a.jpg","null","","","","","","learn","SR",""
"","html-keyboard-response","78","172268","0.0-78.0","""event"",""trial"",""time""
""fullscreenenter"",""0"",""10423""
","
","
","""event"",""trial"",""time""
""fullscreenenter"",""0"",""10423""
","
","null","<p></p>","null","","","","","","","",""
"","image","79","173472","0.0-79.0","""event"",""trial"",""time""
""fullscreenenter"",""0"",""10423""
","
","
","""event"",""trial"",""time""
""fullscreenenter"",""0"",""10423""
","
","1201.7000000029802","run_exp/static/images/Set 6_rs/006a.jpg","86","","","","","","learn","SL",""
"","show_choice","80","174276","0.0-80.0","""event"",""trial"",""time""
""fullscreenenter"",""0"",""10423""
","
","
","""event"",""trial"",""time""
""fullscreenenter"",""0"",""10423""
","
","null","run_exp/static/images/Set 6_rs/006a.jpg","null","","","","","","learn","SL",""
"","html-keyboard-response","81","174782","0.0-81.0","""event"",""trial"",""time""
""fullscreenenter"",""0"",""10423""
","
","
","""event"",""trial"",""time""
""fullscreenenter"",""0"",""10423""
","
","null","<p></p>","null","","","","","","","",""
"","image","82","176026","0.0-82.0","""event"",""trial"",""time""
""fullscreenenter"",""0"",""10423""
","
","
","""event"",""trial"",""time""
""fullscreenenter"",""0"",""10423""
","
","1242","run_exp/static/images/Set 6_rs/057a.jpg","86","","","","","","learn","SL",""
"","show_choice","83","176799","0.0-83.0","""event"",""trial"",""time""
""fullscreenenter"",""0"",""10423""
","
","
","""event"",""trial"",""time""
""fullscreenenter"",""0"",""10423""
","
","null","run_exp/static/images/Set 6_rs/057a.jpg","null","","","","","","learn","SL",""
"","html-keyboard-response","84","177308","0.0-84.0","""event"",""trial"",""time""
""fullscreenenter"",""0"",""10423""
","
","
","""event"",""trial"",""time""
""fullscreenenter"",""0"",""10423""
","
","null","<p></p>","null","","","","","","","",""
"","image","85","179325","0.0-85.0","""event"",""trial"",""time""
""fullscreenenter"",""0"",""10423""
","
","
","""event"",""trial"",""time""
""fullscreenenter"",""0"",""10423""
","
","null","run_exp/static/images/Set 6_rs/017a.jpg","null","","","","","","learn","SL",""
"","show_choice","86","181333","0.0-86.0","""event"",""trial"",""time""
""fullscreenenter"",""0"",""10423""
","
","
","""event"",""trial"",""time""
""fullscreenenter"",""0"",""10423""
","
","null","run_exp/static/images/blank.png","null","","","","","","learn","SL",""
"","html-keyboard-response","87","181842","0.0-87.0","""event"",""trial"",""time""
""fullscreenenter"",""0"",""10423""
","
","
","""event"",""trial"",""time""
""fullscreenenter"",""0"",""10423""
","
","null","<p></p>","null","","","","","","","",""
"","image","88","183205","0.0-88.0","""event"",""trial"",""time""
""fullscreenenter"",""0"",""10423""
","
","
","""event"",""trial"",""time""
""fullscreenenter"",""0"",""10423""
","
","1361","run_exp/static/images/Set 6_rs/066a.jpg","86","","","","","","learn","SL",""
"","show_choice","89","183853","0.0-89.0","""event"",""trial"",""time""
""fullscreenenter"",""0"",""10423""
","
","
","""event"",""trial"",""time""
""fullscreenenter"",""0"",""10423""
","
","null","run_exp/static/images/Set 6_rs/066a.jpg","null","","","","","","learn","SL",""
"","html-keyboard-response","90","184363","0.0-90.0","""event"",""trial"",""time""
""fullscreenenter"",""0"",""10423""
","
","
","""event"",""trial"",""time""
""fullscreenenter"",""0"",""10423""
","
","null","<p></p>","null","","","","","","","",""
"","image","91","185256","0.0-91.0","""event"",""trial"",""time""
""fullscreenenter"",""0"",""10423""
","
","
","""event"",""trial"",""time""
""fullscreenenter"",""0"",""10423""
","
","891.5","run_exp/static/images/Set 6_rs/016a.jpg","86","","","","","","learn","SL",""
"","show_choice","92","186377","0.0-92.0","""event"",""trial"",""time""
""fullscreenenter"",""0"",""10423""
","
","
","""event"",""trial"",""time""
""fullscreenenter"",""0"",""10423""
","
","null","run_exp/static/images/Set 6_rs/016a.jpg","null","","","","","","learn","SL",""
"","html-keyboard-response","93","186891","0.0-93.0","""event"",""trial"",""time""
""fullscreenenter"",""0"",""10423""
","
","
","""event"",""trial"",""time""
""fullscreenenter"",""0"",""10423""
","
","null","<p></p>","null","","","","","","","",""
"","image","94","187790","0.0-94.0","""event"",""trial"",""time""
""fullscreenenter"",""0"",""10423""
","
","
","""event"",""trial"",""time""
""fullscreenenter"",""0"",""10423""
","
","897.0999999940395","run_exp/static/images/Set 6_rs/045a.jpg","86","","","","","","learn","SR",""
"","show_choice","95","188895","0.0-95.0","""event"",""trial"",""time""
""fullscreenenter"",""0"",""10423""
","
","
","""event"",""trial"",""time""
""fullscreenenter"",""0"",""10423""
","
","null","run_exp/static/images/Set 6_rs/045a.jpg","null","","","","","","learn","SR",""
"","html-keyboard-response","96","189412","0.0-96.0","""event"",""trial"",""time""
""fullscreenenter"",""0"",""10423""
","
","
","""event"",""trial"",""time""
""fullscreenenter"",""0"",""10423""
","
","null","<p></p>","null","","","","","","","",""
"","image","97","190519","0.0-97.0","""event"",""trial"",""time""
""fullscreenenter"",""0"",""10423""
","
","
","""event"",""trial"",""time""
""fullscreenenter"",""0"",""10423""
","
","1104.7999999970198","run_exp/static/images/Set 6_rs/172a.jpg","78","","","","","","learn","SR",""
"","show_choice","98","191425","0.0-98.0","""event"",""trial"",""time""
""fullscreenenter"",""0"",""10423""
","
","
","""event"",""trial"",""time""
""fullscreenenter"",""0"",""10423""
","
","null","run_exp/static/images/Set 6_rs/172a.jpg","null","","","","","","learn","SR",""
"","html-keyboard-response","99","191938","0.0-99.0","""event"",""trial"",""time""
""fullscreenenter"",""0"",""10423""
","
","
","""event"",""trial"",""time""
""fullscreenenter"",""0"",""10423""
","
","null","<p></p>","null","","","","","","","",""
"","image","100","192670","0.0-100.0","""event"",""trial"",""time""
""fullscreenenter"",""0"",""10423""
","
","
","""event"",""trial"",""time""
""fullscreenenter"",""0"",""10423""
","
","729.7999999970198","run_exp/static/images/Set 6_rs/186a.jpg","86","","","","","","learn","SR",""
"","show_choice","101","193954","0.0-101.0","""event"",""trial"",""time""
""fullscreenenter"",""0"",""10423""
","
","
","""event"",""trial"",""time""
""fullscreenenter"",""0"",""10423""
","
","null","run_exp/static/images/Set 6_rs/186a.jpg","null","","","","","","learn","SR",""
"","html-keyboard-response","102","194465","0.0-102.0","""event"",""trial"",""time""
""fullscreenenter"",""0"",""10423""
","
","
","""event"",""trial"",""time""
""fullscreenenter"",""0"",""10423""
","
","null","<p></p>","null","","","","","","","",""
"","image","103","195467","0.0-103.0","""event"",""trial"",""time""
""fullscreenenter"",""0"",""10423""
","
","
","""event"",""trial"",""time""
""fullscreenenter"",""0"",""10423""
","
","999.9000000059605","run_exp/static/images/Set 6_rs/122a.jpg","86","","","","","","learn","SR",""
"","show_choice","104","196477","0.0-104.0","""event"",""trial"",""time""
""fullscreenenter"",""0"",""10423""
","
","
","""event"",""trial"",""time""
""fullscreenenter"",""0"",""10423""
","
","null","run_exp/static/images/Set 6_rs/122a.jpg","null","","","","","","learn","SR",""
"","html-keyboard-response","105","196981","0.0-105.0","""event"",""trial"",""time""
""fullscreenenter"",""0"",""10423""
","
","
","""event"",""trial"",""time""
""fullscreenenter"",""0"",""10423""
","
","null","<p></p>","null","","","","","","","",""
"","image","106","198118","0.0-106.0","""event"",""trial"",""time""
""fullscreenenter"",""0"",""10423""
","
","
","""event"",""trial"",""time""
""fullscreenenter"",""0"",""10423""
","
","1134.7000000029802","run_exp/static/images/Set 6_rs/075a.jpg","86","","","","","","learn","SR",""
"","show_choice","107","198991","0.0-107.0","""event"",""trial"",""time""
""fullscreenenter"",""0"",""10423""
","
","
","""event"",""trial"",""time""
""fullscreenenter"",""0"",""10423""
","
","null","run_exp/static/images/Set 6_rs/075a.jpg","null","","","","","","learn","SR",""
"","html-keyboard-response","108","199505","0.0-108.0","""event"",""trial"",""time""
""fullscreenenter"",""0"",""10423""
","
","
","""event"",""trial"",""time""
""fullscreenenter"",""0"",""10423""
","
","null","<p></p>","null","","","","","","","",""
"","image","109","200649","0.0-109.0","""event"",""trial"",""time""
""fullscreenenter"",""0"",""10423""
","
","
","""event"",""trial"",""time""
""fullscreenenter"",""0"",""10423""
","
","1142","run_exp/static/images/Set 6_rs/061a.jpg","78","","","","","","learn","SR",""
"","show_choice","110","201509","0.0-110.0","""event"",""trial"",""time""
""fullscreenenter"",""0"",""10423""
","
","
","""event"",""trial"",""time""
""fullscreenenter"",""0"",""10423""
","
","null","run_exp/static/images/Set 6_rs/061a.jpg","null","","","","","","learn","SR",""
"","html-keyboard-response","111","202026","0.0-111.0","""event"",""trial"",""time""
""fullscreenenter"",""0"",""10423""
","
","
","""event"",""trial"",""time""
""fullscreenenter"",""0"",""10423""
","
","null","<p></p>","null","","","","","","","",""
"","image","112","203283","0.0-112.0","""event"",""trial"",""time""
""fullscreenenter"",""0"",""10423""
","
","
","""event"",""trial"",""time""
""fullscreenenter"",""0"",""10423""
","
","1255.2000000029802","run_exp/static/images/Set 6_rs/121a.jpg","78","","","","","","learn","SR",""
"","show_choice","113","204028","0.0-113.0","""event"",""trial"",""time""
""fullscreenenter"",""0"",""10423""
","
","
","""event"",""trial"",""time""
""fullscreenenter"",""0"",""10423""
","
","null","run_exp/static/images/Set 6_rs/121a.jpg","null","","","","","","learn","SR",""
"","html-keyboard-response","114","204536","0.0-114.0","""event"",""trial"",""time""
""fullscreenenter"",""0"",""10423""
","
","
","""event"",""trial"",""time""
""fullscreenenter"",""0"",""10423""
","
","null","<p></p>","null","","","","","","","",""
"","image","115","205945","0.0-115.0","""event"",""trial"",""time""
""fullscreenenter"",""0"",""10423""
","
","
","""event"",""trial"",""time""
""fullscreenenter"",""0"",""10423""
","
","1407.5999999940395","run_exp/static/images/Set 6_rs/116a.jpg","86","","","","","","learn","SL",""
"","show_choice","116","206542","0.0-116.0","""event"",""trial"",""time""
""fullscreenenter"",""0"",""10423""
","
","
","""event"",""trial"",""time""
""fullscreenenter"",""0"",""10423""
","
","null","run_exp/static/images/Set 6_rs/116a.jpg","null","","","","","","learn","SL",""
"","html-keyboard-response","117","207052","0.0-117.0","""event"",""trial"",""time""
""fullscreenenter"",""0"",""10423""
","
","
","""event"",""trial"",""time""
""fullscreenenter"",""0"",""10423""
","
","null","<p></p>","null","","","","","","","",""
"","image","118","208552","0.0-118.0","""event"",""trial"",""time""
""fullscreenenter"",""0"",""10423""
","
","
","""event"",""trial"",""time""
""fullscreenenter"",""0"",""10423""
","
","1498.2000000029802","run_exp/static/images/Set 6_rs/129a.jpg","86","","","","","","learn","SL",""
"","show_choice","119","209058","0.0-119.0","""event"",""trial"",""time""
""fullscreenenter"",""0"",""10423""
","
","
","""event"",""trial"",""time""
""fullscreenenter"",""0"",""10423""
","
","null","run_exp/static/images/Set 6_rs/129a.jpg","null","","","","","","learn","SL",""
"","html-keyboard-response","120","209571","0.0-120.0","""event"",""trial"",""time""
""fullscreenenter"",""0"",""10423""
","
","
","""event"",""trial"",""time""
""fullscreenenter"",""0"",""10423""
","
","null","<p></p>","null","","","","","","","",""
"","image","121","211070","0.0-121.0","""event"",""trial"",""time""
""fullscreenenter"",""0"",""10423""
","
","
","""event"",""trial"",""time""
""fullscreenenter"",""0"",""10423""
","
","1497.5999999940395","run_exp/static/images/Set 6_rs/088a.jpg","86","","","","","","learn","SR",""
"","show_choice","122","211587","0.0-122.0","""event"",""trial"",""time""
""fullscreenenter"",""0"",""10423""
","
","
","""event"",""trial"",""time""
""fullscreenenter"",""0"",""10423""
","
","null","run_exp/static/images/Set 6_rs/088a.jpg","null","","","","","","learn","SR",""
"","html-keyboard-response","123","212102","0.0-123.0","""event"",""trial"",""time""
""fullscreenenter"",""0"",""10423""
","
","
","""event"",""trial"",""time""
""fullscreenenter"",""0"",""10423""
","
","null","<p></p>","null","","","","","","","",""
"","image","124","213488","0.0-124.0","""event"",""trial"",""time""
""fullscreenenter"",""0"",""10423""
","
","
","""event"",""trial"",""time""
""fullscreenenter"",""0"",""10423""
","
","1384.5999999940395","run_exp/static/images/Set 6_rs/076a.jpg","78","","","","","","learn","SR",""
"","show_choice","125","214113","0.0-125.0","""event"",""trial"",""time""
""fullscreenenter"",""0"",""10423""
","
","
","""event"",""trial"",""time""
""fullscreenenter"",""0"",""10423""
","
","null","run_exp/static/images/Set 6_rs/076a.jpg","null","","","","","","learn","SR",""
"","html-keyboard-response","126","214628","0.0-126.0","""event"",""trial"",""time""
""fullscreenenter"",""0"",""10423""
","
","
","""event"",""trial"",""time""
""fullscreenenter"",""0"",""10423""
","
","null","<p></p>","null","","","","","","","",""
"","image","127","216111","0.0-127.0","""event"",""trial"",""time""
""fullscreenenter"",""0"",""10423""
","
","
","""event"",""trial"",""time""
""fullscreenenter"",""0"",""10423""
","
","1481.7000000029802","run_exp/static/images/Set 6_rs/150a.jpg","86","","","","","","learn","SR",""
"","show_choice","128","216654","0.0-128.0","""event"",""trial"",""time""
""fullscreenenter"",""0"",""10423""
","
","
","""event"",""trial"",""time""
""fullscreenenter"",""0"",""10423""
","
","null","run_exp/static/images/Set 6_rs/150a.jpg","null","","","","","","learn","SR",""
"","html-keyboard-response","129","217161","0.0-129.0","""event"",""trial"",""time""
""fullscreenenter"",""0"",""10423""
","
","
","""event"",""trial"",""time""
""fullscreenenter"",""0"",""10423""
","
","null","<p></p>","null","","","","","","","",""
"","image","130","218491","0.0-130.0","""event"",""trial"",""time""
""fullscreenenter"",""0"",""10423""
","
","
","""event"",""trial"",""time""
""fullscreenenter"",""0"",""10423""
","
","1328.6000000089407","run_exp/static/images/Set 6_rs/036a.jpg","86","","","","","","learn","SL",""
"","show_choice","131","219176","0.0-131.0","""event"",""trial"",""time""
""fullscreenenter"",""0"",""10423""
","
","
","""event"",""trial"",""time""
""fullscreenenter"",""0"",""10423""
","
","null","run_exp/static/images/Set 6_rs/036a.jpg","null","","","","","","learn","SL",""
"","html-keyboard-response","132","219686","0.0-132.0","""event"",""trial"",""time""
""fullscreenenter"",""0"",""10423""
","
","
","""event"",""trial"",""time""
""fullscreenenter"",""0"",""10423""
","
","null","<p></p>","null","","","","","","","",""
"","image","133","221157","0.0-133.0","""event"",""trial"",""time""
""fullscreenenter"",""0"",""10423""
","
","
","""event"",""trial"",""time""
""fullscreenenter"",""0"",""10423""
","
","1470.2999999970198","run_exp/static/images/Set 6_rs/071a.jpg","78","","","","","","learn","SL",""
"","show_choice","134","221700","0.0-134.0","""event"",""trial"",""time""
""fullscreenenter"",""0"",""10423""
","
","
","""event"",""trial"",""time""
""fullscreenenter"",""0"",""10423""
","
","null","run_exp/static/images/Set 6_rs/071a.jpg","null","","","","","","learn","SL",""
"","html-keyboard-response","135","222216","0.0-135.0","""event"",""trial"",""time""
""fullscreenenter"",""0"",""10423""
","
","
","""event"",""trial"",""time""
""fullscreenenter"",""0"",""10423""
","
","null","<p></p>","null","","","","","","","",""
"","image","136","223673","0.0-136.0","""event"",""trial"",""time""
""fullscreenenter"",""0"",""10423""
","
","
","""event"",""trial"",""time""
""fullscreenenter"",""0"",""10423""
","
","1454.9000000059605","run_exp/static/images/Set 6_rs/117a.jpg","78","","","","","","learn","SL",""
"","show_choice","137","224229","0.0-137.0","""event"",""trial"",""time""
""fullscreenenter"",""0"",""10423""
","
","
","""event"",""trial"",""time""
""fullscreenenter"",""0"",""10423""
","
","null","run_exp/static/images/Set 6_rs/117a.jpg","null","","","","","","learn","SL",""
"","html-keyboard-response","138","224744","0.0-138.0","""event"",""trial"",""time""
""fullscreenenter"",""0"",""10423""
","
","
","""event"",""trial"",""time""
""fullscreenenter"",""0"",""10423""
","
","null","<p></p>","null","","","","","","","",""
"","image","139","226443","0.0-139.0","""event"",""trial"",""time""
""fullscreenenter"",""0"",""10423""
","
","
","""event"",""trial"",""time""
""fullscreenenter"",""0"",""10423""
","
","1697.7999999970198","run_exp/static/images/Set 6_rs/089a.jpg","86","","","","","","learn","SL",""
"","show_choice","140","226755","0.0-140.0","""event"",""trial"",""time""
""fullscreenenter"",""0"",""10423""
","
","
","""event"",""trial"",""time""
""fullscreenenter"",""0"",""10423""
","
","null","run_exp/static/images/Set 6_rs/089a.jpg","null","","","","","","learn","SL",""
"","html-keyboard-response","141","227259","0.0-141.0","""event"",""trial"",""time""
""fullscreenenter"",""0"",""10423""
","
","
","""event"",""trial"",""time""
""fullscreenenter"",""0"",""10423""
","
","null","<p></p>","null","","","","","","","",""
"","image","142","228495","0.0-142.0","""event"",""trial"",""time""
""fullscreenenter"",""0"",""10423""
","
","
","""event"",""trial"",""time""
""fullscreenenter"",""0"",""10423""
","
","1231","run_exp/static/images/Set 6_rs/178a.jpg","78","","","","","","learn","SR",""
"","show_choice","143","229279","0.0-143.0","""event"",""trial"",""time""
""fullscreenenter"",""0"",""10423""
","
","
","""event"",""trial"",""time""
""fullscreenenter"",""0"",""10423""
","
","null","run_exp/static/images/Set 6_rs/178a.jpg","null","","","","","","learn","SR",""
"","html-keyboard-response","144","229789","0.0-144.0","""event"",""trial"",""time""
""fullscreenenter"",""0"",""10423""
","
","
","""event"",""trial"",""time""
""fullscreenenter"",""0"",""10423""
","
","null","<p></p>","null","","","","","","","",""
"","image","145","231059","0.0-145.0","""event"",""trial"",""time""
""fullscreenenter"",""0"",""10423""
","
","
","""event"",""trial"",""time""
""fullscreenenter"",""0"",""10423""
","
","1268.2000000029802","run_exp/static/images/Set 6_rs/154a.jpg","86","","","","","","learn","SR",""
"","show_choice","146","231805","0.0-146.0","""event"",""trial"",""time""
""fullscreenenter"",""0"",""10423""
","
","
","""event"",""trial"",""time""
""fullscreenenter"",""0"",""10423""
","
","null","run_exp/static/images/Set 6_rs/154a.jpg","null","","","","","","learn","SR",""
"","html-keyboard-response","147","232320","0.0-147.0","""event"",""trial"",""time""
""fullscreenenter"",""0"",""10423""
","
","
","""event"",""trial"",""time""
""fullscreenenter"",""0"",""10423""
","
","null","<p></p>","null","","","","","","","",""
"","image","148","233520","0.0-148.0","""event"",""trial"",""time""
""fullscreenenter"",""0"",""10423""
","
","
","""event"",""trial"",""time""
""fullscreenenter"",""0"",""10423""
","
","1198.2000000029802","run_exp/static/images/Set 6_rs/177a.jpg","78","","","","","","learn","SR",""
"","show_choice","149","234327","0.0-149.0","""event"",""trial"",""time""
""fullscreenenter"",""0"",""10423""
","
","
","""event"",""trial"",""time""
""fullscreenenter"",""0"",""10423""
","
","null","run_exp/static/images/Set 6_rs/177a.jpg","null","","","","","","learn","SR",""
"","html-keyboard-response","150","234834","0.0-150.0","""event"",""trial"",""time""
""fullscreenenter"",""0"",""10423""
","
","
","""event"",""trial"",""time""
""fullscreenenter"",""0"",""10423""
","
","null","<p></p>","null","","","","","","","",""
"","image","151","235958","0.0-151.0","""event"",""trial"",""time""
""fullscreenenter"",""0"",""10423""
","
","
","""event"",""trial"",""time""
""fullscreenenter"",""0"",""10423""
","
","1122.8999999910593","run_exp/static/images/Set 6_rs/064a.jpg","78","","","","","","learn","SR",""
"","show_choice","152","236844","0.0-152.0","""event"",""trial"",""time""
""fullscreenenter"",""0"",""10423""
","
","
","""event"",""trial"",""time""
""fullscreenenter"",""0"",""10423""
","
","null","run_exp/static/images/Set 6_rs/064a.jpg","null","","","","","","learn","SR",""
"","html-keyboard-response","153","237352","0.0-153.0","""event"",""trial"",""time""
""fullscreenenter"",""0"",""10423""
","
","
","""event"",""trial"",""time""
""fullscreenenter"",""0"",""10423""
","
","null","<p></p>","null","","","","","","","",""
"","image","154","238551","0.0-154.0","""event"",""trial"",""time""
""fullscreenenter"",""0"",""10423""
","
","
","""event"",""trial"",""time""
""fullscreenenter"",""0"",""10423""
","
","1197.9000000059605","run_exp/static/images/Set 6_rs/062a.jpg","86","","","","","","learn","SL",""
"","show_choice","155","239358","0.0-155.0","""event"",""trial"",""time""
""fullscreenenter"",""0"",""10423""
","
","
","""event"",""trial"",""time""
""fullscreenenter"",""0"",""10423""
","
","null","run_exp/static/images/Set 6_rs/062a.jpg","null","","","","","","learn","SL",""
"","html-keyboard-response","156","239868","0.0-156.0","""event"",""trial"",""time""
""fullscreenenter"",""0"",""10423""
","
","
","""event"",""trial"",""time""
""fullscreenenter"",""0"",""10423""
","
","null","<p></p>","null","","","","","","","",""
"","image","157","240833","0.0-157.0","""event"",""trial"",""time""
""fullscreenenter"",""0"",""10423""
","
","
","""event"",""trial"",""time""
""fullscreenenter"",""0"",""10423""
","
","964.1999999880791","run_exp/static/images/Set 6_rs/079a.jpg","86","","","","","","learn","SL",""
"","show_choice","158","241876","0.0-158.0","""event"",""trial"",""time""
""fullscreenenter"",""0"",""10423""
","
","
","""event"",""trial"",""time""
""fullscreenenter"",""0"",""10423""
","
","null","run_exp/static/images/Set 6_rs/079a.jpg","null","","","","","","learn","SL",""
"","html-keyboard-response","159","242383","0.0-159.0","""event"",""trial"",""time""
""fullscreenenter"",""0"",""10423""
","
","
","""event"",""trial"",""time""
""fullscreenenter"",""0"",""10423""
","
","null","<p></p>","null","","","","","","","",""
"","image","160","243593","0.0-160.0","""event"",""trial"",""time""
""fullscreenenter"",""0"",""10423""
","
","
","""event"",""trial"",""time""
""fullscreenenter"",""0"",""10423""
","
","1208.2999999970198","run_exp/static/images/Set 6_rs/073a.jpg","86","","","","","","learn","SL",""
"","show_choice","161","244394","0.0-161.0","""event"",""trial"",""time""
""fullscreenenter"",""0"",""10423""
","
","
","""event"",""trial"",""time""
""fullscreenenter"",""0"",""10423""
","
","null","run_exp/static/images/Set 6_rs/073a.jpg","null","","","","","","learn","SL",""
"","html-keyboard-response","162","244901","0.0-162.0","""event"",""trial"",""time""
""fullscreenenter"",""0"",""10423""
","
","
","""event"",""trial"",""time""
""fullscreenenter"",""0"",""10423""
","
","null","<p></p>","null","","","","","","","",""
"","image","163","245755","0.0-163.0","""event"",""trial"",""time""
""fullscreenenter"",""0"",""10423""
","
","
","""event"",""trial"",""time""
""fullscreenenter"",""0"",""10423""
","
","852.5","run_exp/static/images/Set 6_rs/152a.jpg","86","","","","","","learn","SR",""
"","show_choice","164","246906","0.0-164.0","""event"",""trial"",""time""
""fullscreenenter"",""0"",""10423""
","
","
","""event"",""trial"",""time""
""fullscreenenter"",""0"",""10423""
","
","null","run_exp/static/images/Set 6_rs/152a.jpg","null","","","","","","learn","SR",""
"","html-keyboard-response","165","247410","0.0-165.0","""event"",""trial"",""time""
""fullscreenenter"",""0"",""10423""
","
","
","""event"",""trial"",""time""
""fullscreenenter"",""0"",""10423""
","
","null","<p></p>","null","","","","","","","",""
"","image","166","248707","0.0-166.0","""event"",""trial"",""time""
""fullscreenenter"",""0"",""10423""
","
","
","""event"",""trial"",""time""
""fullscreenenter"",""0"",""10423""
","
","1295.5999999940395","run_exp/static/images/Set 6_rs/166a.jpg","86","","","","","","learn","SR",""
"","show_choice","167","249423","0.0-167.0","""event"",""trial"",""time""
""fullscreenenter"",""0"",""10423""
","
","
","""event"",""trial"",""time""
""fullscreenenter"",""0"",""10423""
","
","null","run_exp/static/images/Set 6_rs/166a.jpg","null","","","","","","learn","SR",""
"","html-keyboard-response","168","249932","0.0-168.0","""event"",""trial"",""time""
""fullscreenenter"",""0"",""10423""
","
","
","""event"",""trial"",""time""
""fullscreenenter"",""0"",""10423""
","
","null","<p></p>","null","","","","","","","",""
"","image","169","250829","0.0-169.0","""event"",""trial"",""time""
""fullscreenenter"",""0"",""10423""
","
","
","""event"",""trial"",""time""
""fullscreenenter"",""0"",""10423""
","
","888.3999999910593","run_exp/static/images/Set 6_rs/168a.jpg","86","","","","","","learn","SL",""
"","show_choice","170","251943","0.0-170.0","""event"",""trial"",""time""
""fullscreenenter"",""0"",""10423""
","
","
","""event"",""trial"",""time""
""fullscreenenter"",""0"",""10423""
","
","null","run_exp/static/images/Set 6_rs/168a.jpg","null","","","","","","learn","SL",""
"","html-keyboard-response","171","252448","0.0-171.0","""event"",""trial"",""time""
""fullscreenenter"",""0"",""10423""
","
","
","""event"",""trial"",""time""
""fullscreenenter"",""0"",""10423""
","
","null","<p></p>","null","","","","","","","",""
"","image","172","253489","0.0-172.0","""event"",""trial"",""time""
""fullscreenenter"",""0"",""10423""
","
","
","""event"",""trial"",""time""
""fullscreenenter"",""0"",""10423""
","
","1039","run_exp/static/images/Set 6_rs/091a.jpg","86","","","","","","learn","SL",""
"","show_choice","173","254452","0.0-173.0","""event"",""trial"",""time""
""fullscreenenter"",""0"",""10423""
","
","
","""event"",""trial"",""time""
""fullscreenenter"",""0"",""10423""
","
","null","run_exp/static/images/Set 6_rs/091a.jpg","null","","","","","","learn","SL",""
"","html-keyboard-response","174","254959","0.0-174.0","""event"",""trial"",""time""
""fullscreenenter"",""0"",""10423""
","
","
","""event"",""trial"",""time""
""fullscreenenter"",""0"",""10423""
","
","null","<p></p>","null","","","","","","","",""
"","image","175","255765","0.0-175.0","""event"",""trial"",""time""
""fullscreenenter"",""0"",""10423""
","
","
","""event"",""trial"",""time""
""fullscreenenter"",""0"",""10423""
","
","805.3000000119209","run_exp/static/images/Set 6_rs/187a.jpg","86","","","","","","learn","SR",""
"","show_choice","176","256964","0.0-176.0","""event"",""trial"",""time""
""fullscreenenter"",""0"",""10423""
","
","
","""event"",""trial"",""time""
""fullscreenenter"",""0"",""10423""
","
","null","run_exp/static/images/Set 6_rs/187a.jpg","null","","","","","","learn","SR",""
"","html-keyboard-response","177","257466","0.0-177.0","""event"",""trial"",""time""
""fullscreenenter"",""0"",""10423""
","
","
","""event"",""trial"",""time""
""fullscreenenter"",""0"",""10423""
","
","null","<p></p>","null","","","","","","","",""
"","image","178","258524","0.0-178.0","""event"",""trial"",""time""
""fullscreenenter"",""0"",""10423""
","
","
","""event"",""trial"",""time""
""fullscreenenter"",""0"",""10423""
","
","1056.5","run_exp/static/images/Set 6_rs/023a.jpg","86","","","","","","learn","SR",""
"","show_choice","179","259483","0.0-179.0","""event"",""trial"",""time""
""fullscreenenter"",""0"",""10423""
","
","
","""event"",""trial"",""time""
""fullscreenenter"",""0"",""10423""
","
","null","run_exp/static/images/Set 6_rs/023a.jpg","null","","","","","","learn","SR",""
"","html-keyboard-response","180","259991","0.0-180.0","""event"",""trial"",""time""
""fullscreenenter"",""0"",""10423""
","
","
","""event"",""trial"",""time""
""fullscreenenter"",""0"",""10423""
","
","null","<p></p>","null","","","","","","","",""
"","image","181","260833","0.0-181.0","""event"",""trial"",""time""
""fullscreenenter"",""0"",""10423""
","
","
","""event"",""trial"",""time""
""fullscreenenter"",""0"",""10423""
","
","840.7000000029802","run_exp/static/images/Set 6_rs/025a.jpg","78","","","","","","learn","SL",""
"","show_choice","182","261996","0.0-182.0","""event"",""trial"",""time""
""fullscreenenter"",""0"",""10423""
","
","
","""event"",""trial"",""time""
""fullscreenenter"",""0"",""10423""
","
","null","run_exp/static/images/Set 6_rs/025a.jpg","null","","","","","","learn","SL",""
"","html-keyboard-response","183","262508","0.0-183.0","""event"",""trial"",""time""
""fullscreenenter"",""0"",""10423""
","
","
","""event"",""trial"",""time""
""fullscreenenter"",""0"",""10423""
","
","null","<p></p>","null","","","","","","","",""
"","image","184","263800","0.0-184.0","""event"",""trial"",""time""
""fullscreenenter"",""0"",""10423""
","
","
","""event"",""trial"",""time""
""fullscreenenter"",""0"",""10423""
","
","1290.2999999970198","run_exp/static/images/Set 6_rs/010a.jpg","86","","","","","","learn","SR",""
"","show_choice","185","264516","0.0-185.0","""event"",""trial"",""time""
""fullscreenenter"",""0"",""10423""
","
","
","""event"",""trial"",""time""
""fullscreenenter"",""0"",""10423""
","
","null","run_exp/static/images/Set 6_rs/010a.jpg","null","","","","","","learn","SR",""
"","html-keyboard-response","186","265019","0.0-186.0","""event"",""trial"",""time""
""fullscreenenter"",""0"",""10423""
","
","
","""event"",""trial"",""time""
""fullscreenenter"",""0"",""10423""
","
","null","<p></p>","null","","","","","","","",""
"","image","187","266479","0.0-187.0","""event"",""trial"",""time""
""fullscreenenter"",""0"",""10423""
","
","
","""event"",""trial"",""time""
""fullscreenenter"",""0"",""10423""
","
","1459.6000000089407","run_exp/static/images/Set 6_rs/008a.jpg","78","","","","","","learn","SL",""
"","show_choice","188","267030","0.0-188.0","""event"",""trial"",""time""
""fullscreenenter"",""0"",""10423""
","
","
","""event"",""trial"",""time""
""fullscreenenter"",""0"",""10423""
","
","null","run_exp/static/images/Set 6_rs/008a.jpg","null","","","","","","learn","SL",""
"","html-keyboard-response","189","267541","0.0-189.0","""event"",""trial"",""time""
""fullscreenenter"",""0"",""10423""
","
","
","""event"",""trial"",""time""
""fullscreenenter"",""0"",""10423""
","
","null","<p></p>","null","","","","","","","",""
"","image","190","268408","0.0-190.0","""event"",""trial"",""time""
""fullscreenenter"",""0"",""10423""
","
","
","""event"",""trial"",""time""
""fullscreenenter"",""0"",""10423""
","
","864.7000000029802","run_exp/static/images/Set 6_rs/007a.jpg","86","","","","","","learn","SR",""
"","show_choice","191","269554","0.0-191.0","""event"",""trial"",""time""
""fullscreenenter"",""0"",""10423""
","
","
","""event"",""trial"",""time""
""fullscreenenter"",""0"",""10423""
","
","null","run_exp/static/images/Set 6_rs/007a.jpg","null","","","","","","learn","SR",""
"","html-keyboard-response","192","270068","0.0-192.0","""event"",""trial"",""time""
""fullscreenenter"",""0"",""10423""
","
","
","""event"",""trial"",""time""
""fullscreenenter"",""0"",""10423""
","
","null","<p></p>","null","","","","","","","",""
"","image","193","271088","0.0-193.0","""event"",""trial"",""time""
""fullscreenenter"",""0"",""10423""
","
","
","""event"",""trial"",""time""
""fullscreenenter"",""0"",""10423""
","
","1019.0999999940395","run_exp/static/images/Set 6_rs/012a.jpg","86","","","","","","learn","SR",""
"","show_choice","194","272077","0.0-194.0","""event"",""trial"",""time""
""fullscreenenter"",""0"",""10423""
","
","
","""event"",""trial"",""time""
""fullscreenenter"",""0"",""10423""
","
","null","run_exp/static/images/Set 6_rs/012a.jpg","null","","","","","","learn","SR",""
"","html-keyboard-response","195","272583","0.0-195.0","""event"",""trial"",""time""
""fullscreenenter"",""0"",""10423""
","
","
","""event"",""trial"",""time""
""fullscreenenter"",""0"",""10423""
","
","null","<p></p>","null","","","","","","","",""
"","test_intro","196","310471","0.0-196.0","""event"",""trial"",""time""
""fullscreenenter"",""0"",""10423""
","
","
","""event"",""trial"",""time""
""fullscreenenter"",""0"",""10423""
","
","null","run_exp/static/audio/clip_2_memory.m4a","null","","","","","<div class='center'><p>Now, lets see how much you remember about the items you just saw.  For each item, you need to indicate if it was <b>old</b> by pressing the <b>v</b> key, <b>similar</b> by pressing the <b>b</b> key, or <b>new</b> by pressing the <b>n</b> key.</p><p>Old refers to an item that you saw before in the indoor/outdoor game that you just played, new refers to an item you have <b>not</b> seen before within the indoor/outdoor game, and similar refers to an item that is similar to an item youve seen before but is not exactly the same. </p><p>Before we begin, lets go over some brief demonstrations to make sure you understand.</p></div>","","",""
"","html-keyboard-response","197","379338","0.0-197.0","""event"",""trial"",""time""
""fullscreenenter"",""0"",""10423""
","
","
","""event"",""trial"",""time""
""fullscreenenter"",""0"",""10423""
","
","68862.5","<div class='center'><p>Now, lets see how much you remember about the items you just saw.  For each item, you need to indicate if it was <b>old</b> by pressing the <b>v</b> key, <b>similar</b> by pressing the <b>b</b> key, or <b>new</b> by pressing the <b>n</b> key.</p><p>Old refers to an item that you saw before in the indoor/outdoor game that you just played, new refers to an item you have <b>not</b> seen before within the indoor/outdoor game, and similar refers to an item that is similar to an item youve seen before but is not exactly the same. </p><p>Before we begin, lets go over some brief demonstrations to make sure you understand.</p><div><p><b>[Press the space bar to continue]</b></p></div>","32","","","","","","","",""
"","items","198","386859","0.0-198.0","""event"",""trial"",""time""
""fullscreenenter"",""0"",""10423""
","
","
","""event"",""trial"",""time""
""fullscreenenter"",""0"",""10423""
","
","null","run_exp/static/audio/clip_3_items.m4a","null","","","","","","","",""
"","mop","199","391378","0.0-199.0","""event"",""trial"",""time""
""fullscreenenter"",""0"",""10423""
","
","
","""event"",""trial"",""time""
""fullscreenenter"",""0"",""10423""
","
","null","run_exp/static/audio/clip_4_mop.m4a","null","","","","","","","",""
"","baseball","200","394889","0.0-200.0","""event"",""trial"",""time""
""fullscreenenter"",""0"",""10423""
","
","
","""event"",""trial"",""time""
""fullscreenenter"",""0"",""10423""
","
","null","run_exp/static/audio/clip_5_baseball.m4a","null","","","","","","","",""
"","trumpet","201","398409","0.0-201.0","""event"",""trial"",""time""
""fullscreenenter"",""0"",""10423""
","
","
","""event"",""trial"",""time""
""fullscreenenter"",""0"",""10423""
","
","null","run_exp/static/audio/clip_6_trumpet.m4a","null","","","","","","","",""
"","gummies","202","401929","0.0-202.0","""event"",""trial"",""time""
""fullscreenenter"",""0"",""10423""
","
","
","""event"",""trial"",""time""
""fullscreenenter"",""0"",""10423""
","
","null","run_exp/static/audio/clip_7_gummies.m4a","null","","","","","","","",""
"","osn","203","406448","0.0-203.0","""event"",""trial"",""time""
""fullscreenenter"",""0"",""10423""
","
","
","""event"",""trial"",""time""
""fullscreenenter"",""0"",""10423""
","
","null","run_exp/static/audio/clip_8_osn.m4a","null","","","","","","","",""
"","old_1","204","412969","0.0-204.0","""event"",""trial"",""time""
""fullscreenenter"",""0"",""10423""
","
","
","""event"",""trial"",""time""
""fullscreenenter"",""0"",""10423""
","
","null","run_exp/static/audio/clip_9_old_trumpet.m4a","null","","","","","","","",""
"","new_1","205","420489","0.0-205.0","""event"",""trial"",""time""
""fullscreenenter"",""0"",""10423""
","
","
","""event"",""trial"",""time""
""fullscreenenter"",""0"",""10423""
","
","null","run_exp/static/audio/clip_10_new_balloon.m4a","null","","","","","","","",""
"","similar_1a","206","425004","0.0-206.0","""event"",""trial"",""time""
""fullscreenenter"",""0"",""10423""
","
","
","""event"",""trial"",""time""
""fullscreenenter"",""0"",""10423""
","
","null","run_exp/static/audio/clip_11a_similar_mop.m4a","null","","","","","","","",""
"","similar_1b","207","431519","0.0-207.0","""event"",""trial"",""time""
""fullscreenenter"",""0"",""10423""
","
","
","""event"",""trial"",""time""
""fullscreenenter"",""0"",""10423""
","
","null","run_exp/static/audio/clip_11b_similar_mop.m4a","null","","","","","","","",""
"","new_2","208","435029","0.0-208.0","""event"",""trial"",""time""
""fullscreenenter"",""0"",""10423""
","
","
","""event"",""trial"",""time""
""fullscreenenter"",""0"",""10423""
","
","null","run_exp/static/audio/clip_12_new_stoplight.m4a","null","","","","","","","",""
"","old_2","209","438539","0.0-209.0","""event"",""trial"",""time""
""fullscreenenter"",""0"",""10423""
","
","
","""event"",""trial"",""time""
""fullscreenenter"",""0"",""10423""
","
","null","run_exp/static/audio/clip_13_old_baseball.m4a","null","","","","","","","",""
"","similar_2a","210","442049","0.0-210.0","""event"",""trial"",""time""
""fullscreenenter"",""0"",""10423""
","
","
","""event"",""trial"",""time""
""fullscreenenter"",""0"",""10423""
","
","null","run_exp/static/audio/clip_14a_similar_gummies.m4a","null","","","","","","","",""
"","similar_2b","211","449568","0.0-211.0","""event"",""trial"",""time""
""fullscreenenter"",""0"",""10423""
","
","
","""event"",""trial"",""time""
""fullscreenenter"",""0"",""10423""
","
","null","run_exp/static/audio/clip_14b_similar_gummies.m4a","null","","","","","","","",""
"","practice","212","491680","0.0-212.0","""event"",""trial"",""time""
""fullscreenenter"",""0"",""10423""
","
","
","""event"",""trial"",""time""
""fullscreenenter"",""0"",""10423""
","
","null","run_exp/static/audio/clip_15_practice.m4a","null","","","","","<div class='center'><p>Lets practice a little to make sure you understand the difference between new, similar, and old. Lets say you saw these three items in the indoor/outdoor game.</p><p> Try your best to remember these images because youll soon be tested on them in a practice game. In the practice game, youll be shown images and youll have to say if they are old (one of the three images belows), similar (similar to one of the images below but not exactly the same), or new (are not one of the images below nor similar to them).</p><p>Once you press the space bar youll be shown these images again but one at time. Then youll begin the practice game.</p><p><img src='run_exp/static/images/tutorial/test/three_indoor_outdoor.png' height='300'></p></div>","","",""
"","html-keyboard-response","213","492846","0.0-213.0","""event"",""trial"",""time""
""fullscreenenter"",""0"",""10423""
","
","
","""event"",""trial"",""time""
""fullscreenenter"",""0"",""10423""
","
","1164.2000000029802","<div class='center'><p>Lets practice a little to make sure you understand the difference between new, similar, and old. Lets say you saw these three items in the indoor/outdoor game.</p><p> Try your best to remember these images because youll soon be tested on them in a practice game. In the practice game, youll be shown images and youll have to say if they are old (one of the three images belows), similar (similar to one of the images below but not exactly the same), or new (are not one of the images below nor similar to them).</p><p>Once you press the space bar youll be shown these images again but one at time. Then youll begin the practice game.</p><p><img src='run_exp/static/images/tutorial/test/three_indoor_outdoor.png' height='300'></p><div><p><b>[Press the space bar to continue]</b></p></div>","32","","","","","","","",""
"","planet","214","494859","0.0-214.0","""event"",""trial"",""time""
""fullscreenenter"",""0"",""10423""
","
","
","""event"",""trial"",""time""
""fullscreenenter"",""0"",""10423""
","
","null","run_exp/static/images/tutorial/test/008a.jpg","null","","","","","","","",""
"","boot","215","496879","0.0-215.0","""event"",""trial"",""time""
""fullscreenenter"",""0"",""10423""
","
","
","""event"",""trial"",""time""
""fullscreenenter"",""0"",""10423""
","
","null","run_exp/static/images/tutorial/test/011a.jpg","null","","","","","","","",""
"","lemon","216","498889","0.0-216.0","""event"",""trial"",""time""
""fullscreenenter"",""0"",""10423""
","
","
","""event"",""trial"",""time""
""fullscreenenter"",""0"",""10423""
","
","null","run_exp/static/images/tutorial/test/018a.jpg","null","","","","","","","",""
"","practice_q1","217","504269","0.0-217.0","""event"",""trial"",""time""
""fullscreenenter"",""0"",""10423""
","
","
","""event"",""trial"",""time""
""fullscreenenter"",""0"",""10423""
","
","5380.600000008941","run_exp/static/audio/clip_16_practice_question.m4a","78","","","","","","","",""
"","correct","218","506177","0.0-218.0-0.0","""event"",""trial"",""time""
""fullscreenenter"",""0"",""10423""
","
","
","""event"",""trial"",""time""
""fullscreenenter"",""0"",""10423""
","
","null","run_exp/static/audio/clip_17_correct.m4a","null","","","","","<div class='center'><p>That's correct!</p></div>","","",""
"","html-keyboard-response","219","507638","0.0-218.0-1.0","""event"",""trial"",""time""
""fullscreenenter"",""0"",""10423""
","
","
","""event"",""trial"",""time""
""fullscreenenter"",""0"",""10423""
","
","1459","<div class='center'><p>That's correct!</p><div><p><b>[Press the space bar to continue]</b></p></div>","32","","","","","","","",""
"","practice_q2","220","513058","0.0-218.0-2.0","""event"",""trial"",""time""
""fullscreenenter"",""0"",""10423""
","
","
","""event"",""trial"",""time""
""fullscreenenter"",""0"",""10423""
","
","5418.399999991059","run_exp/static/audio/clip_16_practice_question.m4a","86","","","","","","","",""
"","correct","221","514957","0.0-219.0-0.0","""event"",""trial"",""time""
""fullscreenenter"",""0"",""10423""
","
","
","""event"",""trial"",""time""
""fullscreenenter"",""0"",""10423""
","
","null","run_exp/static/audio/clip_17_correct.m4a","null","","","","","<div class='center'><p>That's correct!</p></div>","","",""
"","html-keyboard-response","222","526411","0.0-219.0-1.0","""event"",""trial"",""time""
""fullscreenenter"",""0"",""10423""
","
","
","""event"",""trial"",""time""
""fullscreenenter"",""0"",""10423""
","
","11452","<div class='center'><p>That's correct!</p><div><p><b>[Press the space bar to continue]</b></p></div>","32","","","","","","","",""
"","practice_q3","223","531677","0.0-219.0-2.0","""event"",""trial"",""time""
""fullscreenenter"",""0"",""10423""
","
","
","""event"",""trial"",""time""
""fullscreenenter"",""0"",""10423""
","
","5264.600000008941","run_exp/static/audio/clip_16_practice_question.m4a","66","","","","","","","",""
"","correct","224","533734","0.0-220.0-0.0","""event"",""trial"",""time""
""fullscreenenter"",""0"",""10423""
","
","
","""event"",""trial"",""time""
""fullscreenenter"",""0"",""10423""
","
","null","run_exp/static/audio/clip_17_correct.m4a","null","","","","","<div class='center'><p>That's correct!</p></div>","","",""
"","html-keyboard-response","225","534552","0.0-220.0-1.0","""event"",""trial"",""time""
""fullscreenenter"",""0"",""10423""
","
","
","""event"",""trial"",""time""
""fullscreenenter"",""0"",""10423""
","
","816.5","<div class='center'><p>That's correct!</p><div><p><b>[Press the space bar to continue]</b></p></div>","32","","","","","","","",""
"","begin_text","226","553054","0.0-221.0-0.0","""event"",""trial"",""time""
""fullscreenenter"",""0"",""10423""
","
","
","""event"",""trial"",""time""
""fullscreenenter"",""0"",""10423""
","
","null","run_exp/static/audio/clip_22_begin_test.m4a","null","","","","","<div class='center'><p>On to the real game where well test your memory of items from the indoor/outdoor game. For each item, you need to indicate if the item is <b>old</b> by pressing the <b>v</b> key, <b>similar</b> by pressing the <b>b</b> key, or <b>new</b> by pressing the <b>n</b> key. </p></div>","","",""
"","html-keyboard-response","227","557441","0.0-221.0-1.0","""event"",""trial"",""time""
""fullscreenenter"",""0"",""10423""
","
","
","""event"",""trial"",""time""
""fullscreenenter"",""0"",""10423""
","
","4385.5","<div class='center'><p>On to the real game where well test your memory of items from the indoor/outdoor game. For each item, you need to indicate if the item is <b>old</b> by pressing the <b>v</b> key, <b>similar</b> by pressing the <b>b</b> key, or <b>new</b> by pressing the <b>n</b> key. </p><div><p><b>[Press the space bar to continue]</b></p></div>","32","","","","","","","",""
"","image","228","558724","0.0-222.0-0.0","""event"",""trial"",""time""
""fullscreenenter"",""0"",""10423""
","
","
","""event"",""trial"",""time""
""fullscreenenter"",""0"",""10423""
","
","1281.2999999970198","run_exp/static/images/Set 6_rs/108a.jpg","86","","","","","","test","TR","5"
"","show_choice","229","559232","0.0-222.0-1.0","""event"",""trial"",""time""
""fullscreenenter"",""0"",""10423""
","
","
","""event"",""trial"",""time""
""fullscreenenter"",""0"",""10423""
","
","null","run_exp/static/images/Set 6_rs/108a.jpg","null","","","","","","test","TR",""
"","html-keyboard-response","230","559752","0.0-222.0-2.0","""event"",""trial"",""time""
""fullscreenenter"",""0"",""10423""
","
","
","""event"",""trial"",""time""
""fullscreenenter"",""0"",""10423""
","
","null","<p></p>","null","","","","","","","",""
"","image","231","560925","0.0-223.0-0.0","""event"",""trial"",""time""
""fullscreenenter"",""0"",""10423""
","
","
","""event"",""trial"",""time""
""fullscreenenter"",""0"",""10423""
","
","1171.1000000089407","run_exp/static/images/Set 6_rs/136a.jpg","78","","","","","","test","TF","4"
"","show_choice","232","561432","0.0-223.0-1.0","""event"",""trial"",""time""
""fullscreenenter"",""0"",""10423""
","
","
","""event"",""trial"",""time""
""fullscreenenter"",""0"",""10423""
","
","null","run_exp/static/images/Set 6_rs/136a.jpg","null","","","","","","test","TF",""
"","html-keyboard-response","233","561952","0.0-223.0-2.0","""event"",""trial"",""time""
""fullscreenenter"",""0"",""10423""
","
","
","""event"",""trial"",""time""
""fullscreenenter"",""0"",""10423""
","
","null","<p></p>","null","","","","","","","",""
"","image","234","563416","0.0-224.0-0.0","""event"",""trial"",""time""
""fullscreenenter"",""0"",""10423""
","
","
","""event"",""trial"",""time""
""fullscreenenter"",""0"",""10423""
","
","1461.2999999970198","run_exp/static/images/Set 6_rs/172a.jpg","86","","","","","","test","TR","1"
"","show_choice","235","563925","0.0-224.0-1.0","""event"",""trial"",""time""
""fullscreenenter"",""0"",""10423""
","
","
","""event"",""trial"",""time""
""fullscreenenter"",""0"",""10423""
","
","null","run_exp/static/images/Set 6_rs/172a.jpg","null","","","","","","test","TR",""
"","html-keyboard-response","236","564445","0.0-224.0-2.0","""event"",""trial"",""time""
""fullscreenenter"",""0"",""10423""
","
","
","""event"",""trial"",""time""
""fullscreenenter"",""0"",""10423""
","
","null","<p></p>","null","","","","","","","",""
"","image","237","565602","0.0-225.0-0.0","""event"",""trial"",""time""
""fullscreenenter"",""0"",""10423""
","
","
","""event"",""trial"",""time""
""fullscreenenter"",""0"",""10423""
","
","1155.7999999970198","run_exp/static/images/Set 6_rs/090a.jpg","66","","","","","","test","TF","5"
"","show_choice","238","566118","0.0-225.0-1.0","""event"",""trial"",""time""
""fullscreenenter"",""0"",""10423""
","
","
","""event"",""trial"",""time""
""fullscreenenter"",""0"",""10423""
","
","null","run_exp/static/images/Set 6_rs/090a.jpg","null","","","","","","test","TF",""
"","html-keyboard-response","239","566634","0.0-225.0-2.0","""event"",""trial"",""time""
""fullscreenenter"",""0"",""10423""
","
","
","""event"",""trial"",""time""
""fullscreenenter"",""0"",""10423""
","
","null","<p></p>","null","","","","","","","",""
"","image","240","568270","0.0-226.0-0.0","""event"",""trial"",""time""
""fullscreenenter"",""0"",""10423""
","
","
","""event"",""trial"",""time""
""fullscreenenter"",""0"",""10423""
","
","1634.5","run_exp/static/images/Set 6_rs/078a.jpg","78","","","","","","test","TF","1"
"","show_choice","241","568774","0.0-226.0-1.0","""event"",""trial"",""time""
""fullscreenenter"",""0"",""10423""
","
","
","""event"",""trial"",""time""
""fullscreenenter"",""0"",""10423""
","
","null","run_exp/static/images/Set 6_rs/078a.jpg","null","","","","","","test","TF",""
"","html-keyboard-response","242","569284","0.0-226.0-2.0","""event"",""trial"",""time""
""fullscreenenter"",""0"",""10423""
","
","
","""event"",""trial"",""time""
""fullscreenenter"",""0"",""10423""
","
","null","<p></p>","null","","","","","","","",""
"","image","243","570241","0.0-227.0-0.0","""event"",""trial"",""time""
""fullscreenenter"",""0"",""10423""
","
","
","""event"",""trial"",""time""
""fullscreenenter"",""0"",""10423""
","
","954","run_exp/static/images/Set 6_rs/118a.jpg","78","","","","","","test","TF","5"
"","show_choice","244","570754","0.0-227.0-1.0","""event"",""trial"",""time""
""fullscreenenter"",""0"",""10423""
","
","
","""event"",""trial"",""time""
""fullscreenenter"",""0"",""10423""
","
","null","run_exp/static/images/Set 6_rs/118a.jpg","null","","","","","","test","TF",""
"","html-keyboard-response","245","571267","0.0-227.0-2.0","""event"",""trial"",""time""
""fullscreenenter"",""0"",""10423""
","
","
","""event"",""trial"",""time""
""fullscreenenter"",""0"",""10423""
","
","null","<p></p>","null","","","","","","","",""
"","image","246","572489","0.0-228.0-0.0","""event"",""trial"",""time""
""fullscreenenter"",""0"",""10423""
","
","
","""event"",""trial"",""time""
""fullscreenenter"",""0"",""10423""
","
","1220","run_exp/static/images/Set 6_rs/071b.jpg","86","","","","","","test","TL","4"
"","show_choice","247","572999","0.0-228.0-1.0","""event"",""trial"",""time""
""fullscreenenter"",""0"",""10423""
","
","
","""event"",""trial"",""time""
""fullscreenenter"",""0"",""10423""
","
","null","run_exp/static/images/Set 6_rs/071b.jpg","null","","","","","","test","TL",""
"","html-keyboard-response","248","573507","0.0-228.0-2.0","""event"",""trial"",""time""
""fullscreenenter"",""0"",""10423""
","
","
","""event"",""trial"",""time""
""fullscreenenter"",""0"",""10423""
","
","null","<p></p>","null","","","","","","","",""
"","image","249","575466","0.0-229.0-0.0","""event"",""trial"",""time""
""fullscreenenter"",""0"",""10423""
","
","
","""event"",""trial"",""time""
""fullscreenenter"",""0"",""10423""
","
","1957.5999999940395","run_exp/static/images/Set 6_rs/077a.jpg","78","","","","","","test","TF","3"
"","show_choice","250","575983","0.0-229.0-1.0","""event"",""trial"",""time""
""fullscreenenter"",""0"",""10423""
","
","
","""event"",""trial"",""time""
""fullscreenenter"",""0"",""10423""
","
","null","run_exp/static/images/Set 6_rs/077a.jpg","null","","","","","","test","TF",""
"","html-keyboard-response","251","576484","0.0-229.0-2.0","""event"",""trial"",""time""
""fullscreenenter"",""0"",""10423""
","
","
","""event"",""trial"",""time""
""fullscreenenter"",""0"",""10423""
","
","null","<p></p>","null","","","","","","","",""
"","image","252","577875","0.0-230.0-0.0","""event"",""trial"",""time""
""fullscreenenter"",""0"",""10423""
","
","
","""event"",""trial"",""time""
""fullscreenenter"",""0"",""10423""
","
","1389.5","run_exp/static/images/Set 6_rs/017b.jpg","66","","","","","","test","TL","3"
"","show_choice","253","578386","0.0-230.0-1.0","""event"",""trial"",""time""
""fullscreenenter"",""0"",""10423""
","
","
","""event"",""trial"",""time""
""fullscreenenter"",""0"",""10423""
","
","null","run_exp/static/images/Set 6_rs/017b.jpg","null","","","","","","test","TL",""
"","html-keyboard-response","254","578901","0.0-230.0-2.0","""event"",""trial"",""time""
""fullscreenenter"",""0"",""10423""
","
","
","""event"",""trial"",""time""
""fullscreenenter"",""0"",""10423""
","
","null","<p></p>","null","","","","","","","",""
"","image","255","579881","0.0-231.0-0.0","""event"",""trial"",""time""
""fullscreenenter"",""0"",""10423""
","
","
","""event"",""trial"",""time""
""fullscreenenter"",""0"",""10423""
","
","979.3000000119209","run_exp/static/images/Set 6_rs/066b.jpg","66","","","","","","test","TL","5"
"","show_choice","256","580396","0.0-231.0-1.0","""event"",""trial"",""time""
""fullscreenenter"",""0"",""10423""
","
","
","""event"",""trial"",""time""
""fullscreenenter"",""0"",""10423""
","
","null","run_exp/static/images/Set 6_rs/066b.jpg","null","","","","","","test","TL",""
"","html-keyboard-response","257","580903","0.0-231.0-2.0","""event"",""trial"",""time""
""fullscreenenter"",""0"",""10423""
","
","
","""event"",""trial"",""time""
""fullscreenenter"",""0"",""10423""
","
","null","<p></p>","null","","","","","","","",""
"","image","258","582398","0.0-232.0-0.0","""event"",""trial"",""time""
""fullscreenenter"",""0"",""10423""
","
","
","""event"",""trial"",""time""
""fullscreenenter"",""0"",""10423""
","
","1493.2000000029802","run_exp/static/images/Set 6_rs/155a.jpg","78","","","","","","test","TF","4"
"","show_choice","259","582915","0.0-232.0-1.0","""event"",""trial"",""time""
""fullscreenenter"",""0"",""10423""
","
","
","""event"",""trial"",""time""
""fullscreenenter"",""0"",""10423""
","
","null","run_exp/static/images/Set 6_rs/155a.jpg","null","","","","","","test","TF",""
"","html-keyboard-response","260","583425","0.0-232.0-2.0","""event"",""trial"",""time""
""fullscreenenter"",""0"",""10423""
","
","
","""event"",""trial"",""time""
""fullscreenenter"",""0"",""10423""
","
","null","<p></p>","null","","","","","","","",""
"","image","261","584772","0.0-233.0-0.0","""event"",""trial"",""time""
""fullscreenenter"",""0"",""10423""
","
","
","""event"",""trial"",""time""
""fullscreenenter"",""0"",""10423""
","
","1345.2999999970198","run_exp/static/images/Set 6_rs/131a.jpg","86","","","","","","test","TR","5"
"","show_choice","262","585276","0.0-233.0-1.0","""event"",""trial"",""time""
""fullscreenenter"",""0"",""10423""
","
","
","""event"",""trial"",""time""
""fullscreenenter"",""0"",""10423""
","
","null","run_exp/static/images/Set 6_rs/131a.jpg","null","","","","","","test","TR",""
"","html-keyboard-response","263","585785","0.0-233.0-2.0","""event"",""trial"",""time""
""fullscreenenter"",""0"",""10423""
","
","
","""event"",""trial"",""time""
""fullscreenenter"",""0"",""10423""
","
","null","<p></p>","null","","","","","","","",""
"","image","264","586954","0.0-234.0-0.0","""event"",""trial"",""time""
""fullscreenenter"",""0"",""10423""
","
","
","""event"",""trial"",""time""
""fullscreenenter"",""0"",""10423""
","
","1167.7000000029802","run_exp/static/images/Set 6_rs/050b.jpg","86","","","","","","test","TL","3"
"","show_choice","265","587467","0.0-234.0-1.0","""event"",""trial"",""time""
""fullscreenenter"",""0"",""10423""
","
","
","""event"",""trial"",""time""
""fullscreenenter"",""0"",""10423""
","
","null","run_exp/static/images/Set 6_rs/050b.jpg","null","","","","","","test","TL",""
"","html-keyboard-response","266","587978","0.0-234.0-2.0","""event"",""trial"",""time""
""fullscreenenter"",""0"",""10423""
","
","
","""event"",""trial"",""time""
""fullscreenenter"",""0"",""10423""
","
","null","<p></p>","null","","","","","","","",""
"","image","267","589177","0.0-235.0-0.0","""event"",""trial"",""time""
""fullscreenenter"",""0"",""10423""
","
","
","""event"",""trial"",""time""
""fullscreenenter"",""0"",""10423""
","
","1197.7999999970198","run_exp/static/images/Set 6_rs/025b.jpg","78","","","","","","test","TL","5"
"","show_choice","268","589692","0.0-235.0-1.0","""event"",""trial"",""time""
""fullscreenenter"",""0"",""10423""
","
","
","""event"",""trial"",""time""
""fullscreenenter"",""0"",""10423""
","
","null","run_exp/static/images/Set 6_rs/025b.jpg","null","","","","","","test","TL",""
"","html-keyboard-response","269","590196","0.0-235.0-2.0","""event"",""trial"",""time""
""fullscreenenter"",""0"",""10423""
","
","
","""event"",""trial"",""time""
""fullscreenenter"",""0"",""10423""
","
","null","<p></p>","null","","","","","","","",""
"","image","270","591362","0.0-236.0-0.0","""event"",""trial"",""time""
""fullscreenenter"",""0"",""10423""
","
","
","""event"",""trial"",""time""
""fullscreenenter"",""0"",""10423""
","
","1164.800000011921","run_exp/static/images/Set 6_rs/005a.jpg","78","","","","","","test","TF","5"
"","show_choice","271","591878","0.0-236.0-1.0","""event"",""trial"",""time""
""fullscreenenter"",""0"",""10423""
","
","
","""event"",""trial"",""time""
""fullscreenenter"",""0"",""10423""
","
","null","run_exp/static/images/Set 6_rs/005a.jpg","null","","","","","","test","TF",""
"","html-keyboard-response","272","592388","0.0-236.0-2.0","""event"",""trial"",""time""
""fullscreenenter"",""0"",""10423""
","
","
","""event"",""trial"",""time""
""fullscreenenter"",""0"",""10423""
","
","null","<p></p>","null","","","","","","","",""
"","image","273","593952","0.0-237.0-0.0","""event"",""trial"",""time""
""fullscreenenter"",""0"",""10423""
","
","
","""event"",""trial"",""time""
""fullscreenenter"",""0"",""10423""
","
","1562.9000000059605","run_exp/static/images/Set 6_rs/088a.jpg","86","","","","","","test","TR","2"
"","show_choice","274","594462","0.0-237.0-1.0","""event"",""trial"",""time""
""fullscreenenter"",""0"",""10423""
","
","
","""event"",""trial"",""time""
""fullscreenenter"",""0"",""10423""
","
","null","run_exp/static/images/Set 6_rs/088a.jpg","null","","","","","","test","TR",""
"","html-keyboard-response","275","594975","0.0-237.0-2.0","""event"",""trial"",""time""
""fullscreenenter"",""0"",""10423""
","
","
","""event"",""trial"",""time""
""fullscreenenter"",""0"",""10423""
","
","null","<p></p>","null","","","","","","","",""
"","image","276","596177","0.0-238.0-0.0","""event"",""trial"",""time""
""fullscreenenter"",""0"",""10423""
","
","
","""event"",""trial"",""time""
""fullscreenenter"",""0"",""10423""
","
","1200.3999999910593","run_exp/static/images/Set 6_rs/085b.jpg","86","","","","","","test","TL","1"
"","show_choice","277","596685","0.0-238.0-1.0","""event"",""trial"",""time""
""fullscreenenter"",""0"",""10423""
","
","
","""event"",""trial"",""time""
""fullscreenenter"",""0"",""10423""
","
","null","run_exp/static/images/Set 6_rs/085b.jpg","null","","","","","","test","TL",""
"","html-keyboard-response","278","597193","0.0-238.0-2.0","""event"",""trial"",""time""
""fullscreenenter"",""0"",""10423""
","
","
","""event"",""trial"",""time""
""fullscreenenter"",""0"",""10423""
","
","null","<p></p>","null","","","","","","","",""
"","image","279","598387","0.0-239.0-0.0","""event"",""trial"",""time""
""fullscreenenter"",""0"",""10423""
","
","
","""event"",""trial"",""time""
""fullscreenenter"",""0"",""10423""
","
","1192","run_exp/static/images/Set 6_rs/011a.jpg","66","","","","","","test","TF","3"
"","show_choice","280","598903","0.0-239.0-1.0","""event"",""trial"",""time""
""fullscreenenter"",""0"",""10423""
","
","
","""event"",""trial"",""time""
""fullscreenenter"",""0"",""10423""
","
","null","run_exp/static/images/Set 6_rs/011a.jpg","null","","","","","","test","TF",""
"","html-keyboard-response","281","599416","0.0-239.0-2.0","""event"",""trial"",""time""
""fullscreenenter"",""0"",""10423""
","
","
","""event"",""trial"",""time""
""fullscreenenter"",""0"",""10423""
","
","null","<p></p>","null","","","","","","","",""
"","image","282","600872","0.0-240.0-0.0","""event"",""trial"",""time""
""fullscreenenter"",""0"",""10423""
","
","
","""event"",""trial"",""time""
""fullscreenenter"",""0"",""10423""
","
","1454.2000000029802","run_exp/static/images/Set 6_rs/140a.jpg","78","","","","","","test","TF","1"
"","show_choice","283","601388","0.0-240.0-1.0","""event"",""trial"",""time""
""fullscreenenter"",""0"",""10423""
","
","
","""event"",""trial"",""time""
""fullscreenenter"",""0"",""10423""
","
","null","run_exp/static/images/Set 6_rs/140a.jpg","null","","","","","","test","TF",""
"","html-keyboard-response","284","601899","0.0-240.0-2.0","""event"",""trial"",""time""
""fullscreenenter"",""0"",""10423""
","
","
","""event"",""trial"",""time""
""fullscreenenter"",""0"",""10423""
","
","null","<p></p>","null","","","","","","","",""
"","image","285","603154","0.0-241.0-0.0","""event"",""trial"",""time""
""fullscreenenter"",""0"",""10423""
","
","
","""event"",""trial"",""time""
""fullscreenenter"",""0"",""10423""
","
","1252.7999999970198","run_exp/static/images/Set 6_rs/073b.jpg","66","","","","","","test","TL","3"
"","show_choice","286","603662","0.0-241.0-1.0","""event"",""trial"",""time""
""fullscreenenter"",""0"",""10423""
","
","
","""event"",""trial"",""time""
""fullscreenenter"",""0"",""10423""
","
","null","run_exp/static/images/Set 6_rs/073b.jpg","null","","","","","","test","TL",""
"","html-keyboard-response","287","604163","0.0-241.0-2.0","""event"",""trial"",""time""
""fullscreenenter"",""0"",""10423""
","
","
","""event"",""trial"",""time""
""fullscreenenter"",""0"",""10423""
","
","null","<p></p>","null","","","","","","","",""
"","image","288","605235","0.0-242.0-0.0","""event"",""trial"",""time""
""fullscreenenter"",""0"",""10423""
","
","
","""event"",""trial"",""time""
""fullscreenenter"",""0"",""10423""
","
","1070.2999999970198","run_exp/static/images/Set 6_rs/132a.jpg","86","","","","","","test","TR","5"
"","show_choice","289","605750","0.0-242.0-1.0","""event"",""trial"",""time""
""fullscreenenter"",""0"",""10423""
","
","
","""event"",""trial"",""time""
""fullscreenenter"",""0"",""10423""
","
","null","run_exp/static/images/Set 6_rs/132a.jpg","null","","","","","","test","TR",""
"","html-keyboard-response","290","606261","0.0-242.0-2.0","""event"",""trial"",""time""
""fullscreenenter"",""0"",""10423""
","
","
","""event"",""trial"",""time""
""fullscreenenter"",""0"",""10423""
","
","null","<p></p>","null","","","","","","","",""
"","image","291","607587","0.0-243.0-0.0","""event"",""trial"",""time""
""fullscreenenter"",""0"",""10423""
","
","
","""event"",""trial"",""time""
""fullscreenenter"",""0"",""10423""
","
","1324.800000011921","run_exp/static/images/Set 6_rs/052a.jpg","78","","","","","","test","TF","1"
"","show_choice","292","608101","0.0-243.0-1.0","""event"",""trial"",""time""
""fullscreenenter"",""0"",""10423""
","
","
","""event"",""trial"",""time""
""fullscreenenter"",""0"",""10423""
","
","null","run_exp/static/images/Set 6_rs/052a.jpg","null","","","","","","test","TF",""
"","html-keyboard-response","293","608617","0.0-243.0-2.0","""event"",""trial"",""time""
""fullscreenenter"",""0"",""10423""
","
","
","""event"",""trial"",""time""
""fullscreenenter"",""0"",""10423""
","
","null","<p></p>","null","","","","","","","",""
"","image","294","609758","0.0-244.0-0.0","""event"",""trial"",""time""
""fullscreenenter"",""0"",""10423""
","
","
","""event"",""trial"",""time""
""fullscreenenter"",""0"",""10423""
","
","1139.5","run_exp/static/images/Set 6_rs/152a.jpg","86","","","","","","test","TR","2"
"","show_choice","295","610270","0.0-244.0-1.0","""event"",""trial"",""time""
""fullscreenenter"",""0"",""10423""
","
","
","""event"",""trial"",""time""
""fullscreenenter"",""0"",""10423""
","
","null","run_exp/static/images/Set 6_rs/152a.jpg","null","","","","","","test","TR",""
"","html-keyboard-response","296","610784","0.0-244.0-2.0","""event"",""trial"",""time""
""fullscreenenter"",""0"",""10423""
","
","
","""event"",""trial"",""time""
""fullscreenenter"",""0"",""10423""
","
","null","<p></p>","null","","","","","","","",""
"","image","297","612426","0.0-245.0-0.0","""event"",""trial"",""time""
""fullscreenenter"",""0"",""10423""
","
","
","""event"",""trial"",""time""
""fullscreenenter"",""0"",""10423""
","
","1640.2000000029802","run_exp/static/images/Set 6_rs/117b.jpg","66","","","","","","test","TL","5"
"","show_choice","298","612934","0.0-245.0-1.0","""event"",""trial"",""time""
""fullscreenenter"",""0"",""10423""
","
","
","""event"",""trial"",""time""
""fullscreenenter"",""0"",""10423""
","
","null","run_exp/static/images/Set 6_rs/117b.jpg","null","","","","","","test","TL",""
"","html-keyboard-response","299","613437","0.0-245.0-2.0","""event"",""trial"",""time""
""fullscreenenter"",""0"",""10423""
","
","
","""event"",""trial"",""time""
""fullscreenenter"",""0"",""10423""
","
","null","<p></p>","null","","","","","","","",""
"","image","300","614846","0.0-246.0-0.0","""event"",""trial"",""time""
""fullscreenenter"",""0"",""10423""
","
","
","""event"",""trial"",""time""
""fullscreenenter"",""0"",""10423""
","
","1404.2000000029802","run_exp/static/images/Set 6_rs/086a.jpg","78","","","","","","test","TF","1"
"","show_choice","301","615359","0.0-246.0-1.0","""event"",""trial"",""time""
""fullscreenenter"",""0"",""10423""
","
","
","""event"",""trial"",""time""
""fullscreenenter"",""0"",""10423""
","
","null","run_exp/static/images/Set 6_rs/086a.jpg","null","","","","","","test","TF",""
"","html-keyboard-response","302","615872","0.0-246.0-2.0","""event"",""trial"",""time""
""fullscreenenter"",""0"",""10423""
","
","
","""event"",""trial"",""time""
""fullscreenenter"",""0"",""10423""
","
","null","<p></p>","null","","","","","","","",""
"","image","303","617148","0.0-247.0-0.0","""event"",""trial"",""time""
""fullscreenenter"",""0"",""10423""
","
","
","""event"",""trial"",""time""
""fullscreenenter"",""0"",""10423""
","
","1274.5","run_exp/static/images/Set 6_rs/121a.jpg","86","","","","","","test","TR","4"
"","show_choice","304","617658","0.0-247.0-1.0","""event"",""trial"",""time""
""fullscreenenter"",""0"",""10423""
","
","
","""event"",""trial"",""time""
""fullscreenenter"",""0"",""10423""
","
","null","run_exp/static/images/Set 6_rs/121a.jpg","null","","","","","","test","TR",""
"","html-keyboard-response","305","618166","0.0-247.0-2.0","""event"",""trial"",""time""
""fullscreenenter"",""0"",""10423""
","
","
","""event"",""trial"",""time""
""fullscreenenter"",""0"",""10423""
","
","null","<p></p>","null","","","","","","","",""
"","image","306","619072","0.0-248.0-0.0","""event"",""trial"",""time""
""fullscreenenter"",""0"",""10423""
","
","
","""event"",""trial"",""time""
""fullscreenenter"",""0"",""10423""
","
","903.7000000029802","run_exp/static/images/Set 6_rs/167b.jpg","86","","","","","","test","TL","2"
"","show_choice","307","619581","0.0-248.0-1.0","""event"",""trial"",""time""
""fullscreenenter"",""0"",""10423""
","
","
","""event"",""trial"",""time""
""fullscreenenter"",""0"",""10423""
","
","null","run_exp/static/images/Set 6_rs/167b.jpg","null","","","","","","test","TL",""
"","html-keyboard-response","308","620090","0.0-248.0-2.0","""event"",""trial"",""time""
""fullscreenenter"",""0"",""10423""
","
","
","""event"",""trial"",""time""
""fullscreenenter"",""0"",""10423""
","
","null","<p></p>","null","","","","","","","",""
"","image","309","621435","0.0-249.0-0.0","""event"",""trial"",""time""
""fullscreenenter"",""0"",""10423""
","
","
","""event"",""trial"",""time""
""fullscreenenter"",""0"",""10423""
","
","1343.5","run_exp/static/images/Set 6_rs/168b.jpg","86","","","","","","test","TL","3"
"","show_choice","310","621943","0.0-249.0-1.0","""event"",""trial"",""time""
""fullscreenenter"",""0"",""10423""
","
","
","""event"",""trial"",""time""
""fullscreenenter"",""0"",""10423""
","
","null","run_exp/static/images/Set 6_rs/168b.jpg","null","","","","","","test","TL",""
"","html-keyboard-response","311","622458","0.0-249.0-2.0","""event"",""trial"",""time""
""fullscreenenter"",""0"",""10423""
","
","
","""event"",""trial"",""time""
""fullscreenenter"",""0"",""10423""
","
","null","<p></p>","null","","","","","","","",""
"","image","312","623635","0.0-250.0-0.0","""event"",""trial"",""time""
""fullscreenenter"",""0"",""10423""
","
","
","""event"",""trial"",""time""
""fullscreenenter"",""0"",""10423""
","
","1174.7000000029802","run_exp/static/images/Set 6_rs/169a.jpg","86","","","","","","test","TR","4"
"","show_choice","313","624140","0.0-250.0-1.0","""event"",""trial"",""time""
""fullscreenenter"",""0"",""10423""
","
","
","""event"",""trial"",""time""
""fullscreenenter"",""0"",""10423""
","
","null","run_exp/static/images/Set 6_rs/169a.jpg","null","","","","","","test","TR",""
"","html-keyboard-response","314","624649","0.0-250.0-2.0","""event"",""trial"",""time""
""fullscreenenter"",""0"",""10423""
","
","
","""event"",""trial"",""time""
""fullscreenenter"",""0"",""10423""
","
","null","<p></p>","null","","","","","","","",""
"","image","315","625796","0.0-251.0-0.0","""event"",""trial"",""time""
""fullscreenenter"",""0"",""10423""
","
","
","""event"",""trial"",""time""
""fullscreenenter"",""0"",""10423""
","
","1145.3999999910593","run_exp/static/images/Set 6_rs/150a.jpg","86","","","","","","test","TR","1"
"","show_choice","316","626300","0.0-251.0-1.0","""event"",""trial"",""time""
""fullscreenenter"",""0"",""10423""
","
","
","""event"",""trial"",""time""
""fullscreenenter"",""0"",""10423""
","
","null","run_exp/static/images/Set 6_rs/150a.jpg","null","","","","","","test","TR",""
"","html-keyboard-response","317","626813","0.0-251.0-2.0","""event"",""trial"",""time""
""fullscreenenter"",""0"",""10423""
","
","
","""event"",""trial"",""time""
""fullscreenenter"",""0"",""10423""
","
","null","<p></p>","null","","","","","","","",""
"","image","318","627967","0.0-252.0-0.0","""event"",""trial"",""time""
""fullscreenenter"",""0"",""10423""
","
","
","""event"",""trial"",""time""
""fullscreenenter"",""0"",""10423""
","
","1152.2999999970198","run_exp/static/images/Set 6_rs/028a.jpg","78","","","","","","test","TF","1"
"","show_choice","319","628480","0.0-252.0-1.0","""event"",""trial"",""time""
""fullscreenenter"",""0"",""10423""
","
","
","""event"",""trial"",""time""
""fullscreenenter"",""0"",""10423""
","
","null","run_exp/static/images/Set 6_rs/028a.jpg","null","","","","","","test","TF",""
"","html-keyboard-response","320","628988","0.0-252.0-2.0","""event"",""trial"",""time""
""fullscreenenter"",""0"",""10423""
","
","
","""event"",""trial"",""time""
""fullscreenenter"",""0"",""10423""
","
","null","<p></p>","null","","","","","","","",""
"","image","321","630159","0.0-253.0-0.0","""event"",""trial"",""time""
""fullscreenenter"",""0"",""10423""
","
","
","""event"",""trial"",""time""
""fullscreenenter"",""0"",""10423""
","
","1169.7999999970198","run_exp/static/images/Set 6_rs/170a.jpg","78","","","","","","test","TF","2"
"","show_choice","322","630663","0.0-253.0-1.0","""event"",""trial"",""time""
""fullscreenenter"",""0"",""10423""
","
","
","""event"",""trial"",""time""
""fullscreenenter"",""0"",""10423""
","
","null","run_exp/static/images/Set 6_rs/170a.jpg","null","","","","","","test","TF",""
"","html-keyboard-response","323","631179","0.0-253.0-2.0","""event"",""trial"",""time""
""fullscreenenter"",""0"",""10423""
","
","
","""event"",""trial"",""time""
""fullscreenenter"",""0"",""10423""
","
","null","<p></p>","null","","","","","","","",""
"","image","324","632520","0.0-254.0-0.0","""event"",""trial"",""time""
""fullscreenenter"",""0"",""10423""
","
","
","""event"",""trial"",""time""
""fullscreenenter"",""0"",""10423""
","
","1339.3999999910593","run_exp/static/images/Set 6_rs/010a.jpg","86","","","","","","test","TR","5"
"","show_choice","325","633032","0.0-254.0-1.0","""event"",""trial"",""time""
""fullscreenenter"",""0"",""10423""
","
","
","""event"",""trial"",""time""
""fullscreenenter"",""0"",""10423""
","
","null","run_exp/static/images/Set 6_rs/010a.jpg","null","","","","","","test","TR",""
"","html-keyboard-response","326","633546","0.0-254.0-2.0","""event"",""trial"",""time""
""fullscreenenter"",""0"",""10423""
","
","
","""event"",""trial"",""time""
""fullscreenenter"",""0"",""10423""
","
","null","<p></p>","null","","","","","","","",""
"","image","327","634830","0.0-255.0-0.0","""event"",""trial"",""time""
""fullscreenenter"",""0"",""10423""
","
","
","""event"",""trial"",""time""
""fullscreenenter"",""0"",""10423""
","
","1281.7000000029802","run_exp/static/images/Set 6_rs/091b.jpg","66","","","","","","test","TL","3"
"","show_choice","328","635341","0.0-255.0-1.0","""event"",""trial"",""time""
""fullscreenenter"",""0"",""10423""
","
","
","""event"",""trial"",""time""
""fullscreenenter"",""0"",""10423""
","
","null","run_exp/static/images/Set 6_rs/091b.jpg","null","","","","","","test","TL",""
"","html-keyboard-response","329","635849","0.0-255.0-2.0","""event"",""trial"",""time""
""fullscreenenter"",""0"",""10423""
","
","
","""event"",""trial"",""time""
""fullscreenenter"",""0"",""10423""
","
","null","<p></p>","null","","","","","","","",""
"","image","330","637291","0.0-256.0-0.0","""event"",""trial"",""time""
""fullscreenenter"",""0"",""10423""
","
","
","""event"",""trial"",""time""
""fullscreenenter"",""0"",""10423""
","
","1439.6000000089407","run_exp/static/images/Set 6_rs/075a.jpg","86","","","","","","test","TR","1"
"","show_choice","331","637805","0.0-256.0-1.0","""event"",""trial"",""time""
""fullscreenenter"",""0"",""10423""
","
","
","""event"",""trial"",""time""
""fullscreenenter"",""0"",""10423""
","
","null","run_exp/static/images/Set 6_rs/075a.jpg","null","","","","","","test","TR",""
"","html-keyboard-response","332","638322","0.0-256.0-2.0","""event"",""trial"",""time""
""fullscreenenter"",""0"",""10423""
","
","
","""event"",""trial"",""time""
""fullscreenenter"",""0"",""10423""
","
","null","<p></p>","null","","","","","","","",""
"","image","333","639358","0.0-257.0-0.0","""event"",""trial"",""time""
""fullscreenenter"",""0"",""10423""
","
","
","""event"",""trial"",""time""
""fullscreenenter"",""0"",""10423""
","
","1034","run_exp/static/images/Set 6_rs/014b.jpg","86","","","","","","test","TL","5"
"","show_choice","334","639864","0.0-257.0-1.0","""event"",""trial"",""time""
""fullscreenenter"",""0"",""10423""
","
","
","""event"",""trial"",""time""
""fullscreenenter"",""0"",""10423""
","
","null","run_exp/static/images/Set 6_rs/014b.jpg","null","","","","","","test","TL",""
"","html-keyboard-response","335","640380","0.0-257.0-2.0","""event"",""trial"",""time""
""fullscreenenter"",""0"",""10423""
","
","
","""event"",""trial"",""time""
""fullscreenenter"",""0"",""10423""
","
","null","<p></p>","null","","","","","","","",""
"","image","336","641431","0.0-258.0-0.0","""event"",""trial"",""time""
""fullscreenenter"",""0"",""10423""
","
","
","""event"",""trial"",""time""
""fullscreenenter"",""0"",""10423""
","
","1049.2000000029802","run_exp/static/images/Set 6_rs/070a.jpg","86","","","","","","test","TR","2"
"","show_choice","337","641937","0.0-258.0-1.0","""event"",""trial"",""time""
""fullscreenenter"",""0"",""10423""
","
","
","""event"",""trial"",""time""
""fullscreenenter"",""0"",""10423""
","
","null","run_exp/static/images/Set 6_rs/070a.jpg","null","","","","","","test","TR",""
"","html-keyboard-response","338","642445","0.0-258.0-2.0","""event"",""trial"",""time""
""fullscreenenter"",""0"",""10423""
","
","
","""event"",""trial"",""time""
""fullscreenenter"",""0"",""10423""
","
