"success","trial_type","trial_index","time_elapsed","internal_node_id","rt","stimulus","key_press","subject_id","participant_id","age","gender","prompt","phase","condition","lure_bin"
"true","fullscreen","0","5895","0.0-0.0","","","","","","","","","","",""
"","pavlovia","1","5899","0.0-1.0","","","","","","","","","","",""
"","welcome","2","41644","0.0-2.0","null","run_exp/static/audio/clip_1_welcome.m4a","null","66","230","11","female","<div class='center'><p>This is your last game of the experiment! First, you'll be shown pictures of items one at a time. For each picture, you have to decide if the item is typically found indoors or outdoors.</p><p>If you think it's usually found indoors, then press <b>v</b> key on your keyboard. If you think it's usually found outdoors, then press the <b>n</b> key.There will be reminders on the screen to help you remember which keys to press. </p><p>If you're not sure whether the item is an indoor item or outdoor item, go ahead and take a guess but try your best not to skip that choice. </p></div>","","",""
"","html-keyboard-response","3","42790","0.0-3.0","1144.199999988079","<div class='center'><p>This is your last game of the experiment! First, you'll be shown pictures of items one at a time. For each picture, you have to decide if the item is typically found indoors or outdoors.</p><p>If you think it's usually found indoors, then press <b>v</b> key on your keyboard. If you think it's usually found outdoors, then press the <b>n</b> key.There will be reminders on the screen to help you remember which keys to press. </p><p>If you're not sure whether the item is an indoor item or outdoor item, go ahead and take a guess but try your best not to skip that choice. </p><div><p><b>[Press the space bar to continue]</b></p></div>","32","","","","","","","",""
"","image","4","44793","0.0-4.0","null","run_exp/static/images/Set 6_rs/055a.jpg","null","","","","","","learn","SL",""
"","show_choice","5","46795","0.0-5.0","null","run_exp/static/images/blank.png","null","","","","","","learn","SL",""
"","html-keyboard-response","6","47296","0.0-6.0","null","<p></p>","null","","","","","","","",""
"","image","7","48572","0.0-7.0","1275.4000000357628","run_exp/static/images/Set 6_rs/123a.jpg","78","","","","","","learn","SL",""
"","show_choice","8","49298","0.0-8.0","null","run_exp/static/images/Set 6_rs/123a.jpg","null","","","","","","learn","SL",""
"","html-keyboard-response","9","49801","0.0-9.0","null","<p></p>","null","","","","","","","",""
"","image","10","50654","0.0-10.0","851.6999999880791","run_exp/static/images/Set 6_rs/066a.jpg","86","","","","","","learn","SL",""
"","show_choice","11","51805","0.0-11.0","null","run_exp/static/images/Set 6_rs/066a.jpg","null","","","","","","learn","SL",""
"","html-keyboard-response","12","52309","0.0-12.0","null","<p></p>","null","","","","","","","",""
"","image","13","53242","0.0-13.0","931","run_exp/static/images/Set 6_rs/079a.jpg","86","","","","","","learn","SL",""
"","show_choice","14","54312","0.0-14.0","null","run_exp/static/images/Set 6_rs/079a.jpg","null","","","","","","learn","SL",""
"","html-keyboard-response","15","54813","0.0-15.0","null","<p></p>","null","","","","","","","",""
"","image","16","56246","0.0-16.0","1431.199999988079","run_exp/static/images/Set 6_rs/067a.jpg","86","","","","","","learn","SL",""
"","show_choice","17","56820","0.0-17.0","null","run_exp/static/images/Set 6_rs/067a.jpg","null","","","","","","learn","SL",""
"","html-keyboard-response","18","57326","0.0-18.0","null","<p></p>","null","","","","","","","",""
"","image","19","58046","0.0-19.0","719","run_exp/static/images/Set 6_rs/116a.jpg","86","","","","","","learn","SL",""
"","show_choice","20","59330","0.0-20.0","null","run_exp/static/images/Set 6_rs/116a.jpg","null","","","","","","learn","SL",""
"","html-keyboard-response","21","59833","0.0-21.0","null","<p></p>","null","","","","","","","",""
"","image","22","60735","0.0-22.0","900.5999999642372","run_exp/static/images/Set 6_rs/061a.jpg","78","","","","","","learn","SR",""
"","show_choice","23","61836","0.0-23.0","null","run_exp/static/images/Set 6_rs/061a.jpg","null","","","","","","learn","SR",""
"","html-keyboard-response","24","62340","0.0-24.0","null","<p></p>","null","","","","","","","",""
"","image","25","62974","0.0-25.0","632.6999999880791","run_exp/static/images/Set 6_rs/112a.jpg","86","","","","","","learn","SR",""
"","show_choice","26","64346","0.0-26.0","null","run_exp/static/images/Set 6_rs/112a.jpg","null","","","","","","learn","SR",""
"","html-keyboard-response","27","64852","0.0-27.0","null","<p></p>","null","","","","","","","",""
"","image","28","65652","0.0-28.0","798.3999999761581","run_exp/static/images/Set 6_rs/144a.jpg","86","","","","","","learn","SL",""
"","show_choice","29","66855","0.0-29.0","null","run_exp/static/images/Set 6_rs/144a.jpg","null","","","","","","learn","SL",""
"","html-keyboard-response","30","67361","0.0-30.0","null","<p></p>","null","","","","","","","",""
"","image","31","68059","0.0-31.0","696.8000000119209","run_exp/static/images/Set 6_rs/076a.jpg","86","","","","","","learn","SR",""
"","show_choice","32","69368","0.0-32.0","null","run_exp/static/images/Set 6_rs/076a.jpg","null","","","","","","learn","SR",""
"","html-keyboard-response","33","69872","0.0-33.0","null","<p></p>","null","","","","","","","",""
"","image","34","70704","0.0-34.0","830.6000000238419","run_exp/static/images/Set 6_rs/131a.jpg","86","","","","","","learn","SR",""
"","show_choice","35","71876","0.0-35.0","null","run_exp/static/images/Set 6_rs/131a.jpg","null","","","","","","learn","SR",""
"","html-keyboard-response","36","72378","0.0-36.0","null","<p></p>","null","","","","","","","",""
"","image","37","73167","0.0-37.0","789.0999999642372","run_exp/static/images/Set 6_rs/019a.jpg","78","","","","","","learn","SL",""
"","show_choice","38","74383","0.0-38.0","null","run_exp/static/images/Set 6_rs/019a.jpg","null","","","","","","learn","SL",""
"","html-keyboard-response","39","74889","0.0-39.0","null","<p></p>","null","","","","","","","",""
"","image","40","75553","0.0-40.0","662.6999999880791","run_exp/static/images/Set 6_rs/063a.jpg","86","","","","","","learn","SR",""
"","show_choice","41","76894","0.0-41.0","null","run_exp/static/images/Set 6_rs/063a.jpg","null","","","","","","learn","SR",""
"","html-keyboard-response","42","77395","0.0-42.0","null","<p></p>","null","","","","","","","",""
"","image","43","78107","0.0-43.0","711.1999999880791","run_exp/static/images/Set 6_rs/178a.jpg","78","","","","","","learn","SR",""
"","show_choice","44","79396","0.0-44.0","null","run_exp/static/images/Set 6_rs/178a.jpg","null","","","","","","learn","SR",""
"","html-keyboard-response","45","79899","0.0-45.0","null","<p></p>","null","","","","","","","",""
"","image","46","80638","0.0-46.0","738.2999999523163","run_exp/static/images/Set 6_rs/057a.jpg","86","","","","","","learn","SL",""
"","show_choice","47","81902","0.0-47.0","null","run_exp/static/images/Set 6_rs/057a.jpg","null","","","","","","learn","SL",""
"","html-keyboard-response","48","82404","0.0-48.0","null","<p></p>","null","","","","","","","",""
"","image","49","83249","0.0-49.0","843.1000000238419","run_exp/static/images/Set 6_rs/062a.jpg","78","","","","","","learn","SL",""
"","show_choice","50","84409","0.0-50.0","null","run_exp/static/images/Set 6_rs/062a.jpg","null","","","","","","learn","SL",""
"","html-keyboard-response","51","84913","0.0-51.0","null","<p></p>","null","","","","","","","",""
"","image","52","85814","0.0-52.0","899.5","run_exp/static/images/Set 6_rs/071a.jpg","78","","","","","","learn","SL",""
"","show_choice","53","86915","0.0-53.0","null","run_exp/static/images/Set 6_rs/071a.jpg","null","","","","","","learn","SL",""
"","html-keyboard-response","54","87419","0.0-54.0","null","<p></p>","null","","","","","","","",""
"","image","55","88200","0.0-55.0","780.1999999880791","run_exp/static/images/Set 6_rs/172a.jpg","78","","","","","","learn","SR",""
"","show_choice","56","89425","0.0-56.0","null","run_exp/static/images/Set 6_rs/172a.jpg","null","","","","","","learn","SR",""
"","html-keyboard-response","57","89931","0.0-57.0","null","<p></p>","null","","","","","","","",""
"","image","58","90990","0.0-58.0","1058","run_exp/static/images/Set 6_rs/138a.jpg","78","","","","","","learn","SL",""
"","show_choice","59","91937","0.0-59.0","null","run_exp/static/images/Set 6_rs/138a.jpg","null","","","","","","learn","SL",""
"","html-keyboard-response","60","92439","0.0-60.0","null","<p></p>","null","","","","","","","",""
"","image","61","93195","0.0-61.0","754.8999999761581","run_exp/static/images/Set 6_rs/129a.jpg","86","","","","","","learn","SL",""
"","show_choice","62","94445","0.0-62.0","null","run_exp/static/images/Set 6_rs/129a.jpg","null","","","","","","learn","SL",""
"","html-keyboard-response","63","94948","0.0-63.0","null","<p></p>","null","","","","","","","",""
"","image","64","95648","0.0-64.0","699.1999999880791","run_exp/static/images/Set 6_rs/088a.jpg","86","","","","","","learn","SR",""
"","show_choice","65","96950","0.0-65.0","null","run_exp/static/images/Set 6_rs/088a.jpg","null","","","","","","learn","SR",""
"","html-keyboard-response","66","97456","0.0-66.0","null","<p></p>","null","","","","","","","",""
"","image","67","98303","0.0-67.0","846.1000000238419","run_exp/static/images/Set 6_rs/095a.jpg","86","","","","","","learn","SL",""
"","show_choice","68","99460","0.0-68.0","null","run_exp/static/images/Set 6_rs/095a.jpg","null","","","","","","learn","SL",""
"","html-keyboard-response","69","99965","0.0-69.0","null","<p></p>","null","","","","","","","",""
"","image","70","100767","0.0-70.0","799.6000000238419","run_exp/static/images/Set 6_rs/117a.jpg","86","","","","","","learn","SL",""
"","show_choice","71","101973","0.0-71.0","null","run_exp/static/images/Set 6_rs/117a.jpg","null","","","","","","learn","SL",""
"","html-keyboard-response","72","102479","0.0-72.0","null","<p></p>","null","","","","","","","",""
"","image","73","103231","0.0-73.0","751.5","run_exp/static/images/Set 6_rs/141a.jpg","78","","","","","","learn","SR",""
"","show_choice","74","104482","0.0-74.0","null","run_exp/static/images/Set 6_rs/141a.jpg","null","","","","","","learn","SR",""
"","html-keyboard-response","75","104987","0.0-75.0","null","<p></p>","null","","","","","","","",""
"","image","76","105650","0.0-76.0","662.0999999642372","run_exp/static/images/Set 6_rs/007a.jpg","86","","","","","","learn","SR",""
"","show_choice","77","106992","0.0-77.0","null","run_exp/static/images/Set 6_rs/007a.jpg","null","","","","","","learn","SR",""
"","html-keyboard-response","78","107495","0.0-78.0","null","<p></p>","null","","","","","","","",""
"","image","79","108497","0.0-79.0","1001.1999999880791","run_exp/static/images/Set 6_rs/177a.jpg","86","","","","","","learn","SR",""
"","show_choice","80","109496","0.0-80.0","null","run_exp/static/images/Set 6_rs/177a.jpg","null","","","","","","learn","SR",""
"","html-keyboard-response","81","109998","0.0-81.0","null","<p></p>","null","","","","","","","",""
"","image","82","111006","0.0-82.0","1006.3999999761581","run_exp/static/images/Set 6_rs/006a.jpg","86","","","","","","learn","SL",""
"","show_choice","83","112001","0.0-83.0","null","run_exp/static/images/Set 6_rs/006a.jpg","null","","","","","","learn","SL",""
"","html-keyboard-response","84","112502","0.0-84.0","null","<p></p>","null","","","","","","","",""
"","image","85","113808","0.0-85.0","1305","run_exp/static/images/Set 6_rs/167a.jpg","86","","","","","","learn","SL",""
"","show_choice","86","114504","0.0-86.0","null","run_exp/static/images/Set 6_rs/167a.jpg","null","","","","","","learn","SL",""
"","html-keyboard-response","87","115006","0.0-87.0","null","<p></p>","null","","","","","","","",""
"","image","88","115754","0.0-88.0","746.6000000238419","run_exp/static/images/Set 6_rs/025a.jpg","78","","","","","","learn","SL",""
"","show_choice","89","117008","0.0-89.0","null","run_exp/static/images/Set 6_rs/025a.jpg","null","","","","","","learn","SL",""
"","html-keyboard-response","90","117513","0.0-90.0","null","<p></p>","null","","","","","","","",""
"","image","91","118162","0.0-91.0","647.8000000119209","run_exp/static/images/Set 6_rs/187a.jpg","86","","","","","","learn","SR",""
"","show_choice","92","119519","0.0-92.0","null","run_exp/static/images/Set 6_rs/187a.jpg","null","","","","","","learn","SR",""
"","html-keyboard-response","93","120024","0.0-93.0","null","<p></p>","null","","","","","","","",""
"","image","94","120885","0.0-94.0","860.1000000238419","run_exp/static/images/Set 6_rs/168a.jpg","78","","","","","","learn","SL",""
"","show_choice","95","122026","0.0-95.0","null","run_exp/static/images/Set 6_rs/168a.jpg","null","","","","","","learn","SL",""
"","html-keyboard-response","96","122528","0.0-96.0","null","<p></p>","null","","","","","","","",""
"","image","97","123337","0.0-97.0","808.3000000119209","run_exp/static/images/Set 6_rs/045a.jpg","86","","","","","","learn","SR",""
"","show_choice","98","124534","0.0-98.0","null","run_exp/static/images/Set 6_rs/045a.jpg","null","","","","","","learn","SR",""
"","html-keyboard-response","99","125040","0.0-99.0","null","<p></p>","null","","","","","","","",""
"","image","100","125610","0.0-100.0","569.0999999642372","run_exp/static/images/Set 6_rs/186a.jpg","86","","","","","","learn","SR",""
"","show_choice","101","127043","0.0-101.0","null","run_exp/static/images/Set 6_rs/186a.jpg","null","","","","","","learn","SR",""
"","html-keyboard-response","102","127546","0.0-102.0","null","<p></p>","null","","","","","","","",""
"","image","103","128390","0.0-103.0","842.5","run_exp/static/images/Set 6_rs/111a.jpg","86","","","","","","learn","SL",""
"","show_choice","104","129552","0.0-104.0","null","run_exp/static/images/Set 6_rs/111a.jpg","null","","","","","","learn","SL",""
"","html-keyboard-response","105","130053","0.0-105.0","null","<p></p>","null","","","","","","","",""
"","image","106","130707","0.0-106.0","653","run_exp/static/images/Set 6_rs/008a.jpg","86","","","","","","learn","SL",""
"","show_choice","107","132059","0.0-107.0","null","run_exp/static/images/Set 6_rs/008a.jpg","null","","","","","","learn","SL",""
"","html-keyboard-response","108","132565","0.0-108.0","null","<p></p>","null","","","","","","","",""
"","image","109","133318","0.0-109.0","752","run_exp/static/images/Set 6_rs/012a.jpg","86","","","","","","learn","SR",""
"","show_choice","110","134571","0.0-110.0","null","run_exp/static/images/Set 6_rs/012a.jpg","null","","","","","","learn","SR",""
"","html-keyboard-response","111","135077","0.0-111.0","null","<p></p>","null","","","","","","","",""
"","image","112","135759","0.0-112.0","680.9000000357628","run_exp/static/images/Set 6_rs/036a.jpg","86","","","","","","learn","SL",""
"","show_choice","113","137083","0.0-113.0","null","run_exp/static/images/Set 6_rs/036a.jpg","null","","","","","","learn","SL",""
"","html-keyboard-response","114","137589","0.0-114.0","null","<p></p>","null","","","","","","","",""
"","image","115","138684","0.0-115.0","1094.5999999642372","run_exp/static/images/Set 6_rs/074a.jpg","78","","","","","","learn","SL",""
"","show_choice","116","139595","0.0-116.0","null","run_exp/static/images/Set 6_rs/074a.jpg","null","","","","","","learn","SL",""
"","html-keyboard-response","117","140096","0.0-117.0","null","<p></p>","null","","","","","","","",""
"","image","118","140822","0.0-118.0","725.0999999642372","run_exp/static/images/Set 6_rs/152a.jpg","86","","","","","","learn","SR",""
"","show_choice","119","142097","0.0-119.0","null","run_exp/static/images/Set 6_rs/152a.jpg","null","","","","","","learn","SR",""
"","html-keyboard-response","120","142598","0.0-120.0","null","<p></p>","null","","","","","","","",""
"","image","121","143489","0.0-121.0","889.5999999642372","run_exp/static/images/Set 6_rs/060a.jpg","86","","","","","","learn","SL",""
"","show_choice","122","144600","0.0-122.0","null","run_exp/static/images/Set 6_rs/060a.jpg","null","","","","","","learn","SL",""
"","html-keyboard-response","123","145103","0.0-123.0","null","<p></p>","null","","","","","","","",""
"","image","124","145874","0.0-124.0","770.4000000357628","run_exp/static/images/Set 6_rs/075a.jpg","86","","","","","","learn","SR",""
"","show_choice","125","147104","0.0-125.0","null","run_exp/static/images/Set 6_rs/075a.jpg","null","","","","","","learn","SR",""
"","html-keyboard-response","126","147606","0.0-126.0","null","<p></p>","null","","","","","","","",""
"","image","127","149036","0.0-127.0","1428.199999988079","run_exp/static/images/Set 6_rs/148a.jpg","78","","","","","","learn","SR",""
"","show_choice","128","149610","0.0-128.0","null","run_exp/static/images/Set 6_rs/148a.jpg","null","","","","","","learn","SR",""
"","html-keyboard-response","129","150115","0.0-129.0","null","<p></p>","null","","","","","","","",""
"","image","130","151027","0.0-130.0","911.1999999880791","run_exp/static/images/Set 6_rs/085a.jpg","86","","","","","","learn","SL",""
"","show_choice","131","152121","0.0-131.0","null","run_exp/static/images/Set 6_rs/085a.jpg","null","","","","","","learn","SL",""
"","html-keyboard-response","132","152627","0.0-132.0","null","<p></p>","null","","","","","","","",""
"","image","133","153367","0.0-133.0","739.5999999642372","run_exp/static/images/Set 6_rs/016a.jpg","86","","","","","","learn","SL",""
"","show_choice","134","154629","0.0-134.0","null","run_exp/static/images/Set 6_rs/016a.jpg","null","","","","","","learn","SL",""
"","html-keyboard-response","135","155135","0.0-135.0","null","<p></p>","null","","","","","","","",""
"","image","136","155899","0.0-136.0","762.8999999761581","run_exp/static/images/Set 6_rs/017a.jpg","78","","","","","","learn","SL",""
"","show_choice","137","157137","0.0-137.0","null","run_exp/static/images/Set 6_rs/017a.jpg","null","","","","","","learn","SL",""
"","html-keyboard-response","138","157643","0.0-138.0","null","<p></p>","null","","","","","","","",""
"","image","139","158723","0.0-139.0","1079.2999999523163","run_exp/static/images/Set 6_rs/134a.jpg","78","","","","","","learn","SR",""
"","show_choice","140","159649","0.0-140.0","null","run_exp/static/images/Set 6_rs/134a.jpg","null","","","","","","learn","SR",""
"","html-keyboard-response","141","160154","0.0-141.0","null","<p></p>","null","","","","","","","",""
"","image","142","161019","0.0-142.0","862.8999999761581","run_exp/static/images/Set 6_rs/150a.jpg","86","","","","","","learn","SR",""
"","show_choice","143","162161","0.0-143.0","null","run_exp/static/images/Set 6_rs/150a.jpg","null","","","","","","learn","SR",""
"","html-keyboard-response","144","162662","0.0-144.0","null","<p></p>","null","","","","","","","",""
"","image","145","164292","0.0-145.0","1629.199999988079","run_exp/static/images/Set 6_rs/073a.jpg","86","","","","","","learn","SL",""
"","show_choice","146","164668","0.0-146.0","null","run_exp/static/images/Set 6_rs/073a.jpg","null","","","","","","learn","SL",""
"","html-keyboard-response","147","165169","0.0-147.0","null","<p></p>","null","","","","","","","",""
"","image","148","165913","0.0-148.0","742.7000000476837","run_exp/static/images/Set 6_rs/121a.jpg","86","","","","","","learn","SR",""
"","show_choice","149","167172","0.0-149.0","null","run_exp/static/images/Set 6_rs/121a.jpg","null","","","","","","learn","SR",""
"","html-keyboard-response","150","167674","0.0-150.0","null","<p></p>","null","","","","","","","",""
"","image","151","169142","0.0-151.0","1467","run_exp/static/images/Set 6_rs/122a.jpg","78","","","","","","learn","SR",""
"","show_choice","152","169680","0.0-152.0","null","run_exp/static/images/Set 6_rs/122a.jpg","null","","","","","","learn","SR",""
"","html-keyboard-response","153","170186","0.0-153.0","null","<p></p>","null","","","","","","","",""
"","image","154","171933","0.0-154.0","1745.7000000476837","run_exp/static/images/Set 6_rs/091a.jpg","78","","","","","","learn","SL",""
"","show_choice","155","172191","0.0-155.0","null","run_exp/static/images/Set 6_rs/091a.jpg","null","","","","","","learn","SL",""
"","html-keyboard-response","156","172692","0.0-156.0","null","<p></p>","null","","","","","","","",""
"","image","157","173912","0.0-157.0","1219.7000000476837","run_exp/static/images/Set 6_rs/010a.jpg","86","","","","","","learn","SR",""
"","show_choice","158","174696","0.0-158.0","null","run_exp/static/images/Set 6_rs/010a.jpg","null","","","","","","learn","SR",""
"","html-keyboard-response","159","175198","0.0-159.0","null","<p></p>","null","","","","","","","",""
"","image","160","176681","0.0-160.0","1481.699999988079","run_exp/static/images/Set 6_rs/191a.jpg","86","","","","","","learn","SL",""
"","show_choice","161","177200","0.0-161.0","null","run_exp/static/images/Set 6_rs/191a.jpg","null","","","","","","learn","SL",""
"","html-keyboard-response","162","177702","0.0-162.0","null","<p></p>","null","","","","","","","",""
"","image","163","178604","0.0-163.0","901.3999999761581","run_exp/static/images/Set 6_rs/089a.jpg","78","","","","","","learn","SL",""
"","show_choice","164","179705","0.0-164.0","null","run_exp/static/images/Set 6_rs/089a.jpg","null","","","","","","learn","SL",""
"","html-keyboard-response","165","180208","0.0-165.0","null","<p></p>","null","","","","","","","",""
"","image","166","181237","0.0-166.0","1028.5","run_exp/static/images/Set 6_rs/108a.jpg","78","","","","","","learn","SR",""
"","show_choice","167","182211","0.0-167.0","null","run_exp/static/images/Set 6_rs/108a.jpg","null","","","","","","learn","SR",""
"","html-keyboard-response","168","182716","0.0-168.0","null","<p></p>","null","","","","","","","",""
"","image","169","183645","0.0-169.0","928.3000000119209","run_exp/static/images/Set 6_rs/126a.jpg","78","","","","","","learn","SR",""
"","show_choice","170","184722","0.0-170.0","null","run_exp/static/images/Set 6_rs/126a.jpg","null","","","","","","learn","SR",""
"","html-keyboard-response","171","185227","0.0-171.0","null","<p></p>","null","","","","","","","",""
"","image","172","186188","0.0-172.0","959.1999999880791","run_exp/static/images/Set 6_rs/154a.jpg","86","","","","","","learn","SR",""
"","show_choice","173","187232","0.0-173.0","null","run_exp/static/images/Set 6_rs/154a.jpg","null","","","","","","learn","SR",""
"","html-keyboard-response","174","187738","0.0-174.0","null","<p></p>","null","","","","","","","",""
"","image","175","188337","0.0-175.0","598","run_exp/static/images/Set 6_rs/024a.jpg","86","","","","","","learn","SR",""
"","show_choice","176","189740","0.0-176.0","null","run_exp/static/images/Set 6_rs/024a.jpg","null","","","","","","learn","SR",""
"","html-keyboard-response","177","190245","0.0-177.0","null","<p></p>","null","","","","","","","",""
"","image","178","190936","0.0-178.0","690.2000000476837","run_exp/static/images/Set 6_rs/064a.jpg","86","","","","","","learn","SR",""
"","show_choice","179","192251","0.0-179.0","null","run_exp/static/images/Set 6_rs/064a.jpg","null","","","","","","learn","SR",""
"","html-keyboard-response","180","192753","0.0-180.0","null","<p></p>","null","","","","","","","",""
"","image","181","193400","0.0-181.0","646.4000000357628","run_exp/static/images/Set 6_rs/169a.jpg","78","","","","","","learn","SR",""
"","show_choice","182","194759","0.0-182.0","null","run_exp/static/images/Set 6_rs/169a.jpg","null","","","","","","learn","SR",""
"","html-keyboard-response","183","195263","0.0-183.0","null","<p></p>","null","","","","","","","",""
"","image","184","195987","0.0-184.0","723.5","run_exp/static/images/Set 6_rs/166a.jpg","86","","","","","","learn","SR",""
"","show_choice","185","197269","0.0-185.0","null","run_exp/static/images/Set 6_rs/166a.jpg","null","","","","","","learn","SR",""
"","html-keyboard-response","186","197774","0.0-186.0","null","<p></p>","null","","","","","","","",""
"","image","187","198373","0.0-187.0","598.6000000238419","run_exp/static/images/Set 6_rs/023a.jpg","86","","","","","","learn","SR",""
"","show_choice","188","199780","0.0-188.0","null","run_exp/static/images/Set 6_rs/023a.jpg","null","","","","","","learn","SR",""
"","html-keyboard-response","189","200281","0.0-189.0","null","<p></p>","null","","","","","","","",""
"","image","190","201569","0.0-190.0","1287","run_exp/static/images/Set 6_rs/132a.jpg","86","","","","","","learn","SR",""
"","show_choice","191","202287","0.0-191.0","null","run_exp/static/images/Set 6_rs/132a.jpg","null","","","","","","learn","SR",""
"","html-keyboard-response","192","202790","0.0-192.0","null","<p></p>","null","","","","","","","",""
"","image","193","203717","0.0-193.0","926.8000000119209","run_exp/static/images/Set 6_rs/181a.jpg","78","","","","","","learn","SL",""
"","show_choice","194","204795","0.0-194.0","null","run_exp/static/images/Set 6_rs/181a.jpg","null","","","","","","learn","SL",""
"","html-keyboard-response","195","205298","0.0-195.0","null","<p></p>","null","","","","","","","",""
"","test_intro","196","247463","0.0-196.0","null","run_exp/static/audio/clip_2_memory.m4a","null","","","","","<div class='center'><p>Now, let’s see how much you remember about the items you just saw.  For each item, you need to indicate if it was <b>old</b> by pressing the <b>v</b> key, <b>similar</b> by pressing the <b>b</b> key, or <b>new</b> by pressing the <b>n</b> key.</p><p>Old refers to an item that you saw before in the indoor/outdoor game that you just played, new refers to an item you have <b>not</b> seen before within the indoor/outdoor game, and similar refers to an item that is similar to an item you’ve seen before but is not exactly the same. </p><p>Before we begin, let’s go over some brief demonstrations to make sure you understand.</p></div>","","",""
"","html-keyboard-response","197","248362","0.0-197.0","898.3000000119209","<div class='center'><p>Now, let’s see how much you remember about the items you just saw.  For each item, you need to indicate if it was <b>old</b> by pressing the <b>v</b> key, <b>similar</b> by pressing the <b>b</b> key, or <b>new</b> by pressing the <b>n</b> key.</p><p>Old refers to an item that you saw before in the indoor/outdoor game that you just played, new refers to an item you have <b>not</b> seen before within the indoor/outdoor game, and similar refers to an item that is similar to an item you’ve seen before but is not exactly the same. </p><p>Before we begin, let’s go over some brief demonstrations to make sure you understand.</p><div><p><b>[Press the space bar to continue]</b></p></div>","32","","","","","","","",""
"","items","198","255868","0.0-198.0","null","run_exp/static/audio/clip_3_items.m4a","null","","","","","","","",""
"","mop","199","260373","0.0-199.0","null","run_exp/static/audio/clip_4_mop.m4a","null","","","","","","","",""
"","baseball","200","263879","0.0-200.0","null","run_exp/static/audio/clip_5_baseball.m4a","null","","","","","","","",""
"","trumpet","201","267386","0.0-201.0","null","run_exp/static/audio/clip_6_trumpet.m4a","null","","","","","","","",""
"","gummies","202","270889","0.0-202.0","null","run_exp/static/audio/clip_7_gummies.m4a","null","","","","","","","",""
"","osn","203","275393","0.0-203.0","null","run_exp/static/audio/clip_8_osn.m4a","null","","","","","","","",""
"","old_1","204","281897","0.0-204.0","null","run_exp/static/audio/clip_9_old_trumpet.m4a","null","","","","","","","",""
"","new_1","205","289399","0.0-205.0","null","run_exp/static/audio/clip_10_new_balloon.m4a","null","","","","","","","",""
"","similar_1a","206","293901","0.0-206.0","null","run_exp/static/audio/clip_11a_similar_mop.m4a","null","","","","","","","",""
"","similar_1b","207","300403","0.0-207.0","null","run_exp/static/audio/clip_11b_similar_mop.m4a","null","","","","","","","",""
"","new_2","208","303906","0.0-208.0","null","run_exp/static/audio/clip_12_new_stoplight.m4a","null","","","","","","","",""
"","old_2","209","307410","0.0-209.0","null","run_exp/static/audio/clip_13_old_baseball.m4a","null","","","","","","","",""
"","similar_2a","210","310914","0.0-210.0","null","run_exp/static/audio/clip_14a_similar_gummies.m4a","null","","","","","","","",""
"","similar_2b","211","318419","0.0-211.0","null","run_exp/static/audio/clip_14b_similar_gummies.m4a","null","","","","","","","",""
"","practice","212","334192","0.0-212.0","null","run_exp/static/audio/clip_15_practice.m4a","null","","","","","<div class='center'><p>Ok, let’s practice a little to make sure you understand the difference between new, similar, and old. Let’s say you saw these three items in the indoor/outdoor game. Study these because you’ll be tested on them soon in this practice game. </p><p><img src='run_exp/static/images/tutorial/test/three_indoor_outdoor.png' height='300'></p></div>","","",""
"","html-keyboard-response","213","338374","0.0-213.0","4181.099999964237","<div class='center'><p>Ok, let’s practice a little to make sure you understand the difference between new, similar, and old. Let’s say you saw these three items in the indoor/outdoor game. Study these because you’ll be tested on them soon in this practice game. </p><p><img src='run_exp/static/images/tutorial/test/three_indoor_outdoor.png' height='300'></p><div><p><b>[Press the space bar to continue]</b></p></div>","32","","","","","","","",""
"","practice_q1","214","340501","0.0-214.0","2125.100000023842","run_exp/static/audio/clip_16_practice_question.m4a","78","","","","","","","",""
"","correct","215","342389","0.0-215.0-0.0","null","run_exp/static/audio/clip_17_correct.m4a","null","","","","","<div class='center'><p>That's correct!</p></div>","","",""
"","html-keyboard-response","216","343280","0.0-215.0-1.0","890.3999999761581","<div class='center'><p>That's correct!</p><div><p><b>[Press the space bar to continue]</b></p></div>","32","","","","","","","",""
"","practice_q2","217","344663","0.0-215.0-2.0","1382.4000000357628","run_exp/static/audio/clip_16_practice_question.m4a","86","","","","","","","",""
"","correct","218","346545","0.0-216.0-0.0","null","run_exp/static/audio/clip_17_correct.m4a","null","","","","","<div class='center'><p>That's correct!</p></div>","","",""
"","html-keyboard-response","219","347408","0.0-216.0-1.0","862.3000000119209","<div class='center'><p>That's correct!</p><div><p><b>[Press the space bar to continue]</b></p></div>","32","","","","","","","",""
"","practice_q3","220","348838","0.0-216.0-2.0","1428.4000000357628","run_exp/static/audio/clip_16_practice_question.m4a","66","","","","","","","",""
"","correct","221","350888","0.0-217.0-0.0","null","run_exp/static/audio/clip_17_correct.m4a","null","","","","","<div class='center'><p>That's correct!</p></div>","","",""
"","html-keyboard-response","222","351752","0.0-217.0-1.0","863.3000000119209","<div class='center'><p>That's correct!</p><div><p><b>[Press the space bar to continue]</b></p></div>","32","","","","","","","",""
"","begin_text","223","366817","0.0-218.0-0.0","null","run_exp/static/audio/clip_22_begin_test.m4a","null","","","","","<div class='center'><p>Now it’s your turn. For each item, you need to indicate if the item is <b>old</b> by pressing the <b>v</b> key, <b>similar</b> by pressing the <b>b</b> key, or <b>new</b> by pressing the <b>n</b> key. </p></div>","","",""
"","html-keyboard-response","224","367200","0.0-218.0-1.0","381.9000000357628","<div class='center'><p>Now it’s your turn. For each item, you need to indicate if the item is <b>old</b> by pressing the <b>v</b> key, <b>similar</b> by pressing the <b>b</b> key, or <b>new</b> by pressing the <b>n</b> key. </p><div><p><b>[Press the space bar to continue]</b></p></div>","32","","","","","","","",""
"","image","225","368539","0.0-219.0-0.0","1337.699999988079","run_exp/static/images/Set 6_rs/166a.jpg","86","","","","","","test","TR","1"
"","show_choice","226","369044","0.0-219.0-1.0","null","run_exp/static/images/Set 6_rs/166a.jpg","null","","","","","","test","TR",""
"","html-keyboard-response","227","369545","0.0-219.0-2.0","null","<p></p>","null","","","","","","","",""
"","image","228","371115","0.0-220.0-0.0","1569.0999999642372","run_exp/static/images/Set 6_rs/085b.jpg","66","","","","","","test","TL","1"
"","show_choice","229","371619","0.0-220.0-1.0","null","run_exp/static/images/Set 6_rs/085b.jpg","null","","","","","","test","TL",""
"","html-keyboard-response","230","372120","0.0-220.0-2.0","null","<p></p>","null","","","","","","","",""
"","image","231","373242","0.0-221.0-0.0","1120.5999999642372","run_exp/static/images/Set 6_rs/017b.jpg","66","","","","","","test","TL","3"
"","show_choice","232","373743","0.0-221.0-1.0","null","run_exp/static/images/Set 6_rs/017b.jpg","null","","","","","","test","TL",""
"","html-keyboard-response","233","374247","0.0-221.0-2.0","null","<p></p>","null","","","","","","","",""
"","image","234","375740","0.0-222.0-0.0","1491.9000000357628","run_exp/static/images/Set 6_rs/177a.jpg","86","","","","","","test","TR","5"
"","show_choice","235","376245","0.0-222.0-1.0","null","run_exp/static/images/Set 6_rs/177a.jpg","null","","","","","","test","TR",""
"","html-keyboard-response","236","376751","0.0-222.0-2.0","null","<p></p>","null","","","","","","","",""
"","image","237","377732","0.0-223.0-0.0","979.9000000357628","run_exp/static/images/Set 6_rs/100a.jpg","78","","","","","","test","TF","2"
"","show_choice","238","378235","0.0-223.0-1.0","null","run_exp/static/images/Set 6_rs/100a.jpg","null","","","","","","test","TF",""
"","html-keyboard-response","239","378741","0.0-223.0-2.0","null","<p></p>","null","","","","","","","",""
"","image","240","379948","0.0-224.0-0.0","1205.800000011921","run_exp/static/images/Set 6_rs/061a.jpg","86","","","","","","test","TR","5"
"","show_choice","241","380452","0.0-224.0-1.0","null","run_exp/static/images/Set 6_rs/061a.jpg","null","","","","","","test","TR",""
"","html-keyboard-response","242","380957","0.0-224.0-2.0","null","<p></p>","null","","","","","","","",""
"","image","243","382362","0.0-225.0-0.0","1403.800000011921","run_exp/static/images/Set 6_rs/078a.jpg","78","","","","","","test","TF","1"
"","show_choice","244","382867","0.0-225.0-1.0","null","run_exp/static/images/Set 6_rs/078a.jpg","null","","","","","","test","TF",""
"","html-keyboard-response","245","383370","0.0-225.0-2.0","null","<p></p>","null","","","","","","","",""
"","image","246","384538","0.0-226.0-0.0","1167.4000000357628","run_exp/static/images/Set 6_rs/055b.jpg","66","","","","","","test","TL","4"
"","show_choice","247","385043","0.0-226.0-1.0","null","run_exp/static/images/Set 6_rs/055b.jpg","null","","","","","","test","TL",""
"","html-keyboard-response","248","385548","0.0-226.0-2.0","null","<p></p>","null","","","","","","","",""
"","image","249","386620","0.0-227.0-0.0","1071.300000011921","run_exp/static/images/Set 6_rs/010a.jpg","86","","","","","","test","TR","5"
"","show_choice","250","387122","0.0-227.0-1.0","null","run_exp/static/images/Set 6_rs/010a.jpg","null","","","","","","test","TR",""
"","html-keyboard-response","251","387624","0.0-227.0-2.0","null","<p></p>","null","","","","","","","",""
"","image","252","388915","0.0-228.0-0.0","1290.3999999761581","run_exp/static/images/Set 6_rs/021a.jpg","78","","","","","","test","TF","2"
"","show_choice","253","389419","0.0-228.0-1.0","null","run_exp/static/images/Set 6_rs/021a.jpg","null","","","","","","test","TF",""
"","html-keyboard-response","254","389924","0.0-228.0-2.0","null","<p></p>","null","","","","","","","",""
"","image","255","391019","0.0-229.0-0.0","1094.2999999523163","run_exp/static/images/Set 6_rs/074b.jpg","66","","","","","","test","TL","4"
"","show_choice","256","391523","0.0-229.0-1.0","null","run_exp/static/images/Set 6_rs/074b.jpg","null","","","","","","test","TL",""
"","html-keyboard-response","257","392026","0.0-229.0-2.0","null","<p></p>","null","","","","","","","",""
"","image","258","393280","0.0-230.0-0.0","1252.9000000357628","run_exp/static/images/Set 6_rs/019b.jpg","86","","","","","","test","TL","2"
"","show_choice","259","393786","0.0-230.0-1.0","null","run_exp/static/images/Set 6_rs/019b.jpg","null","","","","","","test","TL",""
"","html-keyboard-response","260","394291","0.0-230.0-2.0","null","<p></p>","null","","","","","","","",""
"","image","261","395328","0.0-231.0-0.0","1036.5","run_exp/static/images/Set 6_rs/064a.jpg","86","","","","","","test","TR","5"
"","show_choice","262","395832","0.0-231.0-1.0","null","run_exp/static/images/Set 6_rs/064a.jpg","null","","","","","","test","TR",""
"","html-keyboard-response","263","396338","0.0-231.0-2.0","null","<p></p>","null","","","","","","","",""
"","image","264","397781","0.0-232.0-0.0","1442.9000000357628","run_exp/static/images/Set 6_rs/007a.jpg","86","","","","","","test","TR","3"
"","show_choice","265","398287","0.0-232.0-1.0","null","run_exp/static/images/Set 6_rs/007a.jpg","null","","","","","","test","TR",""
"","html-keyboard-response","266","398788","0.0-232.0-2.0","null","<p></p>","null","","","","","","","",""
"","image","267","400012","0.0-233.0-0.0","1222.199999988079","run_exp/static/images/Set 6_rs/090a.jpg","66","","","","","","test","TF","5"
"","show_choice","268","400513","0.0-233.0-1.0","null","run_exp/static/images/Set 6_rs/090a.jpg","null","","","","","","test","TF",""
"","html-keyboard-response","269","401015","0.0-233.0-2.0","null","<p></p>","null","","","","","","","",""
"","image","270","402180","0.0-234.0-0.0","1163.8999999761581","run_exp/static/images/Set 6_rs/118a.jpg","78","","","","","","test","TF","5"
"","show_choice","271","402682","0.0-234.0-1.0","null","run_exp/static/images/Set 6_rs/118a.jpg","null","","","","","","test","TF",""
"","html-keyboard-response","272","403188","0.0-234.0-2.0","null","<p></p>","null","","","","","","","",""
"","image","273","404341","0.0-235.0-0.0","1152.3999999761581","run_exp/static/images/Set 6_rs/073b.jpg","86","","","","","","test","TL","3"
"","show_choice","274","404846","0.0-235.0-1.0","null","run_exp/static/images/Set 6_rs/073b.jpg","null","","","","","","test","TL",""
"","html-keyboard-response","275","405349","0.0-235.0-2.0","null","<p></p>","null","","","","","","","",""
"","image","276","406309","0.0-236.0-0.0","959.9000000357628","run_exp/static/images/Set 6_rs/152a.jpg","86","","","","","","test","TR","2"
"","show_choice","277","406811","0.0-236.0-1.0","null","run_exp/static/images/Set 6_rs/152a.jpg","null","","","","","","test","TR",""
"","html-keyboard-response","278","407314","0.0-236.0-2.0","null","<p></p>","null","","","","","","","",""
"","image","279","408133","0.0-237.0-0.0","817.5999999642372","run_exp/static/images/Set 6_rs/076a.jpg","86","","","","","","test","TR","4"
"","show_choice","280","408634","0.0-237.0-1.0","null","run_exp/static/images/Set 6_rs/076a.jpg","null","","","","","","test","TR",""
"","html-keyboard-response","281","409140","0.0-237.0-2.0","null","<p></p>","null","","","","","","","",""
"","image","282","410428","0.0-238.0-0.0","1286.300000011921","run_exp/static/images/Set 6_rs/071b.jpg","66","","","","","","test","TL","4"
"","show_choice","283","410930","0.0-238.0-1.0","null","run_exp/static/images/Set 6_rs/071b.jpg","null","","","","","","test","TL",""
"","html-keyboard-response","284","411436","0.0-238.0-2.0","null","<p></p>","null","","","","","","","",""
"","image","285","412307","0.0-239.0-0.0","869.8000000119209","run_exp/static/images/Set 6_rs/188a.jpg","78","","","","","","test","TF","3"
"","show_choice","286","412808","0.0-239.0-1.0","null","run_exp/static/images/Set 6_rs/188a.jpg","null","","","","","","test","TF",""
"","html-keyboard-response","287","413309","0.0-239.0-2.0","null","<p></p>","null","","","","","","","",""
"","image","288","414501","0.0-240.0-0.0","1190.199999988079","run_exp/static/images/Set 6_rs/122a.jpg","86","","","","","","test","TR","5"
"","show_choice","289","415004","0.0-240.0-1.0","null","run_exp/static/images/Set 6_rs/122a.jpg","null","","","","","","test","TR",""
"","html-keyboard-response","290","415505","0.0-240.0-2.0","null","<p></p>","null","","","","","","","",""
"","image","291","416785","0.0-241.0-0.0","1278.3999999761581","run_exp/static/images/Set 6_rs/089b.jpg","66","","","","","","test","TL","4"
"","show_choice","292","417290","0.0-241.0-1.0","null","run_exp/static/images/Set 6_rs/089b.jpg","null","","","","","","test","TL",""
"","html-keyboard-response","293","417796","0.0-241.0-2.0","null","<p></p>","null","","","","","","","",""
"","image","294","419226","0.0-242.0-0.0","1429.300000011921","run_exp/static/images/Set 6_rs/036b.jpg","86","","","","","","test","TL","4"
"","show_choice","295","419732","0.0-242.0-1.0","null","run_exp/static/images/Set 6_rs/036b.jpg","null","","","","","","test","TL",""
"","html-keyboard-response","296","420233","0.0-242.0-2.0","null","<p></p>","null","","","","","","","",""
"","image","297","421353","0.0-243.0-0.0","1118.300000011921","run_exp/static/images/Set 6_rs/079b.jpg","66","","","","","","test","TL","5"
"","show_choice","298","421858","0.0-243.0-1.0","null","run_exp/static/images/Set 6_rs/079b.jpg","null","","","","","","test","TL",""
"","html-keyboard-response","299","422361","0.0-243.0-2.0","null","<p></p>","null","","","","","","","",""
"","image","300","423265","0.0-244.0-0.0","903.8000000119209","run_exp/static/images/Set 6_rs/028a.jpg","78","","","","","","test","TF","1"
"","show_choice","301","423767","0.0-244.0-1.0","null","run_exp/static/images/Set 6_rs/028a.jpg","null","","","","","","test","TF",""
"","html-keyboard-response","302","424272","0.0-244.0-2.0","null","<p></p>","null","","","","","","","",""
"","image","303","425234","0.0-245.0-0.0","961","run_exp/static/images/Set 6_rs/150a.jpg","86","","","","","","test","TR","1"
"","show_choice","304","425736","0.0-245.0-1.0","null","run_exp/static/images/Set 6_rs/150a.jpg","null","","","","","","test","TR",""
"","html-keyboard-response","305","426242","0.0-245.0-2.0","null","<p></p>","null","","","","","","","",""
"","image","306","427260","0.0-246.0-0.0","1016.3000000119209","run_exp/static/images/Set 6_rs/105a.jpg","78","","","","","","test","TF","5"
"","show_choice","307","427761","0.0-246.0-1.0","null","run_exp/static/images/Set 6_rs/105a.jpg","null","","","","","","test","TF",""
"","html-keyboard-response","308","428267","0.0-246.0-2.0","null","<p></p>","null","","","","","","","",""
"","image","309","429600","0.0-247.0-0.0","1332.199999988079","run_exp/static/images/Set 6_rs/172a.jpg","86","","","","","","test","TR","1"
"","show_choice","310","430105","0.0-247.0-1.0","null","run_exp/static/images/Set 6_rs/172a.jpg","null","","","","","","test","TR",""
"","html-keyboard-response","311","430606","0.0-247.0-2.0","null","<p></p>","null","","","","","","","",""
"","image","312","431670","0.0-248.0-0.0","1063.1000000238419","run_exp/static/images/Set 6_rs/015a.jpg","78","","","","","","test","TF","4"
"","show_choice","313","432173","0.0-248.0-1.0","null","run_exp/static/images/Set 6_rs/015a.jpg","null","","","","","","test","TF",""
"","html-keyboard-response","314","432679","0.0-248.0-2.0","null","<p></p>","null","","","","","","","",""
"","image","315","433684","0.0-249.0-0.0","1004.5","run_exp/static/images/Set 6_rs/062b.jpg","86","","","","","","test","TL","1"
"","show_choice","316","434190","0.0-249.0-1.0","null","run_exp/static/images/Set 6_rs/062b.jpg","null","","","","","","test","TL",""
"","html-keyboard-response","317","434695","0.0-249.0-2.0","null","<p></p>","null","","","","","","","",""
"","image","318","435541","0.0-250.0-0.0","845.1000000238419","run_exp/static/images/Set 6_rs/181b.jpg","86","","","","","","test","TL","1"
"","show_choice","319","436046","0.0-250.0-1.0","null","run_exp/static/images/Set 6_rs/181b.jpg","null","","","","","","test","TL",""
"","html-keyboard-response","320","436548","0.0-250.0-2.0","null","<p></p>","null","","","","","","","",""
"","image","321","437870","0.0-251.0-0.0","1320.300000011921","run_exp/static/images/Set 6_rs/088a.jpg","86","","","","","","test","TR","2"
"","show_choice","322","438375","0.0-251.0-1.0","null","run_exp/static/images/Set 6_rs/088a.jpg","null","","","","","","test","TR",""
"","html-keyboard-response","323","438877","0.0-251.0-2.0","null","<p></p>","null","","","","","","","",""
"","image","324","439940","0.0-252.0-0.0","1062.4000000357628","run_exp/static/images/Set 6_rs/168b.jpg","66","","","","","","test","TL","3"
"","show_choice","325","440444","0.0-252.0-1.0","null","run_exp/static/images/Set 6_rs/168b.jpg","null","","","","","","test","TL",""
"","html-keyboard-response","326","440950","0.0-252.0-2.0","null","<p></p>","null","","","","","","","",""
"","image","327","441909","0.0-253.0-0.0","957.8000000119209","run_exp/static/images/Set 6_rs/140a.jpg","78","","","","","","test","TF","1"
"","show_choice","328","442410","0.0-253.0-1.0","null","run_exp/static/images/Set 6_rs/140a.jpg","null","","","","","","test","TF",""
"","html-keyboard-response","329","442912","0.0-253.0-2.0","null","<p></p>","null","","","","","","","",""
"","image","330","444047","0.0-254.0-0.0","1133.2999999523163","run_exp/static/images/Set 6_rs/006b.jpg","66","","","","","","test","TL","2"
"","show_choice","331","444548","0.0-254.0-1.0","null","run_exp/static/images/Set 6_rs/006b.jpg","null","","","","","","test","TL",""
"","html-keyboard-response","332","445054","0.0-254.0-2.0","null","<p></p>","null","","","","","","","",""
"","image","333","445791","0.0-255.0-0.0","735.3999999761581","run_exp/static/images/Set 6_rs/121a.jpg","86","","","","","","test","TR","4"
"","show_choice","334","446296","0.0-255.0-1.0","null","run_exp/static/images/Set 6_rs/121a.jpg","null","","","","","","test","TR",""
"","html-keyboard-response","335","446802","0.0-255.0-2.0","null","<p></p>","null","","","","","","","",""
"","image","336","448007","0.0-256.0-0.0","1204.199999988079","run_exp/static/images/Set 6_rs/056a.jpg","78","","","","","","test","TF","3"
"","show_choice","337","448508","0.0-256.0-1.0","null","run_exp/static/images/Set 6_rs/056a.jpg","null","","","","","","test","TF",""
"","html-keyboard-response","338","449010","0.0-256.0-2.0","null","<p></p>","null","","","","","","","",""
"","image","339","449807","0.0-257.0-0.0","796.5","run_exp/static/images/Set 6_rs/191b.jpg","86","","","","","","test","TL","2"
"","show_choice","340","450309","0.0-257.0-1.0","null","run_exp/static/images/Set 6_rs/191b.jpg","null","","","","","","test","TL",""
"","html-keyboard-response","341","450812","0.0-257.0-2.0","null","<p></p>","null","","","","","","","",""
"","image","342","451664","0.0-258.0-0.0","851.6000000238419","run_exp/static/images/Set 6_rs/155a.jpg","78","","","","","","test","TF","4"
"","show_choice","343","452170","0.0-258.0-1.0","null","run_exp/static/images/Set 6_rs/155a.jpg","null","","","","","","test","TF",""
"","html-keyboard-response","344","452673","0.0-258.0-2.0","null","<p></p>","null","","","","","","","",""
"","image","345","453869","0.0-259.0-0.0","1194.8999999761581","run_exp/static/images/Set 6_rs/169a.jpg","66","","","","","","test","TR","4"
"","show_choice","346","454375","0.0-259.0-1.0","null","run_exp/static/images/Set 6_rs/169a.jpg","null","","","","","","test","TR",""
"","html-keyboard-response","347","454881","0.0-259.0-2.0","null","<p></p>","null","","","","","","","",""
"","image","348","455804","0.0-260.0-0.0","922.6999999880791","run_exp/static/images/Set 6_rs/025b.jpg","78","","","","","","test","TL","5"
"","show_choice","349","456306","0.0-260.0-1.0","null","run_exp/static/images/Set 6_rs/025b.jpg","null","","","","","","test","TL",""
"","html-keyboard-response","350","456806","0.0-260.0-2.0","null","<p></p>","null","","","","","","","",""
"","image","351","458077","0.0-261.0-0.0","1270.199999988079","run_exp/static/images/Set 6_rs/008b.jpg","66","","","","","","test","TL","2"
"","show_choice","352","458580","0.0-261.0-1.0","null","run_exp/static/images/Set 6_rs/008b.jpg","null","","","","","","test","TL",""
"","html-keyboard-response","353","459086","0.0-261.0-2.0","null","<p></p>","null","","","","","","","",""
"","image","354","459990","0.0-262.0-0.0","903","run_exp/static/images/Set 6_rs/045a.jpg","86","","","","","","test","TR","2"
"","show_choice","355","460495","0.0-262.0-1.0","null","run_exp/static/images/Set 6_rs/045a.jpg","null","","","","","","test","TR",""
"","html-keyboard-response","356","461000","0.0-262.0-2.0","null","<p></p>","null","","","","","","","",""
"","image","357","461903","0.0-263.0-0.0","901.8999999761581","run_exp/static/images/Set 6_rs/052a.jpg","78","","","","","","test","TF","1"
"","show_choice","358","462404","0.0-263.0-1.0","null","run_exp/static/images/Set 6_rs/052a.jpg","null","","","","","","test","TF",""
"","html-keyboard-response","359","462906","0.0-263.0-2.0","null","<p></p>","null","","","","","","","",""
"","image","360","464086","0.0-264.0-0.0","1178.7000000476837","run_exp/static/images/Set 6_rs/109a.jpg","66","","","","","","test","TF","5"
"","show_choice","361","464590","0.0-264.0-1.0","null","run_exp/static/images/Set 6_rs/109a.jpg","null","","","","","","test","TF",""
"","html-keyboard-response","362","465096","0.0-264.0-2.0","null","<p></p>","null","","","","","","","",""
"","image","363","465785","0.0-265.0-0.0","687.5","run_exp/static/images/Set 6_rs/190a.jpg","78","","","","","","test","TF","3"
"","show_choice","364","466290","0.0-265.0-1.0","null","run_exp/static/images/Set 6_rs/190a.jpg","null","","","","","","test","TF",""
"","html-keyboard-response","365","466793","0.0-265.0-2.0","null","<p></p>","null","","","","","","","",""
"","image","366","467720","0.0-266.0-0.0","925.6000000238419","run_exp/static/images/Set 6_rs/186a.jpg","86","","","","","","test","TR","5"
"","show_choice","367","468223","0.0-266.0-1.0","null","run_exp/static/images/Set 6_rs/186a.jpg","null","","","","","","test","TR",""
"","html-keyboard-response","368","468729","0.0-266.0-2.0","null","<p></p>","null","","","","","","","",""
"","image","369","469790","0.0-267.0-0.0","1060.4000000357628","run_exp/static/images/Set 6_rs/111b.jpg","86","","","","","","test","TL","3"
"","show_choice","370","470292","0.0-267.0-1.0","null","run_exp/static/images/Set 6_rs/111b.jpg","null","","","","","","test","TL",""
"","html-keyboard-response","371","470797","0.0-267.0-2.0","null","<p></p>","null","","","","","","","",""
"","image","372","471511","0.0-268.0-0.0","713.3000000119209","run_exp/static/images/Set 6_rs/024a.jpg","86","","","","","","test","TR","5"
"","show_choice","373","472013","0.0-268.0-1.0","null","run_exp/static/images/Set 6_rs/024a.jpg","null","","","","","","test","TR",""
"","html-keyboard-response","374","472516","0.0-268.0-2.0","null","<p></p>","null","","","","","","","",""
"","image","375","473863","0.0-269.0-0.0","1346.0999999642372","run_exp/static/images/Set 6_rs/171a.jpg","66","","","","","","test","TF","1"
"","show_choice","376","474368","0.0-269.0-1.0","null","run_exp/static/images/Set 6_rs/171a.jpg","null","","","","","","test","TF",""
"","html-keyboard-response","377","474874","0.0-269.0-2.0","null","<p></p>","null","","","","","","","",""
"","image","378","475776","0.0-270.0-0.0","900.1999999880791","run_exp/static/images/Set 6_rs/144b.jpg","86","","","","","","test","TL","4"
"","show_choice","379","476279","0.0-270.0-1.0","null","run_exp/static/images/Set 6_rs/144b.jpg","null","","","","","","test","TL",""
"","html-keyboard-response","380","476785","0.0-270.0-2.0","null","<p></p>","null","","","","","","","",""
"","image","381","477925","0.0-271.0-0.0","1138.7999999523163","run_exp/static/images/Set 6_rs/141a.jpg","86","","","","","","test","TR","2"
"","show_choice","382","478430","0.0-271.0-1.0","null","run_exp/static/images/Set 6_rs/141a.jpg","null","","","","","","test","TR",""
"","html-keyboard-response","383","478932","0.0-271.0-2.0","null","<p></p>","null","","","","","","","",""
"","image","384","479567","0.0-272.0-0.0","634.3999999761581","run_exp/static/images/Set 6_rs/132a.jpg","86","","","","","","test","TR","5"
"","show_choice","385","480069","0.0-272.0-1.0","null","run_exp/static/images/Set 6_rs/132a.jpg","null","","","","","","test","TR",""
"","html-keyboard-response","386","480574","0.0-272.0-2.0","null","<p></p>","null","","","","","","","",""
"","image","387","481728","0.0-273.0-0.0","1152.5","run_exp/static/images/Set 6_rs/167b.jpg","66","","","","","","test","TL","2"
"","show_choice","388","482233","0.0-273.0-1.0","null","run_exp/static/images/Set 6_rs/167b.jpg","null","","","","","","test","TL",""
"","html-keyboard-response","389","482736","0.0-273.0-2.0","null","<p></p>","null","","","","","","","",""
"","image","390","483933","0.0-274.0-0.0","1195.800000011921","run_exp/static/images/Set 6_rs/149a.jpg","66","","","","","","test","TF","1"
"","show_choice","391","484438","0.0-274.0-1.0","null","run_exp/static/images/Set 6_rs/149a.jpg","null","","","","","","test","TF",""
"","html-keyboard-response","392","484944","0.0-274.0-2.0","null","<p></p>","null","","","","","","","",""
"","image","393","485947","0.0-275.0-0.0","1001.5","run_exp/static/images/Set 6_rs/060b.jpg","86","","","","","","test","TL","3"
"","show_choice","394","486452","0.0-275.0-1.0","null","run_exp/static/images/Set 6_rs/060b.jpg","null","","","","","","test","TL",""
"","html-keyboard-response","395","486958","0.0-275.0-2.0","null","<p></p>","null","","","","","","","",""
"","image","396","488107","0.0-276.0-0.0","1148.0999999642372","run_exp/static/images/Set 6_rs/189a.jpg","78","","","","","","test","TF","5"
"","show_choice","397","488608","0.0-276.0-1.0","null","run_exp/static/images/Set 6_rs/189a.jpg","null","","","","","","test","TF",""
"","html-keyboard-response","398","489110","0.0-276.0-2.0","null","<p></p>","null","","","","","","","",""
"","image","399","490054","0.0-277.0-0.0","942.6999999880791","run_exp/static/images/Set 6_rs/131a.jpg","86","","","","","","test","TR","5"
"","show_choice","400","490557","0.0-277.0-1.0","null","run_exp/static/images/Set 6_rs/131a.jpg","null","","","","","","test","TR",""
"","html-keyboard-response","401","491063","0.0-277.0-2.0","null","<p></p>","null","","","","","","","",""
"","image","402","491966","0.0-278.0-0.0","901.8999999761581","run_exp/static/images/Set 6_rs/097a.jpg","78","","","","","","test","TF","5"
"","show_choice","403","492472","0.0-278.0-1.0","null","run_exp/static/images/Set 6_rs/097a.jpg","null","","","","","","test","TF",""
"","html-keyboard-response","404","492977","0.0-278.0-2.0","null","<p></p>","null","","","","","","","",""
"","image","405","493755","0.0-279.0-0.0","776.6999999880791","run_exp/static/images/Set 6_rs/023a.jpg","86","","","","","","test","TR","3"
"","show_choice","406","494260","0.0-279.0-1.0","null","run_exp/static/images/Set 6_rs/023a.jpg","null","","","","","","test","TR",""
"","html-keyboard-response","407","494766","0.0-279.0-2.0","null","<p></p>","null","","","","","","","",""
"","image","408","495961","0.0-280.0-0.0","1194.199999988079","run_exp/static/images/Set 6_rs/091b.jpg","66","","","","","","test","TL","3"
"","show_choice","409","496466","0.0-280.0-1.0","null","run_exp/static/images/Set 6_rs/091b.jpg","null","","","","","","test","TL",""
"","html-keyboard-response","410","496972","0.0-280.0-2.0","null","<p></p>","null","","","","","","","",""
"","image","411","497570","0.0-281.0-0.0","596.8000000119209","run_exp/static/images/Set 6_rs/187a.jpg","86","","","","","","test","TR","3"
"","show_choice","412","498071","0.0-281.0-1.0","null","run_exp/static/images/Set 6_rs/187a.jpg","null","","","","","","test","TR",""
"","html-keyboard-response","413","498577","0.0-281.0-2.0","null","<p></p>","null","","","","","","","",""
"","image","414","499437","0.0-282.0-0.0","859.6999999880791","run_exp/static/images/Set 6_rs/075a.jpg","86","","","","","","test","TR","1"
"","show_choice","415","499943","0.0-282.0-1.0","null","run_exp/static/images/Set 6_rs/075a.jpg","null","","","","","","test","TR",""
"","html-keyboard-response","416","500443","0.0-282.0-2.0","null","<p></p>","null","","","","","","","",""
"","image","417","501192","0.0-283.0-0.0","748","run_exp/static/images/Set 6_rs/012a.jpg","86","","","","","","test","TR","1"
"","show_choice","418","501695","0.0-283.0-1.0","null","run_exp/static/images/Set 6_rs/012a.jpg","null","","","","","","test","TR",""
"","html-keyboard-response","419","502201","0.0-283.0-2.0","null","<p></p>","null","","","","","","","",""
"","image","420","503195","0.0-284.0-0.0","993.4000000357628","run_exp/static/images/Set 6_rs/022a.jpg","78","","","","","","test","TF","4"
"","show_choice","421","503700","0.0-284.0-1.0","null","run_exp/static/images/Set 6_rs/022a.jpg","null","","","","","","test","TF",""
"","html-keyboard-response","422","504206","0.0-284.0-2.0","null","<p></p>","null","","","","","","","",""
"","image","423","505108","0.0-285.0-0.0","900.5999999642372","run_exp/static/images/Set 6_rs/136a.jpg","78","","","","","","test","TF","4"
"","show_choice","424","505609","0.0-285.0-1.0","null","run_exp/static/images/Set 6_rs/136a.jpg","null","","","","","","test","TF",""
"","html-keyboard-response","425","506110","0.0-285.0-2.0","null","<p></p>","null","","","","","","","",""
"","image","426","507291","0.0-286.0-0.0","1179.800000011921","run_exp/static/images/Set 6_rs/138b.jpg","66","","","","","","test","TL","1"
"","show_choice","427","507796","0.0-286.0-1.0","null","run_exp/static/images/Set 6_rs/138b.jpg","null","","","","","","test","TL",""
"","html-keyboard-response","428","508299","0.0-286.0-2.0","null","<p></p>","null","","","","","","","",""
"","image","429","509136","0.0-287.0-0.0","836.5","run_exp/static/images/Set 6_rs/057b.jpg","86","","","","","","test","TL","1"
"","show_choice","430","509641","0.0-287.0-1.0","null","run_exp/static/images/Set 6_rs/057b.jpg","null","","","","","","test","TL",""
"","html-keyboard-response","431","510147","0.0-287.0-2.0","null","<p></p>","null","","","","","","","",""
"","image","432","510846","0.0-288.0-0.0","697.7999999523163","run_exp/static/images/Set 6_rs/016b.jpg","86","","","","","","test","TL","1"
"","show_choice","433","511351","0.0-288.0-1.0","null","run_exp/static/images/Set 6_rs/016b.jpg","null","","","","","","test","TL",""
"","html-keyboard-response","434","511853","0.0-288.0-2.0","null","<p></p>","null","","","","","","","",""
"","image","435","512883","0.0-289.0-0.0","1028.6000000238419","run_exp/static/images/Set 6_rs/065a.jpg","78","","","","","","test","TF","3"
"","show_choice","436","513388","0.0-289.0-1.0","null","run_exp/static/images/Set 6_rs/065a.jpg","null","","","","","","test","TF",""
"","html-keyboard-response","437","513894","0.0-289.0-2.0","null","<p></p>","null","","","","","","","",""
"","image","438","514593","0.0-290.0-0.0","698.0999999642372","run_exp/static/images/Set 6_rs/178a.jpg","86","","","","","","test","TR","3"
"","show_choice","439","515097","0.0-290.0-1.0","null","run_exp/static/images/Set 6_rs/178a.jpg","null","","","","","","test","TR",""
"","html-keyboard-response","440","515603","0.0-290.0-2.0","null","<p></p>","null","","","","","","","",""
"","image","441","516472","0.0-291.0-0.0","868.5","run_exp/static/images/Set 6_rs/133a.jpg","78","","","","","","test","TF","4"
"","show_choice","442","516977","0.0-291.0-1.0","null","run_exp/static/images/Set 6_rs/133a.jpg","null","","","","","","test","TF",""
"","html-keyboard-response","443","517483","0.0-291.0-2.0","null","<p></p>","null","","","","","","","",""
"","image","444","518272","0.0-292.0-0.0","788.5","run_exp/static/images/Set 6_rs/126a.jpg","86","","","","","","test","TR","2"
"","show_choice","445","518778","0.0-292.0-1.0","null","run_exp/static/images/Set 6_rs/126a.jpg","null","","","","","","test","TR",""
"","html-keyboard-response","446","519284","0.0-292.0-2.0","null","<p></p>","null","","","","","","","",""
"","image","447","520196","0.0-293.0-0.0","911.1999999880791","run_exp/static/images/Set 6_rs/035a.jpg","78","","","","","","test","TF","4"
"","show_choice","448","520697","0.0-293.0-1.0","null","run_exp/static/images/Set 6_rs/035a.jpg","null","","","","","","test","TF",""
"","html-keyboard-response","449","521203","0.0-293.0-2.0","null","<p></p>","null","","","","","","","",""
"","image","450","521929","0.0-294.0-0.0","724.5999999642372","run_exp/static/images/Set 6_rs/108a.jpg","86","","","","","","test","TR","5"
"","show_choice","451","522433","0.0-294.0-1.0","null","run_exp/static/images/Set 6_rs/108a.jpg","null","","","","","","test","TR",""
"","html-keyboard-response","452","522939","0.0-294.0-2.0","null","<p></p>","null","","","","","","","",""
"","image","453","523628","0.0-295.0-0.0","687.6999999880791","run_exp/static/images/Set 6_rs/112a.jpg","86","","","","","","test","TR","5"
"","show_choice","454","524133","0.0-295.0-1.0","null","run_exp/static/images/Set 6_rs/112a.jpg","null","","","","","","test","TR",""
"","html-keyboard-response","455","524639","0.0-295.0-2.0","null","<p></p>","null","","","","","","","",""
"","image","456","525304","0.0-296.0-0.0","664.0999999642372","run_exp/static/images/Set 6_rs/047a.jpg","78","","","","","","test","TF","3"
"","show_choice","457","525808","0.0-296.0-1.0","null","run_exp/static/images/Set 6_rs/047a.jpg","null","","","","","","test","TF",""
"","html-keyboard-response","458","526309","0.0-296.0-2.0","null","<p></p>","null","","","","","","","",""
"","image","459","527105","0.0-297.0-0.0","795","run_exp/static/images/Set 6_rs/170a.jpg","78","","","","","","test","TF","2"
"","show_choice","460","527608","0.0-297.0-1.0","null","run_exp/static/images/Set 6_rs/170a.jpg","null","","","","","","test","TF",""
"","html-keyboard-response","461","528109","0.0-297.0-2.0","null","<p></p>","null","","","","","","","",""
"","image","462","528905","0.0-298.0-0.0","795.0999999642372","run_exp/static/images/Set 6_rs/117b.jpg","86","","","","","","test","TL","5"
"","show_choice","463","529406","0.0-298.0-1.0","null","run_exp/static/images/Set 6_rs/117b.jpg","null","","","","","","test","TL",""
"","html-keyboard-response","464","529908","0.0-298.0-2.0","null","<p></p>","null","","","","","","","",""
"","image","465","530570","0.0-299.0-0.0","660.0999999642372","run_exp/static/images/Set 6_rs/095b.jpg","86","","","","","","test","TL","5"
"","show_choice","466","531075","0.0-299.0-1.0","null","run_exp/static/images/Set 6_rs/095b.jpg","null","","","","","","test","TL",""
"","html-keyboard-response","467","531581","0.0-299.0-2.0","null","<p></p>","null","","","","","","","",""
"","image","468","532325","0.0-300.0-0.0","742.8999999761581","run_exp/static/images/Set 6_rs/129b.jpg","86","","","","","","test","TL","1"
"","show_choice","469","532829","0.0-300.0-1.0","null","run_exp/static/images/Set 6_rs/129b.jpg","null","","","","","","test","TL",""
"","html-keyboard-response","470","533331","0.0-300.0-2.0","null","<p></p>","null","","","","","","","",""
"","image","471","533923","0.0-301.0-0.0","590.5999999642372","run_exp/static/images/Set 6_rs/086a.jpg","78","","","","","","test","TF","1"
"","show_choice","472","534424","0.0-301.0-1.0","null","run_exp/static/images/Set 6_rs/086a.jpg","null","","","","","","test","TF",""
"","html-keyboard-response","473","534930","0.0-301.0-2.0","null","<p></p>","null","","","","","","","",""
"","image","474","535633","0.0-302.0-0.0","701.5","run_exp/static/images/Set 6_rs/063a.jpg","86","","","","","","test","TR","2"
"","show_choice","475","536138","0.0-302.0-1.0","null","run_exp/static/images/Set 6_rs/063a.jpg","null","","","","","","test","TR",""
"","html-keyboard-response","476","536644","0.0-302.0-2.0","null","<p></p>","null","","","","","","","",""
"","image","477","537366","0.0-303.0-0.0","720.4000000357628","run_exp/static/images/Set 6_rs/077a.jpg","78","","","","","","test","TF","3"
"","show_choice","478","537871","0.0-303.0-1.0","null","run_exp/static/images/Set 6_rs/077a.jpg","null","","","","","","test","TF",""
"","html-keyboard-response","479","538377","0.0-303.0-2.0","null","<p></p>","null","","","","","","","",""
"","image","480","539155","0.0-304.0-0.0","777","run_exp/static/images/Set 6_rs/134a.jpg","86","","","","","","test","TR","3"
"","show_choice","481","539660","0.0-304.0-1.0","null","run_exp/static/images/Set 6_rs/134a.jpg","null","","","","","","test","TR",""
"","html-keyboard-response","482","540166","0.0-304.0-2.0","null","<p></p>","null","","","","","","","",""
"","image","483","540865","0.0-305.0-0.0","697.6999999880791","run_exp/static/images/Set 6_rs/116b.jpg","86","","","","","","test","TL","2"
"","show_choice","484","541370","0.0-305.0-1.0","null","run_exp/static/images/Set 6_rs/116b.jpg","null","","","","","","test","TL",""
"","html-keyboard-response","485","541876","0.0-305.0-2.0","null","<p></p>","null","","","","","","","",""
"","image","486","542632","0.0-306.0-0.0","754.1999999880791","run_exp/static/images/Set 6_rs/123b.jpg","86","","","","","","test","TL","2"
"","show_choice","487","543133","0.0-306.0-1.0","null","run_exp/static/images/Set 6_rs/123b.jpg","null","","","","","","test","TL",""
"","html-keyboard-response","488","543639","0.0-306.0-2.0","null","<p></p>","null","","","","","","","",""
"","image","489","544274","0.0-307.0-0.0","634.3999999761581","run_exp/static/images/Set 6_rs/001a.jpg","78","","","","","","test","TF","1"
"","show_choice","490","544779","0.0-307.0-1.0","null","run_exp/static/images/Set 6_rs/001a.jpg","null","","","","","","test","TF",""
"","html-keyboard-response","491","545285","0.0-307.0-2.0","null","<p></p>","null","","","","","","","",""
"","image","492","545906","0.0-308.0-0.0","619.6999999880791","run_exp/static/images/Set 6_rs/048a.jpg","78","","","","","","test","TF","4"
"","show_choice","493","546407","0.0-308.0-1.0","null","run_exp/static/images/Set 6_rs/048a.jpg","null","","","","","","test","TF",""
"","html-keyboard-response","494","546908","0.0-308.0-2.0","null","<p></p>","null","","","","","","","",""
"","image","495","547886","0.0-309.0-0.0","976.1999999880791","run_exp/static/images/Set 6_rs/011a.jpg","78","","","","","","test","TF","3"
"","show_choice","496","548391","0.0-309.0-1.0","null","run_exp/static/images/Set 6_rs/011a.jpg","null","","","","","","test","TF",""
"","html-keyboard-response","497","548892","0.0-309.0-2.0","null","<p></p>","null","","","","","","","",""
"","image","498","549585","0.0-310.0-0.0","692.5","run_exp/static/images/Set 6_rs/176a.jpg","78","","","","","","test","TF","4"
"","show_choice","499","550090","0.0-310.0-1.0","null","run_exp/static/images/Set 6_rs/176a.jpg","null","","","","","","test","TF",""
"","html-keyboard-response","500","550595","0.0-310.0-2.0","null","<p></p>","null","","","","","","","",""
"","image","501","551700","0.0-311.0-0.0","1104.5","run_exp/static/images/Set 6_rs/154a.jpg","66","","","","","","test","TR","3"
"","show_choice","502","552201","0.0-311.0-1.0","null","run_exp/static/images/Set 6_rs/154a.jpg","null","","","","","","test","TR",""
"","html-keyboard-response","503","552707","0.0-311.0-2.0","null","<p></p>","null","","","","","","","",""
"","image","504","553523","0.0-312.0-0.0","815","run_exp/static/images/Set 6_rs/066b.jpg","86","","","","","","test","TL","5"
"","show_choice","505","554027","0.0-312.0-1.0","null","run_exp/static/images/Set 6_rs/066b.jpg","null","","","","","","test","TL",""
"","html-keyboard-response","506","554528","0.0-312.0-2.0","null","<p></p>","null","","","","","","","",""
"","image","507","555188","0.0-313.0-0.0","658.8999999761581","run_exp/static/images/Set 6_rs/067b.jpg","78","","","","","","test","TL","5"
"","show_choice","508","555692","0.0-313.0-1.0","null","run_exp/static/images/Set 6_rs/067b.jpg","null","","","","","","test","TL",""
"","html-keyboard-response","509","556196","0.0-313.0-2.0","null","<p></p>","null","","","","","","","",""
"","image","510","557146","0.0-314.0-0.0","949.1000000238419","run_exp/static/images/Set 6_rs/148a.jpg","86","","","","","","test","TR","2"
"","show_choice","511","557647","0.0-314.0-1.0","null","run_exp/static/images/Set 6_rs/148a.jpg","null","","","","","","test","TR",""
"","html-keyboard-response","512","558149","0.0-314.0-2.0","null","<p></p>","null","","","","","","","",""
"","all_done","513","565843","0.0-315.0-0.0","null","run_exp/static/audio/clip_23_all_done.m4a","null","","","","","<div class='center'><p>You are finished with all three parts of the experiment! You can press the space bar to end the game now. </p></div>","","",""
"","html-keyboard-response","514","566530","0.0-315.0-1.0","686","<div class='center'><p>You are finished with all three parts of the experiment! You can press the space bar to end the game now. </p><div><p><b>[Press the space bar to continue]</b></p></div>","32","","","","","","","",""
