"success","trial_type","trial_index","time_elapsed","internal_node_id","interactions","blur_events","focus_events","fullscreenenter_events","fullscreenexit_events","rt","stimulus","key_press","subject_id","participant_id","age","gender","prompt","phase","condition","lure_bin"
"true","fullscreen","0","3352","0.0-0.0","""event"",""trial"",""time""
""fullscreenenter"",""0"",""2359""
","
","
","""event"",""trial"",""time""
""fullscreenenter"",""0"",""2359""
","
","","","","","","","","","","",""
"","pavlovia","1","3357","0.0-1.0","""event"",""trial"",""time""
""fullscreenenter"",""0"",""2359""
","
","
","""event"",""trial"",""time""
""fullscreenenter"",""0"",""2359""
","
","","","","","","","","","","",""
"","welcome","2","38230","0.0-2.0","""event"",""trial"",""time""
""fullscreenenter"",""0"",""2359""
","
","
","""event"",""trial"",""time""
""fullscreenenter"",""0"",""2359""
","
","null","run_exp/static/audio/clip_1_welcome.m4a","null","2146","813","13","Female","<div class='center'><p>Welcome to the third part of the study! First, you'll be shown pictures of items one at a time. For each picture, you have to decide if the item is typically found indoors or outdoors.</p><p>If you think it's usually found indoors, then press <b>v</b> key on your keyboard. If you think it's usually found outdoors, then press the <b>n</b> key.There will be reminders on the screen to help you remember which keys to press. </p><p>If you're not sure whether the item is an indoor item or an outdoor item, go ahead and take a guess but try your best not to skip that choice. </p></div>","","",""
"","html-keyboard-response","3","46463","0.0-3.0","""event"",""trial"",""time""
""fullscreenenter"",""0"",""2359""
","
","
","""event"",""trial"",""time""
""fullscreenenter"",""0"",""2359""
","
","8234.600000023842","<div class='center'><p>Welcome to the third part of the study! First, you'll be shown pictures of items one at a time. For each picture, you have to decide if the item is typically found indoors or outdoors.</p><p>If you think it's usually found indoors, then press <b>v</b> key on your keyboard. If you think it's usually found outdoors, then press the <b>n</b> key.There will be reminders on the screen to help you remember which keys to press. </p><p>If you're not sure whether the item is an indoor item or an outdoor item, go ahead and take a guess but try your best not to skip that choice. </p><div><p><b>[Press the space bar to continue]</b></p></div>","32","","","","","","","",""
"","image","4","48478","0.0-4.0","""event"",""trial"",""time""
""fullscreenenter"",""0"",""2359""
","
","
","""event"",""trial"",""time""
""fullscreenenter"",""0"",""2359""
","
","null","run_exp/static/images/Set 6_rs/132a.jpg","null","","","","","","learn","SR",""
"","show_choice","5","50480","0.0-5.0","""event"",""trial"",""time""
""fullscreenenter"",""0"",""2359""
","
","
","""event"",""trial"",""time""
""fullscreenenter"",""0"",""2359""
","
","null","run_exp/static/images/blank.png","null","","","","","","learn","SR",""
"","html-keyboard-response","6","50992","0.0-6.0","""event"",""trial"",""time""
""fullscreenenter"",""0"",""2359""
","
","
","""event"",""trial"",""time""
""fullscreenenter"",""0"",""2359""
","
","null","<p></p>","null","","","","","","","",""
"","image","7","51836","0.0-7.0","""event"",""trial"",""time""
""fullscreenenter"",""0"",""2359""
","
","
","""event"",""trial"",""time""
""fullscreenenter"",""0"",""2359""
","
","842.7000000476837","run_exp/static/images/Set 6_rs/045a.jpg","86","","","","","","learn","SR",""
"","show_choice","8","52997","0.0-8.0","""event"",""trial"",""time""
""fullscreenenter"",""0"",""2359""
","
","
","""event"",""trial"",""time""
""fullscreenenter"",""0"",""2359""
","
","null","run_exp/static/images/Set 6_rs/045a.jpg","null","","","","","","learn","SR",""
"","html-keyboard-response","9","53498","0.0-9.0","""event"",""trial"",""time""
""fullscreenenter"",""0"",""2359""
","
","
","""event"",""trial"",""time""
""fullscreenenter"",""0"",""2359""
","
","null","<p></p>","null","","","","","","","",""
"","image","10","54183","0.0-10.0","""event"",""trial"",""time""
""fullscreenenter"",""0"",""2359""
","
","
","""event"",""trial"",""time""
""fullscreenenter"",""0"",""2359""
","
","683.5999999046326","run_exp/static/images/Set 6_rs/112a.jpg","86","","","","","","learn","SR",""
"","show_choice","11","55505","0.0-11.0","""event"",""trial"",""time""
""fullscreenenter"",""0"",""2359""
","
","
","""event"",""trial"",""time""
""fullscreenenter"",""0"",""2359""
","
","null","run_exp/static/images/Set 6_rs/112a.jpg","null","","","","","","learn","SR",""
"","html-keyboard-response","12","56017","0.0-12.0","""event"",""trial"",""time""
""fullscreenenter"",""0"",""2359""
","
","
","""event"",""trial"",""time""
""fullscreenenter"",""0"",""2359""
","
","null","<p></p>","null","","","","","","","",""
"","image","13","56775","0.0-13.0","""event"",""trial"",""time""
""fullscreenenter"",""0"",""2359""
","
","
","""event"",""trial"",""time""
""fullscreenenter"",""0"",""2359""
","
","756.7999999523163","run_exp/static/images/Set 6_rs/006a.jpg","86","","","","","","learn","SL",""
"","show_choice","14","58020","0.0-14.0","""event"",""trial"",""time""
""fullscreenenter"",""0"",""2359""
","
","
","""event"",""trial"",""time""
""fullscreenenter"",""0"",""2359""
","
","null","run_exp/static/images/Set 6_rs/006a.jpg","null","","","","","","learn","SL",""
"","html-keyboard-response","15","58534","0.0-15.0","""event"",""trial"",""time""
""fullscreenenter"",""0"",""2359""
","
","
","""event"",""trial"",""time""
""fullscreenenter"",""0"",""2359""
","
","null","<p></p>","null","","","","","","","",""
"","image","16","59377","0.0-16.0","""event"",""trial"",""time""
""fullscreenenter"",""0"",""2359""
","
","
","""event"",""trial"",""time""
""fullscreenenter"",""0"",""2359""
","
","842.2999999523163","run_exp/static/images/Set 6_rs/061a.jpg","78","","","","","","learn","SR",""
"","show_choice","17","60538","0.0-17.0","""event"",""trial"",""time""
""fullscreenenter"",""0"",""2359""
","
","
","""event"",""trial"",""time""
""fullscreenenter"",""0"",""2359""
","
","null","run_exp/static/images/Set 6_rs/061a.jpg","null","","","","","","learn","SR",""
"","html-keyboard-response","18","61050","0.0-18.0","""event"",""trial"",""time""
""fullscreenenter"",""0"",""2359""
","
","
","""event"",""trial"",""time""
""fullscreenenter"",""0"",""2359""
","
","null","<p></p>","null","","","","","","","",""
"","image","19","61756","0.0-19.0","""event"",""trial"",""time""
""fullscreenenter"",""0"",""2359""
","
","
","""event"",""trial"",""time""
""fullscreenenter"",""0"",""2359""
","
","705.2000000476837","run_exp/static/images/Set 6_rs/057a.jpg","86","","","","","","learn","SL",""
"","show_choice","20","63054","0.0-20.0","""event"",""trial"",""time""
""fullscreenenter"",""0"",""2359""
","
","
","""event"",""trial"",""time""
""fullscreenenter"",""0"",""2359""
","
","null","run_exp/static/images/Set 6_rs/057a.jpg","null","","","","","","learn","SL",""
"","html-keyboard-response","21","63565","0.0-21.0","""event"",""trial"",""time""
""fullscreenenter"",""0"",""2359""
","
","
","""event"",""trial"",""time""
""fullscreenenter"",""0"",""2359""
","
","null","<p></p>","null","","","","","","","",""
"","image","22","64248","0.0-22.0","""event"",""trial"",""time""
""fullscreenenter"",""0"",""2359""
","
","
","""event"",""trial"",""time""
""fullscreenenter"",""0"",""2359""
","
","682.0999999046326","run_exp/static/images/Set 6_rs/186a.jpg","86","","","","","","learn","SR",""
"","show_choice","23","65573","0.0-23.0","""event"",""trial"",""time""
""fullscreenenter"",""0"",""2359""
","
","
","""event"",""trial"",""time""
""fullscreenenter"",""0"",""2359""
","
","null","run_exp/static/images/Set 6_rs/186a.jpg","null","","","","","","learn","SR",""
"","html-keyboard-response","24","66084","0.0-24.0","""event"",""trial"",""time""
""fullscreenenter"",""0"",""2359""
","
","
","""event"",""trial"",""time""
""fullscreenenter"",""0"",""2359""
","
","null","<p></p>","null","","","","","","","",""
"","image","25","66737","0.0-25.0","""event"",""trial"",""time""
""fullscreenenter"",""0"",""2359""
","
","
","""event"",""trial"",""time""
""fullscreenenter"",""0"",""2359""
","
","652.1999999284744","run_exp/static/images/Set 6_rs/036a.jpg","78","","","","","","learn","SL",""
"","show_choice","26","68090","0.0-26.0","""event"",""trial"",""time""
""fullscreenenter"",""0"",""2359""
","
","
","""event"",""trial"",""time""
""fullscreenenter"",""0"",""2359""
","
","null","run_exp/static/images/Set 6_rs/036a.jpg","null","","","","","","learn","SL",""
"","html-keyboard-response","27","68602","0.0-27.0","""event"",""trial"",""time""
""fullscreenenter"",""0"",""2359""
","
","
","""event"",""trial"",""time""
""fullscreenenter"",""0"",""2359""
","
","null","<p></p>","null","","","","","","","",""
"","image","28","69625","0.0-28.0","""event"",""trial"",""time""
""fullscreenenter"",""0"",""2359""
","
","
","""event"",""trial"",""time""
""fullscreenenter"",""0"",""2359""
","
","1022.0999999046326","run_exp/static/images/Set 6_rs/075a.jpg","78","","","","","","learn","SR",""
"","show_choice","29","70606","0.0-29.0","""event"",""trial"",""time""
""fullscreenenter"",""0"",""2359""
","
","
","""event"",""trial"",""time""
""fullscreenenter"",""0"",""2359""
","
","null","run_exp/static/images/Set 6_rs/075a.jpg","null","","","","","","learn","SR",""
"","html-keyboard-response","30","71118","0.0-30.0","""event"",""trial"",""time""
""fullscreenenter"",""0"",""2359""
","
","
","""event"",""trial"",""time""
""fullscreenenter"",""0"",""2359""
","
","null","<p></p>","null","","","","","","","",""
"","image","31","72223","0.0-31.0","""event"",""trial"",""time""
""fullscreenenter"",""0"",""2359""
","
","
","""event"",""trial"",""time""
""fullscreenenter"",""0"",""2359""
","
","1104.3999999761581","run_exp/static/images/Set 6_rs/066a.jpg","86","","","","","","learn","SL",""
"","show_choice","32","73124","0.0-32.0","""event"",""trial"",""time""
""fullscreenenter"",""0"",""2359""
","
","
","""event"",""trial"",""time""
""fullscreenenter"",""0"",""2359""
","
","null","run_exp/static/images/Set 6_rs/066a.jpg","null","","","","","","learn","SL",""
"","html-keyboard-response","33","73638","0.0-33.0","""event"",""trial"",""time""
""fullscreenenter"",""0"",""2359""
","
","
","""event"",""trial"",""time""
""fullscreenenter"",""0"",""2359""
","
","null","<p></p>","null","","","","","","","",""
"","image","34","74456","0.0-34.0","""event"",""trial"",""time""
""fullscreenenter"",""0"",""2359""
","
","
","""event"",""trial"",""time""
""fullscreenenter"",""0"",""2359""
","
","817.5","run_exp/static/images/Set 6_rs/177a.jpg","78","","","","","","learn","SR",""
"","show_choice","35","75653","0.0-35.0","""event"",""trial"",""time""
""fullscreenenter"",""0"",""2359""
","
","
","""event"",""trial"",""time""
""fullscreenenter"",""0"",""2359""
","
","null","run_exp/static/images/Set 6_rs/177a.jpg","null","","","","","","learn","SR",""
"","html-keyboard-response","36","76166","0.0-36.0","""event"",""trial"",""time""
""fullscreenenter"",""0"",""2359""
","
","
","""event"",""trial"",""time""
""fullscreenenter"",""0"",""2359""
","
","null","<p></p>","null","","","","","","","",""
"","image","37","77064","0.0-37.0","""event"",""trial"",""time""
""fullscreenenter"",""0"",""2359""
","
","
","""event"",""trial"",""time""
""fullscreenenter"",""0"",""2359""
","
","896.8999999761581","run_exp/static/images/Set 6_rs/063a.jpg","86","","","","","","learn","SR",""
"","show_choice","38","78174","0.0-38.0","""event"",""trial"",""time""
""fullscreenenter"",""0"",""2359""
","
","
","""event"",""trial"",""time""
""fullscreenenter"",""0"",""2359""
","
","null","run_exp/static/images/Set 6_rs/063a.jpg","null","","","","","","learn","SR",""
"","html-keyboard-response","39","78686","0.0-39.0","""event"",""trial"",""time""
""fullscreenenter"",""0"",""2359""
","
","
","""event"",""trial"",""time""
""fullscreenenter"",""0"",""2359""
","
","null","<p></p>","null","","","","","","","",""
"","image","40","79786","0.0-40.0","""event"",""trial"",""time""
""fullscreenenter"",""0"",""2359""
","
","
","""event"",""trial"",""time""
""fullscreenenter"",""0"",""2359""
","
","1099","run_exp/static/images/Set 6_rs/050a.jpg","86","","","","","","learn","SL",""
"","show_choice","41","80692","0.0-41.0","""event"",""trial"",""time""
""fullscreenenter"",""0"",""2359""
","
","
","""event"",""trial"",""time""
""fullscreenenter"",""0"",""2359""
","
","null","run_exp/static/images/Set 6_rs/050a.jpg","null","","","","","","learn","SL",""
"","html-keyboard-response","42","81205","0.0-42.0","""event"",""trial"",""time""
""fullscreenenter"",""0"",""2359""
","
","
","""event"",""trial"",""time""
""fullscreenenter"",""0"",""2359""
","
","null","<p></p>","null","","","","","","","",""
"","image","43","82324","0.0-43.0","""event"",""trial"",""time""
""fullscreenenter"",""0"",""2359""
","
","
","""event"",""trial"",""time""
""fullscreenenter"",""0"",""2359""
","
","1118.4000000953674","run_exp/static/images/Set 6_rs/117a.jpg","78","","","","","","learn","SL",""
"","show_choice","44","83212","0.0-44.0","""event"",""trial"",""time""
""fullscreenenter"",""0"",""2359""
","
","
","""event"",""trial"",""time""
""fullscreenenter"",""0"",""2359""
","
","null","run_exp/static/images/Set 6_rs/117a.jpg","null","","","","","","learn","SL",""
"","html-keyboard-response","45","83722","0.0-45.0","""event"",""trial"",""time""
""fullscreenenter"",""0"",""2359""
","
","
","""event"",""trial"",""time""
""fullscreenenter"",""0"",""2359""
","
","null","<p></p>","null","","","","","","","",""
"","image","46","84586","0.0-46.0","""event"",""trial"",""time""
""fullscreenenter"",""0"",""2359""
","
","
","""event"",""trial"",""time""
""fullscreenenter"",""0"",""2359""
","
","863.1000000238419","run_exp/static/images/Set 6_rs/169a.jpg","78","","","","","","learn","SR",""
"","show_choice","47","85727","0.0-47.0","""event"",""trial"",""time""
""fullscreenenter"",""0"",""2359""
","
","
","""event"",""trial"",""time""
""fullscreenenter"",""0"",""2359""
","
","null","run_exp/static/images/Set 6_rs/169a.jpg","null","","","","","","learn","SR",""
"","html-keyboard-response","48","86239","0.0-48.0","""event"",""trial"",""time""
""fullscreenenter"",""0"",""2359""
","
","
","""event"",""trial"",""time""
""fullscreenenter"",""0"",""2359""
","
","null","<p></p>","null","","","","","","","",""
"","image","49","87104","0.0-49.0","""event"",""trial"",""time""
""fullscreenenter"",""0"",""2359""
","
","
","""event"",""trial"",""time""
""fullscreenenter"",""0"",""2359""
","
","864.2999999523163","run_exp/static/images/Set 6_rs/010a.jpg","86","","","","","","learn","SR",""
"","show_choice","50","88242","0.0-50.0","""event"",""trial"",""time""
""fullscreenenter"",""0"",""2359""
","
","
","""event"",""trial"",""time""
""fullscreenenter"",""0"",""2359""
","
","null","run_exp/static/images/Set 6_rs/010a.jpg","null","","","","","","learn","SR",""
"","html-keyboard-response","51","88755","0.0-51.0","""event"",""trial"",""time""
""fullscreenenter"",""0"",""2359""
","
","
","""event"",""trial"",""time""
""fullscreenenter"",""0"",""2359""
","
","null","<p></p>","null","","","","","","","",""
"","image","52","89477","0.0-52.0","""event"",""trial"",""time""
""fullscreenenter"",""0"",""2359""
","
","
","""event"",""trial"",""time""
""fullscreenenter"",""0"",""2359""
","
","720.8999999761581","run_exp/static/images/Set 6_rs/008a.jpg","86","","","","","","learn","SL",""
"","show_choice","53","90765","0.0-53.0","""event"",""trial"",""time""
""fullscreenenter"",""0"",""2359""
","
","
","""event"",""trial"",""time""
""fullscreenenter"",""0"",""2359""
","
","null","run_exp/static/images/Set 6_rs/008a.jpg","null","","","","","","learn","SL",""
"","html-keyboard-response","54","91273","0.0-54.0","""event"",""trial"",""time""
""fullscreenenter"",""0"",""2359""
","
","
","""event"",""trial"",""time""
""fullscreenenter"",""0"",""2359""
","
","null","<p></p>","null","","","","","","","",""
"","image","55","92474","0.0-55.0","""event"",""trial"",""time""
""fullscreenenter"",""0"",""2359""
","
","
","""event"",""trial"",""time""
""fullscreenenter"",""0"",""2359""
","
","1199.1999999284744","run_exp/static/images/Set 6_rs/073a.jpg","86","","","","","","learn","SL",""
"","show_choice","56","93275","0.0-56.0","""event"",""trial"",""time""
""fullscreenenter"",""0"",""2359""
","
","
","""event"",""trial"",""time""
""fullscreenenter"",""0"",""2359""
","
","null","run_exp/static/images/Set 6_rs/073a.jpg","null","","","","","","learn","SL",""
"","html-keyboard-response","57","93787","0.0-57.0","""event"",""trial"",""time""
""fullscreenenter"",""0"",""2359""
","
","
","""event"",""trial"",""time""
""fullscreenenter"",""0"",""2359""
","
","null","<p></p>","null","","","","","","","",""
"","image","58","94729","0.0-58.0","""event"",""trial"",""time""
""fullscreenenter"",""0"",""2359""
","
","
","""event"",""trial"",""time""
""fullscreenenter"",""0"",""2359""
","
","940.7999999523163","run_exp/static/images/Set 6_rs/062a.jpg","86","","","","","","learn","SL",""
"","show_choice","59","95796","0.0-59.0","""event"",""trial"",""time""
""fullscreenenter"",""0"",""2359""
","
","
","""event"",""trial"",""time""
""fullscreenenter"",""0"",""2359""
","
","null","run_exp/static/images/Set 6_rs/062a.jpg","null","","","","","","learn","SL",""
"","html-keyboard-response","60","96309","0.0-60.0","""event"",""trial"",""time""
""fullscreenenter"",""0"",""2359""
","
","
","""event"",""trial"",""time""
""fullscreenenter"",""0"",""2359""
","
","null","<p></p>","null","","","","","","","",""
"","image","61","97390","0.0-61.0","""event"",""trial"",""time""
""fullscreenenter"",""0"",""2359""
","
","
","""event"",""trial"",""time""
""fullscreenenter"",""0"",""2359""
","
","1079.1000000238419","run_exp/static/images/Set 6_rs/012a.jpg","78","","","","","","learn","SR",""
"","show_choice","62","98320","0.0-62.0","""event"",""trial"",""time""
""fullscreenenter"",""0"",""2359""
","
","
","""event"",""trial"",""time""
""fullscreenenter"",""0"",""2359""
","
","null","run_exp/static/images/Set 6_rs/012a.jpg","null","","","","","","learn","SR",""
"","html-keyboard-response","63","98832","0.0-63.0","""event"",""trial"",""time""
""fullscreenenter"",""0"",""2359""
","
","
","""event"",""trial"",""time""
""fullscreenenter"",""0"",""2359""
","
","null","<p></p>","null","","","","","","","",""
"","image","64","99621","0.0-64.0","""event"",""trial"",""time""
""fullscreenenter"",""0"",""2359""
","
","
","""event"",""trial"",""time""
""fullscreenenter"",""0"",""2359""
","
","788.4000000953674","run_exp/static/images/Set 6_rs/064a.jpg","78","","","","","","learn","SR",""
"","show_choice","65","100831","0.0-65.0","""event"",""trial"",""time""
""fullscreenenter"",""0"",""2359""
","
","
","""event"",""trial"",""time""
""fullscreenenter"",""0"",""2359""
","
","null","run_exp/static/images/Set 6_rs/064a.jpg","null","","","","","","learn","SR",""
"","html-keyboard-response","66","101343","0.0-66.0","""event"",""trial"",""time""
""fullscreenenter"",""0"",""2359""
","
","
","""event"",""trial"",""time""
""fullscreenenter"",""0"",""2359""
","
","null","<p></p>","null","","","","","","","",""
"","image","67","102587","0.0-67.0","""event"",""trial"",""time""
""fullscreenenter"",""0"",""2359""
","
","
","""event"",""trial"",""time""
""fullscreenenter"",""0"",""2359""
","
","1243.2000000476837","run_exp/static/images/Set 6_rs/144a.jpg","86","","","","","","learn","SL",""
"","show_choice","68","103347","0.0-68.0","""event"",""trial"",""time""
""fullscreenenter"",""0"",""2359""
","
","
","""event"",""trial"",""time""
""fullscreenenter"",""0"",""2359""
","
","null","run_exp/static/images/Set 6_rs/144a.jpg","null","","","","","","learn","SL",""
"","html-keyboard-response","69","103859","0.0-69.0","""event"",""trial"",""time""
""fullscreenenter"",""0"",""2359""
","
","
","""event"",""trial"",""time""
""fullscreenenter"",""0"",""2359""
","
","null","<p></p>","null","","","","","","","",""
"","image","70","104672","0.0-70.0","""event"",""trial"",""time""
""fullscreenenter"",""0"",""2359""
","
","
","""event"",""trial"",""time""
""fullscreenenter"",""0"",""2359""
","
","811.8000000715256","run_exp/static/images/Set 6_rs/079a.jpg","86","","","","","","learn","SL",""
"","show_choice","71","105873","0.0-71.0","""event"",""trial"",""time""
""fullscreenenter"",""0"",""2359""
","
","
","""event"",""trial"",""time""
""fullscreenenter"",""0"",""2359""
","
","null","run_exp/static/images/Set 6_rs/079a.jpg","null","","","","","","learn","SL",""
"","html-keyboard-response","72","106386","0.0-72.0","""event"",""trial"",""time""
""fullscreenenter"",""0"",""2359""
","
","
","""event"",""trial"",""time""
""fullscreenenter"",""0"",""2359""
","
","null","<p></p>","null","","","","","","","",""
"","image","73","107038","0.0-73.0","""event"",""trial"",""time""
""fullscreenenter"",""0"",""2359""
","
","
","""event"",""trial"",""time""
""fullscreenenter"",""0"",""2359""
","
","651.1000000238419","run_exp/static/images/Set 6_rs/116a.jpg","78","","","","","","learn","SL",""
"","show_choice","74","108388","0.0-74.0","""event"",""trial"",""time""
""fullscreenenter"",""0"",""2359""
","
","
","""event"",""trial"",""time""
""fullscreenenter"",""0"",""2359""
","
","null","run_exp/static/images/Set 6_rs/116a.jpg","null","","","","","","learn","SL",""
"","html-keyboard-response","75","108902","0.0-75.0","""event"",""trial"",""time""
""fullscreenenter"",""0"",""2359""
","
","
","""event"",""trial"",""time""
""fullscreenenter"",""0"",""2359""
","
","null","<p></p>","null","","","","","","","",""
"","image","76","109826","0.0-76.0","""event"",""trial"",""time""
""fullscreenenter"",""0"",""2359""
","
","
","""event"",""trial"",""time""
""fullscreenenter"",""0"",""2359""
","
","922.8000000715256","run_exp/static/images/Set 6_rs/095a.jpg","86","","","","","","learn","SL",""
"","show_choice","77","110907","0.0-77.0","""event"",""trial"",""time""
""fullscreenenter"",""0"",""2359""
","
","
","""event"",""trial"",""time""
""fullscreenenter"",""0"",""2359""
","
","null","run_exp/static/images/Set 6_rs/095a.jpg","null","","","","","","learn","SL",""
"","html-keyboard-response","78","111420","0.0-78.0","""event"",""trial"",""time""
""fullscreenenter"",""0"",""2359""
","
","
","""event"",""trial"",""time""
""fullscreenenter"",""0"",""2359""
","
","null","<p></p>","null","","","","","","","",""
"","image","79","112221","0.0-79.0","""event"",""trial"",""time""
""fullscreenenter"",""0"",""2359""
","
","
","""event"",""trial"",""time""
""fullscreenenter"",""0"",""2359""
","
","799.5","run_exp/static/images/Set 6_rs/150a.jpg","86","","","","","","learn","SR",""
"","show_choice","80","113428","0.0-80.0","""event"",""trial"",""time""
""fullscreenenter"",""0"",""2359""
","
","
","""event"",""trial"",""time""
""fullscreenenter"",""0"",""2359""
","
","null","run_exp/static/images/Set 6_rs/150a.jpg","null","","","","","","learn","SR",""
"","html-keyboard-response","81","113940","0.0-81.0","""event"",""trial"",""time""
""fullscreenenter"",""0"",""2359""
","
","
","""event"",""trial"",""time""
""fullscreenenter"",""0"",""2359""
","
","null","<p></p>","null","","","","","","","",""
"","image","82","114798","0.0-82.0","""event"",""trial"",""time""
""fullscreenenter"",""0"",""2359""
","
","
","""event"",""trial"",""time""
""fullscreenenter"",""0"",""2359""
","
","857.6000000238419","run_exp/static/images/Set 6_rs/129a.jpg","78","","","","","","learn","SL",""
"","show_choice","83","115951","0.0-83.0","""event"",""trial"",""time""
""fullscreenenter"",""0"",""2359""
","
","
","""event"",""trial"",""time""
""fullscreenenter"",""0"",""2359""
","
","null","run_exp/static/images/Set 6_rs/129a.jpg","null","","","","","","learn","SL",""
"","html-keyboard-response","84","116465","0.0-84.0","""event"",""trial"",""time""
""fullscreenenter"",""0"",""2359""
","
","
","""event"",""trial"",""time""
""fullscreenenter"",""0"",""2359""
","
","null","<p></p>","null","","","","","","","",""
"","image","85","117123","0.0-85.0","""event"",""trial"",""time""
""fullscreenenter"",""0"",""2359""
","
","
","""event"",""trial"",""time""
""fullscreenenter"",""0"",""2359""
","
","655.9000000953674","run_exp/static/images/Set 6_rs/071a.jpg","78","","","","","","learn","SL",""
"","show_choice","86","118468","0.0-86.0","""event"",""trial"",""time""
""fullscreenenter"",""0"",""2359""
","
","
","""event"",""trial"",""time""
""fullscreenenter"",""0"",""2359""
","
","null","run_exp/static/images/Set 6_rs/071a.jpg","null","","","","","","learn","SL",""
"","html-keyboard-response","87","118970","0.0-87.0","""event"",""trial"",""time""
""fullscreenenter"",""0"",""2359""
","
","
","""event"",""trial"",""time""
""fullscreenenter"",""0"",""2359""
","
","null","<p></p>","null","","","","","","","",""
"","image","88","120040","0.0-88.0","""event"",""trial"",""time""
""fullscreenenter"",""0"",""2359""
","
","
","""event"",""trial"",""time""
""fullscreenenter"",""0"",""2359""
","
","1069.2000000476837","run_exp/static/images/Set 6_rs/123a.jpg","78","","","","","","learn","SL",""
"","show_choice","89","120983","0.0-89.0","""event"",""trial"",""time""
""fullscreenenter"",""0"",""2359""
","
","
","""event"",""trial"",""time""
""fullscreenenter"",""0"",""2359""
","
","null","run_exp/static/images/Set 6_rs/123a.jpg","null","","","","","","learn","SL",""
"","html-keyboard-response","90","121498","0.0-90.0","""event"",""trial"",""time""
""fullscreenenter"",""0"",""2359""
","
","
","""event"",""trial"",""time""
""fullscreenenter"",""0"",""2359""
","
","null","<p></p>","null","","","","","","","",""
"","image","91","122478","0.0-91.0","""event"",""trial"",""time""
""fullscreenenter"",""0"",""2359""
","
","
","""event"",""trial"",""time""
""fullscreenenter"",""0"",""2359""
","
","979.3000000715256","run_exp/static/images/Set 6_rs/070a.jpg","86","","","","","","learn","SR",""
"","show_choice","92","123500","0.0-92.0","""event"",""trial"",""time""
""fullscreenenter"",""0"",""2359""
","
","
","""event"",""trial"",""time""
""fullscreenenter"",""0"",""2359""
","
","null","run_exp/static/images/Set 6_rs/070a.jpg","null","","","","","","learn","SR",""
"","html-keyboard-response","93","124012","0.0-93.0","""event"",""trial"",""time""
""fullscreenenter"",""0"",""2359""
","
","
","""event"",""trial"",""time""
""fullscreenenter"",""0"",""2359""
","
","null","<p></p>","null","","","","","","","",""
"","image","94","125141","0.0-94.0","""event"",""trial"",""time""
""fullscreenenter"",""0"",""2359""
","
","
","""event"",""trial"",""time""
""fullscreenenter"",""0"",""2359""
","
","1127.8999999761581","run_exp/static/images/Set 6_rs/126a.jpg","86","","","","","","learn","SR",""
"","show_choice","95","126015","0.0-95.0","""event"",""trial"",""time""
""fullscreenenter"",""0"",""2359""
","
","
","""event"",""trial"",""time""
""fullscreenenter"",""0"",""2359""
","
","null","run_exp/static/images/Set 6_rs/126a.jpg","null","","","","","","learn","SR",""
"","html-keyboard-response","96","126529","0.0-96.0","""event"",""trial"",""time""
""fullscreenenter"",""0"",""2359""
","
","
","""event"",""trial"",""time""
""fullscreenenter"",""0"",""2359""
","
","null","<p></p>","null","","","","","","","",""
"","image","97","127690","0.0-97.0","""event"",""trial"",""time""
""fullscreenenter"",""0"",""2359""
","
","
","""event"",""trial"",""time""
""fullscreenenter"",""0"",""2359""
","
","1159.5999999046326","run_exp/static/images/Set 6_rs/088a.jpg","78","","","","","","learn","SR",""
"","show_choice","98","128544","0.0-98.0","""event"",""trial"",""time""
""fullscreenenter"",""0"",""2359""
","
","
","""event"",""trial"",""time""
""fullscreenenter"",""0"",""2359""
","
","null","run_exp/static/images/Set 6_rs/088a.jpg","null","","","","","","learn","SR",""
"","html-keyboard-response","99","129058","0.0-99.0","""event"",""trial"",""time""
""fullscreenenter"",""0"",""2359""
","
","
","""event"",""trial"",""time""
""fullscreenenter"",""0"",""2359""
","
","null","<p></p>","null","","","","","","","",""
"","image","100","130007","0.0-100.0","""event"",""trial"",""time""
""fullscreenenter"",""0"",""2359""
","
","
","""event"",""trial"",""time""
""fullscreenenter"",""0"",""2359""
","
","947.5","run_exp/static/images/Set 6_rs/055a.jpg","86","","","","","","learn","SL",""
"","show_choice","101","131061","0.0-101.0","""event"",""trial"",""time""
""fullscreenenter"",""0"",""2359""
","
","
","""event"",""trial"",""time""
""fullscreenenter"",""0"",""2359""
","
","null","run_exp/static/images/Set 6_rs/055a.jpg","null","","","","","","learn","SL",""
"","html-keyboard-response","102","131574","0.0-102.0","""event"",""trial"",""time""
""fullscreenenter"",""0"",""2359""
","
","
","""event"",""trial"",""time""
""fullscreenenter"",""0"",""2359""
","
","null","<p></p>","null","","","","","","","",""
"","image","103","132354","0.0-103.0","""event"",""trial"",""time""
""fullscreenenter"",""0"",""2359""
","
","
","""event"",""trial"",""time""
""fullscreenenter"",""0"",""2359""
","
","779","run_exp/static/images/Set 6_rs/014a.jpg","86","","","","","","learn","SL",""
"","show_choice","104","133578","0.0-104.0","""event"",""trial"",""time""
""fullscreenenter"",""0"",""2359""
","
","
","""event"",""trial"",""time""
""fullscreenenter"",""0"",""2359""
","
","null","run_exp/static/images/Set 6_rs/014a.jpg","null","","","","","","learn","SL",""
"","html-keyboard-response","105","134090","0.0-105.0","""event"",""trial"",""time""
""fullscreenenter"",""0"",""2359""
","
","
","""event"",""trial"",""time""
""fullscreenenter"",""0"",""2359""
","
","null","<p></p>","null","","","","","","","",""
"","image","106","134877","0.0-106.0","""event"",""trial"",""time""
""fullscreenenter"",""0"",""2359""
","
","
","""event"",""trial"",""time""
""fullscreenenter"",""0"",""2359""
","
","785.8000000715256","run_exp/static/images/Set 6_rs/091a.jpg","78","","","","","","learn","SL",""
"","show_choice","107","136098","0.0-107.0","""event"",""trial"",""time""
""fullscreenenter"",""0"",""2359""
","
","
","""event"",""trial"",""time""
""fullscreenenter"",""0"",""2359""
","
","null","run_exp/static/images/Set 6_rs/091a.jpg","null","","","","","","learn","SL",""
"","html-keyboard-response","108","136610","0.0-108.0","""event"",""trial"",""time""
""fullscreenenter"",""0"",""2359""
","
","
","""event"",""trial"",""time""
""fullscreenenter"",""0"",""2359""
","
","null","<p></p>","null","","","","","","","",""
"","image","109","137454","0.0-109.0","""event"",""trial"",""time""
""fullscreenenter"",""0"",""2359""
","
","
","""event"",""trial"",""time""
""fullscreenenter"",""0"",""2359""
","
","843.1999999284744","run_exp/static/images/Set 6_rs/085a.jpg","86","","","","","","learn","SL",""
"","show_choice","110","138616","0.0-110.0","""event"",""trial"",""time""
""fullscreenenter"",""0"",""2359""
","
","
","""event"",""trial"",""time""
""fullscreenenter"",""0"",""2359""
","
","null","run_exp/static/images/Set 6_rs/085a.jpg","null","","","","","","learn","SL",""
"","html-keyboard-response","111","139130","0.0-111.0","""event"",""trial"",""time""
""fullscreenenter"",""0"",""2359""
","
","
","""event"",""trial"",""time""
""fullscreenenter"",""0"",""2359""
","
","null","<p></p>","null","","","","","","","",""
"","image","112","140071","0.0-112.0","""event"",""trial"",""time""
""fullscreenenter"",""0"",""2359""
","
","
","""event"",""trial"",""time""
""fullscreenenter"",""0"",""2359""
","
","939.7999999523163","run_exp/static/images/Set 6_rs/111a.jpg","86","","","","","","learn","SL",""
"","show_choice","113","141135","0.0-113.0","""event"",""trial"",""time""
""fullscreenenter"",""0"",""2359""
","
","
","""event"",""trial"",""time""
""fullscreenenter"",""0"",""2359""
","
","null","run_exp/static/images/Set 6_rs/111a.jpg","null","","","","","","learn","SL",""
"","html-keyboard-response","114","141649","0.0-114.0","""event"",""trial"",""time""
""fullscreenenter"",""0"",""2359""
","
","
","""event"",""trial"",""time""
""fullscreenenter"",""0"",""2359""
","
","null","<p></p>","null","","","","","","","",""
"","image","115","142896","0.0-115.0","""event"",""trial"",""time""
""fullscreenenter"",""0"",""2359""
","
","
","""event"",""trial"",""time""
""fullscreenenter"",""0"",""2359""
","
","1246","run_exp/static/images/Set 6_rs/007a.jpg","86","","","","","","learn","SR",""
"","show_choice","116","143665","0.0-116.0","""event"",""trial"",""time""
""fullscreenenter"",""0"",""2359""
","
","
","""event"",""trial"",""time""
""fullscreenenter"",""0"",""2359""
","
","null","run_exp/static/images/Set 6_rs/007a.jpg","null","","","","","","learn","SR",""
"","html-keyboard-response","117","144180","0.0-117.0","""event"",""trial"",""time""
""fullscreenenter"",""0"",""2359""
","
","
","""event"",""trial"",""time""
""fullscreenenter"",""0"",""2359""
","
","null","<p></p>","null","","","","","","","",""
"","image","118","144980","0.0-118.0","""event"",""trial"",""time""
""fullscreenenter"",""0"",""2359""
","
","
","""event"",""trial"",""time""
""fullscreenenter"",""0"",""2359""
","
","799","run_exp/static/images/Set 6_rs/138a.jpg","78","","","","","","learn","SL",""
"","show_choice","119","146196","0.0-119.0","""event"",""trial"",""time""
""fullscreenenter"",""0"",""2359""
","
","
","""event"",""trial"",""time""
""fullscreenenter"",""0"",""2359""
","
","null","run_exp/static/images/Set 6_rs/138a.jpg","null","","","","","","learn","SL",""
"","html-keyboard-response","120","146707","0.0-120.0","""event"",""trial"",""time""
""fullscreenenter"",""0"",""2359""
","
","
","""event"",""trial"",""time""
""fullscreenenter"",""0"",""2359""
","
","null","<p></p>","null","","","","","","","",""
"","image","121","147591","0.0-121.0","""event"",""trial"",""time""
""fullscreenenter"",""0"",""2359""
","
","
","""event"",""trial"",""time""
""fullscreenenter"",""0"",""2359""
","
","882.7000000476837","run_exp/static/images/Set 6_rs/122a.jpg","86","","","","","","learn","SR",""
"","show_choice","122","148711","0.0-122.0","""event"",""trial"",""time""
""fullscreenenter"",""0"",""2359""
","
","
","""event"",""trial"",""time""
""fullscreenenter"",""0"",""2359""
","
","null","run_exp/static/images/Set 6_rs/122a.jpg","null","","","","","","learn","SR",""
"","html-keyboard-response","123","149225","0.0-123.0","""event"",""trial"",""time""
""fullscreenenter"",""0"",""2359""
","
","
","""event"",""trial"",""time""
""fullscreenenter"",""0"",""2359""
","
","null","<p></p>","null","","","","","","","",""
"","image","124","149952","0.0-124.0","""event"",""trial"",""time""
""fullscreenenter"",""0"",""2359""
","
","
","""event"",""trial"",""time""
""fullscreenenter"",""0"",""2359""
","
","726.8000000715256","run_exp/static/images/Set 6_rs/025a.jpg","78","","","","","","learn","SL",""
"","show_choice","125","151231","0.0-125.0","""event"",""trial"",""time""
""fullscreenenter"",""0"",""2359""
","
","
","""event"",""trial"",""time""
""fullscreenenter"",""0"",""2359""
","
","null","run_exp/static/images/Set 6_rs/025a.jpg","null","","","","","","learn","SL",""
"","html-keyboard-response","126","151742","0.0-126.0","""event"",""trial"",""time""
""fullscreenenter"",""0"",""2359""
","
","
","""event"",""trial"",""time""
""fullscreenenter"",""0"",""2359""
","
","null","<p></p>","null","","","","","","","",""
"","image","127","152796","0.0-127.0","""event"",""trial"",""time""
""fullscreenenter"",""0"",""2359""
","
","
","""event"",""trial"",""time""
""fullscreenenter"",""0"",""2359""
","
","1052.7999999523163","run_exp/static/images/Set 6_rs/191a.jpg","86","","","","","","learn","SL",""
"","show_choice","128","153747","0.0-128.0","""event"",""trial"",""time""
""fullscreenenter"",""0"",""2359""
","
","
","""event"",""trial"",""time""
""fullscreenenter"",""0"",""2359""
","
","null","run_exp/static/images/Set 6_rs/191a.jpg","null","","","","","","learn","SL",""
"","html-keyboard-response","129","154258","0.0-129.0","""event"",""trial"",""time""
""fullscreenenter"",""0"",""2359""
","
","
","""event"",""trial"",""time""
""fullscreenenter"",""0"",""2359""
","
","null","<p></p>","null","","","","","","","",""
"","image","130","155486","0.0-130.0","""event"",""trial"",""time""
""fullscreenenter"",""0"",""2359""
","
","
","""event"",""trial"",""time""
""fullscreenenter"",""0"",""2359""
","
","1226.3999999761581","run_exp/static/images/Set 6_rs/017a.jpg","86","","","","","","learn","SL",""
"","show_choice","131","156271","0.0-131.0","""event"",""trial"",""time""
""fullscreenenter"",""0"",""2359""
","
","
","""event"",""trial"",""time""
""fullscreenenter"",""0"",""2359""
","
","null","run_exp/static/images/Set 6_rs/017a.jpg","null","","","","","","learn","SL",""
"","html-keyboard-response","132","156782","0.0-132.0","""event"",""trial"",""time""
""fullscreenenter"",""0"",""2359""
","
","
","""event"",""trial"",""time""
""fullscreenenter"",""0"",""2359""
","
","null","<p></p>","null","","","","","","","",""
"","image","133","157825","0.0-133.0","""event"",""trial"",""time""
""fullscreenenter"",""0"",""2359""
","
","
","""event"",""trial"",""time""
""fullscreenenter"",""0"",""2359""
","
","1041.7999999523163","run_exp/static/images/Set 6_rs/074a.jpg","78","","","","","","learn","SL",""
"","show_choice","134","158786","0.0-134.0","""event"",""trial"",""time""
""fullscreenenter"",""0"",""2359""
","
","
","""event"",""trial"",""time""
""fullscreenenter"",""0"",""2359""
","
","null","run_exp/static/images/Set 6_rs/074a.jpg","null","","","","","","learn","SL",""
"","html-keyboard-response","135","159299","0.0-135.0","""event"",""trial"",""time""
""fullscreenenter"",""0"",""2359""
","
","
","""event"",""trial"",""time""
""fullscreenenter"",""0"",""2359""
","
","null","<p></p>","null","","","","","","","",""
"","image","136","160159","0.0-136.0","""event"",""trial"",""time""
""fullscreenenter"",""0"",""2359""
","
","
","""event"",""trial"",""time""
""fullscreenenter"",""0"",""2359""
","
","858.3999999761581","run_exp/static/images/Set 6_rs/016a.jpg","86","","","","","","learn","SL",""
"","show_choice","137","161312","0.0-137.0","""event"",""trial"",""time""
""fullscreenenter"",""0"",""2359""
","
","
","""event"",""trial"",""time""
""fullscreenenter"",""0"",""2359""
","
","null","run_exp/static/images/Set 6_rs/016a.jpg","null","","","","","","learn","SL",""
"","html-keyboard-response","138","161823","0.0-138.0","""event"",""trial"",""time""
""fullscreenenter"",""0"",""2359""
","
","
","""event"",""trial"",""time""
""fullscreenenter"",""0"",""2359""
","
","null","<p></p>","null","","","","","","","",""
"","image","139","162677","0.0-139.0","""event"",""trial"",""time""
""fullscreenenter"",""0"",""2359""
","
","
","""event"",""trial"",""time""
""fullscreenenter"",""0"",""2359""
","
","852.7000000476837","run_exp/static/images/Set 6_rs/181a.jpg","78","","","","","","learn","SL",""
"","show_choice","140","163828","0.0-140.0","""event"",""trial"",""time""
""fullscreenenter"",""0"",""2359""
","
","
","""event"",""trial"",""time""
""fullscreenenter"",""0"",""2359""
","
","null","run_exp/static/images/Set 6_rs/181a.jpg","null","","","","","","learn","SL",""
"","html-keyboard-response","141","164341","0.0-141.0","""event"",""trial"",""time""
""fullscreenenter"",""0"",""2359""
","
","
","""event"",""trial"",""time""
""fullscreenenter"",""0"",""2359""
","
","null","<p></p>","null","","","","","","","",""
"","image","142","165387","0.0-142.0","""event"",""trial"",""time""
""fullscreenenter"",""0"",""2359""
","
","
","""event"",""trial"",""time""
""fullscreenenter"",""0"",""2359""
","
","1045.0999999046326","run_exp/static/images/Set 6_rs/141a.jpg","86","","","","","","learn","SR",""
"","show_choice","143","166348","0.0-143.0","""event"",""trial"",""time""
""fullscreenenter"",""0"",""2359""
","
","
","""event"",""trial"",""time""
""fullscreenenter"",""0"",""2359""
","
","null","run_exp/static/images/Set 6_rs/141a.jpg","null","","","","","","learn","SR",""
"","html-keyboard-response","144","166861","0.0-144.0","""event"",""trial"",""time""
""fullscreenenter"",""0"",""2359""
","
","
","""event"",""trial"",""time""
""fullscreenenter"",""0"",""2359""
","
","null","<p></p>","null","","","","","","","",""
"","image","145","167739","0.0-145.0","""event"",""trial"",""time""
""fullscreenenter"",""0"",""2359""
","
","
","""event"",""trial"",""time""
""fullscreenenter"",""0"",""2359""
","
","877.3999999761581","run_exp/static/images/Set 6_rs/024a.jpg","86","","","","","","learn","SR",""
"","show_choice","146","168870","0.0-146.0","""event"",""trial"",""time""
""fullscreenenter"",""0"",""2359""
","
","
","""event"",""trial"",""time""
""fullscreenenter"",""0"",""2359""
","
","null","run_exp/static/images/Set 6_rs/024a.jpg","null","","","","","","learn","SR",""
"","html-keyboard-response","147","169379","0.0-147.0","""event"",""trial"",""time""
""fullscreenenter"",""0"",""2359""
","
","
","""event"",""trial"",""time""
""fullscreenenter"",""0"",""2359""
","
","null","<p></p>","null","","","","","","","",""
"","image","148","170592","0.0-148.0","""event"",""trial"",""time""
""fullscreenenter"",""0"",""2359""
","
","
","""event"",""trial"",""time""
""fullscreenenter"",""0"",""2359""
","
","1211","run_exp/static/images/Set 6_rs/023a.jpg","78","","","","","","learn","SR",""
"","show_choice","149","171383","0.0-149.0","""event"",""trial"",""time""
""fullscreenenter"",""0"",""2359""
","
","
","""event"",""trial"",""time""
""fullscreenenter"",""0"",""2359""
","
","null","run_exp/static/images/Set 6_rs/023a.jpg","null","","","","","","learn","SR",""
"","html-keyboard-response","150","171893","0.0-150.0","""event"",""trial"",""time""
""fullscreenenter"",""0"",""2359""
","
","
","""event"",""trial"",""time""
""fullscreenenter"",""0"",""2359""
","
","null","<p></p>","null","","","","","","","",""
"","image","151","172873","0.0-151.0","""event"",""trial"",""time""
""fullscreenenter"",""0"",""2359""
","
","
","""event"",""trial"",""time""
""fullscreenenter"",""0"",""2359""
","
","978.2999999523163","run_exp/static/images/Set 6_rs/178a.jpg","78","","","","","","learn","SR",""
"","show_choice","152","173900","0.0-152.0","""event"",""trial"",""time""
""fullscreenenter"",""0"",""2359""
","
","
","""event"",""trial"",""time""
""fullscreenenter"",""0"",""2359""
","
","null","run_exp/static/images/Set 6_rs/178a.jpg","null","","","","","","learn","SR",""
"","html-keyboard-response","153","174413","0.0-153.0","""event"",""trial"",""time""
""fullscreenenter"",""0"",""2359""
","
","
","""event"",""trial"",""time""
""fullscreenenter"",""0"",""2359""
","
","null","<p></p>","null","","","","","","","",""
"","image","154","175213","0.0-154.0","""event"",""trial"",""time""
""fullscreenenter"",""0"",""2359""
","
","
","""event"",""trial"",""time""
""fullscreenenter"",""0"",""2359""
","
","798.7999999523163","run_exp/static/images/Set 6_rs/121a.jpg","86","","","","","","learn","SR",""
"","show_choice","155","176429","0.0-155.0","""event"",""trial"",""time""
""fullscreenenter"",""0"",""2359""
","
","
","""event"",""trial"",""time""
""fullscreenenter"",""0"",""2359""
","
","null","run_exp/static/images/Set 6_rs/121a.jpg","null","","","","","","learn","SR",""
"","html-keyboard-response","156","176940","0.0-156.0","""event"",""trial"",""time""
""fullscreenenter"",""0"",""2359""
","
","
","""event"",""trial"",""time""
""fullscreenenter"",""0"",""2359""
","
","null","<p></p>","null","","","","","","","",""
"","image","157","177939","0.0-157.0","""event"",""trial"",""time""
""fullscreenenter"",""0"",""2359""
","
","
","""event"",""trial"",""time""
""fullscreenenter"",""0"",""2359""
","
","998.5","run_exp/static/images/Set 6_rs/187a.jpg","78","","","","","","learn","SR",""
"","show_choice","158","178954","0.0-158.0","""event"",""trial"",""time""
""fullscreenenter"",""0"",""2359""
","
","
","""event"",""trial"",""time""
""fullscreenenter"",""0"",""2359""
","
","null","run_exp/static/images/Set 6_rs/187a.jpg","null","","","","","","learn","SR",""
"","html-keyboard-response","159","179465","0.0-159.0","""event"",""trial"",""time""
""fullscreenenter"",""0"",""2359""
","
","
","""event"",""trial"",""time""
""fullscreenenter"",""0"",""2359""
","
","null","<p></p>","null","","","","","","","",""
"","image","160","180394","0.0-160.0","""event"",""trial"",""time""
""fullscreenenter"",""0"",""2359""
","
","
","""event"",""trial"",""time""
""fullscreenenter"",""0"",""2359""
","
","928.6000000238419","run_exp/static/images/Set 6_rs/076a.jpg","78","","","","","","learn","SR",""
"","show_choice","161","181474","0.0-161.0","""event"",""trial"",""time""
""fullscreenenter"",""0"",""2359""
","
","
","""event"",""trial"",""time""
""fullscreenenter"",""0"",""2359""
","
","null","run_exp/static/images/Set 6_rs/076a.jpg","null","","","","","","learn","SR",""
"","html-keyboard-response","162","181987","0.0-162.0","""event"",""trial"",""time""
""fullscreenenter"",""0"",""2359""
","
","
","""event"",""trial"",""time""
""fullscreenenter"",""0"",""2359""
","
","null","<p></p>","null","","","","","","","",""
"","image","163","183450","0.0-163.0","""event"",""trial"",""time""
""fullscreenenter"",""0"",""2359""
","
","
","""event"",""trial"",""time""
""fullscreenenter"",""0"",""2359""
","
","1462.1000000238419","run_exp/static/images/Set 6_rs/131a.jpg","86","","","","","","learn","SR",""
"","show_choice","164","183988","0.0-164.0","""event"",""trial"",""time""
""fullscreenenter"",""0"",""2359""
","
","
","""event"",""trial"",""time""
""fullscreenenter"",""0"",""2359""
","
","null","run_exp/static/images/Set 6_rs/131a.jpg","null","","","","","","learn","SR",""
"","html-keyboard-response","165","184501","0.0-165.0","""event"",""trial"",""time""
""fullscreenenter"",""0"",""2359""
","
","
","""event"",""trial"",""time""
""fullscreenenter"",""0"",""2359""
","
","null","<p></p>","null","","","","","","","",""
"","image","166","185688","0.0-166.0","""event"",""trial"",""time""
""fullscreenenter"",""0"",""2359""
","
","
","""event"",""trial"",""time""
""fullscreenenter"",""0"",""2359""
","
","1185.5","run_exp/static/images/Set 6_rs/167a.jpg","78","","","","","","learn","SL",""
"","show_choice","167","186510","0.0-167.0","""event"",""trial"",""time""
""fullscreenenter"",""0"",""2359""
","
","
","""event"",""trial"",""time""
""fullscreenenter"",""0"",""2359""
","
","null","run_exp/static/images/Set 6_rs/167a.jpg","null","","","","","","learn","SL",""
"","html-keyboard-response","168","187022","0.0-168.0","""event"",""trial"",""time""
""fullscreenenter"",""0"",""2359""
","
","
","""event"",""trial"",""time""
""fullscreenenter"",""0"",""2359""
","
","null","<p></p>","null","","","","","","","",""
"","image","169","187828","0.0-169.0","""event"",""trial"",""time""
""fullscreenenter"",""0"",""2359""
","
","
","""event"",""trial"",""time""
""fullscreenenter"",""0"",""2359""
","
","804.8999999761581","run_exp/static/images/Set 6_rs/172a.jpg","78","","","","","","learn","SR",""
"","show_choice","170","189029","0.0-170.0","""event"",""trial"",""time""
""fullscreenenter"",""0"",""2359""
","
","
","""event"",""trial"",""time""
""fullscreenenter"",""0"",""2359""
","
","null","run_exp/static/images/Set 6_rs/172a.jpg","null","","","","","","learn","SR",""
"","html-keyboard-response","171","189530","0.0-171.0","""event"",""trial"",""time""
""fullscreenenter"",""0"",""2359""
","
","
","""event"",""trial"",""time""
""fullscreenenter"",""0"",""2359""
","
","null","<p></p>","null","","","","","","","",""
"","image","172","190523","0.0-172.0","""event"",""trial"",""time""
""fullscreenenter"",""0"",""2359""
","
","
","""event"",""trial"",""time""
""fullscreenenter"",""0"",""2359""
","
","991.1999999284744","run_exp/static/images/Set 6_rs/152a.jpg","86","","","","","","learn","SR",""
"","show_choice","173","191537","0.0-173.0","""event"",""trial"",""time""
""fullscreenenter"",""0"",""2359""
","
","
","""event"",""trial"",""time""
""fullscreenenter"",""0"",""2359""
","
","null","run_exp/static/images/Set 6_rs/152a.jpg","null","","","","","","learn","SR",""
"","html-keyboard-response","174","192050","0.0-174.0","""event"",""trial"",""time""
""fullscreenenter"",""0"",""2359""
","
","
","""event"",""trial"",""time""
""fullscreenenter"",""0"",""2359""
","
","null","<p></p>","null","","","","","","","",""
"","image","175","192979","0.0-175.0","""event"",""trial"",""time""
""fullscreenenter"",""0"",""2359""
","
","
","""event"",""trial"",""time""
""fullscreenenter"",""0"",""2359""
","
","928.1999999284744","run_exp/static/images/Set 6_rs/154a.jpg","86","","","","","","learn","SR",""
"","show_choice","176","194055","0.0-176.0","""event"",""trial"",""time""
""fullscreenenter"",""0"",""2359""
","
","
","""event"",""trial"",""time""
""fullscreenenter"",""0"",""2359""
","
","null","run_exp/static/images/Set 6_rs/154a.jpg","null","","","","","","learn","SR",""
"","html-keyboard-response","177","194568","0.0-177.0","""event"",""trial"",""time""
""fullscreenenter"",""0"",""2359""
","
","
","""event"",""trial"",""time""
""fullscreenenter"",""0"",""2359""
","
","null","<p></p>","null","","","","","","","",""
"","image","178","195290","0.0-178.0","""event"",""trial"",""time""
""fullscreenenter"",""0"",""2359""
","
","
","""event"",""trial"",""time""
""fullscreenenter"",""0"",""2359""
","
","721.7000000476837","run_exp/static/images/Set 6_rs/166a.jpg","78","","","","","","learn","SR",""
"","show_choice","179","196573","0.0-179.0","""event"",""trial"",""time""
""fullscreenenter"",""0"",""2359""
","
","
","""event"",""trial"",""time""
""fullscreenenter"",""0"",""2359""
","
","null","run_exp/static/images/Set 6_rs/166a.jpg","null","","","","","","learn","SR",""
"","html-keyboard-response","180","197087","0.0-180.0","""event"",""trial"",""time""
""fullscreenenter"",""0"",""2359""
","
","
","""event"",""trial"",""time""
""fullscreenenter"",""0"",""2359""
","
","null","<p></p>","null","","","","","","","",""
"","image","181","198223","0.0-181.0","""event"",""trial"",""time""
""fullscreenenter"",""0"",""2359""
","
","
","""event"",""trial"",""time""
""fullscreenenter"",""0"",""2359""
","
","1135.1000000238419","run_exp/static/images/Set 6_rs/168a.jpg","86","","","","","","learn","SL",""
"","show_choice","182","199094","0.0-182.0","""event"",""trial"",""time""
""fullscreenenter"",""0"",""2359""
","
","
","""event"",""trial"",""time""
""fullscreenenter"",""0"",""2359""
","
","null","run_exp/static/images/Set 6_rs/168a.jpg","null","","","","","","learn","SL",""
"","html-keyboard-response","183","199607","0.0-183.0","""event"",""trial"",""time""
""fullscreenenter"",""0"",""2359""
","
","
","""event"",""trial"",""time""
""fullscreenenter"",""0"",""2359""
","
","null","<p></p>","null","","","","","","","",""
"","image","184","200478","0.0-184.0","""event"",""trial"",""time""
""fullscreenenter"",""0"",""2359""
","
","
","""event"",""trial"",""time""
""fullscreenenter"",""0"",""2359""
","
","870.5999999046326","run_exp/static/images/Set 6_rs/134a.jpg","86","","","","","","learn","SR",""
"","show_choice","185","201622","0.0-185.0","""event"",""trial"",""time""
""fullscreenenter"",""0"",""2359""
","
","
","""event"",""trial"",""time""
""fullscreenenter"",""0"",""2359""
","
","null","run_exp/static/images/Set 6_rs/134a.jpg","null","","","","","","learn","SR",""
"","html-keyboard-response","186","202137","0.0-186.0","""event"",""trial"",""time""
""fullscreenenter"",""0"",""2359""
","
","
","""event"",""trial"",""time""
""fullscreenenter"",""0"",""2359""
","
","null","<p></p>","null","","","","","","","",""
"","image","187","202997","0.0-187.0","""event"",""trial"",""time""
""fullscreenenter"",""0"",""2359""
","
","
","""event"",""trial"",""time""
""fullscreenenter"",""0"",""2359""
","
","859.5","run_exp/static/images/Set 6_rs/019a.jpg","86","","","","","","learn","SL",""
"","show_choice","188","204144","0.0-188.0","""event"",""trial"",""time""
""fullscreenenter"",""0"",""2359""
","
","
","""event"",""trial"",""time""
""fullscreenenter"",""0"",""2359""
","
","null","run_exp/static/images/Set 6_rs/019a.jpg","null","","","","","","learn","SL",""
"","html-keyboard-response","189","204655","0.0-189.0","""event"",""trial"",""time""
""fullscreenenter"",""0"",""2359""
","
","
","""event"",""trial"",""time""
""fullscreenenter"",""0"",""2359""
","
","null","<p></p>","null","","","","","","","",""
"","image","190","205619","0.0-190.0","""event"",""trial"",""time""
""fullscreenenter"",""0"",""2359""
","
","
","""event"",""trial"",""time""
""fullscreenenter"",""0"",""2359""
","
","963.1999999284744","run_exp/static/images/Set 6_rs/089a.jpg","86","","","","","","learn","SL",""
"","show_choice","191","206662","0.0-191.0","""event"",""trial"",""time""
""fullscreenenter"",""0"",""2359""
","
","
","""event"",""trial"",""time""
""fullscreenenter"",""0"",""2359""
","
","null","run_exp/static/images/Set 6_rs/089a.jpg","null","","","","","","learn","SL",""
"","html-keyboard-response","192","207177","0.0-192.0","""event"",""trial"",""time""
""fullscreenenter"",""0"",""2359""
","
","
","""event"",""trial"",""time""
""fullscreenenter"",""0"",""2359""
","
","null","<p></p>","null","","","","","","","",""
"","image","193","208026","0.0-193.0","""event"",""trial"",""time""
""fullscreenenter"",""0"",""2359""
","
","
","""event"",""trial"",""time""
""fullscreenenter"",""0"",""2359""
","
","847.5","run_exp/static/images/Set 6_rs/108a.jpg","78","","","","","","learn","SR",""
"","show_choice","194","209183","0.0-194.0","""event"",""trial"",""time""
""fullscreenenter"",""0"",""2359""
","
","
","""event"",""trial"",""time""
""fullscreenenter"",""0"",""2359""
","
","null","run_exp/static/images/Set 6_rs/108a.jpg","null","","","","","","learn","SR",""
"","html-keyboard-response","195","209698","0.0-195.0","""event"",""trial"",""time""
""fullscreenenter"",""0"",""2359""
","
","
","""event"",""trial"",""time""
""fullscreenenter"",""0"",""2359""
","
","null","<p></p>","null","","","","","","","",""
"","test_intro","196","246830","0.0-196.0","""event"",""trial"",""time""
""fullscreenenter"",""0"",""2359""
","
","
","""event"",""trial"",""time""
""fullscreenenter"",""0"",""2359""
","
","null","run_exp/static/audio/clip_2_memory.m4a","null","","","","","<div class='center'><p>Now, lets see how much you remember about the items you just saw.  For each item, you need to indicate if it was <b>old</b> by pressing the <b>v</b> key, <b>similar</b> by pressing the <b>b</b> key, or <b>new</b> by pressing the <b>n</b> key.</p><p>Old refers to an item that you saw before in the indoor/outdoor game that you just played, new refers to an item you have <b>not</b> seen before within the indoor/outdoor game, and similar refers to an item that is similar to an item youve seen before but is not exactly the same. </p><p>Before we begin, lets go over some brief demonstrations to make sure you understand.</p></div>","","",""
"","html-keyboard-response","197","251239","0.0-197.0","""event"",""trial"",""time""
""fullscreenenter"",""0"",""2359""
","
","
","""event"",""trial"",""time""
""fullscreenenter"",""0"",""2359""
","
","4408.600000023842","<div class='center'><p>Now, lets see how much you remember about the items you just saw.  For each item, you need to indicate if it was <b>old</b> by pressing the <b>v</b> key, <b>similar</b> by pressing the <b>b</b> key, or <b>new</b> by pressing the <b>n</b> key.</p><p>Old refers to an item that you saw before in the indoor/outdoor game that you just played, new refers to an item you have <b>not</b> seen before within the indoor/outdoor game, and similar refers to an item that is similar to an item youve seen before but is not exactly the same. </p><p>Before we begin, lets go over some brief demonstrations to make sure you understand.</p><div><p><b>[Press the space bar to continue]</b></p></div>","32","","","","","","","",""
"","items","198","258745","0.0-198.0","""event"",""trial"",""time""
""fullscreenenter"",""0"",""2359""
","
","
","""event"",""trial"",""time""
""fullscreenenter"",""0"",""2359""
","
","null","run_exp/static/audio/clip_3_items.m4a","null","","","","","","","",""
"","mop","199","263254","0.0-199.0","""event"",""trial"",""time""
""fullscreenenter"",""0"",""2359""
","
","
","""event"",""trial"",""time""
""fullscreenenter"",""0"",""2359""
","
","null","run_exp/static/audio/clip_4_mop.m4a","null","","","","","","","",""
"","baseball","200","266760","0.0-200.0","""event"",""trial"",""time""
""fullscreenenter"",""0"",""2359""
","
","
","""event"",""trial"",""time""
""fullscreenenter"",""0"",""2359""
","
","null","run_exp/static/audio/clip_5_baseball.m4a","null","","","","","","","",""
"","trumpet","201","270270","0.0-201.0","""event"",""trial"",""time""
""fullscreenenter"",""0"",""2359""
","
","
","""event"",""trial"",""time""
""fullscreenenter"",""0"",""2359""
","
","null","run_exp/static/audio/clip_6_trumpet.m4a","null","","","","","","","",""
"","gummies","202","273781","0.0-202.0","""event"",""trial"",""time""
""fullscreenenter"",""0"",""2359""
","
","
","""event"",""trial"",""time""
""fullscreenenter"",""0"",""2359""
","
","null","run_exp/static/audio/clip_7_gummies.m4a","null","","","","","","","",""
"","osn","203","278287","0.0-203.0","""event"",""trial"",""time""
""fullscreenenter"",""0"",""2359""
","
","
","""event"",""trial"",""time""
""fullscreenenter"",""0"",""2359""
","
","null","run_exp/static/audio/clip_8_osn.m4a","null","","","","","","","",""
"","old_1","204","284792","0.0-204.0","""event"",""trial"",""time""
""fullscreenenter"",""0"",""2359""
","
","
","""event"",""trial"",""time""
""fullscreenenter"",""0"",""2359""
","
","null","run_exp/static/audio/clip_9_old_trumpet.m4a","null","","","","","","","",""
"","new_1","205","292308","0.0-205.0","""event"",""trial"",""time""
""fullscreenenter"",""0"",""2359""
","
","
","""event"",""trial"",""time""
""fullscreenenter"",""0"",""2359""
","
","null","run_exp/static/audio/clip_10_new_balloon.m4a","null","","","","","","","",""
"","similar_1a","206","296821","0.0-206.0","""event"",""trial"",""time""
""fullscreenenter"",""0"",""2359""
","
","
","""event"",""trial"",""time""
""fullscreenenter"",""0"",""2359""
","
","null","run_exp/static/audio/clip_11a_similar_mop.m4a","null","","","","","","","",""
"","similar_1b","207","303336","0.0-207.0","""event"",""trial"",""time""
""fullscreenenter"",""0"",""2359""
","
","
","""event"",""trial"",""time""
""fullscreenenter"",""0"",""2359""
","
","null","run_exp/static/audio/clip_11b_similar_mop.m4a","null","","","","","","","",""
"","new_2","208","306841","0.0-208.0","""event"",""trial"",""time""
""fullscreenenter"",""0"",""2359""
","
","
","""event"",""trial"",""time""
""fullscreenenter"",""0"",""2359""
","
","null","run_exp/static/audio/clip_12_new_stoplight.m4a","null","","","","","","","",""
"","old_2","209","310349","0.0-209.0","""event"",""trial"",""time""
""fullscreenenter"",""0"",""2359""
","
","
","""event"",""trial"",""time""
""fullscreenenter"",""0"",""2359""
","
","null","run_exp/static/audio/clip_13_old_baseball.m4a","null","","","","","","","",""
"","similar_2a","210","313853","0.0-210.0","""event"",""trial"",""time""
""fullscreenenter"",""0"",""2359""
","
","
","""event"",""trial"",""time""
""fullscreenenter"",""0"",""2359""
","
","null","run_exp/static/audio/clip_14a_similar_gummies.m4a","null","","","","","","","",""
"","similar_2b","211","321366","0.0-211.0","""event"",""trial"",""time""
""fullscreenenter"",""0"",""2359""
","
","
","""event"",""trial"",""time""
""fullscreenenter"",""0"",""2359""
","
","null","run_exp/static/audio/clip_14b_similar_gummies.m4a","null","","","","","","","",""
"","practice","212","363488","0.0-212.0","""event"",""trial"",""time""
""fullscreenenter"",""0"",""2359""
","
","
","""event"",""trial"",""time""
""fullscreenenter"",""0"",""2359""
","
","null","run_exp/static/audio/clip_15_practice.m4a","null","","","","","<div class='center'><p>Lets practice a little to make sure you understand the difference between new, similar, and old. Lets say you saw these three items in the indoor/outdoor game.</p><p> Try your best to remember these images because youll soon be tested on them in a practice game. In the practice game, youll be shown images and youll have to say if they are old (one of the three images belows), similar (similar to one of the images below but not exactly the same), or new (are not one of the images below nor similar to them).</p><p>Once you press the space bar youll be shown these images again but one at time. Then youll begin the practice game.</p><p><img src='run_exp/static/images/tutorial/test/three_indoor_outdoor.png' height='300'></p></div>","","",""
"","html-keyboard-response","213","363964","0.0-213.0","""event"",""trial"",""time""
""fullscreenenter"",""0"",""2359""
","
","
","""event"",""trial"",""time""
""fullscreenenter"",""0"",""2359""
","
","474.10000002384186","<div class='center'><p>Lets practice a little to make sure you understand the difference between new, similar, and old. Lets say you saw these three items in the indoor/outdoor game.</p><p> Try your best to remember these images because youll soon be tested on them in a practice game. In the practice game, youll be shown images and youll have to say if they are old (one of the three images belows), similar (similar to one of the images below but not exactly the same), or new (are not one of the images below nor similar to them).</p><p>Once you press the space bar youll be shown these images again but one at time. Then youll begin the practice game.</p><p><img src='run_exp/static/images/tutorial/test/three_indoor_outdoor.png' height='300'></p><div><p><b>[Press the space bar to continue]</b></p></div>","32","","","","","","","",""
"","planet","214","365979","0.0-214.0","""event"",""trial"",""time""
""fullscreenenter"",""0"",""2359""
","
","
","""event"",""trial"",""time""
""fullscreenenter"",""0"",""2359""
","
","null","run_exp/static/images/tutorial/test/008a.jpg","null","","","","","","","",""
"","boot","215","367980","0.0-215.0","""event"",""trial"",""time""
""fullscreenenter"",""0"",""2359""
","
","
","""event"",""trial"",""time""
""fullscreenenter"",""0"",""2359""
","
","null","run_exp/static/images/tutorial/test/011a.jpg","null","","","","","","","",""
"","lemon","216","369995","0.0-216.0","""event"",""trial"",""time""
""fullscreenenter"",""0"",""2359""
","
","
","""event"",""trial"",""time""
""fullscreenenter"",""0"",""2359""
","
","null","run_exp/static/images/tutorial/test/018a.jpg","null","","","","","","","",""
"","practice_q1","217","375866","0.0-217.0","""event"",""trial"",""time""
""fullscreenenter"",""0"",""2359""
","
","
","""event"",""trial"",""time""
""fullscreenenter"",""0"",""2359""
","
","5869.300000071526","run_exp/static/audio/clip_16_practice_question.m4a","78","","","","","","","",""
"","correct","218","377766","0.0-218.0-0.0","""event"",""trial"",""time""
""fullscreenenter"",""0"",""2359""
","
","
","""event"",""trial"",""time""
""fullscreenenter"",""0"",""2359""
","
","null","run_exp/static/audio/clip_17_correct.m4a","null","","","","","<div class='center'><p>That's correct!</p></div>","","",""
"","html-keyboard-response","219","378462","0.0-218.0-1.0","""event"",""trial"",""time""
""fullscreenenter"",""0"",""2359""
","
","
","""event"",""trial"",""time""
""fullscreenenter"",""0"",""2359""
","
","694.8999999761581","<div class='center'><p>That's correct!</p><div><p><b>[Press the space bar to continue]</b></p></div>","32","","","","","","","",""
"","practice_q2","220","380395","0.0-218.0-2.0","""event"",""trial"",""time""
""fullscreenenter"",""0"",""2359""
","
","
","""event"",""trial"",""time""
""fullscreenenter"",""0"",""2359""
","
","1932","run_exp/static/audio/clip_16_practice_question.m4a","86","","","","","","","",""
"","correct","221","382285","0.0-219.0-0.0","""event"",""trial"",""time""
""fullscreenenter"",""0"",""2359""
","
","
","""event"",""trial"",""time""
""fullscreenenter"",""0"",""2359""
","
","null","run_exp/static/audio/clip_17_correct.m4a","null","","","","","<div class='center'><p>That's correct!</p></div>","","",""
"","html-keyboard-response","222","382898","0.0-219.0-1.0","""event"",""trial"",""time""
""fullscreenenter"",""0"",""2359""
","
","
","""event"",""trial"",""time""
""fullscreenenter"",""0"",""2359""
","
","611.8999999761581","<div class='center'><p>That's correct!</p><div><p><b>[Press the space bar to continue]</b></p></div>","32","","","","","","","",""
"","practice_q3","223","384050","0.0-219.0-2.0","""event"",""trial"",""time""
""fullscreenenter"",""0"",""2359""
","
","
","""event"",""trial"",""time""
""fullscreenenter"",""0"",""2359""
","
","1150.1000000238419","run_exp/static/audio/clip_16_practice_question.m4a","66","","","","","","","",""
"","correct","224","386025","0.0-220.0-0.0","""event"",""trial"",""time""
""fullscreenenter"",""0"",""2359""
","
","
","""event"",""trial"",""time""
""fullscreenenter"",""0"",""2359""
","
","null","run_exp/static/audio/clip_17_correct.m4a","null","","","","","<div class='center'><p>That's correct!</p></div>","","",""
"","html-keyboard-response","225","386583","0.0-220.0-1.0","""event"",""trial"",""time""
""fullscreenenter"",""0"",""2359""
""blur"",""226"",""399143""
""focus"",""226"",""400330""
","""event"",""trial"",""time""
""blur"",""226"",""399143""
","""event"",""trial"",""time""
""focus"",""226"",""400330""
","""event"",""trial"",""time""
""fullscreenenter"",""0"",""2359""
","
","556.8999999761581","<div class='center'><p>That's correct!</p><div><p><b>[Press the space bar to continue]</b></p></div>","32","","","","","","","",""
"","begin_text","226","405065","0.0-221.0-0.0","""event"",""trial"",""time""
""fullscreenenter"",""0"",""2359""
""blur"",""226"",""399143""
""focus"",""226"",""400330""
","""event"",""trial"",""time""
""blur"",""226"",""399143""
","""event"",""trial"",""time""
""focus"",""226"",""400330""
","""event"",""trial"",""time""
""fullscreenenter"",""0"",""2359""
","
","null","run_exp/static/audio/clip_22_begin_test.m4a","null","","","","","<div class='center'><p>On to the real game where well test your memory of items from the indoor/outdoor game. For each item, you need to indicate if the item is <b>old</b> by pressing the <b>v</b> key, <b>similar</b> by pressing the <b>b</b> key, or <b>new</b> by pressing the <b>n</b> key. </p></div>","","",""
"","html-keyboard-response","227","405641","0.0-221.0-1.0","""event"",""trial"",""time""
""fullscreenenter"",""0"",""2359""
""blur"",""226"",""399143""
""focus"",""226"",""400330""
","""event"",""trial"",""time""
""blur"",""226"",""399143""
","""event"",""trial"",""time""
""focus"",""226"",""400330""
","""event"",""trial"",""time""
""fullscreenenter"",""0"",""2359""
","
","565.7999999523163","<div class='center'><p>On to the real game where well test your memory of items from the indoor/outdoor game. For each item, you need to indicate if the item is <b>old</b> by pressing the <b>v</b> key, <b>similar</b> by pressing the <b>b</b> key, or <b>new</b> by pressing the <b>n</b> key. </p><div><p><b>[Press the space bar to continue]</b></p></div>","32","","","","","","","",""
"","image","228","407021","0.0-222.0-0.0","""event"",""trial"",""time""
""fullscreenenter"",""0"",""2359""
""blur"",""226"",""399143""
""focus"",""226"",""400330""
","""event"",""trial"",""time""
""blur"",""226"",""399143""
","""event"",""trial"",""time""
""focus"",""226"",""400330""
","""event"",""trial"",""time""
""fullscreenenter"",""0"",""2359""
","
","1380","run_exp/static/images/Set 6_rs/154a.jpg","78","","","","","","test","TR","3"
"","show_choice","229","407528","0.0-222.0-1.0","""event"",""trial"",""time""
""fullscreenenter"",""0"",""2359""
""blur"",""226"",""399143""
""focus"",""226"",""400330""
","""event"",""trial"",""time""
""blur"",""226"",""399143""
","""event"",""trial"",""time""
""focus"",""226"",""400330""
","""event"",""trial"",""time""
""fullscreenenter"",""0"",""2359""
","
","null","run_exp/static/images/Set 6_rs/154a.jpg","null","","","","","","test","TR",""
"","html-keyboard-response","230","408040","0.0-222.0-2.0","""event"",""trial"",""time""
""fullscreenenter"",""0"",""2359""
""blur"",""226"",""399143""
""focus"",""226"",""400330""
","""event"",""trial"",""time""
""blur"",""226"",""399143""
","""event"",""trial"",""time""
""focus"",""226"",""400330""
","""event"",""trial"",""time""
""fullscreenenter"",""0"",""2359""
","
","null","<p></p>","null","","","","","","","",""
"","image","231","409865","0.0-223.0-0.0","""event"",""trial"",""time""
""fullscreenenter"",""0"",""2359""
""blur"",""226"",""399143""
""focus"",""226"",""400330""
","""event"",""trial"",""time""
""blur"",""226"",""399143""
","""event"",""trial"",""time""
""focus"",""226"",""400330""
","""event"",""trial"",""time""
""fullscreenenter"",""0"",""2359""
","
","1823.3999999761581","run_exp/static/images/Set 6_rs/088a.jpg","86","","","","","","test","TR","2"
"","show_choice","232","410375","0.0-223.0-1.0","""event"",""trial"",""time""
""fullscreenenter"",""0"",""2359""
""blur"",""226"",""399143""
""focus"",""226"",""400330""
","""event"",""trial"",""time""
""blur"",""226"",""399143""
","""event"",""trial"",""time""
""focus"",""226"",""400330""
","""event"",""trial"",""time""
""fullscreenenter"",""0"",""2359""
","
","null","run_exp/static/images/Set 6_rs/088a.jpg","null","","","","","","test","TR",""
"","html-keyboard-response","233","410889","0.0-223.0-2.0","""event"",""trial"",""time""
""fullscreenenter"",""0"",""2359""
""blur"",""226"",""399143""
""focus"",""226"",""400330""
","""event"",""trial"",""time""
""blur"",""226"",""399143""
","""event"",""trial"",""time""
""focus"",""226"",""400330""
","""event"",""trial"",""time""
""fullscreenenter"",""0"",""2359""
","
","null","<p></p>","null","","","","","","","",""
"","image","234","412164","0.0-224.0-0.0","""event"",""trial"",""time""
""fullscreenenter"",""0"",""2359""
""blur"",""226"",""399143""
""focus"",""226"",""400330""
","""event"",""trial"",""time""
""blur"",""226"",""399143""
","""event"",""trial"",""time""
""focus"",""226"",""400330""
","""event"",""trial"",""time""
""fullscreenenter"",""0"",""2359""
","
","1273.6000000238419","run_exp/static/images/Set 6_rs/055b.jpg","86","","","","","","test","TL","4"
"","show_choice","235","412678","0.0-224.0-1.0","""event"",""trial"",""time""
""fullscreenenter"",""0"",""2359""
""blur"",""226"",""399143""
""focus"",""226"",""400330""
","""event"",""trial"",""time""
""blur"",""226"",""399143""
","""event"",""trial"",""time""
""focus"",""226"",""400330""
","""event"",""trial"",""time""
""fullscreenenter"",""0"",""2359""
","
","null","run_exp/static/images/Set 6_rs/055b.jpg","null","","","","","","test","TL",""
"","html-keyboard-response","236","413191","0.0-224.0-2.0","""event"",""trial"",""time""
""fullscreenenter"",""0"",""2359""
""blur"",""226"",""399143""
""focus"",""226"",""400330""
","""event"",""trial"",""time""
""blur"",""226"",""399143""
","""event"",""trial"",""time""
""focus"",""226"",""400330""
","""event"",""trial"",""time""
""fullscreenenter"",""0"",""2359""
","
","null","<p></p>","null","","","","","","","",""
"","image","237","414280","0.0-225.0-0.0","""event"",""trial"",""time""
""fullscreenenter"",""0"",""2359""
""blur"",""226"",""399143""
""focus"",""226"",""400330""
","""event"",""trial"",""time""
""blur"",""226"",""399143""
","""event"",""trial"",""time""
""focus"",""226"",""400330""
","""event"",""trial"",""time""
""fullscreenenter"",""0"",""2359""
","
","1087.5","run_exp/static/images/Set 6_rs/086a.jpg","78","","","","","","test","TF","1"
"","show_choice","238","414789","0.0-225.0-1.0","""event"",""trial"",""time""
""fullscreenenter"",""0"",""2359""
""blur"",""226"",""399143""
""focus"",""226"",""400330""
","""event"",""trial"",""time""
""blur"",""226"",""399143""
","""event"",""trial"",""time""
""focus"",""226"",""400330""
","""event"",""trial"",""time""
""fullscreenenter"",""0"",""2359""
","
","null","run_exp/static/images/Set 6_rs/086a.jpg","null","","","","","","test","TF",""
"","html-keyboard-response","239","415300","0.0-225.0-2.0","""event"",""trial"",""time""
""fullscreenenter"",""0"",""2359""
""blur"",""226"",""399143""
""focus"",""226"",""400330""
","""event"",""trial"",""time""
""blur"",""226"",""399143""
","""event"",""trial"",""time""
""focus"",""226"",""400330""
","""event"",""trial"",""time""
""fullscreenenter"",""0"",""2359""
","
","null","<p></p>","null","","","","","","","",""
"","image","240","416596","0.0-226.0-0.0","""event"",""trial"",""time""
""fullscreenenter"",""0"",""2359""
""blur"",""226"",""399143""
""focus"",""226"",""400330""
","""event"",""trial"",""time""
""blur"",""226"",""399143""
","""event"",""trial"",""time""
""focus"",""226"",""400330""
","""event"",""trial"",""time""
""fullscreenenter"",""0"",""2359""
","
","1295.2000000476837","run_exp/static/images/Set 6_rs/028a.jpg","78","","","","","","test","TF","1"
"","show_choice","241","417099","0.0-226.0-1.0","""event"",""trial"",""time""
""fullscreenenter"",""0"",""2359""
""blur"",""226"",""399143""
""focus"",""226"",""400330""
","""event"",""trial"",""time""
""blur"",""226"",""399143""
","""event"",""trial"",""time""
""focus"",""226"",""400330""
","""event"",""trial"",""time""
""fullscreenenter"",""0"",""2359""
","
","null","run_exp/static/images/Set 6_rs/028a.jpg","null","","","","","","test","TF",""
"","html-keyboard-response","242","417611","0.0-226.0-2.0","""event"",""trial"",""time""
""fullscreenenter"",""0"",""2359""
""blur"",""226"",""399143""
""focus"",""226"",""400330""
","""event"",""trial"",""time""
""blur"",""226"",""399143""
","""event"",""trial"",""time""
""focus"",""226"",""400330""
","""event"",""trial"",""time""
""fullscreenenter"",""0"",""2359""
","
","null","<p></p>","null","","","","","","","",""
"","image","243","419225","0.0-227.0-0.0","""event"",""trial"",""time""
""fullscreenenter"",""0"",""2359""
""blur"",""226"",""399143""
""focus"",""226"",""400330""
","""event"",""trial"",""time""
""blur"",""226"",""399143""
","""event"",""trial"",""time""
""focus"",""226"",""400330""
","""event"",""trial"",""time""
""fullscreenenter"",""0"",""2359""
","
","1612.2000000476837","run_exp/static/images/Set 6_rs/010a.jpg","86","","","","","","test","TR","5"
"","show_choice","244","419727","0.0-227.0-1.0","""event"",""trial"",""time""
""fullscreenenter"",""0"",""2359""
""blur"",""226"",""399143""
""focus"",""226"",""400330""
","""event"",""trial"",""time""
""blur"",""226"",""399143""
","""event"",""trial"",""time""
""focus"",""226"",""400330""
","""event"",""trial"",""time""
""fullscreenenter"",""0"",""2359""
","
","null","run_exp/static/images/Set 6_rs/010a.jpg","null","","","","","","test","TR",""
"","html-keyboard-response","245","420240","0.0-227.0-2.0","""event"",""trial"",""time""
""fullscreenenter"",""0"",""2359""
""blur"",""226"",""399143""
""focus"",""226"",""400330""
","""event"",""trial"",""time""
""blur"",""226"",""399143""
","""event"",""trial"",""time""
""focus"",""226"",""400330""
","""event"",""trial"",""time""
""fullscreenenter"",""0"",""2359""
","
","null","<p></p>","null","","","","","","","",""
"","image","246","421653","0.0-228.0-0.0","""event"",""trial"",""time""
""fullscreenenter"",""0"",""2359""
""blur"",""226"",""399143""
""focus"",""226"",""400330""
","""event"",""trial"",""time""
""blur"",""226"",""399143""
","""event"",""trial"",""time""
""focus"",""226"",""400330""
","""event"",""trial"",""time""
""fullscreenenter"",""0"",""2359""
","
","1411.8999999761581","run_exp/static/images/Set 6_rs/035a.jpg","78","","","","","","test","TF","4"
"","show_choice","247","422164","0.0-228.0-1.0","""event"",""trial"",""time""
""fullscreenenter"",""0"",""2359""
""blur"",""226"",""399143""
""focus"",""226"",""400330""
","""event"",""trial"",""time""
""blur"",""226"",""399143""
","""event"",""trial"",""time""
""focus"",""226"",""400330""
","""event"",""trial"",""time""
""fullscreenenter"",""0"",""2359""
","
","null","run_exp/static/images/Set 6_rs/035a.jpg","null","","","","","","test","TF",""
"","html-keyboard-response","248","422678","0.0-228.0-2.0","""event"",""trial"",""time""
""fullscreenenter"",""0"",""2359""
""blur"",""226"",""399143""
""focus"",""226"",""400330""
","""event"",""trial"",""time""
""blur"",""226"",""399143""
","""event"",""trial"",""time""
""focus"",""226"",""400330""
","""event"",""trial"",""time""
""fullscreenenter"",""0"",""2359""
","
","null","<p></p>","null","","","","","","","",""
"","image","249","424052","0.0-229.0-0.0","""event"",""trial"",""time""
""fullscreenenter"",""0"",""2359""
""blur"",""226"",""399143""
""focus"",""226"",""400330""
","""event"",""trial"",""time""
""blur"",""226"",""399143""
","""event"",""trial"",""time""
""focus"",""226"",""400330""
","""event"",""trial"",""time""
""fullscreenenter"",""0"",""2359""
","
","1373.1999999284744","run_exp/static/images/Set 6_rs/168b.jpg","66","","","","","","test","TL","3"
"","show_choice","250","424555","0.0-229.0-1.0","""event"",""trial"",""time""
""fullscreenenter"",""0"",""2359""
""blur"",""226"",""399143""
""focus"",""226"",""400330""
","""event"",""trial"",""time""
""blur"",""226"",""399143""
","""event"",""trial"",""time""
""focus"",""226"",""400330""
","""event"",""trial"",""time""
""fullscreenenter"",""0"",""2359""
","
","null","run_exp/static/images/Set 6_rs/168b.jpg","null","","","","","","test","TL",""
"","html-keyboard-response","251","425070","0.0-229.0-2.0","""event"",""trial"",""time""
""fullscreenenter"",""0"",""2359""
""blur"",""226"",""399143""
""focus"",""226"",""400330""
","""event"",""trial"",""time""
""blur"",""226"",""399143""
","""event"",""trial"",""time""
""focus"",""226"",""400330""
","""event"",""trial"",""time""
""fullscreenenter"",""0"",""2359""
","
","null","<p></p>","null","","","","","","","",""
"","image","252","426210","0.0-230.0-0.0","""event"",""trial"",""time""
""fullscreenenter"",""0"",""2359""
""blur"",""226"",""399143""
""focus"",""226"",""400330""
","""event"",""trial"",""time""
""blur"",""226"",""399143""
","""event"",""trial"",""time""
""focus"",""226"",""400330""
","""event"",""trial"",""time""
""fullscreenenter"",""0"",""2359""
","
","1138.7999999523163","run_exp/static/images/Set 6_rs/108a.jpg","86","","","","","","test","TR","5"
"","show_choice","253","426714","0.0-230.0-1.0","""event"",""trial"",""time""
""fullscreenenter"",""0"",""2359""
""blur"",""226"",""399143""
""focus"",""226"",""400330""
","""event"",""trial"",""time""
""blur"",""226"",""399143""
","""event"",""trial"",""time""
""focus"",""226"",""400330""
","""event"",""trial"",""time""
""fullscreenenter"",""0"",""2359""
","
","null","run_exp/static/images/Set 6_rs/108a.jpg","null","","","","","","test","TR",""
"","html-keyboard-response","254","427227","0.0-230.0-2.0","""event"",""trial"",""time""
""fullscreenenter"",""0"",""2359""
""blur"",""226"",""399143""
""focus"",""226"",""400330""
","""event"",""trial"",""time""
""blur"",""226"",""399143""
","""event"",""trial"",""time""
""focus"",""226"",""400330""
","""event"",""trial"",""time""
""fullscreenenter"",""0"",""2359""
","
","null","<p></p>","null","","","","","","","",""
"","image","255","428312","0.0-231.0-0.0","""event"",""trial"",""time""
""fullscreenenter"",""0"",""2359""
""blur"",""226"",""399143""
""focus"",""226"",""400330""
","""event"",""trial"",""time""
""blur"",""226"",""399143""
","""event"",""trial"",""time""
""focus"",""226"",""400330""
","""event"",""trial"",""time""
""fullscreenenter"",""0"",""2359""
","
","1087.1000000238419","run_exp/static/images/Set 6_rs/121a.jpg","86","","","","","","test","TR","4"
"","show_choice","256","428823","0.0-231.0-1.0","""event"",""trial"",""time""
""fullscreenenter"",""0"",""2359""
""blur"",""226"",""399143""
""focus"",""226"",""400330""
","""event"",""trial"",""time""
""blur"",""226"",""399143""
","""event"",""trial"",""time""
""focus"",""226"",""400330""
","""event"",""trial"",""time""
""fullscreenenter"",""0"",""2359""
","
","null","run_exp/static/images/Set 6_rs/121a.jpg","null","","","","","","test","TR",""
"","html-keyboard-response","257","429336","0.0-231.0-2.0","""event"",""trial"",""time""
""fullscreenenter"",""0"",""2359""
""blur"",""226"",""399143""
""focus"",""226"",""400330""
","""event"",""trial"",""time""
""blur"",""226"",""399143""
","""event"",""trial"",""time""
""focus"",""226"",""400330""
","""event"",""trial"",""time""
""fullscreenenter"",""0"",""2359""
","
","null","<p></p>","null","","","","","","","",""
"","image","258","430495","0.0-232.0-0.0","""event"",""trial"",""time""
""fullscreenenter"",""0"",""2359""
""blur"",""226"",""399143""
""focus"",""226"",""400330""
","""event"",""trial"",""time""
""blur"",""226"",""399143""
","""event"",""trial"",""time""
""focus"",""226"",""400330""
","""event"",""trial"",""time""
""fullscreenenter"",""0"",""2359""
","
","1157","run_exp/static/images/Set 6_rs/016b.jpg","66","","","","","","test","TL","1"
"","show_choice","259","431002","0.0-232.0-1.0","""event"",""trial"",""time""
""fullscreenenter"",""0"",""2359""
""blur"",""226"",""399143""
""focus"",""226"",""400330""
","""event"",""trial"",""time""
""blur"",""226"",""399143""
","""event"",""trial"",""time""
""focus"",""226"",""400330""
","""event"",""trial"",""time""
""fullscreenenter"",""0"",""2359""
","
","null","run_exp/static/images/Set 6_rs/016b.jpg","null","","","","","","test","TL",""
"","html-keyboard-response","260","431513","0.0-232.0-2.0","""event"",""trial"",""time""
""fullscreenenter"",""0"",""2359""
""blur"",""226"",""399143""
""focus"",""226"",""400330""
","""event"",""trial"",""time""
""blur"",""226"",""399143""
","""event"",""trial"",""time""
""focus"",""226"",""400330""
","""event"",""trial"",""time""
""fullscreenenter"",""0"",""2359""
","
","null","<p></p>","null","","","","","","","",""
"","image","261","433115","0.0-233.0-0.0","""event"",""trial"",""time""
""fullscreenenter"",""0"",""2359""
""blur"",""226"",""399143""
""focus"",""226"",""400330""
","""event"",""trial"",""time""
""blur"",""226"",""399143""
","""event"",""trial"",""time""
""focus"",""226"",""400330""
","""event"",""trial"",""time""
""fullscreenenter"",""0"",""2359""
","
","1600.3000000715256","run_exp/static/images/Set 6_rs/166a.jpg","86","","","","","","test","TR","1"
"","show_choice","262","433629","0.0-233.0-1.0","""event"",""trial"",""time""
""fullscreenenter"",""0"",""2359""
""blur"",""226"",""399143""
""focus"",""226"",""400330""
","""event"",""trial"",""time""
""blur"",""226"",""399143""
","""event"",""trial"",""time""
""focus"",""226"",""400330""
","""event"",""trial"",""time""
""fullscreenenter"",""0"",""2359""
","
","null","run_exp/static/images/Set 6_rs/166a.jpg","null","","","","","","test","TR",""
"","html-keyboard-response","263","434140","0.0-233.0-2.0","""event"",""trial"",""time""
""fullscreenenter"",""0"",""2359""
""blur"",""226"",""399143""
""focus"",""226"",""400330""
","""event"",""trial"",""time""
""blur"",""226"",""399143""
","""event"",""trial"",""time""
""focus"",""226"",""400330""
","""event"",""trial"",""time""
""fullscreenenter"",""0"",""2359""
","
","null","<p></p>","null","","","","","","","",""
"","image","264","435283","0.0-234.0-0.0","""event"",""trial"",""time""
""fullscreenenter"",""0"",""2359""
""blur"",""226"",""399143""
""focus"",""226"",""400330""
","""event"",""trial"",""time""
""blur"",""226"",""399143""
","""event"",""trial"",""time""
""focus"",""226"",""400330""
","""event"",""trial"",""time""
""fullscreenenter"",""0"",""2359""
","
","1141.2000000476837","run_exp/static/images/Set 6_rs/022a.jpg","78","","","","","","test","TF","4"
"","show_choice","265","435786","0.0-234.0-1.0","""event"",""trial"",""time""
""fullscreenenter"",""0"",""2359""
""blur"",""226"",""399143""
""focus"",""226"",""400330""
","""event"",""trial"",""time""
""blur"",""226"",""399143""
","""event"",""trial"",""time""
""focus"",""226"",""400330""
","""event"",""trial"",""time""
""fullscreenenter"",""0"",""2359""
","
","null","run_exp/static/images/Set 6_rs/022a.jpg","null","","","","","","test","TF",""
"","html-keyboard-response","266","436299","0.0-234.0-2.0","""event"",""trial"",""time""
""fullscreenenter"",""0"",""2359""
""blur"",""226"",""399143""
""focus"",""226"",""400330""
","""event"",""trial"",""time""
""blur"",""226"",""399143""
","""event"",""trial"",""time""
""focus"",""226"",""400330""
","""event"",""trial"",""time""
""fullscreenenter"",""0"",""2359""
","
","null","<p></p>","null","","","","","","","",""
"","image","267","437477","0.0-235.0-0.0","""event"",""trial"",""time""
""fullscreenenter"",""0"",""2359""
""blur"",""226"",""399143""
""focus"",""226"",""400330""
","""event"",""trial"",""time""
""blur"",""226"",""399143""
","""event"",""trial"",""time""
""focus"",""226"",""400330""
","""event"",""trial"",""time""
""fullscreenenter"",""0"",""2359""
","
","1176.7000000476837","run_exp/static/images/Set 6_rs/006b.jpg","66","","","","","","test","TL","2"
"","show_choice","268","437989","0.0-235.0-1.0","""event"",""trial"",""time""
""fullscreenenter"",""0"",""2359""
""blur"",""226"",""399143""
""focus"",""226"",""400330""
","""event"",""trial"",""time""
""blur"",""226"",""399143""
","""event"",""trial"",""time""
""focus"",""226"",""400330""
","""event"",""trial"",""time""
""fullscreenenter"",""0"",""2359""
","
","null","run_exp/static/images/Set 6_rs/006b.jpg","null","","","","","","test","TL",""
"","html-keyboard-response","269","438498","0.0-235.0-2.0","""event"",""trial"",""time""
""fullscreenenter"",""0"",""2359""
""blur"",""226"",""399143""
""focus"",""226"",""400330""
","""event"",""trial"",""time""
""blur"",""226"",""399143""
","""event"",""trial"",""time""
""focus"",""226"",""400330""
","""event"",""trial"",""time""
""fullscreenenter"",""0"",""2359""
","
","null","<p></p>","null","","","","","","","",""
"","image","270","440097","0.0-236.0-0.0","""event"",""trial"",""time""
""fullscreenenter"",""0"",""2359""
""blur"",""226"",""399143""
""focus"",""226"",""400330""
","""event"",""trial"",""time""
""blur"",""226"",""399143""
","""event"",""trial"",""time""
""focus"",""226"",""400330""
","""event"",""trial"",""time""
""fullscreenenter"",""0"",""2359""
","
","1597.8999999761581","run_exp/static/images/Set 6_rs/090a.jpg","66","","","","","","test","TF","5"
"","show_choice","271","440603","0.0-236.0-1.0","""event"",""trial"",""time""
""fullscreenenter"",""0"",""2359""
""blur"",""226"",""399143""
""focus"",""226"",""400330""
","""event"",""trial"",""time""
""blur"",""226"",""399143""
","""event"",""trial"",""time""
""focus"",""226"",""400330""
","""event"",""trial"",""time""
""fullscreenenter"",""0"",""2359""
","
","null","run_exp/static/images/Set 6_rs/090a.jpg","null","","","","","","test","TF",""
"","html-keyboard-response","272","441114","0.0-236.0-2.0","""event"",""trial"",""time""
""fullscreenenter"",""0"",""2359""
""blur"",""226"",""399143""
""focus"",""226"",""400330""
","""event"",""trial"",""time""
""blur"",""226"",""399143""
","""event"",""trial"",""time""
""focus"",""226"",""400330""
","""event"",""trial"",""time""
""fullscreenenter"",""0"",""2359""
","
","null","<p></p>","null","","","","","","","",""
"","image","273","442376","0.0-237.0-0.0","""event"",""trial"",""time""
""fullscreenenter"",""0"",""2359""
""blur"",""226"",""399143""
""focus"",""226"",""400330""
","""event"",""trial"",""time""
""blur"",""226"",""399143""
","""event"",""trial"",""time""
""focus"",""226"",""400330""
","""event"",""trial"",""time""
""fullscreenenter"",""0"",""2359""
","
","1259.9000000953674","run_exp/static/images/Set 6_rs/052a.jpg","78","","","","","","test","TF","1"
"","show_choice","274","442887","0.0-237.0-1.0","""event"",""trial"",""time""
""fullscreenenter"",""0"",""2359""
""blur"",""226"",""399143""
""focus"",""226"",""400330""
","""event"",""trial"",""time""
""blur"",""226"",""399143""
","""event"",""trial"",""time""
""focus"",""226"",""400330""
","""event"",""trial"",""time""
""fullscreenenter"",""0"",""2359""
","
","null","run_exp/static/images/Set 6_rs/052a.jpg","null","","","","","","test","TF",""
"","html-keyboard-response","275","443401","0.0-237.0-2.0","""event"",""trial"",""time""
""fullscreenenter"",""0"",""2359""
""blur"",""226"",""399143""
""focus"",""226"",""400330""
","""event"",""trial"",""time""
""blur"",""226"",""399143""
","""event"",""trial"",""time""
""focus"",""226"",""400330""
","""event"",""trial"",""time""
""fullscreenenter"",""0"",""2359""
","
","null","<p></p>","null","","","","","","","",""
"","image","276","444830","0.0-238.0-0.0","""event"",""trial"",""time""
""fullscreenenter"",""0"",""2359""
""blur"",""226"",""399143""
""focus"",""226"",""400330""
","""event"",""trial"",""time""
""blur"",""226"",""399143""
","""event"",""trial"",""time""
""focus"",""226"",""400330""
","""event"",""trial"",""time""
""fullscreenenter"",""0"",""2359""
","
","1427.1000000238419","run_exp/static/images/Set 6_rs/014b.jpg","86","","","","","","test","TL","5"
"","show_choice","277","445332","0.0-238.0-1.0","""event"",""trial"",""time""
""fullscreenenter"",""0"",""2359""
""blur"",""226"",""399143""
""focus"",""226"",""400330""
","""event"",""trial"",""time""
""blur"",""226"",""399143""
","""event"",""trial"",""time""
""focus"",""226"",""400330""
","""event"",""trial"",""time""
""fullscreenenter"",""0"",""2359""
","
","null","run_exp/static/images/Set 6_rs/014b.jpg","null","","","","","","test","TL",""
"","html-keyboard-response","278","445846","0.0-238.0-2.0","""event"",""trial"",""time""
""fullscreenenter"",""0"",""2359""
""blur"",""226"",""399143""
""focus"",""226"",""400330""
","""event"",""trial"",""time""
""blur"",""226"",""399143""
","""event"",""trial"",""time""
""focus"",""226"",""400330""
","""event"",""trial"",""time""
""fullscreenenter"",""0"",""2359""
","
","null","<p></p>","null","","","","","","","",""
"","image","279","447463","0.0-239.0-0.0","""event"",""trial"",""time""
""fullscreenenter"",""0"",""2359""
""blur"",""226"",""399143""
""focus"",""226"",""400330""
","""event"",""trial"",""time""
""blur"",""226"",""399143""
","""event"",""trial"",""time""
""focus"",""226"",""400330""
","""event"",""trial"",""time""
""fullscreenenter"",""0"",""2359""
","
","1616.2999999523163","run_exp/static/images/Set 6_rs/141a.jpg","86","","","","","","test","TR","2"
"","show_choice","280","447973","0.0-239.0-1.0","""event"",""trial"",""time""
""fullscreenenter"",""0"",""2359""
""blur"",""226"",""399143""
""focus"",""226"",""400330""
","""event"",""trial"",""time""
""blur"",""226"",""399143""
","""event"",""trial"",""time""
""focus"",""226"",""400330""
","""event"",""trial"",""time""
""fullscreenenter"",""0"",""2359""
","
","null","run_exp/static/images/Set 6_rs/141a.jpg","null","","","","","","test","TR",""
"","html-keyboard-response","281","448486","0.0-239.0-2.0","""event"",""trial"",""time""
""fullscreenenter"",""0"",""2359""
""blur"",""226"",""399143""
""focus"",""226"",""400330""
","""event"",""trial"",""time""
""blur"",""226"",""399143""
","""event"",""trial"",""time""
""focus"",""226"",""400330""
","""event"",""trial"",""time""
""fullscreenenter"",""0"",""2359""
","
","null","<p></p>","null","","","","","","","",""
"","image","282","449653","0.0-240.0-0.0","""event"",""trial"",""time""
""fullscreenenter"",""0"",""2359""
""blur"",""226"",""399143""
""focus"",""226"",""400330""
","""event"",""trial"",""time""
""blur"",""226"",""399143""
","""event"",""trial"",""time""
""focus"",""226"",""400330""
","""event"",""trial"",""time""
""fullscreenenter"",""0"",""2359""
","
","1165.8999999761581","run_exp/static/images/Set 6_rs/071b.jpg","66","","","","","","test","TL","4"
"","show_choice","283","450167","0.0-240.0-1.0","""event"",""trial"",""time""
""fullscreenenter"",""0"",""2359""
""blur"",""226"",""399143""
""focus"",""226"",""400330""
","""event"",""trial"",""time""
""blur"",""226"",""399143""
","""event"",""trial"",""time""
""focus"",""226"",""400330""
","""event"",""trial"",""time""
""fullscreenenter"",""0"",""2359""
","
","null","run_exp/static/images/Set 6_rs/071b.jpg","null","","","","","","test","TL",""
"","html-keyboard-response","284","450681","0.0-240.0-2.0","""event"",""trial"",""time""
""fullscreenenter"",""0"",""2359""
""blur"",""226"",""399143""
""focus"",""226"",""400330""
","""event"",""trial"",""time""
""blur"",""226"",""399143""
","""event"",""trial"",""time""
""focus"",""226"",""400330""
","""event"",""trial"",""time""
""fullscreenenter"",""0"",""2359""
","
","null","<p></p>","null","","","","","","","",""
"","image","285","452096","0.0-241.0-0.0","""event"",""trial"",""time""
""fullscreenenter"",""0"",""2359""
""blur"",""226"",""399143""
""focus"",""226"",""400330""
","""event"",""trial"",""time""
""blur"",""226"",""399143""
","""event"",""trial"",""time""
""focus"",""226"",""400330""
","""event"",""trial"",""time""
""fullscreenenter"",""0"",""2359""
","
","1413.5","run_exp/static/images/Set 6_rs/074b.jpg","66","","","","","","test","TL","4"
"","show_choice","286","452608","0.0-241.0-1.0","""event"",""trial"",""time""
""fullscreenenter"",""0"",""2359""
""blur"",""226"",""399143""
""focus"",""226"",""400330""
","""event"",""trial"",""time""
""blur"",""226"",""399143""
","""event"",""trial"",""time""
""focus"",""226"",""400330""
","""event"",""trial"",""time""
""fullscreenenter"",""0"",""2359""
","
","null","run_exp/static/images/Set 6_rs/074b.jpg","null","","","","","","test","TL",""
"","html-keyboard-response","287","453119","0.0-241.0-2.0","""event"",""trial"",""time""
""fullscreenenter"",""0"",""2359""
""blur"",""226"",""399143""
""focus"",""226"",""400330""
","""event"",""trial"",""time""
""blur"",""226"",""399143""
","""event"",""trial"",""time""
""focus"",""226"",""400330""
","""event"",""trial"",""time""
""fullscreenenter"",""0"",""2359""
","
","null","<p></p>","null","","","","","","","",""
"","image","288","454472","0.0-242.0-0.0","""event"",""trial"",""time""
""fullscreenenter"",""0"",""2359""
""blur"",""226"",""399143""
""focus"",""226"",""400330""
","""event"",""trial"",""time""
""blur"",""226"",""399143""
","""event"",""trial"",""time""
""focus"",""226"",""400330""
","""event"",""trial"",""time""
""fullscreenenter"",""0"",""2359""
","
","1351.7000000476837","run_exp/static/images/Set 6_rs/140a.jpg","78","","","","","","test","TF","1"
"","show_choice","289","454985","0.0-242.0-1.0","""event"",""trial"",""time""
""fullscreenenter"",""0"",""2359""
""blur"",""226"",""399143""
""focus"",""226"",""400330""
","""event"",""trial"",""time""
""blur"",""226"",""399143""
","""event"",""trial"",""time""
""focus"",""226"",""400330""
","""event"",""trial"",""time""
""fullscreenenter"",""0"",""2359""
","
","null","run_exp/static/images/Set 6_rs/140a.jpg","null","","","","","","test","TF",""
"","html-keyboard-response","290","455500","0.0-242.0-2.0","""event"",""trial"",""time""
""fullscreenenter"",""0"",""2359""
""blur"",""226"",""399143""
""focus"",""226"",""400330""
","""event"",""trial"",""time""
""blur"",""226"",""399143""
","""event"",""trial"",""time""
""focus"",""226"",""400330""
","""event"",""trial"",""time""
""fullscreenenter"",""0"",""2359""
","
","null","<p></p>","null","","","","","","","",""
"","image","291","456698","0.0-243.0-0.0","""event"",""trial"",""time""
""fullscreenenter"",""0"",""2359""
""blur"",""226"",""399143""
""focus"",""226"",""400330""
","""event"",""trial"",""time""
""blur"",""226"",""399143""
","""event"",""trial"",""time""
""focus"",""226"",""400330""
","""event"",""trial"",""time""
""fullscreenenter"",""0"",""2359""
","
","1196.8999999761581","run_exp/static/images/Set 6_rs/169a.jpg","86","","","","","","test","TR","4"
"","show_choice","292","457208","0.0-243.0-1.0","""event"",""trial"",""time""
""fullscreenenter"",""0"",""2359""
""blur"",""226"",""399143""
""focus"",""226"",""400330""
","""event"",""trial"",""time""
""blur"",""226"",""399143""
","""event"",""trial"",""time""
""focus"",""226"",""400330""
","""event"",""trial"",""time""
""fullscreenenter"",""0"",""2359""
","
","null","run_exp/static/images/Set 6_rs/169a.jpg","null","","","","","","test","TR",""
"","html-keyboard-response","293","457721","0.0-243.0-2.0","""event"",""trial"",""time""
""fullscreenenter"",""0"",""2359""
""blur"",""226"",""399143""
""focus"",""226"",""400330""
","""event"",""trial"",""time""
""blur"",""226"",""399143""
","""event"",""trial"",""time""
""focus"",""226"",""400330""
","""event"",""trial"",""time""
""fullscreenenter"",""0"",""2359""
","
","null","<p></p>","null","","","","","","","",""
"","image","294","458904","0.0-244.0-0.0","""event"",""trial"",""time""
""fullscreenenter"",""0"",""2359""
""blur"",""226"",""399143""
""focus"",""226"",""400330""
","""event"",""trial"",""time""
""blur"",""226"",""399143""
","""event"",""trial"",""time""
""focus"",""226"",""400330""
","""event"",""trial"",""time""
""fullscreenenter"",""0"",""2359""
","
","1182","run_exp/static/images/Set 6_rs/001a.jpg","78","","","","","","test","TF","1"
"","show_choice","295","459419","0.0-244.0-1.0","""event"",""trial"",""time""
""fullscreenenter"",""0"",""2359""
""blur"",""226"",""399143""
""focus"",""226"",""400330""
","""event"",""trial"",""time""
""blur"",""226"",""399143""
","""event"",""trial"",""time""
""focus"",""226"",""400330""
","""event"",""trial"",""time""
""fullscreenenter"",""0"",""2359""
","
","null","run_exp/static/images/Set 6_rs/001a.jpg","null","","","","","","test","TF",""
"","html-keyboard-response","296","459930","0.0-244.0-2.0","""event"",""trial"",""time""
""fullscreenenter"",""0"",""2359""
""blur"",""226"",""399143""
""focus"",""226"",""400330""
","""event"",""trial"",""time""
""blur"",""226"",""399143""
","""event"",""trial"",""time""
""focus"",""226"",""400330""
