"success","trial_type","trial_index","time_elapsed","internal_node_id","interactions","blur_events","focus_events","fullscreenenter_events","fullscreenexit_events","rt","stimulus","key_press","subject_id","participant_id","age","gender","prompt","phase","condition","lure_bin"
"true","fullscreen","0","5429","0.0-0.0","""event"",""trial"",""time""
""fullscreenenter"",""0"",""4486""
","
","
","""event"",""trial"",""time""
""fullscreenenter"",""0"",""4486""
","
","","","","","","","","","","",""
"","pavlovia","1","5440","0.0-1.0","""event"",""trial"",""time""
""fullscreenenter"",""0"",""4486""
""fullscreenexit"",""2"",""6320""
","
","
","""event"",""trial"",""time""
""fullscreenenter"",""0"",""4486""
","""event"",""trial"",""time""
""fullscreenexit"",""2"",""6320""
","","","","","","","","","","",""
"","welcome","2","40326","0.0-2.0","""event"",""trial"",""time""
""fullscreenenter"",""0"",""4486""
""fullscreenexit"",""2"",""6320""
","
","
","""event"",""trial"",""time""
""fullscreenenter"",""0"",""4486""
","""event"",""trial"",""time""
""fullscreenexit"",""2"",""6320""
","null","run_exp/static/audio/clip_1_welcome.m4a","null","547","234","10","Female","<div class='center'><p>Welcome to the third part of the study! First, you'll be shown pictures of items one at a time. For each picture, you have to decide if the item is typically found indoors or outdoors.</p><p>If you think it's usually found indoors, then press <b>v</b> key on your keyboard. If you think it's usually found outdoors, then press the <b>n</b> key.There will be reminders on the screen to help you remember which keys to press. </p><p>If you're not sure whether the item is an indoor item or an outdoor item, go ahead and take a guess but try your best not to skip that choice. </p></div>","","",""
"","html-keyboard-response","3","42717","0.0-3.0","""event"",""trial"",""time""
""fullscreenenter"",""0"",""4486""
""fullscreenexit"",""2"",""6320""
","
","
","""event"",""trial"",""time""
""fullscreenenter"",""0"",""4486""
","""event"",""trial"",""time""
""fullscreenexit"",""2"",""6320""
","2388.5","<div class='center'><p>Welcome to the third part of the study! First, you'll be shown pictures of items one at a time. For each picture, you have to decide if the item is typically found indoors or outdoors.</p><p>If you think it's usually found indoors, then press <b>v</b> key on your keyboard. If you think it's usually found outdoors, then press the <b>n</b> key.There will be reminders on the screen to help you remember which keys to press. </p><p>If you're not sure whether the item is an indoor item or an outdoor item, go ahead and take a guess but try your best not to skip that choice. </p><div><p><b>[Press the space bar to continue]</b></p></div>","32","","","","","","","",""
"","image","4","44728","0.0-4.0","""event"",""trial"",""time""
""fullscreenenter"",""0"",""4486""
""fullscreenexit"",""2"",""6320""
","
","
","""event"",""trial"",""time""
""fullscreenenter"",""0"",""4486""
","""event"",""trial"",""time""
""fullscreenexit"",""2"",""6320""
","null","run_exp/static/images/Set 6_rs/019a.jpg","null","","","","","","learn","SL",""
"","show_choice","5","46730","0.0-5.0","""event"",""trial"",""time""
""fullscreenenter"",""0"",""4486""
""fullscreenexit"",""2"",""6320""
","
","
","""event"",""trial"",""time""
""fullscreenenter"",""0"",""4486""
","""event"",""trial"",""time""
""fullscreenexit"",""2"",""6320""
","null","run_exp/static/images/blank.png","null","","","","","","learn","SL",""
"","html-keyboard-response","6","47232","0.0-6.0","""event"",""trial"",""time""
""fullscreenenter"",""0"",""4486""
""fullscreenexit"",""2"",""6320""
","
","
","""event"",""trial"",""time""
""fullscreenenter"",""0"",""4486""
","""event"",""trial"",""time""
""fullscreenexit"",""2"",""6320""
","null","<p></p>","null","","","","","","","",""
"","image","7","49164","0.0-7.0","""event"",""trial"",""time""
""fullscreenenter"",""0"",""4486""
""fullscreenexit"",""2"",""6320""
","
","
","""event"",""trial"",""time""
""fullscreenenter"",""0"",""4486""
","""event"",""trial"",""time""
""fullscreenexit"",""2"",""6320""
","1930.0999999940395","run_exp/static/images/Set 6_rs/089a.jpg","78","","","","","","learn","SL",""
"","show_choice","8","49235","0.0-8.0","""event"",""trial"",""time""
""fullscreenenter"",""0"",""4486""
""fullscreenexit"",""2"",""6320""
","
","
","""event"",""trial"",""time""
""fullscreenenter"",""0"",""4486""
","""event"",""trial"",""time""
""fullscreenexit"",""2"",""6320""
","null","run_exp/static/images/Set 6_rs/089a.jpg","null","","","","","","learn","SL",""
"","html-keyboard-response","9","49736","0.0-9.0","""event"",""trial"",""time""
""fullscreenenter"",""0"",""4486""
""fullscreenexit"",""2"",""6320""
","
","
","""event"",""trial"",""time""
""fullscreenenter"",""0"",""4486""
","""event"",""trial"",""time""
""fullscreenexit"",""2"",""6320""
","null","<p></p>","null","","","","","","","",""
"","image","10","51736","0.0-10.0","""event"",""trial"",""time""
""fullscreenenter"",""0"",""4486""
""fullscreenexit"",""2"",""6320""
","
","
","""event"",""trial"",""time""
""fullscreenenter"",""0"",""4486""
","""event"",""trial"",""time""
""fullscreenexit"",""2"",""6320""
","1998.2000000178814","run_exp/static/images/Set 6_rs/152a.jpg","86","","","","","","learn","SR",""
"","show_choice","11","51739","0.0-11.0","""event"",""trial"",""time""
""fullscreenenter"",""0"",""4486""
""fullscreenexit"",""2"",""6320""
","
","
","""event"",""trial"",""time""
""fullscreenenter"",""0"",""4486""
","""event"",""trial"",""time""
""fullscreenexit"",""2"",""6320""
","null","run_exp/static/images/Set 6_rs/152a.jpg","null","","","","","","learn","SR",""
"","html-keyboard-response","12","52251","0.0-12.0","""event"",""trial"",""time""
""fullscreenenter"",""0"",""4486""
""fullscreenexit"",""2"",""6320""
","
","
","""event"",""trial"",""time""
""fullscreenenter"",""0"",""4486""
","""event"",""trial"",""time""
""fullscreenexit"",""2"",""6320""
","null","<p></p>","null","","","","","","","",""
"","image","13","54254","0.0-13.0","""event"",""trial"",""time""
""fullscreenenter"",""0"",""4486""
""fullscreenexit"",""2"",""6320""
","
","
","""event"",""trial"",""time""
""fullscreenenter"",""0"",""4486""
","""event"",""trial"",""time""
""fullscreenexit"",""2"",""6320""
","null","run_exp/static/images/Set 6_rs/177a.jpg","null","","","","","","learn","SR",""
"","show_choice","14","56256","0.0-14.0","""event"",""trial"",""time""
""fullscreenenter"",""0"",""4486""
""fullscreenexit"",""2"",""6320""
","
","
","""event"",""trial"",""time""
""fullscreenenter"",""0"",""4486""
","""event"",""trial"",""time""
""fullscreenexit"",""2"",""6320""
","null","run_exp/static/images/blank.png","null","","","","","","learn","SR",""
"","html-keyboard-response","15","56757","0.0-15.0","""event"",""trial"",""time""
""fullscreenenter"",""0"",""4486""
""fullscreenexit"",""2"",""6320""
","
","
","""event"",""trial"",""time""
""fullscreenenter"",""0"",""4486""
","""event"",""trial"",""time""
""fullscreenexit"",""2"",""6320""
","null","<p></p>","null","","","","","","","",""
"","image","16","58565","0.0-16.0","""event"",""trial"",""time""
""fullscreenenter"",""0"",""4486""
""fullscreenexit"",""2"",""6320""
","
","
","""event"",""trial"",""time""
""fullscreenenter"",""0"",""4486""
","""event"",""trial"",""time""
""fullscreenexit"",""2"",""6320""
","1805.800000011921","run_exp/static/images/Set 6_rs/050a.jpg","86","","","","","","learn","SL",""
"","show_choice","17","58761","0.0-17.0","""event"",""trial"",""time""
""fullscreenenter"",""0"",""4486""
""fullscreenexit"",""2"",""6320""
","
","
","""event"",""trial"",""time""
""fullscreenenter"",""0"",""4486""
","""event"",""trial"",""time""
""fullscreenexit"",""2"",""6320""
","null","run_exp/static/images/Set 6_rs/050a.jpg","null","","","","","","learn","SL",""
"","html-keyboard-response","18","59262","0.0-18.0","""event"",""trial"",""time""
""fullscreenenter"",""0"",""4486""
""fullscreenexit"",""2"",""6320""
","
","
","""event"",""trial"",""time""
""fullscreenenter"",""0"",""4486""
","""event"",""trial"",""time""
""fullscreenexit"",""2"",""6320""
","null","<p></p>","null","","","","","","","",""
"","image","19","60692","0.0-19.0","""event"",""trial"",""time""
""fullscreenenter"",""0"",""4486""
""fullscreenexit"",""2"",""6320""
","
","
","""event"",""trial"",""time""
""fullscreenenter"",""0"",""4486""
","""event"",""trial"",""time""
""fullscreenexit"",""2"",""6320""
","1428.7999999821186","run_exp/static/images/Set 6_rs/138a.jpg","78","","","","","","learn","SL",""
"","show_choice","20","61265","0.0-20.0","""event"",""trial"",""time""
""fullscreenenter"",""0"",""4486""
""fullscreenexit"",""2"",""6320""
","
","
","""event"",""trial"",""time""
""fullscreenenter"",""0"",""4486""
","""event"",""trial"",""time""
""fullscreenexit"",""2"",""6320""
","null","run_exp/static/images/Set 6_rs/138a.jpg","null","","","","","","learn","SL",""
"","html-keyboard-response","21","61767","0.0-21.0","""event"",""trial"",""time""
""fullscreenenter"",""0"",""4486""
""fullscreenexit"",""2"",""6320""
","
","
","""event"",""trial"",""time""
""fullscreenenter"",""0"",""4486""
","""event"",""trial"",""time""
""fullscreenexit"",""2"",""6320""
","null","<p></p>","null","","","","","","","",""
"","image","22","63203","0.0-22.0","""event"",""trial"",""time""
""fullscreenenter"",""0"",""4486""
""fullscreenexit"",""2"",""6320""
","
","
","""event"",""trial"",""time""
""fullscreenenter"",""0"",""4486""
","""event"",""trial"",""time""
""fullscreenexit"",""2"",""6320""
","1434.2000000178814","run_exp/static/images/Set 6_rs/055a.jpg","78","","","","","","learn","SL",""
"","show_choice","23","63769","0.0-23.0","""event"",""trial"",""time""
""fullscreenenter"",""0"",""4486""
""fullscreenexit"",""2"",""6320""
","
","
","""event"",""trial"",""time""
""fullscreenenter"",""0"",""4486""
","""event"",""trial"",""time""
""fullscreenexit"",""2"",""6320""
","null","run_exp/static/images/Set 6_rs/055a.jpg","null","","","","","","learn","SL",""
"","html-keyboard-response","24","64271","0.0-24.0","""event"",""trial"",""time""
""fullscreenenter"",""0"",""4486""
""fullscreenexit"",""2"",""6320""
","
","
","""event"",""trial"",""time""
""fullscreenenter"",""0"",""4486""
","""event"",""trial"",""time""
""fullscreenexit"",""2"",""6320""
","null","<p></p>","null","","","","","","","",""
"","image","25","65874","0.0-25.0","""event"",""trial"",""time""
""fullscreenenter"",""0"",""4486""
""fullscreenexit"",""2"",""6320""
","
","
","""event"",""trial"",""time""
""fullscreenenter"",""0"",""4486""
","""event"",""trial"",""time""
""fullscreenexit"",""2"",""6320""
","1601.199999988079","run_exp/static/images/Set 6_rs/131a.jpg","86","","","","","","learn","SR",""
"","show_choice","26","66273","0.0-26.0","""event"",""trial"",""time""
""fullscreenenter"",""0"",""4486""
""fullscreenexit"",""2"",""6320""
","
","
","""event"",""trial"",""time""
""fullscreenenter"",""0"",""4486""
","""event"",""trial"",""time""
""fullscreenexit"",""2"",""6320""
","null","run_exp/static/images/Set 6_rs/131a.jpg","null","","","","","","learn","SR",""
"","html-keyboard-response","27","66775","0.0-27.0","""event"",""trial"",""time""
""fullscreenenter"",""0"",""4486""
""fullscreenexit"",""2"",""6320""
","
","
","""event"",""trial"",""time""
""fullscreenenter"",""0"",""4486""
","""event"",""trial"",""time""
""fullscreenexit"",""2"",""6320""
","null","<p></p>","null","","","","","","","",""
"","image","28","67816","0.0-28.0","""event"",""trial"",""time""
""fullscreenenter"",""0"",""4486""
""fullscreenexit"",""2"",""6320""
","
","
","""event"",""trial"",""time""
""fullscreenenter"",""0"",""4486""
","""event"",""trial"",""time""
""fullscreenexit"",""2"",""6320""
","1038.0999999940395","run_exp/static/images/Set 6_rs/036a.jpg","86","","","","","","learn","SL",""
"","show_choice","29","68779","0.0-29.0","""event"",""trial"",""time""
""fullscreenenter"",""0"",""4486""
""fullscreenexit"",""2"",""6320""
","
","
","""event"",""trial"",""time""
""fullscreenenter"",""0"",""4486""
","""event"",""trial"",""time""
""fullscreenexit"",""2"",""6320""
","null","run_exp/static/images/Set 6_rs/036a.jpg","null","","","","","","learn","SL",""
"","html-keyboard-response","30","69280","0.0-30.0","""event"",""trial"",""time""
""fullscreenenter"",""0"",""4486""
""fullscreenexit"",""2"",""6320""
","
","
","""event"",""trial"",""time""
""fullscreenenter"",""0"",""4486""
","""event"",""trial"",""time""
""fullscreenexit"",""2"",""6320""
","null","<p></p>","null","","","","","","","",""
"","image","31","70349","0.0-31.0","""event"",""trial"",""time""
""fullscreenenter"",""0"",""4486""
""fullscreenexit"",""2"",""6320""
","
","
","""event"",""trial"",""time""
""fullscreenenter"",""0"",""4486""
","""event"",""trial"",""time""
""fullscreenexit"",""2"",""6320""
","1067.5999999940395","run_exp/static/images/Set 6_rs/023a.jpg","86","","","","","","learn","SR",""
"","show_choice","32","71283","0.0-32.0","""event"",""trial"",""time""
""fullscreenenter"",""0"",""4486""
""fullscreenexit"",""2"",""6320""
","
","
","""event"",""trial"",""time""
""fullscreenenter"",""0"",""4486""
","""event"",""trial"",""time""
""fullscreenexit"",""2"",""6320""
","null","run_exp/static/images/Set 6_rs/023a.jpg","null","","","","","","learn","SR",""
"","html-keyboard-response","33","71784","0.0-33.0","""event"",""trial"",""time""
""fullscreenenter"",""0"",""4486""
""fullscreenexit"",""2"",""6320""
","
","
","""event"",""trial"",""time""
""fullscreenenter"",""0"",""4486""
","""event"",""trial"",""time""
""fullscreenexit"",""2"",""6320""
","null","<p></p>","null","","","","","","","",""
"","image","34","72726","0.0-34.0","""event"",""trial"",""time""
""fullscreenenter"",""0"",""4486""
""fullscreenexit"",""2"",""6320""
","
","
","""event"",""trial"",""time""
""fullscreenenter"",""0"",""4486""
","""event"",""trial"",""time""
""fullscreenexit"",""2"",""6320""
","940.2999999821186","run_exp/static/images/Set 6_rs/071a.jpg","78","","","","","","learn","SL",""
"","show_choice","35","73787","0.0-35.0","""event"",""trial"",""time""
""fullscreenenter"",""0"",""4486""
""fullscreenexit"",""2"",""6320""
","
","
","""event"",""trial"",""time""
""fullscreenenter"",""0"",""4486""
","""event"",""trial"",""time""
""fullscreenexit"",""2"",""6320""
","null","run_exp/static/images/Set 6_rs/071a.jpg","null","","","","","","learn","SL",""
"","html-keyboard-response","36","74288","0.0-36.0","""event"",""trial"",""time""
""fullscreenenter"",""0"",""4486""
""fullscreenexit"",""2"",""6320""
","
","
","""event"",""trial"",""time""
""fullscreenenter"",""0"",""4486""
","""event"",""trial"",""time""
""fullscreenexit"",""2"",""6320""
","null","<p></p>","null","","","","","","","",""
"","image","37","75970","0.0-37.0","""event"",""trial"",""time""
""fullscreenenter"",""0"",""4486""
""fullscreenexit"",""2"",""6320""
","
","
","""event"",""trial"",""time""
""fullscreenenter"",""0"",""4486""
","""event"",""trial"",""time""
""fullscreenexit"",""2"",""6320""
","1679.800000011921","run_exp/static/images/Set 6_rs/166a.jpg","78","","","","","","learn","SR",""
"","show_choice","38","76291","0.0-38.0","""event"",""trial"",""time""
""fullscreenenter"",""0"",""4486""
""fullscreenexit"",""2"",""6320""
","
","
","""event"",""trial"",""time""
""fullscreenenter"",""0"",""4486""
","""event"",""trial"",""time""
""fullscreenexit"",""2"",""6320""
","null","run_exp/static/images/Set 6_rs/166a.jpg","null","","","","","","learn","SR",""
"","html-keyboard-response","39","76792","0.0-39.0","""event"",""trial"",""time""
""fullscreenenter"",""0"",""4486""
""fullscreenexit"",""2"",""6320""
","
","
","""event"",""trial"",""time""
""fullscreenenter"",""0"",""4486""
","""event"",""trial"",""time""
""fullscreenexit"",""2"",""6320""
","null","<p></p>","null","","","","","","","",""
"","image","40","78794","0.0-40.0","""event"",""trial"",""time""
""fullscreenenter"",""0"",""4486""
""fullscreenexit"",""2"",""6320""
","
","
","""event"",""trial"",""time""
""fullscreenenter"",""0"",""4486""
","""event"",""trial"",""time""
""fullscreenexit"",""2"",""6320""
","null","run_exp/static/images/Set 6_rs/121a.jpg","null","","","","","","learn","SR",""
"","show_choice","41","80795","0.0-41.0","""event"",""trial"",""time""
""fullscreenenter"",""0"",""4486""
""fullscreenexit"",""2"",""6320""
","
","
","""event"",""trial"",""time""
""fullscreenenter"",""0"",""4486""
","""event"",""trial"",""time""
""fullscreenexit"",""2"",""6320""
","null","run_exp/static/images/blank.png","null","","","","","","learn","SR",""
"","html-keyboard-response","42","81297","0.0-42.0","""event"",""trial"",""time""
""fullscreenenter"",""0"",""4486""
""fullscreenexit"",""2"",""6320""
","
","
","""event"",""trial"",""time""
""fullscreenenter"",""0"",""4486""
","""event"",""trial"",""time""
""fullscreenexit"",""2"",""6320""
","null","<p></p>","null","","","","","","","",""
"","image","43","81517","0.0-43.0","""event"",""trial"",""time""
""fullscreenenter"",""0"",""4486""
""fullscreenexit"",""2"",""6320""
","
","
","""event"",""trial"",""time""
""fullscreenenter"",""0"",""4486""
","""event"",""trial"",""time""
""fullscreenexit"",""2"",""6320""
","219","run_exp/static/images/Set 6_rs/025a.jpg","86","","","","","","learn","SL",""
"","show_choice","44","83300","0.0-44.0","""event"",""trial"",""time""
""fullscreenenter"",""0"",""4486""
""fullscreenexit"",""2"",""6320""
","
","
","""event"",""trial"",""time""
""fullscreenenter"",""0"",""4486""
","""event"",""trial"",""time""
""fullscreenexit"",""2"",""6320""
","null","run_exp/static/images/Set 6_rs/025a.jpg","null","","","","","","learn","SL",""
"","html-keyboard-response","45","83801","0.0-45.0","""event"",""trial"",""time""
""fullscreenenter"",""0"",""4486""
""fullscreenexit"",""2"",""6320""
","
","
","""event"",""trial"",""time""
""fullscreenenter"",""0"",""4486""
","""event"",""trial"",""time""
""fullscreenexit"",""2"",""6320""
","null","<p></p>","null","","","","","","","",""
"","image","46","85258","0.0-46.0","""event"",""trial"",""time""
""fullscreenenter"",""0"",""4486""
""fullscreenexit"",""2"",""6320""
","
","
","""event"",""trial"",""time""
""fullscreenenter"",""0"",""4486""
","""event"",""trial"",""time""
""fullscreenexit"",""2"",""6320""
","1454.800000011921","run_exp/static/images/Set 6_rs/007a.jpg","86","","","","","","learn","SR",""
"","show_choice","47","85804","0.0-47.0","""event"",""trial"",""time""
""fullscreenenter"",""0"",""4486""
""fullscreenexit"",""2"",""6320""
","
","
","""event"",""trial"",""time""
""fullscreenenter"",""0"",""4486""
","""event"",""trial"",""time""
""fullscreenexit"",""2"",""6320""
","null","run_exp/static/images/Set 6_rs/007a.jpg","null","","","","","","learn","SR",""
"","html-keyboard-response","48","86306","0.0-48.0","""event"",""trial"",""time""
""fullscreenenter"",""0"",""4486""
""fullscreenexit"",""2"",""6320""
","
","
","""event"",""trial"",""time""
""fullscreenenter"",""0"",""4486""
","""event"",""trial"",""time""
""fullscreenexit"",""2"",""6320""
","null","<p></p>","null","","","","","","","",""
"","image","49","87787","0.0-49.0","""event"",""trial"",""time""
""fullscreenenter"",""0"",""4486""
""fullscreenexit"",""2"",""6320""
","
","
","""event"",""trial"",""time""
""fullscreenenter"",""0"",""4486""
","""event"",""trial"",""time""
""fullscreenexit"",""2"",""6320""
","1479.199999988079","run_exp/static/images/Set 6_rs/076a.jpg","78","","","","","","learn","SR",""
"","show_choice","50","88309","0.0-50.0","""event"",""trial"",""time""
""fullscreenenter"",""0"",""4486""
""fullscreenexit"",""2"",""6320""
","
","
","""event"",""trial"",""time""
""fullscreenenter"",""0"",""4486""
","""event"",""trial"",""time""
""fullscreenexit"",""2"",""6320""
","null","run_exp/static/images/Set 6_rs/076a.jpg","null","","","","","","learn","SR",""
"","html-keyboard-response","51","88810","0.0-51.0","""event"",""trial"",""time""
""fullscreenenter"",""0"",""4486""
""fullscreenexit"",""2"",""6320""
","
","
","""event"",""trial"",""time""
""fullscreenenter"",""0"",""4486""
","""event"",""trial"",""time""
""fullscreenexit"",""2"",""6320""
","null","<p></p>","null","","","","","","","",""
"","image","52","90248","0.0-52.0","""event"",""trial"",""time""
""fullscreenenter"",""0"",""4486""
""fullscreenexit"",""2"",""6320""
","
","
","""event"",""trial"",""time""
""fullscreenenter"",""0"",""4486""
","""event"",""trial"",""time""
""fullscreenexit"",""2"",""6320""
","1437.199999988079","run_exp/static/images/Set 6_rs/066a.jpg","86","","","","","","learn","SL",""
"","show_choice","53","90812","0.0-53.0","""event"",""trial"",""time""
""fullscreenenter"",""0"",""4486""
""fullscreenexit"",""2"",""6320""
","
","
","""event"",""trial"",""time""
""fullscreenenter"",""0"",""4486""
","""event"",""trial"",""time""
""fullscreenexit"",""2"",""6320""
","null","run_exp/static/images/Set 6_rs/066a.jpg","null","","","","","","learn","SL",""
"","html-keyboard-response","54","91313","0.0-54.0","""event"",""trial"",""time""
""fullscreenenter"",""0"",""4486""
""fullscreenexit"",""2"",""6320""
","
","
","""event"",""trial"",""time""
""fullscreenenter"",""0"",""4486""
","""event"",""trial"",""time""
""fullscreenexit"",""2"",""6320""
","null","<p></p>","null","","","","","","","",""
"","image","55","92440","0.0-55.0","""event"",""trial"",""time""
""fullscreenenter"",""0"",""4486""
""fullscreenexit"",""2"",""6320""
","
","
","""event"",""trial"",""time""
""fullscreenenter"",""0"",""4486""
","""event"",""trial"",""time""
""fullscreenexit"",""2"",""6320""
","1124.2000000178814","run_exp/static/images/Set 6_rs/141a.jpg","86","","","","","","learn","SR",""
"","show_choice","56","93316","0.0-56.0","""event"",""trial"",""time""
""fullscreenenter"",""0"",""4486""
""fullscreenexit"",""2"",""6320""
","
","
","""event"",""trial"",""time""
""fullscreenenter"",""0"",""4486""
","""event"",""trial"",""time""
""fullscreenexit"",""2"",""6320""
","null","run_exp/static/images/Set 6_rs/141a.jpg","null","","","","","","learn","SR",""
"","html-keyboard-response","57","93818","0.0-57.0","""event"",""trial"",""time""
""fullscreenenter"",""0"",""4486""
""fullscreenexit"",""2"",""6320""
","
","
","""event"",""trial"",""time""
""fullscreenenter"",""0"",""4486""
","""event"",""trial"",""time""
""fullscreenexit"",""2"",""6320""
","null","<p></p>","null","","","","","","","",""
"","image","58","94944","0.0-58.0","""event"",""trial"",""time""
""fullscreenenter"",""0"",""4486""
""fullscreenexit"",""2"",""6320""
","
","
","""event"",""trial"",""time""
""fullscreenenter"",""0"",""4486""
","""event"",""trial"",""time""
""fullscreenexit"",""2"",""6320""
","1124.2000000178814","run_exp/static/images/Set 6_rs/016a.jpg","86","","","","","","learn","SL",""
"","show_choice","59","95821","0.0-59.0","""event"",""trial"",""time""
""fullscreenenter"",""0"",""4486""
""fullscreenexit"",""2"",""6320""
","
","
","""event"",""trial"",""time""
""fullscreenenter"",""0"",""4486""
","""event"",""trial"",""time""
""fullscreenexit"",""2"",""6320""
","null","run_exp/static/images/Set 6_rs/016a.jpg","null","","","","","","learn","SL",""
"","html-keyboard-response","60","96323","0.0-60.0","""event"",""trial"",""time""
""fullscreenenter"",""0"",""4486""
""fullscreenexit"",""2"",""6320""
","
","
","""event"",""trial"",""time""
""fullscreenenter"",""0"",""4486""
","""event"",""trial"",""time""
""fullscreenexit"",""2"",""6320""
","null","<p></p>","null","","","","","","","",""
"","image","61","97614","0.0-61.0","""event"",""trial"",""time""
""fullscreenenter"",""0"",""4486""
""fullscreenexit"",""2"",""6320""
","
","
","""event"",""trial"",""time""
""fullscreenenter"",""0"",""4486""
","""event"",""trial"",""time""
""fullscreenexit"",""2"",""6320""
","1288.9000000059605","run_exp/static/images/Set 6_rs/088a.jpg","86","","","","","","learn","SR",""
"","show_choice","62","98327","0.0-62.0","""event"",""trial"",""time""
""fullscreenenter"",""0"",""4486""
""fullscreenexit"",""2"",""6320""
","
","
","""event"",""trial"",""time""
""fullscreenenter"",""0"",""4486""
","""event"",""trial"",""time""
""fullscreenexit"",""2"",""6320""
","null","run_exp/static/images/Set 6_rs/088a.jpg","null","","","","","","learn","SR",""
"","html-keyboard-response","63","98828","0.0-63.0","""event"",""trial"",""time""
""fullscreenenter"",""0"",""4486""
""fullscreenexit"",""2"",""6320""
","
","
","""event"",""trial"",""time""
""fullscreenenter"",""0"",""4486""
","""event"",""trial"",""time""
""fullscreenexit"",""2"",""6320""
","null","<p></p>","null","","","","","","","",""
"","image","64","100467","0.0-64.0","""event"",""trial"",""time""
""fullscreenenter"",""0"",""4486""
""fullscreenexit"",""2"",""6320""
","
","
","""event"",""trial"",""time""
""fullscreenenter"",""0"",""4486""
","""event"",""trial"",""time""
""fullscreenexit"",""2"",""6320""
","1636.199999988079","run_exp/static/images/Set 6_rs/085a.jpg","78","","","","","","learn","SL",""
"","show_choice","65","100831","0.0-65.0","""event"",""trial"",""time""
""fullscreenenter"",""0"",""4486""
""fullscreenexit"",""2"",""6320""
","
","
","""event"",""trial"",""time""
""fullscreenenter"",""0"",""4486""
","""event"",""trial"",""time""
""fullscreenexit"",""2"",""6320""
","null","run_exp/static/images/Set 6_rs/085a.jpg","null","","","","","","learn","SL",""
"","html-keyboard-response","66","101332","0.0-66.0","""event"",""trial"",""time""
""fullscreenenter"",""0"",""4486""
""fullscreenexit"",""2"",""6320""
","
","
","""event"",""trial"",""time""
""fullscreenenter"",""0"",""4486""
","""event"",""trial"",""time""
""fullscreenexit"",""2"",""6320""
","null","<p></p>","null","","","","","","","",""
"","image","67","102679","0.0-67.0","""event"",""trial"",""time""
""fullscreenenter"",""0"",""4486""
""fullscreenexit"",""2"",""6320""
","
","
","""event"",""trial"",""time""
""fullscreenenter"",""0"",""4486""
","""event"",""trial"",""time""
""fullscreenexit"",""2"",""6320""
","1345.5999999940395","run_exp/static/images/Set 6_rs/008a.jpg","86","","","","","","learn","SL",""
"","show_choice","68","103334","0.0-68.0","""event"",""trial"",""time""
""fullscreenenter"",""0"",""4486""
""fullscreenexit"",""2"",""6320""
","
","
","""event"",""trial"",""time""
""fullscreenenter"",""0"",""4486""
","""event"",""trial"",""time""
""fullscreenexit"",""2"",""6320""
","null","run_exp/static/images/Set 6_rs/008a.jpg","null","","","","","","learn","SL",""
"","html-keyboard-response","69","103835","0.0-69.0","""event"",""trial"",""time""
""fullscreenenter"",""0"",""4486""
""fullscreenexit"",""2"",""6320""
","
","
","""event"",""trial"",""time""
""fullscreenenter"",""0"",""4486""
","""event"",""trial"",""time""
""fullscreenexit"",""2"",""6320""
","null","<p></p>","null","","","","","","","",""
"","image","70","105837","0.0-70.0","""event"",""trial"",""time""
""fullscreenenter"",""0"",""4486""
""fullscreenexit"",""2"",""6320""
","
","
","""event"",""trial"",""time""
""fullscreenenter"",""0"",""4486""
","""event"",""trial"",""time""
""fullscreenexit"",""2"",""6320""
","null","run_exp/static/images/Set 6_rs/108a.jpg","null","","","","","","learn","SR",""
"","show_choice","71","107839","0.0-71.0","""event"",""trial"",""time""
""fullscreenenter"",""0"",""4486""
""fullscreenexit"",""2"",""6320""
","
","
","""event"",""trial"",""time""
""fullscreenenter"",""0"",""4486""
","""event"",""trial"",""time""
""fullscreenexit"",""2"",""6320""
","null","run_exp/static/images/blank.png","null","","","","","","learn","SR",""
"","html-keyboard-response","72","108340","0.0-72.0","""event"",""trial"",""time""
""fullscreenenter"",""0"",""4486""
""fullscreenexit"",""2"",""6320""
","
","
","""event"",""trial"",""time""
""fullscreenenter"",""0"",""4486""
","""event"",""trial"",""time""
""fullscreenexit"",""2"",""6320""
","null","<p></p>","null","","","","","","","",""
"","image","73","109448","0.0-73.0","""event"",""trial"",""time""
""fullscreenenter"",""0"",""4486""
""fullscreenexit"",""2"",""6320""
","
","
","""event"",""trial"",""time""
""fullscreenenter"",""0"",""4486""
","""event"",""trial"",""time""
""fullscreenexit"",""2"",""6320""
","1106.300000011921","run_exp/static/images/Set 6_rs/073a.jpg","86","","","","","","learn","SL",""
"","show_choice","74","110343","0.0-74.0","""event"",""trial"",""time""
""fullscreenenter"",""0"",""4486""
""fullscreenexit"",""2"",""6320""
","
","
","""event"",""trial"",""time""
""fullscreenenter"",""0"",""4486""
","""event"",""trial"",""time""
""fullscreenexit"",""2"",""6320""
","null","run_exp/static/images/Set 6_rs/073a.jpg","null","","","","","","learn","SL",""
"","html-keyboard-response","75","110844","0.0-75.0","""event"",""trial"",""time""
""fullscreenenter"",""0"",""4486""
""fullscreenexit"",""2"",""6320""
","
","
","""event"",""trial"",""time""
""fullscreenenter"",""0"",""4486""
","""event"",""trial"",""time""
""fullscreenexit"",""2"",""6320""
","null","<p></p>","null","","","","","","","",""
"","image","76","112846","0.0-76.0","""event"",""trial"",""time""
""fullscreenenter"",""0"",""4486""
""fullscreenexit"",""2"",""6320""
","
","
","""event"",""trial"",""time""
""fullscreenenter"",""0"",""4486""
","""event"",""trial"",""time""
""fullscreenexit"",""2"",""6320""
","null","run_exp/static/images/Set 6_rs/117a.jpg","null","","","","","","learn","SL",""
"","show_choice","77","114848","0.0-77.0","""event"",""trial"",""time""
""fullscreenenter"",""0"",""4486""
""fullscreenexit"",""2"",""6320""
","
","
","""event"",""trial"",""time""
""fullscreenenter"",""0"",""4486""
","""event"",""trial"",""time""
""fullscreenexit"",""2"",""6320""
","null","run_exp/static/images/blank.png","null","","","","","","learn","SL",""
"","html-keyboard-response","78","115349","0.0-78.0","""event"",""trial"",""time""
""fullscreenenter"",""0"",""4486""
""fullscreenexit"",""2"",""6320""
","
","
","""event"",""trial"",""time""
""fullscreenenter"",""0"",""4486""
","""event"",""trial"",""time""
""fullscreenexit"",""2"",""6320""
","null","<p></p>","null","","","","","","","",""
"","image","79","116429","0.0-79.0","""event"",""trial"",""time""
""fullscreenenter"",""0"",""4486""
""fullscreenexit"",""2"",""6320""
","
","
","""event"",""trial"",""time""
""fullscreenenter"",""0"",""4486""
","""event"",""trial"",""time""
""fullscreenexit"",""2"",""6320""
","1078.699999988079","run_exp/static/images/Set 6_rs/062a.jpg","86","","","","","","learn","SL",""
"","show_choice","80","117352","0.0-80.0","""event"",""trial"",""time""
""fullscreenenter"",""0"",""4486""
""fullscreenexit"",""2"",""6320""
","
","
","""event"",""trial"",""time""
""fullscreenenter"",""0"",""4486""
","""event"",""trial"",""time""
""fullscreenexit"",""2"",""6320""
","null","run_exp/static/images/Set 6_rs/062a.jpg","null","","","","","","learn","SL",""
"","html-keyboard-response","81","117853","0.0-81.0","""event"",""trial"",""time""
""fullscreenenter"",""0"",""4486""
""fullscreenexit"",""2"",""6320""
","
","
","""event"",""trial"",""time""
""fullscreenenter"",""0"",""4486""
","""event"",""trial"",""time""
""fullscreenexit"",""2"",""6320""
","null","<p></p>","null","","","","","","","",""
"","image","82","119169","0.0-82.0","""event"",""trial"",""time""
""fullscreenenter"",""0"",""4486""
""fullscreenexit"",""2"",""6320""
","
","
","""event"",""trial"",""time""
""fullscreenenter"",""0"",""4486""
","""event"",""trial"",""time""
""fullscreenexit"",""2"",""6320""
","1314.9000000059605","run_exp/static/images/Set 6_rs/045a.jpg","86","","","","","","learn","SR",""
"","show_choice","83","119856","0.0-83.0","""event"",""trial"",""time""
""fullscreenenter"",""0"",""4486""
""fullscreenexit"",""2"",""6320""
","
","
","""event"",""trial"",""time""
""fullscreenenter"",""0"",""4486""
","""event"",""trial"",""time""
""fullscreenexit"",""2"",""6320""
","null","run_exp/static/images/Set 6_rs/045a.jpg","null","","","","","","learn","SR",""
"","html-keyboard-response","84","120357","0.0-84.0","""event"",""trial"",""time""
""fullscreenenter"",""0"",""4486""
""fullscreenexit"",""2"",""6320""
","
","
","""event"",""trial"",""time""
""fullscreenenter"",""0"",""4486""
","""event"",""trial"",""time""
""fullscreenexit"",""2"",""6320""
","null","<p></p>","null","","","","","","","",""
"","image","85","121318","0.0-85.0","""event"",""trial"",""time""
""fullscreenenter"",""0"",""4486""
""fullscreenexit"",""2"",""6320""
","
","
","""event"",""trial"",""time""
""fullscreenenter"",""0"",""4486""
","""event"",""trial"",""time""
""fullscreenexit"",""2"",""6320""
","959.2000000178814","run_exp/static/images/Set 6_rs/017a.jpg","78","","","","","","learn","SL",""
"","show_choice","86","122360","0.0-86.0","""event"",""trial"",""time""
""fullscreenenter"",""0"",""4486""
""fullscreenexit"",""2"",""6320""
","
","
","""event"",""trial"",""time""
""fullscreenenter"",""0"",""4486""
","""event"",""trial"",""time""
""fullscreenexit"",""2"",""6320""
","null","run_exp/static/images/Set 6_rs/017a.jpg","null","","","","","","learn","SL",""
"","html-keyboard-response","87","122861","0.0-87.0","""event"",""trial"",""time""
""fullscreenenter"",""0"",""4486""
""fullscreenexit"",""2"",""6320""
","
","
","""event"",""trial"",""time""
""fullscreenenter"",""0"",""4486""
","""event"",""trial"",""time""
""fullscreenexit"",""2"",""6320""
","null","<p></p>","null","","","","","","","",""
"","image","88","124078","0.0-88.0","""event"",""trial"",""time""
""fullscreenenter"",""0"",""4486""
""fullscreenexit"",""2"",""6320""
","
","
","""event"",""trial"",""time""
""fullscreenenter"",""0"",""4486""
","""event"",""trial"",""time""
""fullscreenexit"",""2"",""6320""
","1215.5999999940395","run_exp/static/images/Set 6_rs/186a.jpg","86","","","","","","learn","SR",""
"","show_choice","89","124864","0.0-89.0","""event"",""trial"",""time""
""fullscreenenter"",""0"",""4486""
""fullscreenexit"",""2"",""6320""
","
","
","""event"",""trial"",""time""
""fullscreenenter"",""0"",""4486""
","""event"",""trial"",""time""
""fullscreenexit"",""2"",""6320""
","null","run_exp/static/images/Set 6_rs/186a.jpg","null","","","","","","learn","SR",""
"","html-keyboard-response","90","125366","0.0-90.0","""event"",""trial"",""time""
""fullscreenenter"",""0"",""4486""
""fullscreenexit"",""2"",""6320""
","
","
","""event"",""trial"",""time""
""fullscreenenter"",""0"",""4486""
","""event"",""trial"",""time""
""fullscreenexit"",""2"",""6320""
","null","<p></p>","null","","","","","","","",""
"","image","91","126446","0.0-91.0","""event"",""trial"",""time""
""fullscreenenter"",""0"",""4486""
""fullscreenexit"",""2"",""6320""
","
","
","""event"",""trial"",""time""
""fullscreenenter"",""0"",""4486""
","""event"",""trial"",""time""
""fullscreenexit"",""2"",""6320""
","1077.5999999940395","run_exp/static/images/Set 6_rs/064a.jpg","78","","","","","","learn","SR",""
"","show_choice","92","127369","0.0-92.0","""event"",""trial"",""time""
""fullscreenenter"",""0"",""4486""
""fullscreenexit"",""2"",""6320""
","
","
","""event"",""trial"",""time""
""fullscreenenter"",""0"",""4486""
","""event"",""trial"",""time""
""fullscreenexit"",""2"",""6320""
","null","run_exp/static/images/Set 6_rs/064a.jpg","null","","","","","","learn","SR",""
"","html-keyboard-response","93","127870","0.0-93.0","""event"",""trial"",""time""
""fullscreenenter"",""0"",""4486""
""fullscreenexit"",""2"",""6320""
","
","
","""event"",""trial"",""time""
""fullscreenenter"",""0"",""4486""
","""event"",""trial"",""time""
""fullscreenexit"",""2"",""6320""
","null","<p></p>","null","","","","","","","",""
"","image","94","129872","0.0-94.0","""event"",""trial"",""time""
""fullscreenenter"",""0"",""4486""
""fullscreenexit"",""2"",""6320""
","
","
","""event"",""trial"",""time""
""fullscreenenter"",""0"",""4486""
","""event"",""trial"",""time""
""fullscreenexit"",""2"",""6320""
","null","run_exp/static/images/Set 6_rs/129a.jpg","null","","","","","","learn","SL",""
"","show_choice","95","131874","0.0-95.0","""event"",""trial"",""time""
""fullscreenenter"",""0"",""4486""
""fullscreenexit"",""2"",""6320""
","
","
","""event"",""trial"",""time""
""fullscreenenter"",""0"",""4486""
","""event"",""trial"",""time""
""fullscreenexit"",""2"",""6320""
","null","run_exp/static/images/blank.png","null","","","","","","learn","SL",""
"","html-keyboard-response","96","132375","0.0-96.0","""event"",""trial"",""time""
""fullscreenenter"",""0"",""4486""
""fullscreenexit"",""2"",""6320""
","
","
","""event"",""trial"",""time""
""fullscreenenter"",""0"",""4486""
","""event"",""trial"",""time""
""fullscreenexit"",""2"",""6320""
","null","<p></p>","null","","","","","","","",""
"","image","97","133537","0.0-97.0","""event"",""trial"",""time""
""fullscreenenter"",""0"",""4486""
""fullscreenexit"",""2"",""6320""
","
","
","""event"",""trial"",""time""
""fullscreenenter"",""0"",""4486""
","""event"",""trial"",""time""
""fullscreenexit"",""2"",""6320""
","1161.2999999821186","run_exp/static/images/Set 6_rs/172a.jpg","78","","","","","","learn","SR",""
"","show_choice","98","134377","0.0-98.0","""event"",""trial"",""time""
""fullscreenenter"",""0"",""4486""
""fullscreenexit"",""2"",""6320""
","
","
","""event"",""trial"",""time""
""fullscreenenter"",""0"",""4486""
","""event"",""trial"",""time""
""fullscreenexit"",""2"",""6320""
","null","run_exp/static/images/Set 6_rs/172a.jpg","null","","","","","","learn","SR",""
"","html-keyboard-response","99","134878","0.0-99.0","""event"",""trial"",""time""
""fullscreenenter"",""0"",""4486""
""fullscreenexit"",""2"",""6320""
","
","
","""event"",""trial"",""time""
""fullscreenenter"",""0"",""4486""
","""event"",""trial"",""time""
""fullscreenexit"",""2"",""6320""
","null","<p></p>","null","","","","","","","",""
"","image","100","135870","0.0-100.0","""event"",""trial"",""time""
""fullscreenenter"",""0"",""4486""
""fullscreenexit"",""2"",""6320""
","
","
","""event"",""trial"",""time""
""fullscreenenter"",""0"",""4486""
","""event"",""trial"",""time""
""fullscreenexit"",""2"",""6320""
","989.6999999880791","run_exp/static/images/Set 6_rs/169a.jpg","78","","","","","","learn","SR",""
"","show_choice","101","136881","0.0-101.0","""event"",""trial"",""time""
""fullscreenenter"",""0"",""4486""
""fullscreenexit"",""2"",""6320""
","
","
","""event"",""trial"",""time""
""fullscreenenter"",""0"",""4486""
","""event"",""trial"",""time""
""fullscreenexit"",""2"",""6320""
","null","run_exp/static/images/Set 6_rs/169a.jpg","null","","","","","","learn","SR",""
"","html-keyboard-response","102","137384","0.0-102.0","""event"",""trial"",""time""
""fullscreenenter"",""0"",""4486""
""fullscreenexit"",""2"",""6320""
","
","
","""event"",""trial"",""time""
""fullscreenenter"",""0"",""4486""
","""event"",""trial"",""time""
""fullscreenexit"",""2"",""6320""
","null","<p></p>","null","","","","","","","",""
"","image","103","138476","0.0-103.0","""event"",""trial"",""time""
""fullscreenenter"",""0"",""4486""
""fullscreenexit"",""2"",""6320""
","
","
","""event"",""trial"",""time""
""fullscreenenter"",""0"",""4486""
","""event"",""trial"",""time""
""fullscreenexit"",""2"",""6320""
","1090.800000011921","run_exp/static/images/Set 6_rs/187a.jpg","86","","","","","","learn","SR",""
"","show_choice","104","139387","0.0-104.0","""event"",""trial"",""time""
""fullscreenenter"",""0"",""4486""
""fullscreenexit"",""2"",""6320""
","
","
","""event"",""trial"",""time""
""fullscreenenter"",""0"",""4486""
","""event"",""trial"",""time""
""fullscreenexit"",""2"",""6320""
","null","run_exp/static/images/Set 6_rs/187a.jpg","null","","","","","","learn","SR",""
"","html-keyboard-response","105","139888","0.0-105.0","""event"",""trial"",""time""
""fullscreenenter"",""0"",""4486""
""fullscreenexit"",""2"",""6320""
","
","
","""event"",""trial"",""time""
""fullscreenenter"",""0"",""4486""
","""event"",""trial"",""time""
""fullscreenexit"",""2"",""6320""
","null","<p></p>","null","","","","","","","",""
"","image","106","141223","0.0-106.0","""event"",""trial"",""time""
""fullscreenenter"",""0"",""4486""
""fullscreenexit"",""2"",""6320""
","
","
","""event"",""trial"",""time""
""fullscreenenter"",""0"",""4486""
","""event"",""trial"",""time""
""fullscreenexit"",""2"",""6320""
","1332.7000000178814","run_exp/static/images/Set 6_rs/122a.jpg","78","","","","","","learn","SR",""
"","show_choice","107","141891","0.0-107.0","""event"",""trial"",""time""
""fullscreenenter"",""0"",""4486""
""fullscreenexit"",""2"",""6320""
","
","
","""event"",""trial"",""time""
""fullscreenenter"",""0"",""4486""
","""event"",""trial"",""time""
""fullscreenexit"",""2"",""6320""
","null","run_exp/static/images/Set 6_rs/122a.jpg","null","","","","","","learn","SR",""
"","html-keyboard-response","108","142392","0.0-108.0","""event"",""trial"",""time""
""fullscreenenter"",""0"",""4486""
""fullscreenexit"",""2"",""6320""
","
","
","""event"",""trial"",""time""
""fullscreenenter"",""0"",""4486""
","""event"",""trial"",""time""
""fullscreenexit"",""2"",""6320""
","null","<p></p>","null","","","","","","","",""
"","image","109","143926","0.0-109.0","""event"",""trial"",""time""
""fullscreenenter"",""0"",""4486""
""fullscreenexit"",""2"",""6320""
","
","
","""event"",""trial"",""time""
""fullscreenenter"",""0"",""4486""
","""event"",""trial"",""time""
""fullscreenexit"",""2"",""6320""
","1533.1000000238419","run_exp/static/images/Set 6_rs/123a.jpg","86","","","","","","learn","SL",""
"","show_choice","110","144394","0.0-110.0","""event"",""trial"",""time""
""fullscreenenter"",""0"",""4486""
""fullscreenexit"",""2"",""6320""
","
","
","""event"",""trial"",""time""
""fullscreenenter"",""0"",""4486""
","""event"",""trial"",""time""
""fullscreenexit"",""2"",""6320""
","null","run_exp/static/images/Set 6_rs/123a.jpg","null","","","","","","learn","SL",""
"","html-keyboard-response","111","144895","0.0-111.0","""event"",""trial"",""time""
""fullscreenenter"",""0"",""4486""
""fullscreenexit"",""2"",""6320""
","
","
","""event"",""trial"",""time""
""fullscreenenter"",""0"",""4486""
","""event"",""trial"",""time""
""fullscreenexit"",""2"",""6320""
","null","<p></p>","null","","","","","","","",""
"","image","112","145914","0.0-112.0","""event"",""trial"",""time""
""fullscreenenter"",""0"",""4486""
""fullscreenexit"",""2"",""6320""
","
","
","""event"",""trial"",""time""
""fullscreenenter"",""0"",""4486""
","""event"",""trial"",""time""
""fullscreenexit"",""2"",""6320""
","1017.4000000059605","run_exp/static/images/Set 6_rs/075a.jpg","86","","","","","","learn","SR",""
"","show_choice","113","146898","0.0-113.0","""event"",""trial"",""time""
""fullscreenenter"",""0"",""4486""
""fullscreenexit"",""2"",""6320""
","
","
","""event"",""trial"",""time""
""fullscreenenter"",""0"",""4486""
","""event"",""trial"",""time""
""fullscreenexit"",""2"",""6320""
","null","run_exp/static/images/Set 6_rs/075a.jpg","null","","","","","","learn","SR",""
"","html-keyboard-response","114","147400","0.0-114.0","""event"",""trial"",""time""
""fullscreenenter"",""0"",""4486""
""fullscreenexit"",""2"",""6320""
","
","
","""event"",""trial"",""time""
""fullscreenenter"",""0"",""4486""
","""event"",""trial"",""time""
""fullscreenexit"",""2"",""6320""
","null","<p></p>","null","","","","","","","",""
"","image","115","148593","0.0-115.0","""event"",""trial"",""time""
""fullscreenenter"",""0"",""4486""
""fullscreenexit"",""2"",""6320""
","
","
","""event"",""trial"",""time""
""fullscreenenter"",""0"",""4486""
","""event"",""trial"",""time""
""fullscreenexit"",""2"",""6320""
","1191","run_exp/static/images/Set 6_rs/070a.jpg","78","","","","","","learn","SR",""
"","show_choice","116","149404","0.0-116.0","""event"",""trial"",""time""
""fullscreenenter"",""0"",""4486""
""fullscreenexit"",""2"",""6320""
","
","
","""event"",""trial"",""time""
""fullscreenenter"",""0"",""4486""
","""event"",""trial"",""time""
""fullscreenexit"",""2"",""6320""
","null","run_exp/static/images/Set 6_rs/070a.jpg","null","","","","","","learn","SR",""
"","html-keyboard-response","117","149905","0.0-117.0","""event"",""trial"",""time""
""fullscreenenter"",""0"",""4486""
""fullscreenexit"",""2"",""6320""
","
","
","""event"",""trial"",""time""
""fullscreenenter"",""0"",""4486""
","""event"",""trial"",""time""
""fullscreenexit"",""2"",""6320""
","null","<p></p>","null","","","","","","","",""
"","image","118","151157","0.0-118.0","""event"",""trial"",""time""
""fullscreenenter"",""0"",""4486""
""fullscreenexit"",""2"",""6320""
","
","
","""event"",""trial"",""time""
""fullscreenenter"",""0"",""4486""
","""event"",""trial"",""time""
""fullscreenexit"",""2"",""6320""
","1250.4000000059605","run_exp/static/images/Set 6_rs/178a.jpg","78","","","","","","learn","SR",""
"","show_choice","119","151908","0.0-119.0","""event"",""trial"",""time""
""fullscreenenter"",""0"",""4486""
""fullscreenexit"",""2"",""6320""
","
","
","""event"",""trial"",""time""
""fullscreenenter"",""0"",""4486""
","""event"",""trial"",""time""
""fullscreenexit"",""2"",""6320""
","null","run_exp/static/images/Set 6_rs/178a.jpg","null","","","","","","learn","SR",""
"","html-keyboard-response","120","152409","0.0-120.0","""event"",""trial"",""time""
""fullscreenenter"",""0"",""4486""
""fullscreenexit"",""2"",""6320""
","
","
","""event"",""trial"",""time""
""fullscreenenter"",""0"",""4486""
","""event"",""trial"",""time""
""fullscreenexit"",""2"",""6320""
","null","<p></p>","null","","","","","","","",""
"","image","121","154179","0.0-121.0","""event"",""trial"",""time""
""fullscreenenter"",""0"",""4486""
""fullscreenexit"",""2"",""6320""
","
","
","""event"",""trial"",""time""
""fullscreenenter"",""0"",""4486""
","""event"",""trial"",""time""
""fullscreenexit"",""2"",""6320""
","1768.3999999761581","run_exp/static/images/Set 6_rs/181a.jpg","78","","","","","","learn","SL",""
"","show_choice","122","154411","0.0-122.0","""event"",""trial"",""time""
""fullscreenenter"",""0"",""4486""
""fullscreenexit"",""2"",""6320""
","
","
","""event"",""trial"",""time""
""fullscreenenter"",""0"",""4486""
","""event"",""trial"",""time""
""fullscreenexit"",""2"",""6320""
","null","run_exp/static/images/Set 6_rs/181a.jpg","null","","","","","","learn","SL",""
"","html-keyboard-response","123","154913","0.0-123.0","""event"",""trial"",""time""
""fullscreenenter"",""0"",""4486""
""fullscreenexit"",""2"",""6320""
","
","
","""event"",""trial"",""time""
""fullscreenenter"",""0"",""4486""
","""event"",""trial"",""time""
""fullscreenexit"",""2"",""6320""
","null","<p></p>","null","","","","","","","",""
"","image","124","156331","0.0-124.0","""event"",""trial"",""time""
""fullscreenenter"",""0"",""4486""
""fullscreenexit"",""2"",""6320""
","
","
","""event"",""trial"",""time""
""fullscreenenter"",""0"",""4486""
","""event"",""trial"",""time""
""fullscreenexit"",""2"",""6320""
","1415.800000011921","run_exp/static/images/Set 6_rs/006a.jpg","86","","","","","","learn","SL",""
"","show_choice","125","156917","0.0-125.0","""event"",""trial"",""time""
""fullscreenenter"",""0"",""4486""
""fullscreenexit"",""2"",""6320""
","
","
","""event"",""trial"",""time""
""fullscreenenter"",""0"",""4486""
","""event"",""trial"",""time""
""fullscreenexit"",""2"",""6320""
","null","run_exp/static/images/Set 6_rs/006a.jpg","null","","","","","","learn","SL",""
"","html-keyboard-response","126","157418","0.0-126.0","""event"",""trial"",""time""
""fullscreenenter"",""0"",""4486""
""fullscreenexit"",""2"",""6320""
","
","
","""event"",""trial"",""time""
""fullscreenenter"",""0"",""4486""
","""event"",""trial"",""time""
""fullscreenexit"",""2"",""6320""
","null","<p></p>","null","","","","","","","",""
"","image","127","158590","0.0-127.0","""event"",""trial"",""time""
""fullscreenenter"",""0"",""4486""
""fullscreenexit"",""2"",""6320""
","
","
","""event"",""trial"",""time""
""fullscreenenter"",""0"",""4486""
","""event"",""trial"",""time""
""fullscreenexit"",""2"",""6320""
","1169.6000000238419","run_exp/static/images/Set 6_rs/063a.jpg","78","","","","","","learn","SR",""
"","show_choice","128","159421","0.0-128.0","""event"",""trial"",""time""
""fullscreenenter"",""0"",""4486""
""fullscreenexit"",""2"",""6320""
","
","
","""event"",""trial"",""time""
""fullscreenenter"",""0"",""4486""
","""event"",""trial"",""time""
""fullscreenexit"",""2"",""6320""
","null","run_exp/static/images/Set 6_rs/063a.jpg","null","","","","","","learn","SR",""
"","html-keyboard-response","129","159923","0.0-129.0","""event"",""trial"",""time""
""fullscreenenter"",""0"",""4486""
""fullscreenexit"",""2"",""6320""
","
","
","""event"",""trial"",""time""
""fullscreenenter"",""0"",""4486""
","""event"",""trial"",""time""
""fullscreenexit"",""2"",""6320""
","null","<p></p>","null","","","","","","","",""
"","image","130","161084","0.0-130.0","""event"",""trial"",""time""
""fullscreenenter"",""0"",""4486""
""fullscreenexit"",""2"",""6320""
","
","
","""event"",""trial"",""time""
""fullscreenenter"",""0"",""4486""
","""event"",""trial"",""time""
""fullscreenexit"",""2"",""6320""
","1160.199999988079","run_exp/static/images/Set 6_rs/150a.jpg","86","","","","","","learn","SR",""
"","show_choice","131","161925","0.0-131.0","""event"",""trial"",""time""
""fullscreenenter"",""0"",""4486""
""fullscreenexit"",""2"",""6320""
","
","
","""event"",""trial"",""time""
""fullscreenenter"",""0"",""4486""
","""event"",""trial"",""time""
""fullscreenexit"",""2"",""6320""
","null","run_exp/static/images/Set 6_rs/150a.jpg","null","","","","","","learn","SR",""
"","html-keyboard-response","132","162426","0.0-132.0","""event"",""trial"",""time""
""fullscreenenter"",""0"",""4486""
""fullscreenexit"",""2"",""6320""
","
","
","""event"",""trial"",""time""
""fullscreenenter"",""0"",""4486""
","""event"",""trial"",""time""
""fullscreenexit"",""2"",""6320""
","null","<p></p>","null","","","","","","","",""
"","image","133","164128","0.0-133.0","""event"",""trial"",""time""
""fullscreenenter"",""0"",""4486""
""fullscreenexit"",""2"",""6320""
","
","
","""event"",""trial"",""time""
""fullscreenenter"",""0"",""4486""
","""event"",""trial"",""time""
""fullscreenexit"",""2"",""6320""
","1700.5","run_exp/static/images/Set 6_rs/167a.jpg","78","","","","","","learn","SL",""
"","show_choice","134","164429","0.0-134.0","""event"",""trial"",""time""
""fullscreenenter"",""0"",""4486""
""fullscreenexit"",""2"",""6320""
","
","
","""event"",""trial"",""time""
""fullscreenenter"",""0"",""4486""
","""event"",""trial"",""time""
""fullscreenexit"",""2"",""6320""
","null","run_exp/static/images/Set 6_rs/167a.jpg","null","","","","","","learn","SL",""
"","html-keyboard-response","135","164930","0.0-135.0","""event"",""trial"",""time""
""fullscreenenter"",""0"",""4486""
""fullscreenexit"",""2"",""6320""
","
","
","""event"",""trial"",""time""
""fullscreenenter"",""0"",""4486""
","""event"",""trial"",""time""
""fullscreenexit"",""2"",""6320""
","null","<p></p>","null","","","","","","","",""
"","image","136","166488","0.0-136.0","""event"",""trial"",""time""
""fullscreenenter"",""0"",""4486""
""fullscreenexit"",""2"",""6320""
","
","
","""event"",""trial"",""time""
""fullscreenenter"",""0"",""4486""
","""event"",""trial"",""time""
""fullscreenexit"",""2"",""6320""
","1556.7999999821186","run_exp/static/images/Set 6_rs/057a.jpg","86","","","","","","learn","SL",""
"","show_choice","137","166933","0.0-137.0","""event"",""trial"",""time""
""fullscreenenter"",""0"",""4486""
""fullscreenexit"",""2"",""6320""
","
","
","""event"",""trial"",""time""
""fullscreenenter"",""0"",""4486""
","""event"",""trial"",""time""
""fullscreenexit"",""2"",""6320""
","null","run_exp/static/images/Set 6_rs/057a.jpg","null","","","","","","learn","SL",""
"","html-keyboard-response","138","167434","0.0-138.0","""event"",""trial"",""time""
""fullscreenenter"",""0"",""4486""
""fullscreenexit"",""2"",""6320""
","
","
","""event"",""trial"",""time""
""fullscreenenter"",""0"",""4486""
","""event"",""trial"",""time""
""fullscreenexit"",""2"",""6320""
","null","<p></p>","null","","","","","","","",""
"","image","139","169082","0.0-139.0","""event"",""trial"",""time""
""fullscreenenter"",""0"",""4486""
""fullscreenexit"",""2"",""6320""
","
","
","""event"",""trial"",""time""
""fullscreenenter"",""0"",""4486""
","""event"",""trial"",""time""
""fullscreenexit"",""2"",""6320""
","1646.5999999940395","run_exp/static/images/Set 6_rs/111a.jpg","86","","","","","","learn","SL",""
"","show_choice","140","169437","0.0-140.0","""event"",""trial"",""time""
""fullscreenenter"",""0"",""4486""
""fullscreenexit"",""2"",""6320""
","
","
","""event"",""trial"",""time""
""fullscreenenter"",""0"",""4486""
","""event"",""trial"",""time""
""fullscreenexit"",""2"",""6320""
","null","run_exp/static/images/Set 6_rs/111a.jpg","null","","","","","","learn","SL",""
"","html-keyboard-response","141","169938","0.0-141.0","""event"",""trial"",""time""
""fullscreenenter"",""0"",""4486""
""fullscreenexit"",""2"",""6320""
","
","
","""event"",""trial"",""time""
""fullscreenenter"",""0"",""4486""
","""event"",""trial"",""time""
""fullscreenexit"",""2"",""6320""
","null","<p></p>","null","","","","","","","",""
"","image","142","171014","0.0-142.0","""event"",""trial"",""time""
""fullscreenenter"",""0"",""4486""
""fullscreenexit"",""2"",""6320""
","
","
","""event"",""trial"",""time""
""fullscreenenter"",""0"",""4486""
","""event"",""trial"",""time""
""fullscreenexit"",""2"",""6320""
","1074.199999988079","run_exp/static/images/Set 6_rs/024a.jpg","86","","","","","","learn","SR",""
"","show_choice","143","171940","0.0-143.0","""event"",""trial"",""time""
""fullscreenenter"",""0"",""4486""
""fullscreenexit"",""2"",""6320""
","
","
","""event"",""trial"",""time""
""fullscreenenter"",""0"",""4486""
","""event"",""trial"",""time""
""fullscreenexit"",""2"",""6320""
","null","run_exp/static/images/Set 6_rs/024a.jpg","null","","","","","","learn","SR",""
"","html-keyboard-response","144","172441","0.0-144.0","""event"",""trial"",""time""
""fullscreenenter"",""0"",""4486""
""fullscreenexit"",""2"",""6320""
","
","
","""event"",""trial"",""time""
""fullscreenenter"",""0"",""4486""
","""event"",""trial"",""time""
""fullscreenexit"",""2"",""6320""
","null","<p></p>","null","","","","","","","",""
"","image","145","173474","0.0-145.0","""event"",""trial"",""time""
""fullscreenenter"",""0"",""4486""
""fullscreenexit"",""2"",""6320""
","
","
","""event"",""trial"",""time""
""fullscreenenter"",""0"",""4486""
","""event"",""trial"",""time""
""fullscreenexit"",""2"",""6320""
","1031.4000000059605","run_exp/static/images/Set 6_rs/010a.jpg","86","","","","","","learn","SR",""
"","show_choice","146","174444","0.0-146.0","""event"",""trial"",""time""
""fullscreenenter"",""0"",""4486""
""fullscreenexit"",""2"",""6320""
","
","
","""event"",""trial"",""time""
""fullscreenenter"",""0"",""4486""
","""event"",""trial"",""time""
""fullscreenexit"",""2"",""6320""
","null","run_exp/static/images/Set 6_rs/010a.jpg","null","","","","","","learn","SR",""
"","html-keyboard-response","147","174945","0.0-147.0","""event"",""trial"",""time""
""fullscreenenter"",""0"",""4486""
""fullscreenexit"",""2"",""6320""
","
","
","""event"",""trial"",""time""
""fullscreenenter"",""0"",""4486""
","""event"",""trial"",""time""
""fullscreenexit"",""2"",""6320""
","null","<p></p>","null","","","","","","","",""
"","image","148","176153","0.0-148.0","""event"",""trial"",""time""
""fullscreenenter"",""0"",""4486""
""fullscreenexit"",""2"",""6320""
","
","
","""event"",""trial"",""time""
""fullscreenenter"",""0"",""4486""
","""event"",""trial"",""time""
""fullscreenexit"",""2"",""6320""
","1204.5999999940395","run_exp/static/images/Set 6_rs/126a.jpg","86","","","","","","learn","SR",""
"","show_choice","149","176949","0.0-149.0","""event"",""trial"",""time""
""fullscreenenter"",""0"",""4486""
""fullscreenexit"",""2"",""6320""
","
","
","""event"",""trial"",""time""
""fullscreenenter"",""0"",""4486""
","""event"",""trial"",""time""
""fullscreenexit"",""2"",""6320""
","null","run_exp/static/images/Set 6_rs/126a.jpg","null","","","","","","learn","SR",""
"","html-keyboard-response","150","177451","0.0-150.0","""event"",""trial"",""time""
""fullscreenenter"",""0"",""4486""
""fullscreenexit"",""2"",""6320""
","
","
","""event"",""trial"",""time""
""fullscreenenter"",""0"",""4486""
","""event"",""trial"",""time""
""fullscreenexit"",""2"",""6320""
","null","<p></p>","null","","","","","","","",""
"","image","151","179257","0.0-151.0","""event"",""trial"",""time""
""fullscreenenter"",""0"",""4486""
""fullscreenexit"",""2"",""6320""
","
","
","""event"",""trial"",""time""
""fullscreenenter"",""0"",""4486""
","""event"",""trial"",""time""
""fullscreenexit"",""2"",""6320""
","1804.300000011921","run_exp/static/images/Set 6_rs/191a.jpg","86","","","","","","learn","SL",""
"","show_choice","152","179453","0.0-152.0","""event"",""trial"",""time""
""fullscreenenter"",""0"",""4486""
""fullscreenexit"",""2"",""6320""
","
","
","""event"",""trial"",""time""
""fullscreenenter"",""0"",""4486""
","""event"",""trial"",""time""
""fullscreenexit"",""2"",""6320""
","null","run_exp/static/images/Set 6_rs/191a.jpg","null","","","","","","learn","SL",""
"","html-keyboard-response","153","179954","0.0-153.0","""event"",""trial"",""time""
""fullscreenenter"",""0"",""4486""
""fullscreenexit"",""2"",""6320""
","
","
","""event"",""trial"",""time""
""fullscreenenter"",""0"",""4486""
","""event"",""trial"",""time""
""fullscreenexit"",""2"",""6320""
","null","<p></p>","null","","","","","","","",""
"","image","154","181601","0.0-154.0","""event"",""trial"",""time""
""fullscreenenter"",""0"",""4486""
""fullscreenexit"",""2"",""6320""
","
","
","""event"",""trial"",""time""
""fullscreenenter"",""0"",""4486""
","""event"",""trial"",""time""
""fullscreenexit"",""2"",""6320""
","1644.5","run_exp/static/images/Set 6_rs/061a.jpg","78","","","","","","learn","SR",""
"","show_choice","155","181957","0.0-155.0","""event"",""trial"",""time""
""fullscreenenter"",""0"",""4486""
""fullscreenexit"",""2"",""6320""
","
","
","""event"",""trial"",""time""
""fullscreenenter"",""0"",""4486""
","""event"",""trial"",""time""
""fullscreenexit"",""2"",""6320""
","null","run_exp/static/images/Set 6_rs/061a.jpg","null","","","","","","learn","SR",""
"","html-keyboard-response","156","182458","0.0-156.0","""event"",""trial"",""time""
""fullscreenenter"",""0"",""4486""
""fullscreenexit"",""2"",""6320""
","
","
","""event"",""trial"",""time""
""fullscreenenter"",""0"",""4486""
","""event"",""trial"",""time""
""fullscreenexit"",""2"",""6320""
","null","<p></p>","null","","","","","","","",""
"","image","157","183839","0.0-157.0","""event"",""trial"",""time""
""fullscreenenter"",""0"",""4486""
""fullscreenexit"",""2"",""6320""
","
","
","""event"",""trial"",""time""
""fullscreenenter"",""0"",""4486""
","""event"",""trial"",""time""
""fullscreenexit"",""2"",""6320""
","1379.0999999940395","run_exp/static/images/Set 6_rs/144a.jpg","86","","","","","","learn","SL",""
"","show_choice","158","184460","0.0-158.0","""event"",""trial"",""time""
""fullscreenenter"",""0"",""4486""
""fullscreenexit"",""2"",""6320""
","
","
","""event"",""trial"",""time""
""fullscreenenter"",""0"",""4486""
","""event"",""trial"",""time""
""fullscreenexit"",""2"",""6320""
","null","run_exp/static/images/Set 6_rs/144a.jpg","null","","","","","","learn","SL",""
"","html-keyboard-response","159","184962","0.0-159.0","""event"",""trial"",""time""
""fullscreenenter"",""0"",""4486""
""fullscreenexit"",""2"",""6320""
","
","
","""event"",""trial"",""time""
""fullscreenenter"",""0"",""4486""
","""event"",""trial"",""time""
""fullscreenexit"",""2"",""6320""
","null","<p></p>","null","","","","","","","",""
"","image","160","186445","0.0-160.0","""event"",""trial"",""time""
""fullscreenenter"",""0"",""4486""
""fullscreenexit"",""2"",""6320""
","
","
","""event"",""trial"",""time""
""fullscreenenter"",""0"",""4486""
","""event"",""trial"",""time""
""fullscreenexit"",""2"",""6320""
","1481.9000000059605","run_exp/static/images/Set 6_rs/012a.jpg","86","","","","","","learn","SR",""
"","show_choice","161","186965","0.0-161.0","""event"",""trial"",""time""
""fullscreenenter"",""0"",""4486""
""fullscreenexit"",""2"",""6320""
","
","
","""event"",""trial"",""time""
""fullscreenenter"",""0"",""4486""
","""event"",""trial"",""time""
""fullscreenexit"",""2"",""6320""
","null","run_exp/static/images/Set 6_rs/012a.jpg","null","","","","","","learn","SR",""
"","html-keyboard-response","162","187466","0.0-162.0","""event"",""trial"",""time""
""fullscreenenter"",""0"",""4486""
""fullscreenexit"",""2"",""6320""
","
","
","""event"",""trial"",""time""
""fullscreenenter"",""0"",""4486""
","""event"",""trial"",""time""
""fullscreenexit"",""2"",""6320""
","null","<p></p>","null","","","","","","","",""
"","image","163","188861","0.0-163.0","""event"",""trial"",""time""
""fullscreenenter"",""0"",""4486""
""fullscreenexit"",""2"",""6320""
","
","
","""event"",""trial"",""time""
""fullscreenenter"",""0"",""4486""
","""event"",""trial"",""time""
""fullscreenexit"",""2"",""6320""
","1393.0999999940395","run_exp/static/images/Set 6_rs/134a.jpg","86","","","","","","learn","SR",""
"","show_choice","164","189468","0.0-164.0","""event"",""trial"",""time""
""fullscreenenter"",""0"",""4486""
""fullscreenexit"",""2"",""6320""
","
","
","""event"",""trial"",""time""
""fullscreenenter"",""0"",""4486""
","""event"",""trial"",""time""
""fullscreenexit"",""2"",""6320""
","null","run_exp/static/images/Set 6_rs/134a.jpg","null","","","","","","learn","SR",""
"","html-keyboard-response","165","189969","0.0-165.0","""event"",""trial"",""time""
""fullscreenenter"",""0"",""4486""
""fullscreenexit"",""2"",""6320""
","
","
","""event"",""trial"",""time""
""fullscreenenter"",""0"",""4486""
","""event"",""trial"",""time""
""fullscreenexit"",""2"",""6320""
","null","<p></p>","null","","","","","","","",""
"","image","166","190831","0.0-166.0","""event"",""trial"",""time""
""fullscreenenter"",""0"",""4486""
""fullscreenexit"",""2"",""6320""
","
","
","""event"",""trial"",""time""
""fullscreenenter"",""0"",""4486""
","""event"",""trial"",""time""
""fullscreenexit"",""2"",""6320""
","859.4000000059605","run_exp/static/images/Set 6_rs/168a.jpg","86","","","","","","learn","SL",""
"","show_choice","167","191972","0.0-167.0","""event"",""trial"",""time""
""fullscreenenter"",""0"",""4486""
""fullscreenexit"",""2"",""6320""
","
","
","""event"",""trial"",""time""
""fullscreenenter"",""0"",""4486""
","""event"",""trial"",""time""
""fullscreenexit"",""2"",""6320""
","null","run_exp/static/images/Set 6_rs/168a.jpg","null","","","","","","learn","SL",""
"","html-keyboard-response","168","192474","0.0-168.0","""event"",""trial"",""time""
""fullscreenenter"",""0"",""4486""
""fullscreenexit"",""2"",""6320""
","
","
","""event"",""trial"",""time""
""fullscreenenter"",""0"",""4486""
","""event"",""trial"",""time""
""fullscreenexit"",""2"",""6320""
","null","<p></p>","null","","","","","","","",""
"","image","169","194062","0.0-169.0","""event"",""trial"",""time""
""fullscreenenter"",""0"",""4486""
""fullscreenexit"",""2"",""6320""
","
","
","""event"",""trial"",""time""
""fullscreenenter"",""0"",""4486""
","""event"",""trial"",""time""
""fullscreenexit"",""2"",""6320""
","1587.199999988079","run_exp/static/images/Set 6_rs/116a.jpg","78","","","","","","learn","SL",""
"","show_choice","170","194476","0.0-170.0","""event"",""trial"",""time""
""fullscreenenter"",""0"",""4486""
""fullscreenexit"",""2"",""6320""
","
","
","""event"",""trial"",""time""
""fullscreenenter"",""0"",""4486""
","""event"",""trial"",""time""
""fullscreenexit"",""2"",""6320""
","null","run_exp/static/images/Set 6_rs/116a.jpg","null","","","","","","learn","SL",""
"","html-keyboard-response","171","194977","0.0-171.0","""event"",""trial"",""time""
""fullscreenenter"",""0"",""4486""
""fullscreenexit"",""2"",""6320""
","
","
","""event"",""trial"",""time""
""fullscreenenter"",""0"",""4486""
","""event"",""trial"",""time""
""fullscreenexit"",""2"",""6320""
","null","<p></p>","null","","","","","","","",""
"","image","172","196723","0.0-172.0","""event"",""trial"",""time""
""fullscreenenter"",""0"",""4486""
""fullscreenexit"",""2"",""6320""
","
","
","""event"",""trial"",""time""
""fullscreenenter"",""0"",""4486""
","""event"",""trial"",""time""
""fullscreenexit"",""2"",""6320""
","1743.5999999940395","run_exp/static/images/Set 6_rs/079a.jpg","86","","","","","","learn","SL",""
"","show_choice","173","196980","0.0-173.0","""event"",""trial"",""time""
""fullscreenenter"",""0"",""4486""
""fullscreenexit"",""2"",""6320""
","
","
","""event"",""trial"",""time""
""fullscreenenter"",""0"",""4486""
","""event"",""trial"",""time""
""fullscreenexit"",""2"",""6320""
","null","run_exp/static/images/Set 6_rs/079a.jpg","null","","","","","","learn","SL",""
"","html-keyboard-response","174","197481","0.0-174.0","""event"",""trial"",""time""
""fullscreenenter"",""0"",""4486""
""fullscreenexit"",""2"",""6320""
","
","
","""event"",""trial"",""time""
""fullscreenenter"",""0"",""4486""
","""event"",""trial"",""time""
""fullscreenexit"",""2"",""6320""
","null","<p></p>","null","","","","","","","",""
"","image","175","198872","0.0-175.0","""event"",""trial"",""time""
""fullscreenenter"",""0"",""4486""
""fullscreenexit"",""2"",""6320""
","
","
","""event"",""trial"",""time""
""fullscreenenter"",""0"",""4486""
","""event"",""trial"",""time""
""fullscreenexit"",""2"",""6320""
","1389.6000000238419","run_exp/static/images/Set 6_rs/154a.jpg","86","","","","","","learn","SR",""
"","show_choice","176","199485","0.0-176.0","""event"",""trial"",""time""
""fullscreenenter"",""0"",""4486""
""fullscreenexit"",""2"",""6320""
","
","
","""event"",""trial"",""time""
""fullscreenenter"",""0"",""4486""
","""event"",""trial"",""time""
""fullscreenexit"",""2"",""6320""
","null","run_exp/static/images/Set 6_rs/154a.jpg","null","","","","","","learn","SR",""
"","html-keyboard-response","177","199986","0.0-177.0","""event"",""trial"",""time""
""fullscreenenter"",""0"",""4486""
""fullscreenexit"",""2"",""6320""
","
","
","""event"",""trial"",""time""
""fullscreenenter"",""0"",""4486""
","""event"",""trial"",""time""
""fullscreenexit"",""2"",""6320""
","null","<p></p>","null","","","","","","","",""
"","image","178","201758","0.0-178.0","""event"",""trial"",""time""
""fullscreenenter"",""0"",""4486""
""fullscreenexit"",""2"",""6320""
","
","
","""event"",""trial"",""time""
""fullscreenenter"",""0"",""4486""
","""event"",""trial"",""time""
""fullscreenexit"",""2"",""6320""
","1770.300000011921","run_exp/static/images/Set 6_rs/112a.jpg","86","","","","","","learn","SR",""
"","show_choice","179","201989","0.0-179.0","""event"",""trial"",""time""
""fullscreenenter"",""0"",""4486""
""fullscreenexit"",""2"",""6320""
","
","
","""event"",""trial"",""time""
""fullscreenenter"",""0"",""4486""
","""event"",""trial"",""time""
""fullscreenexit"",""2"",""6320""
","null","run_exp/static/images/Set 6_rs/112a.jpg","null","","","","","","learn","SR",""
"","html-keyboard-response","180","202490","0.0-180.0","""event"",""trial"",""time""
""fullscreenenter"",""0"",""4486""
""fullscreenexit"",""2"",""6320""
","
","
","""event"",""trial"",""time""
""fullscreenenter"",""0"",""4486""
","""event"",""trial"",""time""
""fullscreenexit"",""2"",""6320""
","null","<p></p>","null","","","","","","","",""
"","image","181","204292","0.0-181.0","""event"",""trial"",""time""
""fullscreenenter"",""0"",""4486""
""fullscreenexit"",""2"",""6320""
","
","
","""event"",""trial"",""time""
""fullscreenenter"",""0"",""4486""
","""event"",""trial"",""time""
""fullscreenexit"",""2"",""6320""
","1800.199999988079","run_exp/static/images/Set 6_rs/074a.jpg","86","","","","","","learn","SL",""
"","show_choice","182","204492","0.0-182.0","""event"",""trial"",""time""
""fullscreenenter"",""0"",""4486""
""fullscreenexit"",""2"",""6320""
","
","
","""event"",""trial"",""time""
""fullscreenenter"",""0"",""4486""
","""event"",""trial"",""time""
""fullscreenexit"",""2"",""6320""
","null","run_exp/static/images/Set 6_rs/074a.jpg","null","","","","","","learn","SL",""
"","html-keyboard-response","183","204994","0.0-183.0","""event"",""trial"",""time""
""fullscreenenter"",""0"",""4486""
""fullscreenexit"",""2"",""6320""
","
","
","""event"",""trial"",""time""
""fullscreenenter"",""0"",""4486""
","""event"",""trial"",""time""
""fullscreenexit"",""2"",""6320""
","null","<p></p>","null","","","","","","","",""
"","image","184","206592","0.0-184.0","""event"",""trial"",""time""
""fullscreenenter"",""0"",""4486""
""fullscreenexit"",""2"",""6320""
","
","
","""event"",""trial"",""time""
""fullscreenenter"",""0"",""4486""
","""event"",""trial"",""time""
""fullscreenexit"",""2"",""6320""
","1597.2999999821186","run_exp/static/images/Set 6_rs/095a.jpg","86","","","","","","learn","SL",""
"","show_choice","185","206996","0.0-185.0","""event"",""trial"",""time""
""fullscreenenter"",""0"",""4486""
""fullscreenexit"",""2"",""6320""
","
","
","""event"",""trial"",""time""
""fullscreenenter"",""0"",""4486""
","""event"",""trial"",""time""
""fullscreenexit"",""2"",""6320""
","null","run_exp/static/images/Set 6_rs/095a.jpg","null","","","","","","learn","SL",""
"","html-keyboard-response","186","207497","0.0-186.0","""event"",""trial"",""time""
""fullscreenenter"",""0"",""4486""
""fullscreenexit"",""2"",""6320""
","
","
","""event"",""trial"",""time""
""fullscreenenter"",""0"",""4486""
","""event"",""trial"",""time""
""fullscreenexit"",""2"",""6320""
","null","<p></p>","null","","","","","","","",""
"","image","187","208538","0.0-187.0","""event"",""trial"",""time""
""fullscreenenter"",""0"",""4486""
""fullscreenexit"",""2"",""6320""
","
","
","""event"",""trial"",""time""
""fullscreenenter"",""0"",""4486""
","""event"",""trial"",""time""
""fullscreenexit"",""2"",""6320""
","1040","run_exp/static/images/Set 6_rs/091a.jpg","78","","","","","","learn","SL",""
"","show_choice","188","209500","0.0-188.0","""event"",""trial"",""time""
""fullscreenenter"",""0"",""4486""
""fullscreenexit"",""2"",""6320""
","
","
","""event"",""trial"",""time""
""fullscreenenter"",""0"",""4486""
","""event"",""trial"",""time""
""fullscreenexit"",""2"",""6320""
","null","run_exp/static/images/Set 6_rs/091a.jpg","null","","","","","","learn","SL",""
"","html-keyboard-response","189","210001","0.0-189.0","""event"",""trial"",""time""
""fullscreenenter"",""0"",""4486""
""fullscreenexit"",""2"",""6320""
","
","
","""event"",""trial"",""time""
""fullscreenenter"",""0"",""4486""
","""event"",""trial"",""time""
""fullscreenexit"",""2"",""6320""
","null","<p></p>","null","","","","","","","",""
"","image","190","211719","0.0-190.0","""event"",""trial"",""time""
""fullscreenenter"",""0"",""4486""
""fullscreenexit"",""2"",""6320""
","
","
","""event"",""trial"",""time""
""fullscreenenter"",""0"",""4486""
","""event"",""trial"",""time""
""fullscreenexit"",""2"",""6320""
","1716.199999988079","run_exp/static/images/Set 6_rs/014a.jpg","86","","","","","","learn","SL",""
"","show_choice","191","212003","0.0-191.0","""event"",""trial"",""time""
""fullscreenenter"",""0"",""4486""
""fullscreenexit"",""2"",""6320""
","
","
","""event"",""trial"",""time""
""fullscreenenter"",""0"",""4486""
","""event"",""trial"",""time""
""fullscreenexit"",""2"",""6320""
","null","run_exp/static/images/Set 6_rs/014a.jpg","null","","","","","","learn","SL",""
"","html-keyboard-response","192","212504","0.0-192.0","""event"",""trial"",""time""
""fullscreenenter"",""0"",""4486""
""fullscreenexit"",""2"",""6320""
","
","
","""event"",""trial"",""time""
""fullscreenenter"",""0"",""4486""
","""event"",""trial"",""time""
""fullscreenexit"",""2"",""6320""
","null","<p></p>","null","","","","","","","",""
"","image","193","214505","0.0-193.0","""event"",""trial"",""time""
""fullscreenenter"",""0"",""4486""
""fullscreenexit"",""2"",""6320""
","
","
","""event"",""trial"",""time""
""fullscreenenter"",""0"",""4486""
","""event"",""trial"",""time""
""fullscreenexit"",""2"",""6320""
","null","run_exp/static/images/Set 6_rs/132a.jpg","null","","","","","","learn","SR",""
"","show_choice","194","216513","0.0-194.0","""event"",""trial"",""time""
""fullscreenenter"",""0"",""4486""
""fullscreenexit"",""2"",""6320""
","
","
","""event"",""trial"",""time""
""fullscreenenter"",""0"",""4486""
","""event"",""trial"",""time""
""fullscreenexit"",""2"",""6320""
","null","run_exp/static/images/blank.png","null","","","","","","learn","SR",""
"","html-keyboard-response","195","217014","0.0-195.0","""event"",""trial"",""time""
""fullscreenenter"",""0"",""4486""
""fullscreenexit"",""2"",""6320""
""blur"",""196"",""219111""
","""event"",""trial"",""time""
""blur"",""196"",""219111""
","
","""event"",""trial"",""time""
""fullscreenenter"",""0"",""4486""
","""event"",""trial"",""time""
""fullscreenexit"",""2"",""6320""
","null","<p></p>","null","","","","","","","",""
"","test_intro","196","253943","0.0-196.0","""event"",""trial"",""time""
""fullscreenenter"",""0"",""4486""
""fullscreenexit"",""2"",""6320""
""blur"",""196"",""219111""
""focus"",""197"",""287157""
","""event"",""trial"",""time""
""blur"",""196"",""219111""
","""event"",""trial"",""time""
""focus"",""197"",""287157""
","""event"",""trial"",""time""
""fullscreenenter"",""0"",""4486""
","""event"",""trial"",""time""
""fullscreenexit"",""2"",""6320""
","null","run_exp/static/audio/clip_2_memory.m4a","null","","","","","<div class='center'><p>Now, lets see how much you remember about the items you just saw.  For each item, you need to indicate if it was <b>old</b> by pressing the <b>v</b> key, <b>similar</b> by pressing the <b>b</b> key, or <b>new</b> by pressing the <b>n</b> key.</p><p>Old refers to an item that you saw before in the indoor/outdoor game that you just played, new refers to an item you have <b>not</b> seen before within the indoor/outdoor game, and similar refers to an item that is similar to an item youve seen before but is not exactly the same. </p><p>Before we begin, lets go over some brief demonstrations to make sure you understand.</p></div>","","",""
"","html-keyboard-response","197","306550","0.0-197.0","""event"",""trial"",""time""
""fullscreenenter"",""0"",""4486""
""fullscreenexit"",""2"",""6320""
""blur"",""196"",""219111""
""focus"",""197"",""287157""
","""event"",""trial"",""time""
""blur"",""196"",""219111""
","""event"",""trial"",""time""
""focus"",""197"",""287157""
","""event"",""trial"",""time""
""fullscreenenter"",""0"",""4486""
","""event"",""trial"",""time""
""fullscreenexit"",""2"",""6320""
","52602.19999998808","<div class='center'><p>Now, lets see how much you remember about the items you just saw.  For each item, you need to indicate if it was <b>old</b> by pressing the <b>v</b> key, <b>similar</b> by pressing the <b>b</b> key, or <b>new</b> by pressing the <b>n</b> key.</p><p>Old refers to an item that you saw before in the indoor/outdoor game that you just played, new refers to an item you have <b>not</b> seen before within the indoor/outdoor game, and similar refers to an item that is similar to an item youve seen before but is not exactly the same. </p><p>Before we begin, lets go over some brief demonstrations to make sure you understand.</p><div><p><b>[Press the space bar to continue]</b></p></div>","32","","","","","","","",""
"","items","198","314064","0.0-198.0","""event"",""trial"",""time""
""fullscreenenter"",""0"",""4486""
""fullscreenexit"",""2"",""6320""
""blur"",""196"",""219111""
""focus"",""197"",""287157""
","""event"",""trial"",""time""
""blur"",""196"",""219111""
","""event"",""trial"",""time""
""focus"",""197"",""287157""
","""event"",""trial"",""time""
""fullscreenenter"",""0"",""4486""
","""event"",""trial"",""time""
""fullscreenexit"",""2"",""6320""
","null","run_exp/static/audio/clip_3_items.m4a","null","","","","","","","",""
"","mop","199","318579","0.0-199.0","""event"",""trial"",""time""
""fullscreenenter"",""0"",""4486""
""fullscreenexit"",""2"",""6320""
""blur"",""196"",""219111""
""focus"",""197"",""287157""
","""event"",""trial"",""time""
""blur"",""196"",""219111""
","""event"",""trial"",""time""
""focus"",""197"",""287157""
","""event"",""trial"",""time""
""fullscreenenter"",""0"",""4486""
","""event"",""trial"",""time""
""fullscreenexit"",""2"",""6320""
","null","run_exp/static/audio/clip_4_mop.m4a","null","","","","","","","",""
"","baseball","200","322082","0.0-200.0","""event"",""trial"",""time""
""fullscreenenter"",""0"",""4486""
""fullscreenexit"",""2"",""6320""
""blur"",""196"",""219111""
""focus"",""197"",""287157""
","""event"",""trial"",""time""
""blur"",""196"",""219111""
","""event"",""trial"",""time""
""focus"",""197"",""287157""
","""event"",""trial"",""time""
""fullscreenenter"",""0"",""4486""
","""event"",""trial"",""time""
""fullscreenexit"",""2"",""6320""
","null","run_exp/static/audio/clip_5_baseball.m4a","null","","","","","","","",""
"","trumpet","201","325591","0.0-201.0","""event"",""trial"",""time""
""fullscreenenter"",""0"",""4486""
""fullscreenexit"",""2"",""6320""
""blur"",""196"",""219111""
""focus"",""197"",""287157""
","""event"",""trial"",""time""
""blur"",""196"",""219111""
","""event"",""trial"",""time""
""focus"",""197"",""287157""
","""event"",""trial"",""time""
""fullscreenenter"",""0"",""4486""
","""event"",""trial"",""time""
""fullscreenexit"",""2"",""6320""
","null","run_exp/static/audio/clip_6_trumpet.m4a","null","","","","","","","",""
"","gummies","202","329100","0.0-202.0","""event"",""trial"",""time""
""fullscreenenter"",""0"",""4486""
""fullscreenexit"",""2"",""6320""
""blur"",""196"",""219111""
""focus"",""197"",""287157""
","""event"",""trial"",""time""
""blur"",""196"",""219111""
","""event"",""trial"",""time""
""focus"",""197"",""287157""
","""event"",""trial"",""time""
""fullscreenenter"",""0"",""4486""
","""event"",""trial"",""time""
""fullscreenexit"",""2"",""6320""
","null","run_exp/static/audio/clip_7_gummies.m4a","null","","","","","","","",""
"","osn","203","333603","0.0-203.0","""event"",""trial"",""time""
""fullscreenenter"",""0"",""4486""
""fullscreenexit"",""2"",""6320""
""blur"",""196"",""219111""
""focus"",""197"",""287157""
","""event"",""trial"",""time""
""blur"",""196"",""219111""
","""event"",""trial"",""time""
""focus"",""197"",""287157""
","""event"",""trial"",""time""
""fullscreenenter"",""0"",""4486""
","""event"",""trial"",""time""
""fullscreenexit"",""2"",""6320""
","null","run_exp/static/audio/clip_8_osn.m4a","null","","","","","","","",""
"","old_1","204","340105","0.0-204.0","""event"",""trial"",""time""
""fullscreenenter"",""0"",""4486""
""fullscreenexit"",""2"",""6320""
""blur"",""196"",""219111""
""focus"",""197"",""287157""
","""event"",""trial"",""time""
""blur"",""196"",""219111""
","""event"",""trial"",""time""
""focus"",""197"",""287157""
","""event"",""trial"",""time""
""fullscreenenter"",""0"",""4486""
","""event"",""trial"",""time""
""fullscreenexit"",""2"",""6320""
","null","run_exp/static/audio/clip_9_old_trumpet.m4a","null","","","","","","","",""
"","new_1","205","347610","0.0-205.0","""event"",""trial"",""time""
""fullscreenenter"",""0"",""4486""
""fullscreenexit"",""2"",""6320""
""blur"",""196"",""219111""
""focus"",""197"",""287157""
","""event"",""trial"",""time""
""blur"",""196"",""219111""
","""event"",""trial"",""time""
""focus"",""197"",""287157""
","""event"",""trial"",""time""
""fullscreenenter"",""0"",""4486""
","""event"",""trial"",""time""
""fullscreenexit"",""2"",""6320""
","null","run_exp/static/audio/clip_10_new_balloon.m4a","null","","","","","","","",""
"","similar_1a","206","352123","0.0-206.0","""event"",""trial"",""time""
""fullscreenenter"",""0"",""4486""
""fullscreenexit"",""2"",""6320""
""blur"",""196"",""219111""
""focus"",""197"",""287157""
","""event"",""trial"",""time""
""blur"",""196"",""219111""
","""event"",""trial"",""time""
""focus"",""197"",""287157""
","""event"",""trial"",""time""
""fullscreenenter"",""0"",""4486""
","""event"",""trial"",""time""
""fullscreenexit"",""2"",""6320""
","null","run_exp/static/audio/clip_11a_similar_mop.m4a","null","","","","","","","",""
"","similar_1b","207","358632","0.0-207.0","""event"",""trial"",""time""
""fullscreenenter"",""0"",""4486""
""fullscreenexit"",""2"",""6320""
""blur"",""196"",""219111""
""focus"",""197"",""287157""
","""event"",""trial"",""time""
""blur"",""196"",""219111""
","""event"",""trial"",""time""
""focus"",""197"",""287157""
","""event"",""trial"",""time""
""fullscreenenter"",""0"",""4486""
","""event"",""trial"",""time""
""fullscreenexit"",""2"",""6320""
","null","run_exp/static/audio/clip_11b_similar_mop.m4a","null","","","","","","","",""
"","new_2","208","362143","0.0-208.0","""event"",""trial"",""time""
""fullscreenenter"",""0"",""4486""
""fullscreenexit"",""2"",""6320""
""blur"",""196"",""219111""
""focus"",""197"",""287157""
","""event"",""trial"",""time""
""blur"",""196"",""219111""
","""event"",""trial"",""time""
""focus"",""197"",""287157""
","""event"",""trial"",""time""
""fullscreenenter"",""0"",""4486""
","""event"",""trial"",""time""
""fullscreenexit"",""2"",""6320""
","null","run_exp/static/audio/clip_12_new_stoplight.m4a","null","","","","","","","",""
"","old_2","209","365645","0.0-209.0","""event"",""trial"",""time""
""fullscreenenter"",""0"",""4486""
""fullscreenexit"",""2"",""6320""
""blur"",""196"",""219111""
""focus"",""197"",""287157""
","""event"",""trial"",""time""
""blur"",""196"",""219111""
","""event"",""trial"",""time""
""focus"",""197"",""287157""
","""event"",""trial"",""time""
""fullscreenenter"",""0"",""4486""
","""event"",""trial"",""time""
""fullscreenexit"",""2"",""6320""
","null","run_exp/static/audio/clip_13_old_baseball.m4a","null","","","","","","","",""
"","similar_2a","210","369152","0.0-210.0","""event"",""trial"",""time""
""fullscreenenter"",""0"",""4486""
""fullscreenexit"",""2"",""6320""
""blur"",""196"",""219111""
""focus"",""197"",""287157""
","""event"",""trial"",""time""
""blur"",""196"",""219111""
","""event"",""trial"",""time""
""focus"",""197"",""287157""
","""event"",""trial"",""time""
""fullscreenenter"",""0"",""4486""
","""event"",""trial"",""time""
""fullscreenexit"",""2"",""6320""
","null","run_exp/static/audio/clip_14a_similar_gummies.m4a","null","","","","","","","",""
"","similar_2b","211","376661","0.0-211.0","""event"",""trial"",""time""
""fullscreenenter"",""0"",""4486""
""fullscreenexit"",""2"",""6320""
""blur"",""196"",""219111""
""focus"",""197"",""287157""
","""event"",""trial"",""time""
""blur"",""196"",""219111""
","""event"",""trial"",""time""
""focus"",""197"",""287157""
","""event"",""trial"",""time""
""fullscreenenter"",""0"",""4486""
","""event"",""trial"",""time""
""fullscreenexit"",""2"",""6320""
","null","run_exp/static/audio/clip_14b_similar_gummies.m4a","null","","","","","","","",""
"","practice","212","418914","0.0-212.0","""event"",""trial"",""time""
""fullscreenenter"",""0"",""4486""
""fullscreenexit"",""2"",""6320""
""blur"",""196"",""219111""
""focus"",""197"",""287157""
","""event"",""trial"",""time""
""blur"",""196"",""219111""
","""event"",""trial"",""time""
""focus"",""197"",""287157""
","""event"",""trial"",""time""
""fullscreenenter"",""0"",""4486""
","""event"",""trial"",""time""
""fullscreenexit"",""2"",""6320""
","null","run_exp/static/audio/clip_15_practice.m4a","null","","","","","<div class='center'><p>Lets practice a little to make sure you understand the difference between new, similar, and old. Lets say you saw these three items in the indoor/outdoor game.</p><p> Try your best to remember these images because youll soon be tested on them in a practice game. In the practice game, youll be shown images and youll have to say if they are old (one of the three images belows), similar (similar to one of the images below but not exactly the same), or new (are not one of the images below nor similar to them).</p><p>Once you press the space bar youll be shown these images again but one at time. Then youll begin the practice game.</p><p><img src='run_exp/static/images/tutorial/test/three_indoor_outdoor.png' height='300'></p></div>","","",""
"","html-keyboard-response","213","426095","0.0-213.0","""event"",""trial"",""time""
""fullscreenenter"",""0"",""4486""
""fullscreenexit"",""2"",""6320""
""blur"",""196"",""219111""
""focus"",""197"",""287157""
","""event"",""trial"",""time""
""blur"",""196"",""219111""
","""event"",""trial"",""time""
""focus"",""197"",""287157""
","""event"",""trial"",""time""
""fullscreenenter"",""0"",""4486""
","""event"",""trial"",""time""
""fullscreenexit"",""2"",""6320""
","7169.699999988079","<div class='center'><p>Lets practice a little to make sure you understand the difference between new, similar, and old. Lets say you saw these three items in the indoor/outdoor game.</p><p> Try your best to remember these images because youll soon be tested on them in a practice game. In the practice game, youll be shown images and youll have to say if they are old (one of the three images belows), similar (similar to one of the images below but not exactly the same), or new (are not one of the images below nor similar to them).</p><p>Once you press the space bar youll be shown these images again but one at time. Then youll begin the practice game.</p><p><img src='run_exp/static/images/tutorial/test/three_indoor_outdoor.png' height='300'></p><div><p><b>[Press the space bar to continue]</b></p></div>","32","","","","","","","",""
"","planet","214","428097","0.0-214.0","""event"",""trial"",""time""
""fullscreenenter"",""0"",""4486""
""fullscreenexit"",""2"",""6320""
""blur"",""196"",""219111""
""focus"",""197"",""287157""
","""event"",""trial"",""time""
""blur"",""196"",""219111""
","""event"",""trial"",""time""
""focus"",""197"",""287157""
","""event"",""trial"",""time""
""fullscreenenter"",""0"",""4486""
","""event"",""trial"",""time""
""fullscreenexit"",""2"",""6320""
","null","run_exp/static/images/tutorial/test/008a.jpg","null","","","","","","","",""
"","boot","215","430099","0.0-215.0","""event"",""trial"",""time""
""fullscreenenter"",""0"",""4486""
""fullscreenexit"",""2"",""6320""
""blur"",""196"",""219111""
""focus"",""197"",""287157""
","""event"",""trial"",""time""
""blur"",""196"",""219111""
","""event"",""trial"",""time""
""focus"",""197"",""287157""
","""event"",""trial"",""time""
""fullscreenenter"",""0"",""4486""
","""event"",""trial"",""time""
""fullscreenexit"",""2"",""6320""
","null","run_exp/static/images/tutorial/test/011a.jpg","null","","","","","","","",""
"","lemon","216","432100","0.0-216.0","""event"",""trial"",""time""
""fullscreenenter"",""0"",""4486""
""fullscreenexit"",""2"",""6320""
""blur"",""196"",""219111""
""focus"",""197"",""287157""
","""event"",""trial"",""time""
""blur"",""196"",""219111""
","""event"",""trial"",""time""
""focus"",""197"",""287157""
","""event"",""trial"",""time""
""fullscreenenter"",""0"",""4486""
","""event"",""trial"",""time""
""fullscreenexit"",""2"",""6320""
","null","run_exp/static/images/tutorial/test/018a.jpg","null","","","","","","","",""
"","practice_q1","217","435608","0.0-217.0","""event"",""trial"",""time""
""fullscreenenter"",""0"",""4486""
""fullscreenexit"",""2"",""6320""
""blur"",""196"",""219111""
""focus"",""197"",""287157""
","""event"",""trial"",""time""
""blur"",""196"",""219111""
","""event"",""trial"",""time""
""focus"",""197"",""287157""
","""event"",""trial"",""time""
""fullscreenenter"",""0"",""4486""
","""event"",""trial"",""time""
""fullscreenexit"",""2"",""6320""
","3504.9000000059605","run_exp/static/audio/clip_16_practice_question.m4a","78","","","","","","","",""
"","correct","218","437747","0.0-218.0-0.0","""event"",""trial"",""time""
""fullscreenenter"",""0"",""4486""
""fullscreenexit"",""2"",""6320""
""blur"",""196"",""219111""
""focus"",""197"",""287157""
","""event"",""trial"",""time""
""blur"",""196"",""219111""
","""event"",""trial"",""time""
""focus"",""197"",""287157""
","""event"",""trial"",""time""
""fullscreenenter"",""0"",""4486""
","""event"",""trial"",""time""
""fullscreenexit"",""2"",""6320""
","null","run_exp/static/audio/clip_17_correct.m4a","null","","","","","<div class='center'><p>That's correct!</p></div>","","",""
"","html-keyboard-response","219","438831","0.0-218.0-1.0","""event"",""trial"",""time""
""fullscreenenter"",""0"",""4486""
""fullscreenexit"",""2"",""6320""
""blur"",""196"",""219111""
""focus"",""197"",""287157""
","""event"",""trial"",""time""
""blur"",""196"",""219111""
","""event"",""trial"",""time""
""focus"",""197"",""287157""
","""event"",""trial"",""time""
""fullscreenenter"",""0"",""4486""
","""event"",""trial"",""time""
""fullscreenexit"",""2"",""6320""
","1082","<div class='center'><p>That's correct!</p><div><p><b>[Press the space bar to continue]</b></p></div>","32","","","","","","","",""
"","practice_q2","220","441755","0.0-218.0-2.0","""event"",""trial"",""time""
""fullscreenenter"",""0"",""4486""
""fullscreenexit"",""2"",""6320""
""blur"",""196"",""219111""
""focus"",""197"",""287157""
","""event"",""trial"",""time""
""blur"",""196"",""219111""
","""event"",""trial"",""time""
""focus"",""197"",""287157""
","""event"",""trial"",""time""
""fullscreenenter"",""0"",""4486""
","""event"",""trial"",""time""
""fullscreenexit"",""2"",""6320""
","2921.5","run_exp/static/audio/clip_16_practice_question.m4a","66","","","","","","","",""
"","incorrect_q2","221","444999","0.0-219.0-0.0","""event"",""trial"",""time""
""fullscreenenter"",""0"",""4486""
""fullscreenexit"",""2"",""6320""
""blur"",""196"",""219111""
""focus"",""197"",""287157""
","""event"",""trial"",""time""
""blur"",""196"",""219111""
","""event"",""trial"",""time""
""focus"",""197"",""287157""
","""event"",""trial"",""time""
""fullscreenenter"",""0"",""4486""
","""event"",""trial"",""time""
""fullscreenexit"",""2"",""6320""
","null","run_exp/static/audio/clip_19_incorrect_old.m4a","null","","","","","<div class='center'><p>Thats incorrect. Its old.</p></div>","","",""
"","html-keyboard-response","222","446208","0.0-219.0-1.0","""event"",""trial"",""time""
""fullscreenenter"",""0"",""4486""
""fullscreenexit"",""2"",""6320""
""blur"",""196"",""219111""
""focus"",""197"",""287157""
","""event"",""trial"",""time""
""blur"",""196"",""219111""
","""event"",""trial"",""time""
""focus"",""197"",""287157""
","""event"",""trial"",""time""
""fullscreenenter"",""0"",""4486""
","""event"",""trial"",""time""
""fullscreenexit"",""2"",""6320""
","1208.199999988079","<div class='center'><p>Thats incorrect. Its old.</p><div><p><b>[Press the space bar to continue]</b></p></div>","32","","","","","","","",""
"","practice_q3","223","449107","0.0-219.0-2.0","""event"",""trial"",""time""
""fullscreenenter"",""0"",""4486""
""fullscreenexit"",""2"",""6320""
""blur"",""196"",""219111""
""focus"",""197"",""287157""
","""event"",""trial"",""time""
""blur"",""196"",""219111""
","""event"",""trial"",""time""
""focus"",""197"",""287157""
","""event"",""trial"",""time""
""fullscreenenter"",""0"",""4486""
","""event"",""trial"",""time""
""fullscreenexit"",""2"",""6320""
","2897","run_exp/static/audio/clip_16_practice_question.m4a","66","","","","","","","",""
"","correct","224","451228","0.0-220.0-0.0","""event"",""trial"",""time""
""fullscreenenter"",""0"",""4486""
""fullscreenexit"",""2"",""6320""
""blur"",""196"",""219111""
""focus"",""197"",""287157""
","""event"",""trial"",""time""
""blur"",""196"",""219111""
","""event"",""trial"",""time""
""focus"",""197"",""287157""
","""event"",""trial"",""time""
""fullscreenenter"",""0"",""4486""
","""event"",""trial"",""time""
""fullscreenexit"",""2"",""6320""
","null","run_exp/static/audio/clip_17_correct.m4a","null","","","","","<div class='center'><p>That's correct!</p></div>","","",""
"","html-keyboard-response","225","452085","0.0-220.0-1.0","""event"",""trial"",""time""
""fullscreenenter"",""0"",""4486""
""fullscreenexit"",""2"",""6320""
""blur"",""196"",""219111""
""focus"",""197"",""287157""
","""event"",""trial"",""time""
""blur"",""196"",""219111""
","""event"",""trial"",""time""
""focus"",""197"",""287157""
","""event"",""trial"",""time""
""fullscreenenter"",""0"",""4486""
","""event"",""trial"",""time""
""fullscreenexit"",""2"",""6320""
","856","<div class='center'><p>That's correct!</p><div><p><b>[Press the space bar to continue]</b></p></div>","32","","","","","","","",""
"","repeat","226","457033","0.0-221.0-0.0","""event"",""trial"",""time""
""fullscreenenter"",""0"",""4486""
""fullscreenexit"",""2"",""6320""
""blur"",""196"",""219111""
""focus"",""197"",""287157""
","""event"",""trial"",""time""
""blur"",""196"",""219111""
","""event"",""trial"",""time""
""focus"",""197"",""287157""
","""event"",""trial"",""time""
""fullscreenenter"",""0"",""4486""
","""event"",""trial"",""time""
""fullscreenexit"",""2"",""6320""
","null","run_exp/static/audio/clip_21_practice_again.m4a","null","","","","","<div class='center'><p>Oops. you missed at least one of these questions. Let's try practicing again. </p></div>","","",""
"","html-keyboard-response","227","457862","0.0-221.0-1.0","""event"",""trial"",""time""
""fullscreenenter"",""0"",""4486""
""fullscreenexit"",""2"",""6320""
""blur"",""196"",""219111""
""focus"",""197"",""287157""
","""event"",""trial"",""time""
""blur"",""196"",""219111""
","""event"",""trial"",""time""
""focus"",""197"",""287157""
","""event"",""trial"",""time""
""fullscreenenter"",""0"",""4486""
","""event"",""trial"",""time""
""fullscreenexit"",""2"",""6320""
","827.2000000178814","<div class='center'><p>Oops. you missed at least one of these questions. Let's try practicing again. </p><div><p><b>[Press the space bar to continue]</b></p></div>","32","","","","","","","",""
"","practice_q1","228","461435","0.0-221.0-2.0","""event"",""trial"",""time""
""fullscreenenter"",""0"",""4486""
""fullscreenexit"",""2"",""6320""
""blur"",""196"",""219111""
""focus"",""197"",""287157""
","""event"",""trial"",""time""
""blur"",""196"",""219111""
","""event"",""trial"",""time""
""focus"",""197"",""287157""
","""event"",""trial"",""time""
""fullscreenenter"",""0"",""4486""
","""event"",""trial"",""time""
""fullscreenexit"",""2"",""6320""
","3569.5","run_exp/static/audio/clip_16_practice_question.m4a","78","","","","","","","",""
"","correct","229","463516","0.0-222.0-0.0","""event"",""trial"",""time""
""fullscreenenter"",""0"",""4486""
""fullscreenexit"",""2"",""6320""
""blur"",""196"",""219111""
""focus"",""197"",""287157""
","""event"",""trial"",""time""
""blur"",""196"",""219111""
","""event"",""trial"",""time""
""focus"",""197"",""287157""
","""event"",""trial"",""time""
""fullscreenenter"",""0"",""4486""
","""event"",""trial"",""time""
""fullscreenexit"",""2"",""6320""
","null","run_exp/static/audio/clip_17_correct.m4a","null","","","","","<div class='center'><p>That's correct!</p></div>","","",""
"","html-keyboard-response","230","464681","0.0-222.0-1.0","""event"",""trial"",""time""
""fullscreenenter"",""0"",""4486""
""fullscreenexit"",""2"",""6320""
""blur"",""196"",""219111""
""focus"",""197"",""287157""
","""event"",""trial"",""time""
""blur"",""196"",""219111""
","""event"",""trial"",""time""
""focus"",""197"",""287157""
","""event"",""trial"",""time""
""fullscreenenter"",""0"",""4486""
","""event"",""trial"",""time""
""fullscreenexit"",""2"",""6320""
","1160.699999988079","<div class='center'><p>That's correct!</p><div><p><b>[Press the space bar to continue]</b></p></div>","32","","","","","","","",""
"","practice_q2","231","465169","0.0-222.0-2.0","""event"",""trial"",""time""
""fullscreenenter"",""0"",""4486""
""fullscreenexit"",""2"",""6320""
""blur"",""196"",""219111""
""focus"",""197"",""287157""
","""event"",""trial"",""time""
""blur"",""196"",""219111""
","""event"",""trial"",""time""
""focus"",""197"",""287157""
","""event"",""trial"",""time""
""fullscreenenter"",""0"",""4486""
","""event"",""trial"",""time""
""fullscreenexit"",""2"",""6320""
","486.09999999403954","run_exp/static/audio/clip_16_practice_question.m4a","86","","","","","","","",""
"","correct","232","467274","0.0-223.0-0.0","""event"",""trial"",""time""
""fullscreenenter"",""0"",""4486""
""fullscreenexit"",""2"",""6320""
""blur"",""196"",""219111""
""focus"",""197"",""287157""
","""event"",""trial"",""time""
""blur"",""196"",""219111""
","""event"",""trial"",""time""
""focus"",""197"",""287157""
","""event"",""trial"",""time""
""fullscreenenter"",""0"",""4486""
","""event"",""trial"",""time""
""fullscreenexit"",""2"",""6320""
","null","run_exp/static/audio/clip_17_correct.m4a","null","","","","","<div class='center'><p>That's correct!</p></div>","","",""
"","html-keyboard-response","233","468675","0.0-223.0-1.0","""event"",""trial"",""time""
""fullscreenenter"",""0"",""4486""
""fullscreenexit"",""2"",""6320""
""blur"",""196"",""219111""
""focus"",""197"",""287157""
","""event"",""trial"",""time""
""blur"",""196"",""219111""
","""event"",""trial"",""time""
""focus"",""197"",""287157""
","""event"",""trial"",""time""
""fullscreenenter"",""0"",""4486""
","""event"",""trial"",""time""
""fullscreenexit"",""2"",""6320""
","1400.199999988079","<div class='center'><p>That's correct!</p><div><p><b>[Press the space bar to continue]</b></p></div>","32","","","","","","","",""
"","practice_q3","234","470494","0.0-223.0-2.0","""event"",""trial"",""time""
""fullscreenenter"",""0"",""4486""
""fullscreenexit"",""2"",""6320""
""blur"",""196"",""219111""
""focus"",""197"",""287157""
","""event"",""trial"",""time""
""blur"",""196"",""219111""
","""event"",""trial"",""time""
""focus"",""197"",""287157""
","""event"",""trial"",""time""
""fullscreenenter"",""0"",""4486""
","""event"",""trial"",""time""
""fullscreenexit"",""2"",""6320""
","1815.7000000178814","run_exp/static/audio/clip_16_practice_question.m4a","66","","","","","","","",""
