"success","trial_type","trial_index","time_elapsed","internal_node_id","rt","stimulus","key_press","subject_id","participant_id","age","gender","prompt","phase","condition","lure_bin"
"true","fullscreen","0","5757","0.0-0.0","","","","","","","","","","",""
"","pavlovia","1","5762","0.0-1.0","","","","","","","","","","",""
"","welcome","2","41479","0.0-2.0","null","run_exp/static/audio/clip_1_welcome.m4a","null","55","18","8","female","<div class='center'><p>This is your last game of the experiment! First, you'll be shown pictures of items one at a time. For each picture, you have to decide if the item is typically found indoors or outdoors.</p><p>If you think it's usually found indoors, then press <b>v</b> key on your keyboard. If you think it's usually found outdoors, then press the <b>n</b> key.There will be reminders on the screen to help you remember which keys to press. </p><p>If you're not sure whether the item is an indoor item or outdoor item, go ahead and take a guess but try your best not to skip that choice. </p></div>","","",""
"","html-keyboard-response","3","116459","0.0-3.0","74981.69999999553","<div class='center'><p>This is your last game of the experiment! First, you'll be shown pictures of items one at a time. For each picture, you have to decide if the item is typically found indoors or outdoors.</p><p>If you think it's usually found indoors, then press <b>v</b> key on your keyboard. If you think it's usually found outdoors, then press the <b>n</b> key.There will be reminders on the screen to help you remember which keys to press. </p><p>If you're not sure whether the item is an indoor item or outdoor item, go ahead and take a guess but try your best not to skip that choice. </p><div><p><b>[Press the space bar to continue]</b></p></div>","32","","","","","","","",""
"","image","4","118462","0.0-4.0","null","run_exp/static/images/Set 6_rs/055a.jpg","null","","","","","","learn","SL",""
"","show_choice","5","120464","0.0-5.0","null","run_exp/static/images/blank.png","null","","","","","","learn","SL",""
"","html-keyboard-response","6","120970","0.0-6.0","null","<p></p>","null","","","","","","","",""
"","image","7","122127","0.0-7.0","1155.6000000014901","run_exp/static/images/Set 6_rs/126a.jpg","86","","","","","","learn","SR",""
"","show_choice","8","122974","0.0-8.0","null","run_exp/static/images/Set 6_rs/126a.jpg","null","","","","","","learn","SR",""
"","html-keyboard-response","9","123480","0.0-9.0","null","<p></p>","null","","","","","","","",""
"","image","10","124591","0.0-10.0","1110.1000000014901","run_exp/static/images/Set 6_rs/122a.jpg","86","","","","","","learn","SR",""
"","show_choice","11","125485","0.0-11.0","null","run_exp/static/images/Set 6_rs/122a.jpg","null","","","","","","learn","SR",""
"","html-keyboard-response","12","125990","0.0-12.0","null","<p></p>","null","","","","","","","",""
"","image","13","126942","0.0-13.0","951.2999999970198","run_exp/static/images/Set 6_rs/025a.jpg","78","","","","","","learn","SL",""
"","show_choice","14","127994","0.0-14.0","null","run_exp/static/images/Set 6_rs/025a.jpg","null","","","","","","learn","SL",""
"","html-keyboard-response","15","128499","0.0-15.0","null","<p></p>","null","","","","","","","",""
"","image","16","129472","0.0-16.0","971.8999999985099","run_exp/static/images/Set 6_rs/138a.jpg","78","","","","","","learn","SL",""
"","show_choice","17","130505","0.0-17.0","null","run_exp/static/images/Set 6_rs/138a.jpg","null","","","","","","learn","SL",""
"","html-keyboard-response","18","131011","0.0-18.0","null","<p></p>","null","","","","","","","",""
"","image","19","132365","0.0-19.0","1353.8999999985099","run_exp/static/images/Set 6_rs/148a.jpg","86","","","","","","learn","SR",""
"","show_choice","20","133016","0.0-20.0","null","run_exp/static/images/Set 6_rs/148a.jpg","null","","","","","","learn","SR",""
"","html-keyboard-response","21","133520","0.0-21.0","null","<p></p>","null","","","","","","","",""
"","image","22","134333","0.0-22.0","812.7000000029802","run_exp/static/images/Set 6_rs/064a.jpg","86","","","","","","learn","SR",""
"","show_choice","23","135524","0.0-23.0","null","run_exp/static/images/Set 6_rs/064a.jpg","null","","","","","","learn","SR",""
"","html-keyboard-response","24","136030","0.0-24.0","null","<p></p>","null","","","","","","","",""
"","image","25","137197","0.0-25.0","1166.5","run_exp/static/images/Set 6_rs/144a.jpg","86","","","","","","learn","SL",""
"","show_choice","26","138035","0.0-26.0","null","run_exp/static/images/Set 6_rs/144a.jpg","null","","","","","","learn","SL",""
"","html-keyboard-response","27","138540","0.0-27.0","null","<p></p>","null","","","","","","","",""
"","image","28","139663","0.0-28.0","1121.6000000014901","run_exp/static/images/Set 6_rs/177a.jpg","78","","","","","","learn","SR",""
"","show_choice","29","140546","0.0-29.0","null","run_exp/static/images/Set 6_rs/177a.jpg","null","","","","","","learn","SR",""
"","html-keyboard-response","30","141050","0.0-30.0","null","<p></p>","null","","","","","","","",""
"","image","31","142126","0.0-31.0","1075.5","run_exp/static/images/Set 6_rs/006a.jpg","86","","","","","","learn","SL",""
"","show_choice","32","143055","0.0-32.0","null","run_exp/static/images/Set 6_rs/006a.jpg","null","","","","","","learn","SL",""
"","html-keyboard-response","33","143559","0.0-33.0","null","<p></p>","null","","","","","","","",""
"","image","34","144566","0.0-34.0","1006.1999999955297","run_exp/static/images/Set 6_rs/045a.jpg","86","","","","","","learn","SR",""
"","show_choice","35","145564","0.0-35.0","null","run_exp/static/images/Set 6_rs/045a.jpg","null","","","","","","learn","SR",""
"","html-keyboard-response","36","146068","0.0-36.0","null","<p></p>","null","","","","","","","",""
"","image","37","147181","0.0-37.0","1111.6000000014901","run_exp/static/images/Set 6_rs/008a.jpg","86","","","","","","learn","SL",""
"","show_choice","38","148073","0.0-38.0","null","run_exp/static/images/Set 6_rs/008a.jpg","null","","","","","","learn","SL",""
"","html-keyboard-response","39","148579","0.0-39.0","null","<p></p>","null","","","","","","","",""
"","image","40","150053","0.0-40.0","1474.1999999955297","run_exp/static/images/Set 6_rs/117a.jpg","78","","","","","","learn","SL",""
"","show_choice","41","150584","0.0-41.0","null","run_exp/static/images/Set 6_rs/117a.jpg","null","","","","","","learn","SL",""
"","html-keyboard-response","42","151087","0.0-42.0","null","<p></p>","null","","","","","","","",""
"","image","43","152079","0.0-43.0","991.6999999955297","run_exp/static/images/Set 6_rs/123a.jpg","86","","","","","","learn","SL",""
"","show_choice","44","153092","0.0-44.0","null","run_exp/static/images/Set 6_rs/123a.jpg","null","","","","","","learn","SL",""
"","html-keyboard-response","45","153597","0.0-45.0","null","<p></p>","null","","","","","","","",""
"","image","46","154631","0.0-46.0","1032.8000000044703","run_exp/static/images/Set 6_rs/152a.jpg","86","","","","","","learn","SR",""
"","show_choice","47","155602","0.0-47.0","null","run_exp/static/images/Set 6_rs/152a.jpg","null","","","","","","learn","SR",""
"","html-keyboard-response","48","156105","0.0-48.0","null","<p></p>","null","","","","","","","",""
"","image","49","157430","0.0-49.0","1323.8999999985099","run_exp/static/images/Set 6_rs/089a.jpg","86","","","","","","learn","SL",""
"","show_choice","50","158111","0.0-50.0","null","run_exp/static/images/Set 6_rs/089a.jpg","null","","","","","","learn","SL",""
"","html-keyboard-response","51","158616","0.0-51.0","null","<p></p>","null","","","","","","","",""
"","image","52","159621","0.0-52.0","1004.6999999955297","run_exp/static/images/Set 6_rs/154a.jpg","86","","","","","","learn","SR",""
"","show_choice","53","160621","0.0-53.0","null","run_exp/static/images/Set 6_rs/154a.jpg","null","","","","","","learn","SR",""
"","html-keyboard-response","54","161126","0.0-54.0","null","<p></p>","null","","","","","","","",""
"","image","55","162085","0.0-55.0","957.7000000029802","run_exp/static/images/Set 6_rs/186a.jpg","86","","","","","","learn","SR",""
"","show_choice","56","163132","0.0-56.0","null","run_exp/static/images/Set 6_rs/186a.jpg","null","","","","","","learn","SR",""
"","html-keyboard-response","57","163635","0.0-57.0","null","<p></p>","null","","","","","","","",""
"","image","58","165052","0.0-58.0","1416.8000000044703","run_exp/static/images/Set 6_rs/168a.jpg","78","","","","","","learn","SL",""
"","show_choice","59","165639","0.0-59.0","null","run_exp/static/images/Set 6_rs/168a.jpg","null","","","","","","learn","SL",""
"","html-keyboard-response","60","166142","0.0-60.0","null","<p></p>","null","","","","","","","",""
"","image","61","167533","0.0-61.0","1390.4000000059605","run_exp/static/images/Set 6_rs/091a.jpg","78","","","","","","learn","SL",""
"","show_choice","62","168147","0.0-62.0","null","run_exp/static/images/Set 6_rs/091a.jpg","null","","","","","","learn","SL",""
"","html-keyboard-response","63","168653","0.0-63.0","null","<p></p>","null","","","","","","","",""
"","image","64","169885","0.0-64.0","1231.7999999970198","run_exp/static/images/Set 6_rs/060a.jpg","86","","","","","","learn","SL",""
"","show_choice","65","170658","0.0-65.0","null","run_exp/static/images/Set 6_rs/060a.jpg","null","","","","","","learn","SL",""
"","html-keyboard-response","66","171163","0.0-66.0","null","<p></p>","null","","","","","","","",""
"","image","67","172541","0.0-67.0","1377.9000000059605","run_exp/static/images/Set 6_rs/066a.jpg","86","","","","","","learn","SL",""
"","show_choice","68","173166","0.0-68.0","null","run_exp/static/images/Set 6_rs/066a.jpg","null","","","","","","learn","SL",""
"","html-keyboard-response","69","173670","0.0-69.0","null","<p></p>","null","","","","","","","",""
"","image","70","175068","0.0-70.0","1397.1000000014901","run_exp/static/images/Set 6_rs/178a.jpg","86","","","","","","learn","SR",""
"","show_choice","71","175675","0.0-71.0","null","run_exp/static/images/Set 6_rs/178a.jpg","null","","","","","","learn","SR",""
"","html-keyboard-response","72","176179","0.0-72.0","null","<p></p>","null","","","","","","","",""
"","image","73","177221","0.0-73.0","1041.6999999955297","run_exp/static/images/Set 6_rs/167a.jpg","86","","","","","","learn","SL",""
"","show_choice","74","178184","0.0-74.0","null","run_exp/static/images/Set 6_rs/167a.jpg","null","","","","","","learn","SL",""
"","html-keyboard-response","75","178689","0.0-75.0","null","<p></p>","null","","","","","","","",""
"","image","76","179716","0.0-76.0","1026.6999999955297","run_exp/static/images/Set 6_rs/166a.jpg","86","","","","","","learn","SR",""
"","show_choice","77","180694","0.0-77.0","null","run_exp/static/images/Set 6_rs/166a.jpg","null","","","","","","learn","SR",""
"","html-keyboard-response","78","181199","0.0-78.0","null","<p></p>","null","","","","","","","",""
"","image","79","182051","0.0-79.0","851.8999999985099","run_exp/static/images/Set 6_rs/111a.jpg","86","","","","","","learn","SL",""
"","show_choice","80","183203","0.0-80.0","null","run_exp/static/images/Set 6_rs/111a.jpg","null","","","","","","learn","SL",""
"","html-keyboard-response","81","183707","0.0-81.0","null","<p></p>","null","","","","","","","",""
"","image","82","184971","0.0-82.0","1263.7999999970198","run_exp/static/images/Set 6_rs/131a.jpg","86","","","","","","learn","SR",""
"","show_choice","83","185712","0.0-83.0","null","run_exp/static/images/Set 6_rs/131a.jpg","null","","","","","","learn","SR",""
"","html-keyboard-response","84","186215","0.0-84.0","null","<p></p>","null","","","","","","","",""
"","image","85","187508","0.0-85.0","1291.3999999985099","run_exp/static/images/Set 6_rs/129a.jpg","86","","","","","","learn","SL",""
"","show_choice","86","188221","0.0-86.0","null","run_exp/static/images/Set 6_rs/129a.jpg","null","","","","","","learn","SL",""
"","html-keyboard-response","87","188726","0.0-87.0","null","<p></p>","null","","","","","","","",""
"","image","88","190043","0.0-88.0","1316.7999999970198","run_exp/static/images/Set 6_rs/073a.jpg","86","","","","","","learn","SL",""
"","show_choice","89","190731","0.0-89.0","null","run_exp/static/images/Set 6_rs/073a.jpg","null","","","","","","learn","SL",""
"","html-keyboard-response","90","191235","0.0-90.0","null","<p></p>","null","","","","","","","",""
"","image","91","192670","0.0-91.0","1433.6000000014901","run_exp/static/images/Set 6_rs/076a.jpg","86","","","","","","learn","SR",""
"","show_choice","92","193239","0.0-92.0","null","run_exp/static/images/Set 6_rs/076a.jpg","null","","","","","","learn","SR",""
"","html-keyboard-response","93","193743","0.0-93.0","null","<p></p>","null","","","","","","","",""
"","image","94","195205","0.0-94.0","1461.5","run_exp/static/images/Set 6_rs/063a.jpg","86","","","","","","learn","SR",""
"","show_choice","95","195746","0.0-95.0","null","run_exp/static/images/Set 6_rs/063a.jpg","null","","","","","","learn","SR",""
"","html-keyboard-response","96","196250","0.0-96.0","null","<p></p>","null","","","","","","","",""
"","image","97","197732","0.0-97.0","1480.7999999970198","run_exp/static/images/Set 6_rs/036a.jpg","86","","","","","","learn","SL",""
"","show_choice","98","198253","0.0-98.0","null","run_exp/static/images/Set 6_rs/036a.jpg","null","","","","","","learn","SL",""
"","html-keyboard-response","99","198758","0.0-99.0","null","<p></p>","null","","","","","","","",""
"","image","100","200499","0.0-100.0","1739.8999999985099","run_exp/static/images/Set 6_rs/057a.jpg","78","","","","","","learn","SL",""
"","show_choice","101","200761","0.0-101.0","null","run_exp/static/images/Set 6_rs/057a.jpg","null","","","","","","learn","SL",""
"","html-keyboard-response","102","201266","0.0-102.0","null","<p></p>","null","","","","","","","",""
"","image","103","202266","0.0-103.0","999.7999999970198","run_exp/static/images/Set 6_rs/085a.jpg","86","","","","","","learn","SL",""
"","show_choice","104","203271","0.0-104.0","null","run_exp/static/images/Set 6_rs/085a.jpg","null","","","","","","learn","SL",""
"","html-keyboard-response","105","203776","0.0-105.0","null","<p></p>","null","","","","","","","",""
"","image","106","204626","0.0-106.0","849.3999999985099","run_exp/static/images/Set 6_rs/023a.jpg","86","","","","","","learn","SR",""
"","show_choice","107","205781","0.0-107.0","null","run_exp/static/images/Set 6_rs/023a.jpg","null","","","","","","learn","SR",""
"","html-keyboard-response","108","206285","0.0-108.0","null","<p></p>","null","","","","","","","",""
"","image","109","207051","0.0-109.0","764.5","run_exp/static/images/Set 6_rs/095a.jpg","86","","","","","","learn","SL",""
"","show_choice","110","208289","0.0-110.0","null","run_exp/static/images/Set 6_rs/095a.jpg","null","","","","","","learn","SL",""
"","html-keyboard-response","111","208795","0.0-111.0","null","<p></p>","null","","","","","","","",""
"","image","112","209754","0.0-112.0","958.7000000029802","run_exp/static/images/Set 6_rs/016a.jpg","86","","","","","","learn","SL",""
"","show_choice","113","210801","0.0-113.0","null","run_exp/static/images/Set 6_rs/016a.jpg","null","","","","","","learn","SL",""
"","html-keyboard-response","114","211307","0.0-114.0","null","<p></p>","null","","","","","","","",""
"","image","115","212229","0.0-115.0","921.7000000029802","run_exp/static/images/Set 6_rs/172a.jpg","78","","","","","","learn","SR",""
"","show_choice","116","213311","0.0-116.0","null","run_exp/static/images/Set 6_rs/172a.jpg","null","","","","","","learn","SR",""
"","html-keyboard-response","117","213816","0.0-117.0","null","<p></p>","null","","","","","","","",""
"","image","118","214866","0.0-118.0","1049.5","run_exp/static/images/Set 6_rs/067a.jpg","86","","","","","","learn","SL",""
"","show_choice","119","215820","0.0-119.0","null","run_exp/static/images/Set 6_rs/067a.jpg","null","","","","","","learn","SL",""
"","html-keyboard-response","120","216323","0.0-120.0","null","<p></p>","null","","","","","","","",""
"","image","121","217354","0.0-121.0","1030.1000000014901","run_exp/static/images/Set 6_rs/075a.jpg","86","","","","","","learn","SR",""
"","show_choice","122","218328","0.0-122.0","null","run_exp/static/images/Set 6_rs/075a.jpg","null","","","","","","learn","SR",""
"","html-keyboard-response","123","218833","0.0-123.0","null","<p></p>","null","","","","","","","",""
"","image","124","219717","0.0-124.0","883.1999999955297","run_exp/static/images/Set 6_rs/187a.jpg","86","","","","","","learn","SR",""
"","show_choice","125","220838","0.0-125.0","null","run_exp/static/images/Set 6_rs/187a.jpg","null","","","","","","learn","SR",""
"","html-keyboard-response","126","221344","0.0-126.0","null","<p></p>","null","","","","","","","",""
"","image","127","222235","0.0-127.0","890.6999999955297","run_exp/static/images/Set 6_rs/074a.jpg","86","","","","","","learn","SL",""
"","show_choice","128","223347","0.0-128.0","null","run_exp/static/images/Set 6_rs/074a.jpg","null","","","","","","learn","SL",""
"","html-keyboard-response","129","223852","0.0-129.0","null","<p></p>","null","","","","","","","",""
"","image","130","224954","0.0-130.0","1101.8000000044703","run_exp/static/images/Set 6_rs/169a.jpg","78","","","","","","learn","SR",""
"","show_choice","131","225857","0.0-131.0","null","run_exp/static/images/Set 6_rs/169a.jpg","null","","","","","","learn","SR",""
"","html-keyboard-response","132","226362","0.0-132.0","null","<p></p>","null","","","","","","","",""
"","image","133","228209","0.0-133.0","1847.2999999970198","run_exp/static/images/Set 6_rs/121a.jpg","86","","","","","","learn","SR",""
"","show_choice","134","228367","0.0-134.0","null","run_exp/static/images/Set 6_rs/121a.jpg","null","","","","","","learn","SR",""
"","html-keyboard-response","135","228872","0.0-135.0","null","<p></p>","null","","","","","","","",""
"","image","136","230067","0.0-136.0","1194.5","run_exp/static/images/Set 6_rs/112a.jpg","86","","","","","","learn","SR",""
"","show_choice","137","230876","0.0-137.0","null","run_exp/static/images/Set 6_rs/112a.jpg","null","","","","","","learn","SR",""
"","html-keyboard-response","138","231380","0.0-138.0","null","<p></p>","null","","","","","","","",""
"","image","139","232554","0.0-139.0","1173","run_exp/static/images/Set 6_rs/088a.jpg","86","","","","","","learn","SR",""
"","show_choice","140","233385","0.0-140.0","null","run_exp/static/images/Set 6_rs/088a.jpg","null","","","","","","learn","SR",""
"","html-keyboard-response","141","233891","0.0-141.0","null","<p></p>","null","","","","","","","",""
"","image","142","235050","0.0-142.0","1158.1000000014901","run_exp/static/images/Set 6_rs/019a.jpg","86","","","","","","learn","SL",""
"","show_choice","143","235896","0.0-143.0","null","run_exp/static/images/Set 6_rs/019a.jpg","null","","","","","","learn","SL",""
"","html-keyboard-response","144","236400","0.0-144.0","null","<p></p>","null","","","","","","","",""
"","image","145","237450","0.0-145.0","1049.6000000014901","run_exp/static/images/Set 6_rs/062a.jpg","86","","","","","","learn","SL",""
"","show_choice","146","238405","0.0-146.0","null","run_exp/static/images/Set 6_rs/062a.jpg","null","","","","","","learn","SL",""
"","html-keyboard-response","147","238909","0.0-147.0","null","<p></p>","null","","","","","","","",""
"","image","148","240249","0.0-148.0","1338.5","run_exp/static/images/Set 6_rs/150a.jpg","86","","","","","","learn","SR",""
"","show_choice","149","240915","0.0-149.0","null","run_exp/static/images/Set 6_rs/150a.jpg","null","","","","","","learn","SR",""
"","html-keyboard-response","150","241419","0.0-150.0","null","<p></p>","null","","","","","","","",""
"","image","151","242881","0.0-151.0","1461.5999999940395","run_exp/static/images/Set 6_rs/017a.jpg","78","","","","","","learn","SL",""
"","show_choice","152","243424","0.0-152.0","null","run_exp/static/images/Set 6_rs/017a.jpg","null","","","","","","learn","SL",""
"","html-keyboard-response","153","243929","0.0-153.0","null","<p></p>","null","","","","","","","",""
"","image","154","244753","0.0-154.0","823.6000000014901","run_exp/static/images/Set 6_rs/132a.jpg","86","","","","","","learn","SR",""
"","show_choice","155","245933","0.0-155.0","null","run_exp/static/images/Set 6_rs/132a.jpg","null","","","","","","learn","SR",""
"","html-keyboard-response","156","246438","0.0-156.0","null","<p></p>","null","","","","","","","",""
"","image","157","247536","0.0-157.0","1097.2000000029802","run_exp/static/images/Set 6_rs/071a.jpg","86","","","","","","learn","SL",""
"","show_choice","158","248442","0.0-158.0","null","run_exp/static/images/Set 6_rs/071a.jpg","null","","","","","","learn","SL",""
"","html-keyboard-response","159","248948","0.0-159.0","null","<p></p>","null","","","","","","","",""
"","image","160","249866","0.0-160.0","917.2999999970198","run_exp/static/images/Set 6_rs/181a.jpg","78","","","","","","learn","SL",""
"","show_choice","161","250953","0.0-161.0","null","run_exp/static/images/Set 6_rs/181a.jpg","null","","","","","","learn","SL",""
"","html-keyboard-response","162","251455","0.0-162.0","null","<p></p>","null","","","","","","","",""
"","image","163","253461","0.0-163.0","null","run_exp/static/images/Set 6_rs/061a.jpg","null","","","","","","learn","SR",""
"","show_choice","164","255466","0.0-164.0","null","run_exp/static/images/blank.png","null","","","","","","learn","SR",""
"","html-keyboard-response","165","255970","0.0-165.0","null","<p></p>","null","","","","","","","",""
"","image","166","257105","0.0-166.0","1135","run_exp/static/images/Set 6_rs/134a.jpg","78","","","","","","learn","SR",""
"","show_choice","167","257975","0.0-167.0","null","run_exp/static/images/Set 6_rs/134a.jpg","null","","","","","","learn","SR",""
"","html-keyboard-response","168","258492","0.0-168.0","null","<p></p>","null","","","","","","","",""
"","image","169","259632","0.0-169.0","1138.7000000029802","run_exp/static/images/Set 6_rs/007a.jpg","86","","","","","","learn","SR",""
"","show_choice","170","260497","0.0-170.0","null","run_exp/static/images/Set 6_rs/007a.jpg","null","","","","","","learn","SR",""
"","html-keyboard-response","171","260999","0.0-171.0","null","<p></p>","null","","","","","","","",""
"","image","172","262583","0.0-172.0","1583.3999999985099","run_exp/static/images/Set 6_rs/191a.jpg","86","","","","","","learn","SL",""
"","show_choice","173","263005","0.0-173.0","null","run_exp/static/images/Set 6_rs/191a.jpg","null","","","","","","learn","SL",""
"","html-keyboard-response","174","263510","0.0-174.0","null","<p></p>","null","","","","","","","",""
"","image","175","264536","0.0-175.0","1025.8999999985099","run_exp/static/images/Set 6_rs/141a.jpg","78","","","","","","learn","SR",""
"","show_choice","176","265514","0.0-176.0","null","run_exp/static/images/Set 6_rs/141a.jpg","null","","","","","","learn","SR",""
"","html-keyboard-response","177","266018","0.0-177.0","null","<p></p>","null","","","","","","","",""
"","image","178","267056","0.0-178.0","1037.4000000059605","run_exp/static/images/Set 6_rs/116a.jpg","86","","","","","","learn","SL",""
"","show_choice","179","268025","0.0-179.0","null","run_exp/static/images/Set 6_rs/116a.jpg","null","","","","","","learn","SL",""
"","html-keyboard-response","180","268530","0.0-180.0","null","<p></p>","null","","","","","","","",""
"","image","181","269377","0.0-181.0","846.5","run_exp/static/images/Set 6_rs/079a.jpg","86","","","","","","learn","SL",""
"","show_choice","182","270535","0.0-182.0","null","run_exp/static/images/Set 6_rs/079a.jpg","null","","","","","","learn","SL",""
"","html-keyboard-response","183","271039","0.0-183.0","null","<p></p>","null","","","","","","","",""
"","image","184","272199","0.0-184.0","1159.2999999970198","run_exp/static/images/Set 6_rs/024a.jpg","86","","","","","","learn","SR",""
"","show_choice","185","273041","0.0-185.0","null","run_exp/static/images/Set 6_rs/024a.jpg","null","","","","","","learn","SR",""
"","html-keyboard-response","186","273546","0.0-186.0","null","<p></p>","null","","","","","","","",""
"","image","187","274583","0.0-187.0","1035.6999999955297","run_exp/static/images/Set 6_rs/010a.jpg","86","","","","","","learn","SR",""
"","show_choice","188","275550","0.0-188.0","null","run_exp/static/images/Set 6_rs/010a.jpg","null","","","","","","learn","SR",""
"","html-keyboard-response","189","276054","0.0-189.0","null","<p></p>","null","","","","","","","",""
"","image","190","277118","0.0-190.0","1062.5999999940395","run_exp/static/images/Set 6_rs/012a.jpg","86","","","","","","learn","SR",""
"","show_choice","191","278059","0.0-191.0","null","run_exp/static/images/Set 6_rs/012a.jpg","null","","","","","","learn","SR",""
"","html-keyboard-response","192","278564","0.0-192.0","null","<p></p>","null","","","","","","","",""
"","image","193","279648","0.0-193.0","1083.6000000014901","run_exp/static/images/Set 6_rs/108a.jpg","86","","","","","","learn","SR",""
"","show_choice","194","280569","0.0-194.0","null","run_exp/static/images/Set 6_rs/108a.jpg","null","","","","","","learn","SR",""
"","html-keyboard-response","195","281074","0.0-195.0","null","<p></p>","null","","","","","","","",""
"","test_intro","196","322844","0.0-196.0","null","run_exp/static/audio/clip_2_memory.m4a","null","","","","","<div class='center'><p>Now, let’s see how much you remember about the items you just saw.  For each item, you need to indicate if it was <b>old</b> by pressing the <b>v</b> key, <b>similar</b> by pressing the <b>b</b> key, or <b>new</b> by pressing the <b>n</b> key.</p><p>Old refers to an item that you saw before in the indoor/outdoor game that you just played, new refers to an item you have <b>not</b> seen before within the indoor/outdoor game, and similar refers to an item that is similar to an item you’ve seen before but is not exactly the same. </p><p>Before we begin, let’s go over some brief demonstrations to make sure you understand.</p></div>","","",""
"","html-keyboard-response","197","324045","0.0-197.0","1199.6000000014901","<div class='center'><p>Now, let’s see how much you remember about the items you just saw.  For each item, you need to indicate if it was <b>old</b> by pressing the <b>v</b> key, <b>similar</b> by pressing the <b>b</b> key, or <b>new</b> by pressing the <b>n</b> key.</p><p>Old refers to an item that you saw before in the indoor/outdoor game that you just played, new refers to an item you have <b>not</b> seen before within the indoor/outdoor game, and similar refers to an item that is similar to an item you’ve seen before but is not exactly the same. </p><p>Before we begin, let’s go over some brief demonstrations to make sure you understand.</p><div><p><b>[Press the space bar to continue]</b></p></div>","32","","","","","","","",""
"","items","198","331549","0.0-198.0","null","run_exp/static/audio/clip_3_items.m4a","null","","","","","","","",""
"","mop","199","336054","0.0-199.0","null","run_exp/static/audio/clip_4_mop.m4a","null","","","","","","","",""
"","baseball","200","339558","0.0-200.0","null","run_exp/static/audio/clip_5_baseball.m4a","null","","","","","","","",""
"","trumpet","201","343064","0.0-201.0","null","run_exp/static/audio/clip_6_trumpet.m4a","null","","","","","","","",""
"","gummies","202","346568","0.0-202.0","null","run_exp/static/audio/clip_7_gummies.m4a","null","","","","","","","",""
"","osn","203","351069","0.0-203.0","null","run_exp/static/audio/clip_8_osn.m4a","null","","","","","","","",""
"","old_1","204","357573","0.0-204.0","null","run_exp/static/audio/clip_9_old_trumpet.m4a","null","","","","","","","",""
"","new_1","205","365077","0.0-205.0","null","run_exp/static/audio/clip_10_new_balloon.m4a","null","","","","","","","",""
"","similar_1a","206","369582","0.0-206.0","null","run_exp/static/audio/clip_11a_similar_mop.m4a","null","","","","","","","",""
"","similar_1b","207","376087","0.0-207.0","null","run_exp/static/audio/clip_11b_similar_mop.m4a","null","","","","","","","",""
"","new_2","208","379589","0.0-208.0","null","run_exp/static/audio/clip_12_new_stoplight.m4a","null","","","","","","","",""
"","old_2","209","383094","0.0-209.0","null","run_exp/static/audio/clip_13_old_baseball.m4a","null","","","","","","","",""
"","similar_2a","210","386599","0.0-210.0","null","run_exp/static/audio/clip_14a_similar_gummies.m4a","null","","","","","","","",""
"","similar_2b","211","394103","0.0-211.0","null","run_exp/static/audio/clip_14b_similar_gummies.m4a","null","","","","","","","",""
"","practice","212","410051","0.0-212.0","null","run_exp/static/audio/clip_15_practice.m4a","null","","","","","<div class='center'><p>Ok, let’s practice a little to make sure you understand the difference between new, similar, and old. Let’s say you saw these three items in the indoor/outdoor game. Study these because you’ll be tested on them soon in this practice game. </p><p><img src='run_exp/static/images/tutorial/test/three_indoor_outdoor.png' height='300'></p></div>","","",""
"","html-keyboard-response","213","411635","0.0-213.0","1583.1000000014901","<div class='center'><p>Ok, let’s practice a little to make sure you understand the difference between new, similar, and old. Let’s say you saw these three items in the indoor/outdoor game. Study these because you’ll be tested on them soon in this practice game. </p><p><img src='run_exp/static/images/tutorial/test/three_indoor_outdoor.png' height='300'></p><div><p><b>[Press the space bar to continue]</b></p></div>","32","","","","","","","",""
"","practice_q1","214","416976","0.0-214.0","5340.69999999553","run_exp/static/audio/clip_16_practice_question.m4a","78","","","","","","","",""
"","correct","215","419053","0.0-215.0-0.0","null","run_exp/static/audio/clip_17_correct.m4a","null","","","","","<div class='center'><p>That's correct!</p></div>","","",""
"","html-keyboard-response","216","420578","0.0-215.0-1.0","1524.5999999940395","<div class='center'><p>That's correct!</p><div><p><b>[Press the space bar to continue]</b></p></div>","32","","","","","","","",""
"","practice_q2","217","425794","0.0-215.0-2.0","5215.10000000149","run_exp/static/audio/clip_16_practice_question.m4a","66","","","","","","","",""
"","incorrect_q2","218","429037","0.0-216.0-0.0","null","run_exp/static/audio/clip_19_incorrect_old.m4a","null","","","","","<div class='center'><p>That’s incorrect. It’s old.</p></div>","","",""
"","html-keyboard-response","219","430225","0.0-216.0-1.0","1187.5","<div class='center'><p>That’s incorrect. It’s old.</p><div><p><b>[Press the space bar to continue]</b></p></div>","32","","","","","","","",""
"","practice_q3","220","435330","0.0-216.0-2.0","5104.0999999940395","run_exp/static/audio/clip_16_practice_question.m4a","78","","","","","","","",""
"","incorrect_q3","221","438295","0.0-217.0-0.0","null","run_exp/static/audio/clip_20_incorrect_similar.m4a","null","","","","","<div class='center'><p>That’s incorrect. It’s similar.</p><p><img src='run_exp/static/images/tutorial/test/boot_comparison.png' height='300'></p></div>","","",""
"","html-keyboard-response","222","439455","0.0-217.0-1.0","1158.5","<div class='center'><p>That’s incorrect. It’s similar.</p><p><img src='run_exp/static/images/tutorial/test/boot_comparison.png' height='300'></p><div><p><b>[Press the space bar to continue]</b></p></div>","32","","","","","","","",""
"","repeat","223","444353","0.0-218.0-0.0","null","run_exp/static/audio/clip_21_practice_again.m4a","null","","","","","<div class='center'><p>Oops. you missed at least one of these questions. Let's try practiceing again. </p></div>","","",""
"","html-keyboard-response","224","444831","0.0-218.0-1.0","477.5","<div class='center'><p>Oops. you missed at least one of these questions. Let's try practiceing again. </p><div><p><b>[Press the space bar to continue]</b></p></div>","32","","","","","","","",""
"","practice_q1","225","450031","0.0-218.0-2.0","5199","run_exp/static/audio/clip_16_practice_question.m4a","78","","","","","","","",""
"","correct","226","452161","0.0-219.0-0.0","null","run_exp/static/audio/clip_17_correct.m4a","null","","","","","<div class='center'><p>That's correct!</p></div>","","",""
"","html-keyboard-response","227","453097","0.0-219.0-1.0","935","<div class='center'><p>That's correct!</p><div><p><b>[Press the space bar to continue]</b></p></div>","32","","","","","","","",""
"","practice_q2","228","458147","0.0-219.0-2.0","5048.70000000298","run_exp/static/audio/clip_16_practice_question.m4a","86","","","","","","","",""
"","correct","229","460246","0.0-220.0-0.0","null","run_exp/static/audio/clip_17_correct.m4a","null","","","","","<div class='center'><p>That's correct!</p></div>","","",""
"","html-keyboard-response","230","461313","0.0-220.0-1.0","1066.2000000029802","<div class='center'><p>That's correct!</p><div><p><b>[Press the space bar to continue]</b></p></div>","32","","","","","","","",""
"","practice_q3","231","466727","0.0-220.0-2.0","5413.60000000149","run_exp/static/audio/clip_16_practice_question.m4a","66","","","","","","","",""
"","correct","232","469099","0.0-221.0-0.0","null","run_exp/static/audio/clip_17_correct.m4a","null","","","","","<div class='center'><p>That's correct!</p></div>","","",""
"","html-keyboard-response","233","469686","0.0-221.0-1.0","586.5","<div class='center'><p>That's correct!</p><div><p><b>[Press the space bar to continue]</b></p></div>","32","","","","","","","",""
"","begin_text","234","484928","0.0-222.0-0.0","null","run_exp/static/audio/clip_22_begin_test.m4a","null","","","","","<div class='center'><p>Now it’s your turn. For each item, you need to indicate if the item is <b>old</b> by pressing the <b>v</b> key, <b>similar</b> by pressing the <b>b</b> key, or <b>new</b> by pressing the <b>n</b> key. </p></div>","","",""
"","html-keyboard-response","235","484966","0.0-222.0-1.0","38","<div class='center'><p>Now it’s your turn. For each item, you need to indicate if the item is <b>old</b> by pressing the <b>v</b> key, <b>similar</b> by pressing the <b>b</b> key, or <b>new</b> by pressing the <b>n</b> key. </p><div><p><b>[Press the space bar to continue]</b></p></div>","32","","","","","","","",""
"","image","236","486430","0.0-223.0-0.0","1462.8999999985099","run_exp/static/images/Set 6_rs/077a.jpg","78","","","","","","test","TF","3"
"","show_choice","237","486932","0.0-223.0-1.0","null","run_exp/static/images/Set 6_rs/077a.jpg","null","","","","","","test","TF",""
"","html-keyboard-response","238","487438","0.0-223.0-2.0","null","<p></p>","null","","","","","","","",""
"","image","239","489006","0.0-224.0-0.0","1566.8000000044703","run_exp/static/images/Set 6_rs/016b.jpg","86","","","","","","test","TL","1"
"","show_choice","240","489508","0.0-224.0-1.0","null","run_exp/static/images/Set 6_rs/016b.jpg","null","","","","","","test","TL",""
"","html-keyboard-response","241","490012","0.0-224.0-2.0","null","<p></p>","null","","","","","","","",""
"","image","242","491407","0.0-225.0-0.0","1393.6000000014901","run_exp/static/images/Set 6_rs/121a.jpg","86","","","","","","test","TR","4"
"","show_choice","243","491911","0.0-225.0-1.0","null","run_exp/static/images/Set 6_rs/121a.jpg","null","","","","","","test","TR",""
"","html-keyboard-response","244","492417","0.0-225.0-2.0","null","<p></p>","null","","","","","","","",""
"","image","245","493325","0.0-226.0-0.0","907","run_exp/static/images/Set 6_rs/129b.jpg","86","","","","","","test","TL","1"
"","show_choice","246","493830","0.0-226.0-1.0","null","run_exp/static/images/Set 6_rs/129b.jpg","null","","","","","","test","TL",""
"","html-keyboard-response","247","494335","0.0-226.0-2.0","null","<p></p>","null","","","","","","","",""
"","image","248","495261","0.0-227.0-0.0","925.1999999955297","run_exp/static/images/Set 6_rs/108a.jpg","86","","","","","","test","TR","5"
"","show_choice","249","495764","0.0-227.0-1.0","null","run_exp/static/images/Set 6_rs/108a.jpg","null","","","","","","test","TR",""
"","html-keyboard-response","250","496268","0.0-227.0-2.0","null","<p></p>","null","","","","","","","",""
"","image","251","497301","0.0-228.0-0.0","1032.6000000014901","run_exp/static/images/Set 6_rs/079b.jpg","66","","","","","","test","TL","5"
"","show_choice","252","497806","0.0-228.0-1.0","null","run_exp/static/images/Set 6_rs/079b.jpg","null","","","","","","test","TL",""
"","html-keyboard-response","253","498311","0.0-228.0-2.0","null","<p></p>","null","","","","","","","",""
"","image","254","499445","0.0-229.0-0.0","1133.1000000014901","run_exp/static/images/Set 6_rs/019b.jpg","86","","","","","","test","TL","2"
"","show_choice","255","499946","0.0-229.0-1.0","null","run_exp/static/images/Set 6_rs/019b.jpg","null","","","","","","test","TL",""
"","html-keyboard-response","256","500452","0.0-229.0-2.0","null","<p></p>","null","","","","","","","",""
"","image","257","501470","0.0-230.0-0.0","1017","run_exp/static/images/Set 6_rs/063a.jpg","86","","","","","","test","TR","2"
"","show_choice","258","501975","0.0-230.0-1.0","null","run_exp/static/images/Set 6_rs/063a.jpg","null","","","","","","test","TR",""
"","html-keyboard-response","259","502479","0.0-230.0-2.0","null","<p></p>","null","","","","","","","",""
"","image","260","504566","0.0-231.0-0.0","2087","run_exp/static/images/Set 6_rs/168b.jpg","78","","","","","","test","TL","3"
"","show_choice","261","505071","0.0-231.0-1.0","null","run_exp/static/images/Set 6_rs/168b.jpg","null","","","","","","test","TL",""
"","html-keyboard-response","262","505575","0.0-231.0-2.0","null","<p></p>","null","","","","","","","",""
"","image","263","506997","0.0-232.0-0.0","1421.5999999940395","run_exp/static/images/Set 6_rs/126a.jpg","86","","","","","","test","TR","2"
"","show_choice","264","507500","0.0-232.0-1.0","null","run_exp/static/images/Set 6_rs/126a.jpg","null","","","","","","test","TR",""
"","html-keyboard-response","265","508005","0.0-232.0-2.0","null","<p></p>","null","","","","","","","",""
"","image","266","508981","0.0-233.0-0.0","975.3999999985099","run_exp/static/images/Set 6_rs/150a.jpg","86","","","","","","test","TR","1"
"","show_choice","267","509485","0.0-233.0-1.0","null","run_exp/static/images/Set 6_rs/150a.jpg","null","","","","","","test","TR",""
"","html-keyboard-response","268","509990","0.0-233.0-2.0","null","<p></p>","null","","","","","","","",""
"","image","269","511309","0.0-234.0-0.0","1318.5","run_exp/static/images/Set 6_rs/001a.jpg","78","","","","","","test","TF","1"
"","show_choice","270","511813","0.0-234.0-1.0","null","run_exp/static/images/Set 6_rs/001a.jpg","null","","","","","","test","TF",""
"","html-keyboard-response","271","512318","0.0-234.0-2.0","null","<p></p>","null","","","","","","","",""
"","image","272","513396","0.0-235.0-0.0","1077.1000000014901","run_exp/static/images/Set 6_rs/007a.jpg","86","","","","","","test","TR","3"
"","show_choice","273","513900","0.0-235.0-1.0","null","run_exp/static/images/Set 6_rs/007a.jpg","null","","","","","","test","TR",""
"","html-keyboard-response","274","514404","0.0-235.0-2.0","null","<p></p>","null","","","","","","","",""
"","image","275","515694","0.0-236.0-0.0","1288.7000000029802","run_exp/static/images/Set 6_rs/171a.jpg","66","","","","","","test","TF","1"
"","show_choice","276","516198","0.0-236.0-1.0","null","run_exp/static/images/Set 6_rs/171a.jpg","null","","","","","","test","TF",""
"","html-keyboard-response","277","516702","0.0-236.0-2.0","null","<p></p>","null","","","","","","","",""
"","image","278","517688","0.0-237.0-0.0","985.2000000029802","run_exp/static/images/Set 6_rs/132a.jpg","86","","","","","","test","TR","5"
"","show_choice","279","518192","0.0-237.0-1.0","null","run_exp/static/images/Set 6_rs/132a.jpg","null","","","","","","test","TR",""
"","html-keyboard-response","280","518697","0.0-237.0-2.0","null","<p></p>","null","","","","","","","",""
"","image","281","520484","0.0-238.0-0.0","1786.3999999985099","run_exp/static/images/Set 6_rs/144b.jpg","66","","","","","","test","TL","4"
"","show_choice","282","520989","0.0-238.0-1.0","null","run_exp/static/images/Set 6_rs/144b.jpg","null","","","","","","test","TL",""
"","html-keyboard-response","283","521491","0.0-238.0-2.0","null","<p></p>","null","","","","","","","",""
"","image","284","522404","0.0-239.0-0.0","912.5999999940395","run_exp/static/images/Set 6_rs/152a.jpg","86","","","","","","test","TR","2"
"","show_choice","285","522908","0.0-239.0-1.0","null","run_exp/static/images/Set 6_rs/152a.jpg","null","","","","","","test","TR",""
"","html-keyboard-response","286","523411","0.0-239.0-2.0","null","<p></p>","null","","","","","","","",""
"","image","287","524731","0.0-240.0-0.0","1319.6000000014901","run_exp/static/images/Set 6_rs/017b.jpg","86","","","","","","test","TL","3"
"","show_choice","288","525235","0.0-240.0-1.0","null","run_exp/static/images/Set 6_rs/017b.jpg","null","","","","","","test","TL",""
"","html-keyboard-response","289","525736","0.0-240.0-2.0","null","<p></p>","null","","","","","","","",""
"","image","290","527188","0.0-241.0-0.0","1450.7000000029802","run_exp/static/images/Set 6_rs/015a.jpg","78","","","","","","test","TF","4"
"","show_choice","291","527692","0.0-241.0-1.0","null","run_exp/static/images/Set 6_rs/015a.jpg","null","","","","","","test","TF",""
"","html-keyboard-response","292","528198","0.0-241.0-2.0","null","<p></p>","null","","","","","","","",""
"","image","293","529605","0.0-242.0-0.0","1406.7000000029802","run_exp/static/images/Set 6_rs/140a.jpg","66","","","","","","test","TF","1"
"","show_choice","294","530109","0.0-242.0-1.0","null","run_exp/static/images/Set 6_rs/140a.jpg","null","","","","","","test","TF",""
"","html-keyboard-response","295","530615","0.0-242.0-2.0","null","<p></p>","null","","","","","","","",""
"","image","296","531811","0.0-243.0-0.0","1195.6999999955297","run_exp/static/images/Set 6_rs/112a.jpg","86","","","","","","test","TR","5"
"","show_choice","297","532315","0.0-243.0-1.0","null","run_exp/static/images/Set 6_rs/112a.jpg","null","","","","","","test","TR",""
"","html-keyboard-response","298","532817","0.0-243.0-2.0","null","<p></p>","null","","","","","","","",""
"","image","299","534164","0.0-244.0-0.0","1345.6000000014901","run_exp/static/images/Set 6_rs/190a.jpg","78","","","","","","test","TF","3"
"","show_choice","300","534666","0.0-244.0-1.0","null","run_exp/static/images/Set 6_rs/190a.jpg","null","","","","","","test","TF",""
"","html-keyboard-response","301","535171","0.0-244.0-2.0","null","<p></p>","null","","","","","","","",""
"","image","302","536108","0.0-245.0-0.0","935.8000000044703","run_exp/static/images/Set 6_rs/177a.jpg","78","","","","","","test","TR","5"
"","show_choice","303","536610","0.0-245.0-1.0","null","run_exp/static/images/Set 6_rs/177a.jpg","null","","","","","","test","TR",""
"","html-keyboard-response","304","537116","0.0-245.0-2.0","null","<p></p>","null","","","","","","","",""
"","image","305","538899","0.0-246.0-0.0","1782.3999999985099","run_exp/static/images/Set 6_rs/133a.jpg","86","","","","","","test","TF","4"
"","show_choice","306","539404","0.0-246.0-1.0","null","run_exp/static/images/Set 6_rs/133a.jpg","null","","","","","","test","TF",""
"","html-keyboard-response","307","539906","0.0-246.0-2.0","null","<p></p>","null","","","","","","","",""
"","image","308","540973","0.0-247.0-0.0","1066","run_exp/static/images/Set 6_rs/123b.jpg","86","","","","","","test","TL","2"
"","show_choice","309","541478","0.0-247.0-1.0","null","run_exp/static/images/Set 6_rs/123b.jpg","null","","","","","","test","TL",""
"","html-keyboard-response","310","541983","0.0-247.0-2.0","null","<p></p>","null","","","","","","","",""
"","image","311","543643","0.0-248.0-0.0","1658.8999999985099","run_exp/static/images/Set 6_rs/036b.jpg","66","","","","","","test","TL","4"
"","show_choice","312","544146","0.0-248.0-1.0","null","run_exp/static/images/Set 6_rs/036b.jpg","null","","","","","","test","TL",""
"","html-keyboard-response","313","544650","0.0-248.0-2.0","null","<p></p>","null","","","","","","","",""
"","image","314","546083","0.0-249.0-0.0","1431.2000000029802","run_exp/static/images/Set 6_rs/065a.jpg","78","","","","","","test","TF","3"
"","show_choice","315","546587","0.0-249.0-1.0","null","run_exp/static/images/Set 6_rs/065a.jpg","null","","","","","","test","TF",""
"","html-keyboard-response","316","547088","0.0-249.0-2.0","null","<p></p>","null","","","","","","","",""
"","image","317","548530","0.0-250.0-0.0","1440.7999999970198","run_exp/static/images/Set 6_rs/052a.jpg","78","","","","","","test","TF","1"
"","show_choice","318","549035","0.0-250.0-1.0","null","run_exp/static/images/Set 6_rs/052a.jpg","null","","","","","","test","TF",""
"","html-keyboard-response","319","549538","0.0-250.0-2.0","null","<p></p>","null","","","","","","","",""
"","image","320","551180","0.0-251.0-0.0","1640.0999999940395","run_exp/static/images/Set 6_rs/090a.jpg","66","","","","","","test","TF","5"
"","show_choice","321","551682","0.0-251.0-1.0","null","run_exp/static/images/Set 6_rs/090a.jpg","null","","","","","","test","TF",""
"","html-keyboard-response","322","552186","0.0-251.0-2.0","null","<p></p>","null","","","","","","","",""
"","image","323","553379","0.0-252.0-0.0","1192.1000000014901","run_exp/static/images/Set 6_rs/134a.jpg","86","","","","","","test","TR","3"
"","show_choice","324","553883","0.0-252.0-1.0","null","run_exp/static/images/Set 6_rs/134a.jpg","null","","","","","","test","TR",""
"","html-keyboard-response","325","554388","0.0-252.0-2.0","null","<p></p>","null","","","","","","","",""
"","image","326","555251","0.0-253.0-0.0","861","run_exp/static/images/Set 6_rs/073b.jpg","86","","","","","","test","TL","3"
"","show_choice","327","555755","0.0-253.0-1.0","null","run_exp/static/images/Set 6_rs/073b.jpg","null","","","","","","test","TL",""
"","html-keyboard-response","328","556261","0.0-253.0-2.0","null","<p></p>","null","","","","","","","",""
"","image","329","557907","0.0-254.0-0.0","1644.8999999985099","run_exp/static/images/Set 6_rs/117b.jpg","66","","","","","","test","TL","5"
"","show_choice","330","558411","0.0-254.0-1.0","null","run_exp/static/images/Set 6_rs/117b.jpg","null","","","","","","test","TL",""
"","html-keyboard-response","331","558916","0.0-254.0-2.0","null","<p></p>","null","","","","","","","",""
"","image","332","560027","0.0-255.0-0.0","1109.3999999985099","run_exp/static/images/Set 6_rs/076a.jpg","86","","","","","","test","TR","4"
"","show_choice","333","560529","0.0-255.0-1.0","null","run_exp/static/images/Set 6_rs/076a.jpg","null","","","","","","test","TR",""
"","html-keyboard-response","334","561034","0.0-255.0-2.0","null","<p></p>","null","","","","","","","",""
"","image","335","562691","0.0-256.0-0.0","1655.3999999985099","run_exp/static/images/Set 6_rs/095b.jpg","66","","","","","","test","TL","5"
"","show_choice","336","563195","0.0-256.0-1.0","null","run_exp/static/images/Set 6_rs/095b.jpg","null","","","","","","test","TL",""
"","html-keyboard-response","337","563700","0.0-256.0-2.0","null","<p></p>","null","","","","","","","",""
"","image","338","564779","0.0-257.0-0.0","1078.5","run_exp/static/images/Set 6_rs/187a.jpg","86","","","","","","test","TR","3"
"","show_choice","339","565283","0.0-257.0-1.0","null","run_exp/static/images/Set 6_rs/187a.jpg","null","","","","","","test","TR",""
"","html-keyboard-response","340","565788","0.0-257.0-2.0","null","<p></p>","null","","","","","","","",""
"","image","341","568530","0.0-258.0-0.0","2741","run_exp/static/images/Set 6_rs/189a.jpg","66","","","","","","test","TF","5"
"","show_choice","342","569035","0.0-258.0-1.0","null","run_exp/static/images/Set 6_rs/189a.jpg","null","","","","","","test","TF",""
"","html-keyboard-response","343","569537","0.0-258.0-2.0","null","<p></p>","null","","","","","","","",""
"","image","344","571145","0.0-259.0-0.0","1607.5","run_exp/static/images/Set 6_rs/067b.jpg","78","","","","","","test","TL","5"
"","show_choice","345","571649","0.0-259.0-1.0","null","run_exp/static/images/Set 6_rs/067b.jpg","null","","","","","","test","TL",""
"","html-keyboard-response","346","572153","0.0-259.0-2.0","null","<p></p>","null","","","","","","","",""
"","image","347","574124","0.0-260.0-0.0","1969.8999999985099","run_exp/static/images/Set 6_rs/118a.jpg","78","","","","","","test","TF","5"
"","show_choice","348","574628","0.0-260.0-1.0","null","run_exp/static/images/Set 6_rs/118a.jpg","null","","","","","","test","TF",""
"","html-keyboard-response","349","575132","0.0-260.0-2.0","null","<p></p>","null","","","","","","","",""
"","image","350","576257","0.0-261.0-0.0","1124.2999999970198","run_exp/static/images/Set 6_rs/155a.jpg","78","","","","","","test","TF","4"
"","show_choice","351","576761","0.0-261.0-1.0","null","run_exp/static/images/Set 6_rs/155a.jpg","null","","","","","","test","TF",""
"","html-keyboard-response","352","577267","0.0-261.0-2.0","null","<p></p>","null","","","","","","","",""
"","image","353","578499","0.0-262.0-0.0","1231.2000000029802","run_exp/static/images/Set 6_rs/188a.jpg","78","","","","","","test","TF","3"
"","show_choice","354","579003","0.0-262.0-1.0","null","run_exp/static/images/Set 6_rs/188a.jpg","null","","","","","","test","TF",""
"","html-keyboard-response","355","579508","0.0-262.0-2.0","null","<p></p>","null","","","","","","","",""
"","image","356","580585","0.0-263.0-0.0","1076.3999999985099","run_exp/static/images/Set 6_rs/057b.jpg","86","","","","","","test","TL","1"
"","show_choice","357","581089","0.0-263.0-1.0","null","run_exp/static/images/Set 6_rs/057b.jpg","null","","","","","","test","TL",""
"","html-keyboard-response","358","581593","0.0-263.0-2.0","null","<p></p>","null","","","","","","","",""
"","image","359","582785","0.0-264.0-0.0","1191.3000000044703","run_exp/static/images/Set 6_rs/025b.jpg","66","","","","","","test","TL","5"
"","show_choice","360","583289","0.0-264.0-1.0","null","run_exp/static/images/Set 6_rs/025b.jpg","null","","","","","","test","TL",""
"","html-keyboard-response","361","583795","0.0-264.0-2.0","null","<p></p>","null","","","","","","","",""
"","image","362","585354","0.0-265.0-0.0","1557.5","run_exp/static/images/Set 6_rs/085b.jpg","86","","","","","","test","TL","1"
"","show_choice","363","586172","0.0-265.0-1.0","null","run_exp/static/images/Set 6_rs/085b.jpg","null","","","","","","test","TL",""
"","html-keyboard-response","364","586674","0.0-265.0-2.0","null","<p></p>","null","","","","","","","",""
"","image","365","587646","0.0-266.0-0.0","971.0999999940395","run_exp/static/images/Set 6_rs/074b.jpg","86","","","","","","test","TL","4"
"","show_choice","366","588149","0.0-266.0-1.0","null","run_exp/static/images/Set 6_rs/074b.jpg","null","","","","","","test","TL",""
"","html-keyboard-response","367","588655","0.0-266.0-2.0","null","<p></p>","null","","","","","","","",""
"","image","368","590148","0.0-267.0-0.0","1491.5","run_exp/static/images/Set 6_rs/170a.jpg","78","","","","","","test","TF","2"
"","show_choice","369","590650","0.0-267.0-1.0","null","run_exp/static/images/Set 6_rs/170a.jpg","null","","","","","","test","TF",""
"","html-keyboard-response","370","591153","0.0-267.0-2.0","null","<p></p>","null","","","","","","","",""
"","image","371","592453","0.0-268.0-0.0","1299.2999999970198","run_exp/static/images/Set 6_rs/181b.jpg","86","","","","","","test","TL","1"
"","show_choice","372","592958","0.0-268.0-1.0","null","run_exp/static/images/Set 6_rs/181b.jpg","null","","","","","","test","TL",""
"","html-keyboard-response","373","593461","0.0-268.0-2.0","null","<p></p>","null","","","","","","","",""
"","image","374","594390","0.0-269.0-0.0","927.6000000014901","run_exp/static/images/Set 6_rs/006b.jpg","86","","","","","","test","TL","2"
"","show_choice","375","594893","0.0-269.0-1.0","null","run_exp/static/images/Set 6_rs/006b.jpg","null","","","","","","test","TL",""
"","html-keyboard-response","376","595397","0.0-269.0-2.0","null","<p></p>","null","","","","","","","",""
"","image","377","596500","0.0-270.0-0.0","1101.4000000059605","run_exp/static/images/Set 6_rs/008b.jpg","86","","","","","","test","TL","2"
"","show_choice","378","597003","0.0-270.0-1.0","null","run_exp/static/images/Set 6_rs/008b.jpg","null","","","","","","test","TL",""
"","html-keyboard-response","379","597508","0.0-270.0-2.0","null","<p></p>","null","","","","","","","",""
"","image","380","599132","0.0-271.0-0.0","1622.8999999985099","run_exp/static/images/Set 6_rs/105a.jpg","66","","","","","","test","TF","5"
"","show_choice","381","599636","0.0-271.0-1.0","null","run_exp/static/images/Set 6_rs/105a.jpg","null","","","","","","test","TF",""
"","html-keyboard-response","382","600140","0.0-271.0-2.0","null","<p></p>","null","","","","","","","",""
"","image","383","601204","0.0-272.0-0.0","1063","run_exp/static/images/Set 6_rs/186a.jpg","86","","","","","","test","TR","5"
"","show_choice","384","601707","0.0-272.0-1.0","null","run_exp/static/images/Set 6_rs/186a.jpg","null","","","","","","test","TR",""
"","html-keyboard-response","385","602208","0.0-272.0-2.0","null","<p></p>","null","","","","","","","",""
"","image","386","603372","0.0-273.0-0.0","1162.6999999955297","run_exp/static/images/Set 6_rs/089b.jpg","86","","","","","","test","TL","4"
"","show_choice","387","603877","0.0-273.0-1.0","null","run_exp/static/images/Set 6_rs/089b.jpg","null","","","","","","test","TL",""
"","html-keyboard-response","388","604382","0.0-273.0-2.0","null","<p></p>","null","","","","","","","",""
"","image","389","605724","0.0-274.0-0.0","1341.4000000059605","run_exp/static/images/Set 6_rs/091b.jpg","66","","","","","","test","TL","3"
"","show_choice","390","606226","0.0-274.0-1.0","null","run_exp/static/images/Set 6_rs/091b.jpg","null","","","","","","test","TL",""
"","html-keyboard-response","391","606731","0.0-274.0-2.0","null","<p></p>","null","","","","","","","",""
"","image","392","608125","0.0-275.0-0.0","1392.2999999970198","run_exp/static/images/Set 6_rs/148a.jpg","86","","","","","","test","TR","2"
"","show_choice","393","608628","0.0-275.0-1.0","null","run_exp/static/images/Set 6_rs/148a.jpg","null","","","","","","test","TR",""
"","html-keyboard-response","394","609133","0.0-275.0-2.0","null","<p></p>","null","","","","","","","",""
"","image","395","610941","0.0-276.0-0.0","1805.6999999955297","run_exp/static/images/Set 6_rs/122a.jpg","86","","","","","","test","TR","5"
"","show_choice","396","611444","0.0-276.0-1.0","null","run_exp/static/images/Set 6_rs/122a.jpg","null","","","","","","test","TR",""
"","html-keyboard-response","397","611947","0.0-276.0-2.0","null","<p></p>","null","","","","","","","",""
"","image","398","613002","0.0-277.0-0.0","1053.8999999985099","run_exp/static/images/Set 6_rs/064a.jpg","86","","","","","","test","TR","5"
"","show_choice","399","613504","0.0-277.0-1.0","null","run_exp/static/images/Set 6_rs/064a.jpg","null","","","","","","test","TR",""
"","html-keyboard-response","400","614010","0.0-277.0-2.0","null","<p></p>","null","","","","","","","",""
"","image","401","615069","0.0-278.0-0.0","1058.2999999970198","run_exp/static/images/Set 6_rs/172a.jpg","86","","","","","","test","TR","1"
"","show_choice","402","615573","0.0-278.0-1.0","null","run_exp/static/images/Set 6_rs/172a.jpg","null","","","","","","test","TR",""
"","html-keyboard-response","403","616078","0.0-278.0-2.0","null","<p></p>","null","","","","","","","",""
"","image","404","617541","0.0-279.0-0.0","1461.8000000044703","run_exp/static/images/Set 6_rs/048a.jpg","78","","","","","","test","TF","4"
"","show_choice","405","618044","0.0-279.0-1.0","null","run_exp/static/images/Set 6_rs/048a.jpg","null","","","","","","test","TF",""
"","html-keyboard-response","406","618548","0.0-279.0-2.0","null","<p></p>","null","","","","","","","",""
"","image","407","619814","0.0-280.0-0.0","1265.0999999940395","run_exp/static/images/Set 6_rs/056a.jpg","86","","","","","","test","TF","3"
"","show_choice","408","620318","0.0-280.0-1.0","null","run_exp/static/images/Set 6_rs/056a.jpg","null","","","","","","test","TF",""
"","html-keyboard-response","409","620823","0.0-280.0-2.0","null","<p></p>","null","","","","","","","",""
"","image","410","622068","0.0-281.0-0.0","1244","run_exp/static/images/Set 6_rs/176a.jpg","78","","","","","","test","TF","4"
"","show_choice","411","622572","0.0-281.0-1.0","null","run_exp/static/images/Set 6_rs/176a.jpg","null","","","","","","test","TF",""
"","html-keyboard-response","412","623073","0.0-281.0-2.0","null","<p></p>","null","","","","","","","",""
"","image","413","624221","0.0-282.0-0.0","1146.6000000014901","run_exp/static/images/Set 6_rs/047a.jpg","78","","","","","","test","TF","3"
"","show_choice","414","624724","0.0-282.0-1.0","null","run_exp/static/images/Set 6_rs/047a.jpg","null","","","","","","test","TF",""
"","html-keyboard-response","415","625229","0.0-282.0-2.0","null","<p></p>","null","","","","","","","",""
"","image","416","626228","0.0-283.0-0.0","998","run_exp/static/images/Set 6_rs/166a.jpg","86","","","","","","test","TR","1"
"","show_choice","417","626733","0.0-283.0-1.0","null","run_exp/static/images/Set 6_rs/166a.jpg","null","","","","","","test","TR",""
"","html-keyboard-response","418","627238","0.0-283.0-2.0","null","<p></p>","null","","","","","","","",""
"","image","419","628246","0.0-284.0-0.0","1006.7999999970198","run_exp/static/images/Set 6_rs/061a.jpg","86","","","","","","test","TR","5"
"","show_choice","420","628751","0.0-284.0-1.0","null","run_exp/static/images/Set 6_rs/061a.jpg","null","","","","","","test","TR",""
"","html-keyboard-response","421","629254","0.0-284.0-2.0","null","<p></p>","null","","","","","","","",""
"","image","422","630133","0.0-285.0-0.0","877.5","run_exp/static/images/Set 6_rs/154a.jpg","86","","","","","","test","TR","3"
"","show_choice","423","630636","0.0-285.0-1.0","null","run_exp/static/images/Set 6_rs/154a.jpg","null","","","","","","test","TR",""
"","html-keyboard-response","424","631141","0.0-285.0-2.0","null","<p></p>","null","","","","","","","",""
"","image","425","632356","0.0-286.0-0.0","1214.6000000014901","run_exp/static/images/Set 6_rs/035a.jpg","78","","","","","","test","TF","4"
"","show_choice","426","632860","0.0-286.0-1.0","null","run_exp/static/images/Set 6_rs/035a.jpg","null","","","","","","test","TF",""
"","html-keyboard-response","427","633365","0.0-286.0-2.0","null","<p></p>","null","","","","","","","",""
"","image","428","634517","0.0-287.0-0.0","1151","run_exp/static/images/Set 6_rs/078a.jpg","78","","","","","","test","TF","1"
"","show_choice","429","635020","0.0-287.0-1.0","null","run_exp/static/images/Set 6_rs/078a.jpg","null","","","","","","test","TF",""
"","html-keyboard-response","430","635525","0.0-287.0-2.0","null","<p></p>","null","","","","","","","",""
"","image","431","637222","0.0-288.0-0.0","1695.2999999970198","run_exp/static/images/Set 6_rs/111b.jpg","66","","","","","","test","TL","3"
"","show_choice","432","637724","0.0-288.0-1.0","null","run_exp/static/images/Set 6_rs/111b.jpg","null","","","","","","test","TL",""
"","html-keyboard-response","433","638228","0.0-288.0-2.0","null","<p></p>","null","","","","","","","",""
"","image","434","639693","0.0-289.0-0.0","1463.8999999985099","run_exp/static/images/Set 6_rs/055b.jpg","66","","","","","","test","TL","4"
"","show_choice","435","640197","0.0-289.0-1.0","null","run_exp/static/images/Set 6_rs/055b.jpg","null","","","","","","test","TL",""
"","html-keyboard-response","436","640701","0.0-289.0-2.0","null","<p></p>","null","","","","","","","",""
"","image","437","642037","0.0-290.0-0.0","1334.6999999955297","run_exp/static/images/Set 6_rs/010a.jpg","86","","","","","","test","TR","5"
"","show_choice","438","642540","0.0-290.0-1.0","null","run_exp/static/images/Set 6_rs/010a.jpg","null","","","","","","test","TR",""
"","html-keyboard-response","439","643045","0.0-290.0-2.0","null","<p></p>","null","","","","","","","",""
"","image","440","644357","0.0-291.0-0.0","1310.6000000014901","run_exp/static/images/Set 6_rs/100a.jpg","78","","","","","","test","TF","2"
"","show_choice","441","644860","0.0-291.0-1.0","null","run_exp/static/images/Set 6_rs/100a.jpg","null","","","","","","test","TF",""
"","html-keyboard-response","442","645362","0.0-291.0-2.0","null","<p></p>","null","","","","","","","",""
"","image","443","646853","0.0-292.0-0.0","1490.1000000014901","run_exp/static/images/Set 6_rs/116b.jpg","66","","","","","","test","TL","2"
"","show_choice","444","647356","0.0-292.0-1.0","null","run_exp/static/images/Set 6_rs/116b.jpg","null","","","","","","test","TL",""
"","html-keyboard-response","445","647862","0.0-292.0-2.0","null","<p></p>","null","","","","","","","",""
"","image","446","649222","0.0-293.0-0.0","1359.3999999985099","run_exp/static/images/Set 6_rs/075a.jpg","86","","","","","","test","TR","1"
"","show_choice","447","649726","0.0-293.0-1.0","null","run_exp/static/images/Set 6_rs/075a.jpg","null","","","","","","test","TR",""
"","html-keyboard-response","448","650231","0.0-293.0-2.0","null","<p></p>","null","","","","","","","",""
"","image","449","651990","0.0-294.0-0.0","1758","run_exp/static/images/Set 6_rs/060b.jpg","66","","","","","","test","TL","3"
"","show_choice","450","652494","0.0-294.0-1.0","null","run_exp/static/images/Set 6_rs/060b.jpg","null","","","","","","test","TL",""
"","html-keyboard-response","451","652997","0.0-294.0-2.0","null","<p></p>","null","","","","","","","",""
"","image","452","654448","0.0-295.0-0.0","1449.7999999970198","run_exp/static/images/Set 6_rs/045a.jpg","86","","","","","","test","TR","2"
"","show_choice","453","654953","0.0-295.0-1.0","null","run_exp/static/images/Set 6_rs/045a.jpg","null","","","","","","test","TR",""
"","html-keyboard-response","454","655458","0.0-295.0-2.0","null","<p></p>","null","","","","","","","",""
"","image","455","656833","0.0-296.0-0.0","1374","run_exp/static/images/Set 6_rs/149a.jpg","86","","","","","","test","TF","1"
"","show_choice","456","657337","0.0-296.0-1.0","null","run_exp/static/images/Set 6_rs/149a.jpg","null","","","","","","test","TF",""
"","html-keyboard-response","457","657843","0.0-296.0-2.0","null","<p></p>","null","","","","","","","",""
"","image","458","659446","0.0-297.0-0.0","1602.1000000014901","run_exp/static/images/Set 6_rs/088a.jpg","86","","","","","","test","TR","2"
"","show_choice","459","659950","0.0-297.0-1.0","null","run_exp/static/images/Set 6_rs/088a.jpg","null","","","","","","test","TR",""
"","html-keyboard-response","460","660453","0.0-297.0-2.0","null","<p></p>","null","","","","","","","",""
"","image","461","661758","0.0-298.0-0.0","1303.5999999940395","run_exp/static/images/Set 6_rs/141a.jpg","66","","","","","","test","TR","2"
"","show_choice","462","662262","0.0-298.0-1.0","null","run_exp/static/images/Set 6_rs/141a.jpg","null","","","","","","test","TR",""
"","html-keyboard-response","463","662765","0.0-298.0-2.0","null","<p></p>","null","","","","","","","",""
"","image","464","664095","0.0-299.0-0.0","1327.8999999985099","run_exp/static/images/Set 6_rs/022a.jpg","78","","","","","","test","TF","4"
"","show_choice","465","664598","0.0-299.0-1.0","null","run_exp/static/images/Set 6_rs/022a.jpg","null","","","","","","test","TF",""
"","html-keyboard-response","466","665103","0.0-299.0-2.0","null","<p></p>","null","","","","","","","",""
"","image","467","666463","0.0-300.0-0.0","1358.6999999955297","run_exp/static/images/Set 6_rs/071b.jpg","86","","","","","","test","TL","4"
"","show_choice","468","666968","0.0-300.0-1.0","null","run_exp/static/images/Set 6_rs/071b.jpg","null","","","","","","test","TL",""
"","html-keyboard-response","469","667473","0.0-300.0-2.0","null","<p></p>","null","","","","","","","",""
"","image","470","668590","0.0-301.0-0.0","1116.0999999940395","run_exp/static/images/Set 6_rs/012a.jpg","86","","","","","","test","TR","1"
"","show_choice","471","669093","0.0-301.0-1.0","null","run_exp/static/images/Set 6_rs/012a.jpg","null","","","","","","test","TR",""
"","html-keyboard-response","472","669597","0.0-301.0-2.0","null","<p></p>","null","","","","","","","",""
"","image","473","670926","0.0-302.0-0.0","1327.5","run_exp/static/images/Set 6_rs/138b.jpg","86","","","","","","test","TL","1"
"","show_choice","474","671430","0.0-302.0-1.0","null","run_exp/static/images/Set 6_rs/138b.jpg","null","","","","","","test","TL",""
"","html-keyboard-response","475","671934","0.0-302.0-2.0","null","<p></p>","null","","","","","","","",""
"","image","476","673151","0.0-303.0-0.0","1215.7999999970198","run_exp/static/images/Set 6_rs/097a.jpg","78","","","","","","test","TF","5"
"","show_choice","477","673656","0.0-303.0-1.0","null","run_exp/static/images/Set 6_rs/097a.jpg","null","","","","","","test","TF",""
"","html-keyboard-response","478","674161","0.0-303.0-2.0","null","<p></p>","null","","","","","","","",""
"","image","479","675174","0.0-304.0-0.0","1011.6000000014901","run_exp/static/images/Set 6_rs/178a.jpg","86","","","","","","test","TR","3"
"","show_choice","480","675677","0.0-304.0-1.0","null","run_exp/static/images/Set 6_rs/178a.jpg","null","","","","","","test","TR",""
"","html-keyboard-response","481","676181","0.0-304.0-2.0","null","<p></p>","null","","","","","","","",""
"","image","482","677871","0.0-305.0-0.0","1688.1000000014901","run_exp/static/images/Set 6_rs/131a.jpg","86","","","","","","test","TR","5"
"","show_choice","483","678375","0.0-305.0-1.0","null","run_exp/static/images/Set 6_rs/131a.jpg","null","","","","","","test","TR",""
"","html-keyboard-response","484","678881","0.0-305.0-2.0","null","<p></p>","null","","","","","","","",""
"","image","485","680686","0.0-306.0-0.0","1803.8000000044703","run_exp/static/images/Set 6_rs/028a.jpg","66","","","","","","test","TF","1"
"","show_choice","486","681191","0.0-306.0-1.0","null","run_exp/static/images/Set 6_rs/028a.jpg","null","","","","","","test","TF",""
"","html-keyboard-response","487","681696","0.0-306.0-2.0","null","<p></p>","null","","","","","","","",""
"","image","488","682774","0.0-307.0-0.0","1077.4000000059605","run_exp/static/images/Set 6_rs/024a.jpg","86","","","","","","test","TR","5"
"","show_choice","489","683277","0.0-307.0-1.0","null","run_exp/static/images/Set 6_rs/024a.jpg","null","","","","","","test","TR",""
"","html-keyboard-response","490","683783","0.0-307.0-2.0","null","<p></p>","null","","","","","","","",""
"","image","491","685135","0.0-308.0-0.0","1351.4000000059605","run_exp/static/images/Set 6_rs/136a.jpg","78","","","","","","test","TF","4"
"","show_choice","492","685638","0.0-308.0-1.0","null","run_exp/static/images/Set 6_rs/136a.jpg","null","","","","","","test","TF",""
"","html-keyboard-response","493","686143","0.0-308.0-2.0","null","<p></p>","null","","","","","","","",""
"","image","494","687478","0.0-309.0-0.0","1334.1000000014901","run_exp/static/images/Set 6_rs/066b.jpg","78","","","","","","test","TL","5"
"","show_choice","495","687983","0.0-309.0-1.0","null","run_exp/static/images/Set 6_rs/066b.jpg","null","","","","","","test","TL",""
"","html-keyboard-response","496","688488","0.0-309.0-2.0","null","<p></p>","null","","","","","","","",""
"","image","497","689767","0.0-310.0-0.0","1277.7999999970198","run_exp/static/images/Set 6_rs/086a.jpg","78","","","","","","test","TF","1"
"","show_choice","498","690270","0.0-310.0-1.0","null","run_exp/static/images/Set 6_rs/086a.jpg","null","","","","","","test","TF",""
"","html-keyboard-response","499","690775","0.0-310.0-2.0","null","<p></p>","null","","","","","","","",""
"","image","500","691798","0.0-311.0-0.0","1022.3999999985099","run_exp/static/images/Set 6_rs/023a.jpg","86","","","","","","test","TR","3"
"","show_choice","501","692302","0.0-311.0-1.0","null","run_exp/static/images/Set 6_rs/023a.jpg","null","","","","","","test","TR",""
"","html-keyboard-response","502","692807","0.0-311.0-2.0","null","<p></p>","null","","","","","","","",""
"","image","503","693814","0.0-312.0-0.0","1006.5","run_exp/static/images/Set 6_rs/011a.jpg","66","","","","","","test","TF","3"
"","show_choice","504","694319","0.0-312.0-1.0","null","run_exp/static/images/Set 6_rs/011a.jpg","null","","","","","","test","TF",""
"","html-keyboard-response","505","694820","0.0-312.0-2.0","null","<p></p>","null","","","","","","","",""
"","image","506","696224","0.0-313.0-0.0","1402.7999999970198","run_exp/static/images/Set 6_rs/062b.jpg","86","","","","","","test","TL","1"
"","show_choice","507","696728","0.0-313.0-1.0","null","run_exp/static/images/Set 6_rs/062b.jpg","null","","","","","","test","TL",""
"","html-keyboard-response","508","697232","0.0-313.0-2.0","null","<p></p>","null","","","","","","","",""
"","image","509","698966","0.0-314.0-0.0","1732.7999999970198","run_exp/static/images/Set 6_rs/167b.jpg","66","","","","","","test","TL","2"
"","show_choice","510","699470","0.0-314.0-1.0","null","run_exp/static/images/Set 6_rs/167b.jpg","null","","","","","","test","TL",""
"","html-keyboard-response","511","699975","0.0-314.0-2.0","null","<p></p>","null","","","","","","","",""
"","image","512","701952","0.0-315.0-0.0","1975.8999999985099","run_exp/static/images/Set 6_rs/109a.jpg","78","","","","","","test","TF","5"
"","show_choice","513","702457","0.0-315.0-1.0","null","run_exp/static/images/Set 6_rs/109a.jpg","null","","","","","","test","TF",""
"","html-keyboard-response","514","702962","0.0-315.0-2.0","null","<p></p>","null","","","","","","","",""
"","image","515","704879","0.0-316.0-0.0","1916.1999999955297","run_exp/static/images/Set 6_rs/021a.jpg","78","","","","","","test","TF","2"
"","show_choice","516","705383","0.0-316.0-1.0","null","run_exp/static/images/Set 6_rs/021a.jpg","null","","","","","","test","TF",""
"","html-keyboard-response","517","705886","0.0-316.0-2.0","null","<p></p>","null","","","","","","","",""
"","image","518","708103","0.0-317.0-0.0","2215.5","run_exp/static/images/Set 6_rs/169a.jpg","86","","","","","","test","TR","4"
"","show_choice","519","708608","0.0-317.0-1.0","null","run_exp/static/images/Set 6_rs/169a.jpg","null","","","","","","test","TR",""
"","html-keyboard-response","520","709108","0.0-317.0-2.0","null","<p></p>","null","","","","","","","",""
"","image","521","712114","0.0-318.0-0.0","null","run_exp/static/images/Set 6_rs/191b.jpg","null","","","","","","test","TL","2"
"","show_choice","522","712617","0.0-318.0-1.0","null","run_exp/static/images/Set 6_rs/191b.jpg","null","","","","","","test","TL",""
"","html-keyboard-response","523","713119","0.0-318.0-2.0","null","<p></p>","null","","","","","","","",""
"","all_done","524","720484","0.0-319.0-0.0","null","run_exp/static/audio/clip_23_all_done.m4a","null","","","","","<div class='center'><p>You are finished with all three parts of the experiment! You can press the space bar to end the game now. </p></div>","","",""
"","html-keyboard-response","525","720625","0.0-319.0-1.0","139.29999999701977","<div class='center'><p>You are finished with all three parts of the experiment! You can press the space bar to end the game now. </p><div><p><b>[Press the space bar to continue]</b></p></div>","32","","","","","","","",""
