"success","trial_type","trial_index","time_elapsed","internal_node_id","interactions","blur_events","focus_events","fullscreenenter_events","fullscreenexit_events","rt","stimulus","key_press","subject_id","participant_id","age","gender","prompt","phase","condition","lure_bin"
"true","fullscreen","0","2986","0.0-0.0","""event"",""trial"",""time""
""fullscreenenter"",""0"",""1997""
","
","
","""event"",""trial"",""time""
""fullscreenenter"",""0"",""1997""
","
","","","","","","","","","","",""
"","pavlovia","1","2991","0.0-1.0","""event"",""trial"",""time""
""fullscreenenter"",""0"",""1997""
","
","
","""event"",""trial"",""time""
""fullscreenenter"",""0"",""1997""
","
","","","","","","","","","","",""
"","welcome","2","37773","0.0-2.0","""event"",""trial"",""time""
""fullscreenenter"",""0"",""1997""
","
","
","""event"",""trial"",""time""
""fullscreenenter"",""0"",""1997""
","
","null","run_exp/static/audio/clip_1_welcome.m4a","null","483","421","19","Female","<div class='center'><p>Welcome to the third part of the study! First, you'll be shown pictures of items one at a time. For each picture, you have to decide if the item is typically found indoors or outdoors.</p><p>If you think it's usually found indoors, then press <b>v</b> key on your keyboard. If you think it's usually found outdoors, then press the <b>n</b> key.There will be reminders on the screen to help you remember which keys to press. </p><p>If you're not sure whether the item is an indoor item or an outdoor item, go ahead and take a guess but try your best not to skip that choice. </p></div>","","",""
"","html-keyboard-response","3","38693","0.0-3.0","""event"",""trial"",""time""
""fullscreenenter"",""0"",""1997""
","
","
","""event"",""trial"",""time""
""fullscreenenter"",""0"",""1997""
","
","918.5","<div class='center'><p>Welcome to the third part of the study! First, you'll be shown pictures of items one at a time. For each picture, you have to decide if the item is typically found indoors or outdoors.</p><p>If you think it's usually found indoors, then press <b>v</b> key on your keyboard. If you think it's usually found outdoors, then press the <b>n</b> key.There will be reminders on the screen to help you remember which keys to press. </p><p>If you're not sure whether the item is an indoor item or an outdoor item, go ahead and take a guess but try your best not to skip that choice. </p><div><p><b>[Press the space bar to continue]</b></p></div>","32","","","","","","","",""
"","image","4","40709","0.0-4.0","""event"",""trial"",""time""
""fullscreenenter"",""0"",""1997""
","
","
","""event"",""trial"",""time""
""fullscreenenter"",""0"",""1997""
","
","null","run_exp/static/images/Set 6_rs/076a.jpg","null","","","","","","learn","SR",""
"","show_choice","5","42729","0.0-5.0","""event"",""trial"",""time""
""fullscreenenter"",""0"",""1997""
","
","
","""event"",""trial"",""time""
""fullscreenenter"",""0"",""1997""
","
","null","run_exp/static/images/blank.png","null","","","","","","learn","SR",""
"","html-keyboard-response","6","43239","0.0-6.0","""event"",""trial"",""time""
""fullscreenenter"",""0"",""1997""
","
","
","""event"",""trial"",""time""
""fullscreenenter"",""0"",""1997""
","
","null","<p></p>","null","","","","","","","",""
"","image","7","44239","0.0-7.0","""event"",""trial"",""time""
""fullscreenenter"",""0"",""1997""
","
","
","""event"",""trial"",""time""
""fullscreenenter"",""0"",""1997""
","
","998.2000000029802","run_exp/static/images/Set 6_rs/123a.jpg","78","","","","","","learn","SL",""
"","show_choice","8","45249","0.0-8.0","""event"",""trial"",""time""
""fullscreenenter"",""0"",""1997""
","
","
","""event"",""trial"",""time""
""fullscreenenter"",""0"",""1997""
","
","null","run_exp/static/images/Set 6_rs/123a.jpg","null","","","","","","learn","SL",""
"","html-keyboard-response","9","45758","0.0-9.0","""event"",""trial"",""time""
""fullscreenenter"",""0"",""1997""
","
","
","""event"",""trial"",""time""
""fullscreenenter"",""0"",""1997""
","
","null","<p></p>","null","","","","","","","",""
"","image","10","46399","0.0-10.0","""event"",""trial"",""time""
""fullscreenenter"",""0"",""1997""
","
","
","""event"",""trial"",""time""
""fullscreenenter"",""0"",""1997""
","
","639.5999999940395","run_exp/static/images/Set 6_rs/050a.jpg","86","","","","","","learn","SL",""
"","show_choice","11","47771","0.0-11.0","""event"",""trial"",""time""
""fullscreenenter"",""0"",""1997""
","
","
","""event"",""trial"",""time""
""fullscreenenter"",""0"",""1997""
","
","null","run_exp/static/images/Set 6_rs/050a.jpg","null","","","","","","learn","SL",""
"","html-keyboard-response","12","48280","0.0-12.0","""event"",""trial"",""time""
""fullscreenenter"",""0"",""1997""
","
","
","""event"",""trial"",""time""
""fullscreenenter"",""0"",""1997""
","
","null","<p></p>","null","","","","","","","",""
"","image","13","48878","0.0-13.0","""event"",""trial"",""time""
""fullscreenenter"",""0"",""1997""
","
","
","""event"",""trial"",""time""
""fullscreenenter"",""0"",""1997""
","
","596.2999999970198","run_exp/static/images/Set 6_rs/112a.jpg","86","","","","","","learn","SR",""
"","show_choice","14","50289","0.0-14.0","""event"",""trial"",""time""
""fullscreenenter"",""0"",""1997""
","
","
","""event"",""trial"",""time""
""fullscreenenter"",""0"",""1997""
","
","null","run_exp/static/images/Set 6_rs/112a.jpg","null","","","","","","learn","SR",""
"","html-keyboard-response","15","50800","0.0-15.0","""event"",""trial"",""time""
""fullscreenenter"",""0"",""1997""
","
","
","""event"",""trial"",""time""
""fullscreenenter"",""0"",""1997""
","
","null","<p></p>","null","","","","","","","",""
"","image","16","51558","0.0-16.0","""event"",""trial"",""time""
""fullscreenenter"",""0"",""1997""
","
","
","""event"",""trial"",""time""
""fullscreenenter"",""0"",""1997""
","
","756.5","run_exp/static/images/Set 6_rs/089a.jpg","86","","","","","","learn","SL",""
"","show_choice","17","52809","0.0-17.0","""event"",""trial"",""time""
""fullscreenenter"",""0"",""1997""
","
","
","""event"",""trial"",""time""
""fullscreenenter"",""0"",""1997""
","
","null","run_exp/static/images/Set 6_rs/089a.jpg","null","","","","","","learn","SL",""
"","html-keyboard-response","18","53320","0.0-18.0","""event"",""trial"",""time""
""fullscreenenter"",""0"",""1997""
","
","
","""event"",""trial"",""time""
""fullscreenenter"",""0"",""1997""
","
","null","<p></p>","null","","","","","","","",""
"","image","19","54360","0.0-19.0","""event"",""trial"",""time""
""fullscreenenter"",""0"",""1997""
","
","
","""event"",""trial"",""time""
""fullscreenenter"",""0"",""1997""
","
","1038.5","run_exp/static/images/Set 6_rs/012a.jpg","86","","","","","","learn","SR",""
"","show_choice","20","55330","0.0-20.0","""event"",""trial"",""time""
""fullscreenenter"",""0"",""1997""
","
","
","""event"",""trial"",""time""
""fullscreenenter"",""0"",""1997""
","
","null","run_exp/static/images/Set 6_rs/012a.jpg","null","","","","","","learn","SR",""
"","html-keyboard-response","21","55839","0.0-21.0","""event"",""trial"",""time""
""fullscreenenter"",""0"",""1997""
","
","
","""event"",""trial"",""time""
""fullscreenenter"",""0"",""1997""
","
","null","<p></p>","null","","","","","","","",""
"","image","22","56953","0.0-22.0","""event"",""trial"",""time""
""fullscreenenter"",""0"",""1997""
","
","
","""event"",""trial"",""time""
""fullscreenenter"",""0"",""1997""
","
","1112.2000000029802","run_exp/static/images/Set 6_rs/191a.jpg","78","","","","","","learn","SL",""
"","show_choice","23","57849","0.0-23.0","""event"",""trial"",""time""
""fullscreenenter"",""0"",""1997""
","
","
","""event"",""trial"",""time""
""fullscreenenter"",""0"",""1997""
","
","null","run_exp/static/images/Set 6_rs/191a.jpg","null","","","","","","learn","SL",""
"","html-keyboard-response","24","58359","0.0-24.0","""event"",""trial"",""time""
""fullscreenenter"",""0"",""1997""
","
","
","""event"",""trial"",""time""
""fullscreenenter"",""0"",""1997""
","
","null","<p></p>","null","","","","","","","",""
"","image","25","59134","0.0-25.0","""event"",""trial"",""time""
""fullscreenenter"",""0"",""1997""
","
","
","""event"",""trial"",""time""
""fullscreenenter"",""0"",""1997""
","
","773.0999999940395","run_exp/static/images/Set 6_rs/168a.jpg","86","","","","","","learn","SL",""
"","show_choice","26","60369","0.0-26.0","""event"",""trial"",""time""
""fullscreenenter"",""0"",""1997""
","
","
","""event"",""trial"",""time""
""fullscreenenter"",""0"",""1997""
","
","null","run_exp/static/images/Set 6_rs/168a.jpg","null","","","","","","learn","SL",""
"","html-keyboard-response","27","60879","0.0-27.0","""event"",""trial"",""time""
""fullscreenenter"",""0"",""1997""
","
","
","""event"",""trial"",""time""
""fullscreenenter"",""0"",""1997""
","
","null","<p></p>","null","","","","","","","",""
"","image","28","62189","0.0-28.0","""event"",""trial"",""time""
""fullscreenenter"",""0"",""1997""
","
","
","""event"",""trial"",""time""
""fullscreenenter"",""0"",""1997""
","
","1308.6000000089407","run_exp/static/images/Set 6_rs/066a.jpg","86","","","","","","learn","SL",""
"","show_choice","29","62887","0.0-29.0","""event"",""trial"",""time""
""fullscreenenter"",""0"",""1997""
","
","
","""event"",""trial"",""time""
""fullscreenenter"",""0"",""1997""
","
","null","run_exp/static/images/Set 6_rs/066a.jpg","null","","","","","","learn","SL",""
"","html-keyboard-response","30","63399","0.0-30.0","""event"",""trial"",""time""
""fullscreenenter"",""0"",""1997""
","
","
","""event"",""trial"",""time""
""fullscreenenter"",""0"",""1997""
","
","null","<p></p>","null","","","","","","","",""
"","image","31","65113","0.0-31.0","""event"",""trial"",""time""
""fullscreenenter"",""0"",""1997""
","
","
","""event"",""trial"",""time""
""fullscreenenter"",""0"",""1997""
","
","1711.7000000029802","run_exp/static/images/Set 6_rs/075a.jpg","78","","","","","","learn","SR",""
"","show_choice","32","65411","0.0-32.0","""event"",""trial"",""time""
""fullscreenenter"",""0"",""1997""
","
","
","""event"",""trial"",""time""
""fullscreenenter"",""0"",""1997""
","
","null","run_exp/static/images/Set 6_rs/075a.jpg","null","","","","","","learn","SR",""
"","html-keyboard-response","33","65919","0.0-33.0","""event"",""trial"",""time""
""fullscreenenter"",""0"",""1997""
","
","
","""event"",""trial"",""time""
""fullscreenenter"",""0"",""1997""
","
","null","<p></p>","null","","","","","","","",""
"","image","34","67129","0.0-34.0","""event"",""trial"",""time""
""fullscreenenter"",""0"",""1997""
","
","
","""event"",""trial"",""time""
""fullscreenenter"",""0"",""1997""
","
","1209.1000000089407","run_exp/static/images/Set 6_rs/117a.jpg","86","","","","","","learn","SL",""
"","show_choice","35","67921","0.0-35.0","""event"",""trial"",""time""
""fullscreenenter"",""0"",""1997""
","
","
","""event"",""trial"",""time""
""fullscreenenter"",""0"",""1997""
","
","null","run_exp/static/images/Set 6_rs/117a.jpg","null","","","","","","learn","SL",""
"","html-keyboard-response","36","68429","0.0-36.0","""event"",""trial"",""time""
""fullscreenenter"",""0"",""1997""
","
","
","""event"",""trial"",""time""
""fullscreenenter"",""0"",""1997""
","
","null","<p></p>","null","","","","","","","",""
"","image","37","69608","0.0-37.0","""event"",""trial"",""time""
""fullscreenenter"",""0"",""1997""
","
","
","""event"",""trial"",""time""
""fullscreenenter"",""0"",""1997""
","
","1177.7999999970198","run_exp/static/images/Set 6_rs/091a.jpg","86","","","","","","learn","SL",""
"","show_choice","38","70447","0.0-38.0","""event"",""trial"",""time""
""fullscreenenter"",""0"",""1997""
","
","
","""event"",""trial"",""time""
""fullscreenenter"",""0"",""1997""
","
","null","run_exp/static/images/Set 6_rs/091a.jpg","null","","","","","","learn","SL",""
"","html-keyboard-response","39","70949","0.0-39.0","""event"",""trial"",""time""
""fullscreenenter"",""0"",""1997""
","
","
","""event"",""trial"",""time""
""fullscreenenter"",""0"",""1997""
","
","null","<p></p>","null","","","","","","","",""
"","image","40","72828","0.0-40.0","""event"",""trial"",""time""
""fullscreenenter"",""0"",""1997""
","
","
","""event"",""trial"",""time""
""fullscreenenter"",""0"",""1997""
","
","1877.6000000089407","run_exp/static/images/Set 6_rs/138a.jpg","78","","","","","","learn","SL",""
"","show_choice","41","72959","0.0-41.0","""event"",""trial"",""time""
""fullscreenenter"",""0"",""1997""
","
","
","""event"",""trial"",""time""
""fullscreenenter"",""0"",""1997""
","
","null","run_exp/static/images/Set 6_rs/138a.jpg","null","","","","","","learn","SL",""
"","html-keyboard-response","42","73467","0.0-42.0","""event"",""trial"",""time""
""fullscreenenter"",""0"",""1997""
","
","
","""event"",""trial"",""time""
""fullscreenenter"",""0"",""1997""
","
","null","<p></p>","null","","","","","","","",""
"","image","43","75432","0.0-43.0","""event"",""trial"",""time""
""fullscreenenter"",""0"",""1997""
","
","
","""event"",""trial"",""time""
""fullscreenenter"",""0"",""1997""
","
","1964.3999999910593","run_exp/static/images/Set 6_rs/166a.jpg","78","","","","","","learn","SR",""
"","show_choice","44","75469","0.0-44.0","""event"",""trial"",""time""
""fullscreenenter"",""0"",""1997""
","
","
","""event"",""trial"",""time""
""fullscreenenter"",""0"",""1997""
","
","null","run_exp/static/images/Set 6_rs/166a.jpg","null","","","","","","learn","SR",""
"","html-keyboard-response","45","75976","0.0-45.0","""event"",""trial"",""time""
""fullscreenenter"",""0"",""1997""
","
","
","""event"",""trial"",""time""
""fullscreenenter"",""0"",""1997""
","
","null","<p></p>","null","","","","","","","",""
"","image","46","77764","0.0-46.0","""event"",""trial"",""time""
""fullscreenenter"",""0"",""1997""
","
","
","""event"",""trial"",""time""
""fullscreenenter"",""0"",""1997""
","
","1786.7000000029802","run_exp/static/images/Set 6_rs/126a.jpg","86","","","","","","learn","SR",""
"","show_choice","47","77989","0.0-47.0","""event"",""trial"",""time""
""fullscreenenter"",""0"",""1997""
","
","
","""event"",""trial"",""time""
""fullscreenenter"",""0"",""1997""
","
","null","run_exp/static/images/Set 6_rs/126a.jpg","null","","","","","","learn","SR",""
"","html-keyboard-response","48","78497","0.0-48.0","""event"",""trial"",""time""
""fullscreenenter"",""0"",""1997""
","
","
","""event"",""trial"",""time""
""fullscreenenter"",""0"",""1997""
","
","null","<p></p>","null","","","","","","","",""
"","image","49","79396","0.0-49.0","""event"",""trial"",""time""
""fullscreenenter"",""0"",""1997""
","
","
","""event"",""trial"",""time""
""fullscreenenter"",""0"",""1997""
","
","897.6999999880791","run_exp/static/images/Set 6_rs/036a.jpg","86","","","","","","learn","SL",""
"","show_choice","50","80509","0.0-50.0","""event"",""trial"",""time""
""fullscreenenter"",""0"",""1997""
","
","
","""event"",""trial"",""time""
""fullscreenenter"",""0"",""1997""
","
","null","run_exp/static/images/Set 6_rs/036a.jpg","null","","","","","","learn","SL",""
"","html-keyboard-response","51","81026","0.0-51.0","""event"",""trial"",""time""
""fullscreenenter"",""0"",""1997""
","
","
","""event"",""trial"",""time""
""fullscreenenter"",""0"",""1997""
","
","null","<p></p>","null","","","","","","","",""
"","image","52","82105","0.0-52.0","""event"",""trial"",""time""
""fullscreenenter"",""0"",""1997""
","
","
","""event"",""trial"",""time""
""fullscreenenter"",""0"",""1997""
","
","1077.5999999940395","run_exp/static/images/Set 6_rs/071a.jpg","78","","","","","","learn","SL",""
"","show_choice","53","83040","0.0-53.0","""event"",""trial"",""time""
""fullscreenenter"",""0"",""1997""
","
","
","""event"",""trial"",""time""
""fullscreenenter"",""0"",""1997""
","
","null","run_exp/static/images/Set 6_rs/071a.jpg","null","","","","","","learn","SL",""
"","html-keyboard-response","54","83549","0.0-54.0","""event"",""trial"",""time""
""fullscreenenter"",""0"",""1997""
","
","
","""event"",""trial"",""time""
""fullscreenenter"",""0"",""1997""
","
","null","<p></p>","null","","","","","","","",""
"","image","55","84444","0.0-55.0","""event"",""trial"",""time""
""fullscreenenter"",""0"",""1997""
","
","
","""event"",""trial"",""time""
""fullscreenenter"",""0"",""1997""
","
","894.1999999880791","run_exp/static/images/Set 6_rs/181a.jpg","78","","","","","","learn","SL",""
"","show_choice","56","85559","0.0-56.0","""event"",""trial"",""time""
""fullscreenenter"",""0"",""1997""
","
","
","""event"",""trial"",""time""
""fullscreenenter"",""0"",""1997""
","
","null","run_exp/static/images/Set 6_rs/181a.jpg","null","","","","","","learn","SL",""
"","html-keyboard-response","57","86066","0.0-57.0","""event"",""trial"",""time""
""fullscreenenter"",""0"",""1997""
","
","
","""event"",""trial"",""time""
""fullscreenenter"",""0"",""1997""
","
","null","<p></p>","null","","","","","","","",""
"","image","58","86933","0.0-58.0","""event"",""trial"",""time""
""fullscreenenter"",""0"",""1997""
","
","
","""event"",""trial"",""time""
""fullscreenenter"",""0"",""1997""
","
","865.9000000059605","run_exp/static/images/Set 6_rs/064a.jpg","86","","","","","","learn","SR",""
"","show_choice","59","88079","0.0-59.0","""event"",""trial"",""time""
""fullscreenenter"",""0"",""1997""
","
","
","""event"",""trial"",""time""
""fullscreenenter"",""0"",""1997""
","
","null","run_exp/static/images/Set 6_rs/064a.jpg","null","","","","","","learn","SR",""
"","html-keyboard-response","60","88580","0.0-60.0","""event"",""trial"",""time""
""fullscreenenter"",""0"",""1997""
","
","
","""event"",""trial"",""time""
""fullscreenenter"",""0"",""1997""
","
","null","<p></p>","null","","","","","","","",""
"","image","61","89943","0.0-61.0","""event"",""trial"",""time""
""fullscreenenter"",""0"",""1997""
","
","
","""event"",""trial"",""time""
""fullscreenenter"",""0"",""1997""
","
","1361.7000000029802","run_exp/static/images/Set 6_rs/141a.jpg","78","","","","","","learn","SR",""
"","show_choice","62","90587","0.0-62.0","""event"",""trial"",""time""
""fullscreenenter"",""0"",""1997""
","
","
","""event"",""trial"",""time""
""fullscreenenter"",""0"",""1997""
","
","null","run_exp/static/images/Set 6_rs/141a.jpg","null","","","","","","learn","SR",""
"","html-keyboard-response","63","91090","0.0-63.0","""event"",""trial"",""time""
""fullscreenenter"",""0"",""1997""
","
","
","""event"",""trial"",""time""
""fullscreenenter"",""0"",""1997""
","
","null","<p></p>","null","","","","","","","",""
"","image","64","92260","0.0-64.0","""event"",""trial"",""time""
""fullscreenenter"",""0"",""1997""
","
","
","""event"",""trial"",""time""
""fullscreenenter"",""0"",""1997""
","
","1168.5999999940395","run_exp/static/images/Set 6_rs/014a.jpg","86","","","","","","learn","SL",""
"","show_choice","65","93109","0.0-65.0","""event"",""trial"",""time""
""fullscreenenter"",""0"",""1997""
","
","
","""event"",""trial"",""time""
""fullscreenenter"",""0"",""1997""
","
","null","run_exp/static/images/Set 6_rs/014a.jpg","null","","","","","","learn","SL",""
"","html-keyboard-response","66","93616","0.0-66.0","""event"",""trial"",""time""
""fullscreenenter"",""0"",""1997""
","
","
","""event"",""trial"",""time""
""fullscreenenter"",""0"",""1997""
","
","null","<p></p>","null","","","","","","","",""
"","image","67","94473","0.0-67.0","""event"",""trial"",""time""
""fullscreenenter"",""0"",""1997""
","
","
","""event"",""trial"",""time""
""fullscreenenter"",""0"",""1997""
","
","856.2999999970198","run_exp/static/images/Set 6_rs/172a.jpg","78","","","","","","learn","SR",""
"","show_choice","68","95620","0.0-68.0","""event"",""trial"",""time""
""fullscreenenter"",""0"",""1997""
","
","
","""event"",""trial"",""time""
""fullscreenenter"",""0"",""1997""
","
","null","run_exp/static/images/Set 6_rs/172a.jpg","null","","","","","","learn","SR",""
"","html-keyboard-response","69","96131","0.0-69.0","""event"",""trial"",""time""
""fullscreenenter"",""0"",""1997""
","
","
","""event"",""trial"",""time""
""fullscreenenter"",""0"",""1997""
","
","null","<p></p>","null","","","","","","","",""
"","image","70","96821","0.0-70.0","""event"",""trial"",""time""
""fullscreenenter"",""0"",""1997""
","
","
","""event"",""trial"",""time""
""fullscreenenter"",""0"",""1997""
","
","689.2000000029802","run_exp/static/images/Set 6_rs/010a.jpg","86","","","","","","learn","SR",""
"","show_choice","71","98152","0.0-71.0","""event"",""trial"",""time""
""fullscreenenter"",""0"",""1997""
","
","
","""event"",""trial"",""time""
""fullscreenenter"",""0"",""1997""
","
","null","run_exp/static/images/Set 6_rs/010a.jpg","null","","","","","","learn","SR",""
"","html-keyboard-response","72","98662","0.0-72.0","""event"",""trial"",""time""
""fullscreenenter"",""0"",""1997""
","
","
","""event"",""trial"",""time""
""fullscreenenter"",""0"",""1997""
","
","null","<p></p>","null","","","","","","","",""
"","image","73","99304","0.0-73.0","""event"",""trial"",""time""
""fullscreenenter"",""0"",""1997""
","
","
","""event"",""trial"",""time""
""fullscreenenter"",""0"",""1997""
","
","639.9000000059605","run_exp/static/images/Set 6_rs/007a.jpg","86","","","","","","learn","SR",""
"","show_choice","74","100668","0.0-74.0","""event"",""trial"",""time""
""fullscreenenter"",""0"",""1997""
","
","
","""event"",""trial"",""time""
""fullscreenenter"",""0"",""1997""
","
","null","run_exp/static/images/Set 6_rs/007a.jpg","null","","","","","","learn","SR",""
"","html-keyboard-response","75","101174","0.0-75.0","""event"",""trial"",""time""
""fullscreenenter"",""0"",""1997""
","
","
","""event"",""trial"",""time""
""fullscreenenter"",""0"",""1997""
","
","null","<p></p>","null","","","","","","","",""
"","image","76","102720","0.0-76.0","""event"",""trial"",""time""
""fullscreenenter"",""0"",""1997""
","
","
","""event"",""trial"",""time""
""fullscreenenter"",""0"",""1997""
","
","1544.7000000029802","run_exp/static/images/Set 6_rs/152a.jpg","86","","","","","","learn","SR",""
"","show_choice","77","103182","0.0-77.0","""event"",""trial"",""time""
""fullscreenenter"",""0"",""1997""
","
","
","""event"",""trial"",""time""
""fullscreenenter"",""0"",""1997""
","
","null","run_exp/static/images/Set 6_rs/152a.jpg","null","","","","","","learn","SR",""
"","html-keyboard-response","78","103692","0.0-78.0","""event"",""trial"",""time""
""fullscreenenter"",""0"",""1997""
","
","
","""event"",""trial"",""time""
""fullscreenenter"",""0"",""1997""
","
","null","<p></p>","null","","","","","","","",""
"","image","79","105417","0.0-79.0","""event"",""trial"",""time""
""fullscreenenter"",""0"",""1997""
","
","
","""event"",""trial"",""time""
""fullscreenenter"",""0"",""1997""
","
","1723.7000000029802","run_exp/static/images/Set 6_rs/019a.jpg","86","","","","","","learn","SL",""
"","show_choice","80","105703","0.0-80.0","""event"",""trial"",""time""
""fullscreenenter"",""0"",""1997""
","
","
","""event"",""trial"",""time""
""fullscreenenter"",""0"",""1997""
","
","null","run_exp/static/images/Set 6_rs/019a.jpg","null","","","","","","learn","SL",""
"","html-keyboard-response","81","106212","0.0-81.0","""event"",""trial"",""time""
""fullscreenenter"",""0"",""1997""
","
","
","""event"",""trial"",""time""
""fullscreenenter"",""0"",""1997""
","
","null","<p></p>","null","","","","","","","",""
"","image","82","106942","0.0-82.0","""event"",""trial"",""time""
""fullscreenenter"",""0"",""1997""
","
","
","""event"",""trial"",""time""
""fullscreenenter"",""0"",""1997""
","
","728.5","run_exp/static/images/Set 6_rs/134a.jpg","86","","","","","","learn","SR",""
"","show_choice","83","108220","0.0-83.0","""event"",""trial"",""time""
""fullscreenenter"",""0"",""1997""
","
","
","""event"",""trial"",""time""
""fullscreenenter"",""0"",""1997""
","
","null","run_exp/static/images/Set 6_rs/134a.jpg","null","","","","","","learn","SR",""
"","html-keyboard-response","84","108728","0.0-84.0","""event"",""trial"",""time""
""fullscreenenter"",""0"",""1997""
","
","
","""event"",""trial"",""time""
""fullscreenenter"",""0"",""1997""
","
","null","<p></p>","null","","","","","","","",""
"","image","85","109517","0.0-85.0","""event"",""trial"",""time""
""fullscreenenter"",""0"",""1997""
","
","
","""event"",""trial"",""time""
""fullscreenenter"",""0"",""1997""
","
","788","run_exp/static/images/Set 6_rs/178a.jpg","78","","","","","","learn","SR",""
"","show_choice","86","110742","0.0-86.0","""event"",""trial"",""time""
""fullscreenenter"",""0"",""1997""
","
","
","""event"",""trial"",""time""
""fullscreenenter"",""0"",""1997""
","
","null","run_exp/static/images/Set 6_rs/178a.jpg","null","","","","","","learn","SR",""
"","html-keyboard-response","87","111252","0.0-87.0","""event"",""trial"",""time""
""fullscreenenter"",""0"",""1997""
","
","
","""event"",""trial"",""time""
""fullscreenenter"",""0"",""1997""
","
","null","<p></p>","null","","","","","","","",""
"","image","88","112371","0.0-88.0","""event"",""trial"",""time""
""fullscreenenter"",""0"",""1997""
","
","
","""event"",""trial"",""time""
""fullscreenenter"",""0"",""1997""
","
","1117.5999999940395","run_exp/static/images/Set 6_rs/016a.jpg","86","","","","","","learn","SL",""
"","show_choice","89","113262","0.0-89.0","""event"",""trial"",""time""
""fullscreenenter"",""0"",""1997""
","
","
","""event"",""trial"",""time""
""fullscreenenter"",""0"",""1997""
","
","null","run_exp/static/images/Set 6_rs/016a.jpg","null","","","","","","learn","SL",""
"","html-keyboard-response","90","113771","0.0-90.0","""event"",""trial"",""time""
""fullscreenenter"",""0"",""1997""
","
","
","""event"",""trial"",""time""
""fullscreenenter"",""0"",""1997""
","
","null","<p></p>","null","","","","","","","",""
"","image","91","114675","0.0-91.0","""event"",""trial"",""time""
""fullscreenenter"",""0"",""1997""
","
","
","""event"",""trial"",""time""
""fullscreenenter"",""0"",""1997""
","
","902.2000000029802","run_exp/static/images/Set 6_rs/045a.jpg","86","","","","","","learn","SR",""
"","show_choice","92","115783","0.0-92.0","""event"",""trial"",""time""
""fullscreenenter"",""0"",""1997""
","
","
","""event"",""trial"",""time""
""fullscreenenter"",""0"",""1997""
","
","null","run_exp/static/images/Set 6_rs/045a.jpg","null","","","","","","learn","SR",""
"","html-keyboard-response","93","116303","0.0-93.0","""event"",""trial"",""time""
""fullscreenenter"",""0"",""1997""
","
","
","""event"",""trial"",""time""
""fullscreenenter"",""0"",""1997""
","
","null","<p></p>","null","","","","","","","",""
"","image","94","117296","0.0-94.0","""event"",""trial"",""time""
""fullscreenenter"",""0"",""1997""
","
","
","""event"",""trial"",""time""
""fullscreenenter"",""0"",""1997""
","
","991.8999999910593","run_exp/static/images/Set 6_rs/024a.jpg","86","","","","","","learn","SR",""
"","show_choice","95","118311","0.0-95.0","""event"",""trial"",""time""
""fullscreenenter"",""0"",""1997""
","
","
","""event"",""trial"",""time""
""fullscreenenter"",""0"",""1997""
","
","null","run_exp/static/images/Set 6_rs/024a.jpg","null","","","","","","learn","SR",""
"","html-keyboard-response","96","118823","0.0-96.0","""event"",""trial"",""time""
""fullscreenenter"",""0"",""1997""
","
","
","""event"",""trial"",""time""
""fullscreenenter"",""0"",""1997""
","
","null","<p></p>","null","","","","","","","",""
"","image","97","119467","0.0-97.0","""event"",""trial"",""time""
""fullscreenenter"",""0"",""1997""
","
","
","""event"",""trial"",""time""
""fullscreenenter"",""0"",""1997""
","
","643.2000000029802","run_exp/static/images/Set 6_rs/186a.jpg","86","","","","","","learn","SR",""
"","show_choice","98","120832","0.0-98.0","""event"",""trial"",""time""
""fullscreenenter"",""0"",""1997""
","
","
","""event"",""trial"",""time""
""fullscreenenter"",""0"",""1997""
","
","null","run_exp/static/images/Set 6_rs/186a.jpg","null","","","","","","learn","SR",""
"","html-keyboard-response","99","121342","0.0-99.0","""event"",""trial"",""time""
""fullscreenenter"",""0"",""1997""
","
","
","""event"",""trial"",""time""
""fullscreenenter"",""0"",""1997""
","
","null","<p></p>","null","","","","","","","",""
"","image","100","122276","0.0-100.0","""event"",""trial"",""time""
""fullscreenenter"",""0"",""1997""
","
","
","""event"",""trial"",""time""
""fullscreenenter"",""0"",""1997""
","
","932.9000000059605","run_exp/static/images/Set 6_rs/008a.jpg","86","","","","","","learn","SL",""
"","show_choice","101","123352","0.0-101.0","""event"",""trial"",""time""
""fullscreenenter"",""0"",""1997""
","
","
","""event"",""trial"",""time""
""fullscreenenter"",""0"",""1997""
","
","null","run_exp/static/images/Set 6_rs/008a.jpg","null","","","","","","learn","SL",""
"","html-keyboard-response","102","123862","0.0-102.0","""event"",""trial"",""time""
""fullscreenenter"",""0"",""1997""
","
","
","""event"",""trial"",""time""
""fullscreenenter"",""0"",""1997""
","
","null","<p></p>","null","","","","","","","",""
"","image","103","125022","0.0-103.0","""event"",""trial"",""time""
""fullscreenenter"",""0"",""1997""
","
","
","""event"",""trial"",""time""
""fullscreenenter"",""0"",""1997""
","
","1158.199999988079","run_exp/static/images/Set 6_rs/025a.jpg","78","","","","","","learn","SL",""
"","show_choice","104","125882","0.0-104.0","""event"",""trial"",""time""
""fullscreenenter"",""0"",""1997""
","
","
","""event"",""trial"",""time""
""fullscreenenter"",""0"",""1997""
","
","null","run_exp/static/images/Set 6_rs/025a.jpg","null","","","","","","learn","SL",""
"","html-keyboard-response","105","126392","0.0-105.0","""event"",""trial"",""time""
""fullscreenenter"",""0"",""1997""
","
","
","""event"",""trial"",""time""
""fullscreenenter"",""0"",""1997""
","
","null","<p></p>","null","","","","","","","",""
"","image","106","127222","0.0-106.0","""event"",""trial"",""time""
""fullscreenenter"",""0"",""1997""
","
","
","""event"",""trial"",""time""
""fullscreenenter"",""0"",""1997""
","
","829","run_exp/static/images/Set 6_rs/167a.jpg","86","","","","","","learn","SL",""
"","show_choice","107","128400","0.0-107.0","""event"",""trial"",""time""
""fullscreenenter"",""0"",""1997""
","
","
","""event"",""trial"",""time""
""fullscreenenter"",""0"",""1997""
","
","null","run_exp/static/images/Set 6_rs/167a.jpg","null","","","","","","learn","SL",""
"","html-keyboard-response","108","128912","0.0-108.0","""event"",""trial"",""time""
""fullscreenenter"",""0"",""1997""
","
","
","""event"",""trial"",""time""
""fullscreenenter"",""0"",""1997""
","
","null","<p></p>","null","","","","","","","",""
"","image","109","129880","0.0-109.0","""event"",""trial"",""time""
""fullscreenenter"",""0"",""1997""
","
","
","""event"",""trial"",""time""
""fullscreenenter"",""0"",""1997""
","
","966.3000000119209","run_exp/static/images/Set 6_rs/154a.jpg","86","","","","","","learn","SR",""
"","show_choice","110","130922","0.0-110.0","""event"",""trial"",""time""
""fullscreenenter"",""0"",""1997""
","
","
","""event"",""trial"",""time""
""fullscreenenter"",""0"",""1997""
","
","null","run_exp/static/images/Set 6_rs/154a.jpg","null","","","","","","learn","SR",""
"","html-keyboard-response","111","131432","0.0-111.0","""event"",""trial"",""time""
""fullscreenenter"",""0"",""1997""
","
","
","""event"",""trial"",""time""
""fullscreenenter"",""0"",""1997""
","
","null","<p></p>","null","","","","","","","",""
"","image","112","132224","0.0-112.0","""event"",""trial"",""time""
""fullscreenenter"",""0"",""1997""
","
","
","""event"",""trial"",""time""
""fullscreenenter"",""0"",""1997""
","
","791.2999999970198","run_exp/static/images/Set 6_rs/055a.jpg","86","","","","","","learn","SL",""
"","show_choice","113","133440","0.0-113.0","""event"",""trial"",""time""
""fullscreenenter"",""0"",""1997""
","
","
","""event"",""trial"",""time""
""fullscreenenter"",""0"",""1997""
","
","null","run_exp/static/images/Set 6_rs/055a.jpg","null","","","","","","learn","SL",""
"","html-keyboard-response","114","133952","0.0-114.0","""event"",""trial"",""time""
""fullscreenenter"",""0"",""1997""
","
","
","""event"",""trial"",""time""
""fullscreenenter"",""0"",""1997""
","
","null","<p></p>","null","","","","","","","",""
"","image","115","134791","0.0-115.0","""event"",""trial"",""time""
""fullscreenenter"",""0"",""1997""
","
","
","""event"",""trial"",""time""
""fullscreenenter"",""0"",""1997""
","
","837.6000000089407","run_exp/static/images/Set 6_rs/132a.jpg","78","","","","","","learn","SR",""
"","show_choice","116","135959","0.0-116.0","""event"",""trial"",""time""
""fullscreenenter"",""0"",""1997""
","
","
","""event"",""trial"",""time""
""fullscreenenter"",""0"",""1997""
","
","null","run_exp/static/images/Set 6_rs/132a.jpg","null","","","","","","learn","SR",""
"","html-keyboard-response","117","136474","0.0-117.0","""event"",""trial"",""time""
""fullscreenenter"",""0"",""1997""
","
","
","""event"",""trial"",""time""
""fullscreenenter"",""0"",""1997""
","
","null","<p></p>","null","","","","","","","",""
"","image","118","137588","0.0-118.0","""event"",""trial"",""time""
""fullscreenenter"",""0"",""1997""
","
","
","""event"",""trial"",""time""
""fullscreenenter"",""0"",""1997""
","
","1113","run_exp/static/images/Set 6_rs/088a.jpg","86","","","","","","learn","SR",""
"","show_choice","119","138490","0.0-119.0","""event"",""trial"",""time""
""fullscreenenter"",""0"",""1997""
","
","
","""event"",""trial"",""time""
""fullscreenenter"",""0"",""1997""
","
","null","run_exp/static/images/Set 6_rs/088a.jpg","null","","","","","","learn","SR",""
"","html-keyboard-response","120","138992","0.0-120.0","""event"",""trial"",""time""
""fullscreenenter"",""0"",""1997""
","
","
","""event"",""trial"",""time""
""fullscreenenter"",""0"",""1997""
","
","null","<p></p>","null","","","","","","","",""
"","image","121","139687","0.0-121.0","""event"",""trial"",""time""
""fullscreenenter"",""0"",""1997""
","
","
","""event"",""trial"",""time""
""fullscreenenter"",""0"",""1997""
","
","693.8999999910593","run_exp/static/images/Set 6_rs/073a.jpg","86","","","","","","learn","SL",""
"","show_choice","122","141003","0.0-122.0","""event"",""trial"",""time""
""fullscreenenter"",""0"",""1997""
","
","
","""event"",""trial"",""time""
""fullscreenenter"",""0"",""1997""
","
","null","run_exp/static/images/Set 6_rs/073a.jpg","null","","","","","","learn","SL",""
"","html-keyboard-response","123","141513","0.0-123.0","""event"",""trial"",""time""
""fullscreenenter"",""0"",""1997""
","
","
","""event"",""trial"",""time""
""fullscreenenter"",""0"",""1997""
","
","null","<p></p>","null","","","","","","","",""
"","image","124","142839","0.0-124.0","""event"",""trial"",""time""
""fullscreenenter"",""0"",""1997""
","
","
","""event"",""trial"",""time""
""fullscreenenter"",""0"",""1997""
","
","1324.8999999910593","run_exp/static/images/Set 6_rs/017a.jpg","86","","","","","","learn","SL",""
"","show_choice","125","143530","0.0-125.0","""event"",""trial"",""time""
""fullscreenenter"",""0"",""1997""
","
","
","""event"",""trial"",""time""
""fullscreenenter"",""0"",""1997""
","
","null","run_exp/static/images/Set 6_rs/017a.jpg","null","","","","","","learn","SL",""
"","html-keyboard-response","126","144035","0.0-126.0","""event"",""trial"",""time""
""fullscreenenter"",""0"",""1997""
","
","
","""event"",""trial"",""time""
""fullscreenenter"",""0"",""1997""
","
","null","<p></p>","null","","","","","","","",""
"","image","127","144747","0.0-127.0","""event"",""trial"",""time""
""fullscreenenter"",""0"",""1997""
","
","
","""event"",""trial"",""time""
""fullscreenenter"",""0"",""1997""
","
","711.1999999880791","run_exp/static/images/Set 6_rs/111a.jpg","86","","","","","","learn","SL",""
"","show_choice","128","146042","0.0-128.0","""event"",""trial"",""time""
""fullscreenenter"",""0"",""1997""
","
","
","""event"",""trial"",""time""
""fullscreenenter"",""0"",""1997""
","
","null","run_exp/static/images/Set 6_rs/111a.jpg","null","","","","","","learn","SL",""
"","html-keyboard-response","129","146552","0.0-129.0","""event"",""trial"",""time""
""fullscreenenter"",""0"",""1997""
","
","
","""event"",""trial"",""time""
""fullscreenenter"",""0"",""1997""
","
","null","<p></p>","null","","","","","","","",""
"","image","130","147272","0.0-130.0","""event"",""trial"",""time""
""fullscreenenter"",""0"",""1997""
","
","
","""event"",""trial"",""time""
""fullscreenenter"",""0"",""1997""
","
","718.5","run_exp/static/images/Set 6_rs/023a.jpg","86","","","","","","learn","SR",""
"","show_choice","131","148562","0.0-131.0","""event"",""trial"",""time""
""fullscreenenter"",""0"",""1997""
","
","
","""event"",""trial"",""time""
""fullscreenenter"",""0"",""1997""
","
","null","run_exp/static/images/Set 6_rs/023a.jpg","null","","","","","","learn","SR",""
"","html-keyboard-response","132","149072","0.0-132.0","""event"",""trial"",""time""
""fullscreenenter"",""0"",""1997""
","
","
","""event"",""trial"",""time""
""fullscreenenter"",""0"",""1997""
","
","null","<p></p>","null","","","","","","","",""
"","image","133","150512","0.0-133.0","""event"",""trial"",""time""
""fullscreenenter"",""0"",""1997""
","
","
","""event"",""trial"",""time""
""fullscreenenter"",""0"",""1997""
","
","1438.0999999940395","run_exp/static/images/Set 6_rs/129a.jpg","86","","","","","","learn","SL",""
"","show_choice","134","151082","0.0-134.0","""event"",""trial"",""time""
""fullscreenenter"",""0"",""1997""
","
","
","""event"",""trial"",""time""
""fullscreenenter"",""0"",""1997""
","
","null","run_exp/static/images/Set 6_rs/129a.jpg","null","","","","","","learn","SL",""
"","html-keyboard-response","135","151592","0.0-135.0","""event"",""trial"",""time""
""fullscreenenter"",""0"",""1997""
","
","
","""event"",""trial"",""time""
""fullscreenenter"",""0"",""1997""
","
","null","<p></p>","null","","","","","","","",""
"","image","136","152555","0.0-136.0","""event"",""trial"",""time""
""fullscreenenter"",""0"",""1997""
","
","
","""event"",""trial"",""time""
""fullscreenenter"",""0"",""1997""
","
","962.2999999970198","run_exp/static/images/Set 6_rs/074a.jpg","78","","","","","","learn","SL",""
"","show_choice","137","153603","0.0-137.0","""event"",""trial"",""time""
""fullscreenenter"",""0"",""1997""
","
","
","""event"",""trial"",""time""
""fullscreenenter"",""0"",""1997""
","
","null","run_exp/static/images/Set 6_rs/074a.jpg","null","","","","","","learn","SL",""
"","html-keyboard-response","138","154121","0.0-138.0","""event"",""trial"",""time""
""fullscreenenter"",""0"",""1997""
","
","
","""event"",""trial"",""time""
""fullscreenenter"",""0"",""1997""
","
","null","<p></p>","null","","","","","","","",""
"","image","139","155047","0.0-139.0","""event"",""trial"",""time""
""fullscreenenter"",""0"",""1997""
","
","
","""event"",""trial"",""time""
""fullscreenenter"",""0"",""1997""
","
","924.5","run_exp/static/images/Set 6_rs/057a.jpg","86","","","","","","learn","SL",""
"","show_choice","140","156132","0.0-140.0","""event"",""trial"",""time""
""fullscreenenter"",""0"",""1997""
","
","
","""event"",""trial"",""time""
""fullscreenenter"",""0"",""1997""
","
","null","run_exp/static/images/Set 6_rs/057a.jpg","null","","","","","","learn","SL",""
"","html-keyboard-response","141","156640","0.0-141.0","""event"",""trial"",""time""
""fullscreenenter"",""0"",""1997""
","
","
","""event"",""trial"",""time""
""fullscreenenter"",""0"",""1997""
","
","null","<p></p>","null","","","","","","","",""
"","image","142","158077","0.0-142.0","""event"",""trial"",""time""
""fullscreenenter"",""0"",""1997""
","
","
","""event"",""trial"",""time""
""fullscreenenter"",""0"",""1997""
","
","1435.6000000089407","run_exp/static/images/Set 6_rs/116a.jpg","78","","","","","","learn","SL",""
"","show_choice","143","158651","0.0-143.0","""event"",""trial"",""time""
""fullscreenenter"",""0"",""1997""
","
","
","""event"",""trial"",""time""
""fullscreenenter"",""0"",""1997""
","
","null","run_exp/static/images/Set 6_rs/116a.jpg","null","","","","","","learn","SL",""
"","html-keyboard-response","144","159161","0.0-144.0","""event"",""trial"",""time""
""fullscreenenter"",""0"",""1997""
","
","
","""event"",""trial"",""time""
""fullscreenenter"",""0"",""1997""
","
","null","<p></p>","null","","","","","","","",""
"","image","145","160936","0.0-145.0","""event"",""trial"",""time""
""fullscreenenter"",""0"",""1997""
","
","
","""event"",""trial"",""time""
""fullscreenenter"",""0"",""1997""
","
","1773.5999999940395","run_exp/static/images/Set 6_rs/121a.jpg","86","","","","","","learn","SR",""
"","show_choice","146","161178","0.0-146.0","""event"",""trial"",""time""
""fullscreenenter"",""0"",""1997""
","
","
","""event"",""trial"",""time""
""fullscreenenter"",""0"",""1997""
","
","null","run_exp/static/images/Set 6_rs/121a.jpg","null","","","","","","learn","SR",""
"","html-keyboard-response","147","161693","0.0-147.0","""event"",""trial"",""time""
""fullscreenenter"",""0"",""1997""
","
","
","""event"",""trial"",""time""
""fullscreenenter"",""0"",""1997""
","
","null","<p></p>","null","","","","","","","",""
"","image","148","163452","0.0-148.0","""event"",""trial"",""time""
""fullscreenenter"",""0"",""1997""
","
","
","""event"",""trial"",""time""
""fullscreenenter"",""0"",""1997""
","
","1757.9000000059605","run_exp/static/images/Set 6_rs/108a.jpg","78","","","","","","learn","SR",""
"","show_choice","149","163712","0.0-149.0","""event"",""trial"",""time""
""fullscreenenter"",""0"",""1997""
","
","
","""event"",""trial"",""time""
""fullscreenenter"",""0"",""1997""
","
","null","run_exp/static/images/Set 6_rs/108a.jpg","null","","","","","","learn","SR",""
"","html-keyboard-response","150","164213","0.0-150.0","""event"",""trial"",""time""
""fullscreenenter"",""0"",""1997""
","
","
","""event"",""trial"",""time""
""fullscreenenter"",""0"",""1997""
","
","null","<p></p>","null","","","","","","","",""
"","image","151","165083","0.0-151.0","""event"",""trial"",""time""
""fullscreenenter"",""0"",""1997""
","
","
","""event"",""trial"",""time""
""fullscreenenter"",""0"",""1997""
","
","869.2999999970198","run_exp/static/images/Set 6_rs/150a.jpg","86","","","","","","learn","SR",""
"","show_choice","152","166221","0.0-152.0","""event"",""trial"",""time""
""fullscreenenter"",""0"",""1997""
","
","
","""event"",""trial"",""time""
""fullscreenenter"",""0"",""1997""
","
","null","run_exp/static/images/Set 6_rs/150a.jpg","null","","","","","","learn","SR",""
"","html-keyboard-response","153","166730","0.0-153.0","""event"",""trial"",""time""
""fullscreenenter"",""0"",""1997""
","
","
","""event"",""trial"",""time""
""fullscreenenter"",""0"",""1997""
","
","null","<p></p>","null","","","","","","","",""
"","image","154","167853","0.0-154.0","""event"",""trial"",""time""
""fullscreenenter"",""0"",""1997""
","
","
","""event"",""trial"",""time""
""fullscreenenter"",""0"",""1997""
","
","1120","run_exp/static/images/Set 6_rs/061a.jpg","78","","","","","","learn","SR",""
"","show_choice","155","168745","0.0-155.0","""event"",""trial"",""time""
""fullscreenenter"",""0"",""1997""
","
","
","""event"",""trial"",""time""
""fullscreenenter"",""0"",""1997""
","
","null","run_exp/static/images/Set 6_rs/061a.jpg","null","","","","","","learn","SR",""
"","html-keyboard-response","156","169251","0.0-156.0","""event"",""trial"",""time""
""fullscreenenter"",""0"",""1997""
","
","
","""event"",""trial"",""time""
""fullscreenenter"",""0"",""1997""
","
","null","<p></p>","null","","","","","","","",""
"","image","157","170295","0.0-157.0","""event"",""trial"",""time""
""fullscreenenter"",""0"",""1997""
","
","
","""event"",""trial"",""time""
""fullscreenenter"",""0"",""1997""
","
","1042.7000000029802","run_exp/static/images/Set 6_rs/131a.jpg","86","","","","","","learn","SR",""
"","show_choice","158","171262","0.0-158.0","""event"",""trial"",""time""
""fullscreenenter"",""0"",""1997""
","
","
","""event"",""trial"",""time""
""fullscreenenter"",""0"",""1997""
","
","null","run_exp/static/images/Set 6_rs/131a.jpg","null","","","","","","learn","SR",""
"","html-keyboard-response","159","171771","0.0-159.0","""event"",""trial"",""time""
""fullscreenenter"",""0"",""1997""
","
","
","""event"",""trial"",""time""
""fullscreenenter"",""0"",""1997""
","
","null","<p></p>","null","","","","","","","",""
"","image","160","172754","0.0-160.0","""event"",""trial"",""time""
""fullscreenenter"",""0"",""1997""
","
","
","""event"",""trial"",""time""
""fullscreenenter"",""0"",""1997""
","
","981.3000000119209","run_exp/static/images/Set 6_rs/144a.jpg","86","","","","","","learn","SL",""
"","show_choice","161","173781","0.0-161.0","""event"",""trial"",""time""
""fullscreenenter"",""0"",""1997""
","
","
","""event"",""trial"",""time""
""fullscreenenter"",""0"",""1997""
","
","null","run_exp/static/images/Set 6_rs/144a.jpg","null","","","","","","learn","SL",""
"","html-keyboard-response","162","174298","0.0-162.0","""event"",""trial"",""time""
""fullscreenenter"",""0"",""1997""
","
","
","""event"",""trial"",""time""
""fullscreenenter"",""0"",""1997""
","
","null","<p></p>","null","","","","","","","",""
"","image","163","175198","0.0-163.0","""event"",""trial"",""time""
""fullscreenenter"",""0"",""1997""
","
","
","""event"",""trial"",""time""
""fullscreenenter"",""0"",""1997""
","
","899","run_exp/static/images/Set 6_rs/079a.jpg","86","","","","","","learn","SL",""
"","show_choice","164","176311","0.0-164.0","""event"",""trial"",""time""
""fullscreenenter"",""0"",""1997""
","
","
","""event"",""trial"",""time""
""fullscreenenter"",""0"",""1997""
","
","null","run_exp/static/images/Set 6_rs/079a.jpg","null","","","","","","learn","SL",""
"","html-keyboard-response","165","176822","0.0-165.0","""event"",""trial"",""time""
""fullscreenenter"",""0"",""1997""
","
","
","""event"",""trial"",""time""
""fullscreenenter"",""0"",""1997""
","
","null","<p></p>","null","","","","","","","",""
"","image","166","177481","0.0-166.0","""event"",""trial"",""time""
""fullscreenenter"",""0"",""1997""
","
","
","""event"",""trial"",""time""
""fullscreenenter"",""0"",""1997""
","
","657.5","run_exp/static/images/Set 6_rs/085a.jpg","86","","","","","","learn","SL",""
"","show_choice","167","178831","0.0-167.0","""event"",""trial"",""time""
""fullscreenenter"",""0"",""1997""
","
","
","""event"",""trial"",""time""
""fullscreenenter"",""0"",""1997""
","
","null","run_exp/static/images/Set 6_rs/085a.jpg","null","","","","","","learn","SL",""
"","html-keyboard-response","168","179341","0.0-168.0","""event"",""trial"",""time""
""fullscreenenter"",""0"",""1997""
","
","
","""event"",""trial"",""time""
""fullscreenenter"",""0"",""1997""
","
","null","<p></p>","null","","","","","","","",""
"","image","169","180797","0.0-169.0","""event"",""trial"",""time""
""fullscreenenter"",""0"",""1997""
","
","
","""event"",""trial"",""time""
""fullscreenenter"",""0"",""1997""
","
","1454.7999999970198","run_exp/static/images/Set 6_rs/070a.jpg","86","","","","","","learn","SR",""
"","show_choice","170","181362","0.0-170.0","""event"",""trial"",""time""
""fullscreenenter"",""0"",""1997""
","
","
","""event"",""trial"",""time""
""fullscreenenter"",""0"",""1997""
","
","null","run_exp/static/images/Set 6_rs/070a.jpg","null","","","","","","learn","SR",""
"","html-keyboard-response","171","181881","0.0-171.0","""event"",""trial"",""time""
""fullscreenenter"",""0"",""1997""
","
","
","""event"",""trial"",""time""
""fullscreenenter"",""0"",""1997""
","
","null","<p></p>","null","","","","","","","",""
"","image","172","182692","0.0-172.0","""event"",""trial"",""time""
""fullscreenenter"",""0"",""1997""
","
","
","""event"",""trial"",""time""
""fullscreenenter"",""0"",""1997""
","
","809.4000000059605","run_exp/static/images/Set 6_rs/006a.jpg","86","","","","","","learn","SL",""
"","show_choice","173","183890","0.0-173.0","""event"",""trial"",""time""
""fullscreenenter"",""0"",""1997""
","
","
","""event"",""trial"",""time""
""fullscreenenter"",""0"",""1997""
","
","null","run_exp/static/images/Set 6_rs/006a.jpg","null","","","","","","learn","SL",""
"","html-keyboard-response","174","184400","0.0-174.0","""event"",""trial"",""time""
""fullscreenenter"",""0"",""1997""
","
","
","""event"",""trial"",""time""
""fullscreenenter"",""0"",""1997""
","
","null","<p></p>","null","","","","","","","",""
"","image","175","185972","0.0-175.0","""event"",""trial"",""time""
""fullscreenenter"",""0"",""1997""
","
","
","""event"",""trial"",""time""
""fullscreenenter"",""0"",""1997""
","
","1570.8999999910593","run_exp/static/images/Set 6_rs/177a.jpg","78","","","","","","learn","SR",""
"","show_choice","176","186422","0.0-176.0","""event"",""trial"",""time""
""fullscreenenter"",""0"",""1997""
","
","
","""event"",""trial"",""time""
""fullscreenenter"",""0"",""1997""
","
","null","run_exp/static/images/Set 6_rs/177a.jpg","null","","","","","","learn","SR",""
"","html-keyboard-response","177","186933","0.0-177.0","""event"",""trial"",""time""
""fullscreenenter"",""0"",""1997""
","
","
","""event"",""trial"",""time""
""fullscreenenter"",""0"",""1997""
","
","null","<p></p>","null","","","","","","","",""
"","image","178","188057","0.0-178.0","""event"",""trial"",""time""
""fullscreenenter"",""0"",""1997""
","
","
","""event"",""trial"",""time""
""fullscreenenter"",""0"",""1997""
","
","1123.5","run_exp/static/images/Set 6_rs/187a.jpg","86","","","","","","learn","SR",""
"","show_choice","179","188936","0.0-179.0","""event"",""trial"",""time""
""fullscreenenter"",""0"",""1997""
","
","
","""event"",""trial"",""time""
""fullscreenenter"",""0"",""1997""
","
","null","run_exp/static/images/Set 6_rs/187a.jpg","null","","","","","","learn","SR",""
"","html-keyboard-response","180","189451","0.0-180.0","""event"",""trial"",""time""
""fullscreenenter"",""0"",""1997""
","
","
","""event"",""trial"",""time""
""fullscreenenter"",""0"",""1997""
","
","null","<p></p>","null","","","","","","","",""
"","image","181","191472","0.0-181.0","""event"",""trial"",""time""
""fullscreenenter"",""0"",""1997""
","
","
","""event"",""trial"",""time""
""fullscreenenter"",""0"",""1997""
","
","null","run_exp/static/images/Set 6_rs/062a.jpg","null","","","","","","learn","SL",""
"","show_choice","182","193483","0.0-182.0","""event"",""trial"",""time""
""fullscreenenter"",""0"",""1997""
","
","
","""event"",""trial"",""time""
""fullscreenenter"",""0"",""1997""
","
","null","run_exp/static/images/blank.png","null","","","","","","learn","SL",""
"","html-keyboard-response","183","193999","0.0-183.0","""event"",""trial"",""time""
""fullscreenenter"",""0"",""1997""
","
","
","""event"",""trial"",""time""
""fullscreenenter"",""0"",""1997""
","
","null","<p></p>","null","","","","","","","",""
"","image","184","195087","0.0-184.0","""event"",""trial"",""time""
""fullscreenenter"",""0"",""1997""
","
","
","""event"",""trial"",""time""
""fullscreenenter"",""0"",""1997""
","
","1086.9000000059605","run_exp/static/images/Set 6_rs/122a.jpg","86","","","","","","learn","SR",""
"","show_choice","185","196009","0.0-185.0","""event"",""trial"",""time""
""fullscreenenter"",""0"",""1997""
","
","
","""event"",""trial"",""time""
""fullscreenenter"",""0"",""1997""
","
","null","run_exp/static/images/Set 6_rs/122a.jpg","null","","","","","","learn","SR",""
"","html-keyboard-response","186","196511","0.0-186.0","""event"",""trial"",""time""
""fullscreenenter"",""0"",""1997""
","
","
","""event"",""trial"",""time""
""fullscreenenter"",""0"",""1997""
","
","null","<p></p>","null","","","","","","","",""
"","image","187","197136","0.0-187.0","""event"",""trial"",""time""
""fullscreenenter"",""0"",""1997""
","
","
","""event"",""trial"",""time""
""fullscreenenter"",""0"",""1997""
","
","623.8999999910593","run_exp/static/images/Set 6_rs/095a.jpg","86","","","","","","learn","SL",""
"","show_choice","188","198521","0.0-188.0","""event"",""trial"",""time""
""fullscreenenter"",""0"",""1997""
","
","
","""event"",""trial"",""time""
""fullscreenenter"",""0"",""1997""
","
","null","run_exp/static/images/Set 6_rs/095a.jpg","null","","","","","","learn","SL",""
"","html-keyboard-response","189","199028","0.0-189.0","""event"",""trial"",""time""
""fullscreenenter"",""0"",""1997""
","
","
","""event"",""trial"",""time""
""fullscreenenter"",""0"",""1997""
","
","null","<p></p>","null","","","","","","","",""
"","image","190","199737","0.0-190.0","""event"",""trial"",""time""
""fullscreenenter"",""0"",""1997""
","
","
","""event"",""trial"",""time""
""fullscreenenter"",""0"",""1997""
","
","707.5999999940395","run_exp/static/images/Set 6_rs/063a.jpg","86","","","","","","learn","SR",""
"","show_choice","191","201042","0.0-191.0","""event"",""trial"",""time""
""fullscreenenter"",""0"",""1997""
","
","
","""event"",""trial"",""time""
""fullscreenenter"",""0"",""1997""
","
","null","run_exp/static/images/Set 6_rs/063a.jpg","null","","","","","","learn","SR",""
"","html-keyboard-response","192","201552","0.0-192.0","""event"",""trial"",""time""
""fullscreenenter"",""0"",""1997""
","
","
","""event"",""trial"",""time""
""fullscreenenter"",""0"",""1997""
","
","null","<p></p>","null","","","","","","","",""
"","image","193","202636","0.0-193.0","""event"",""trial"",""time""
""fullscreenenter"",""0"",""1997""
","
","
","""event"",""trial"",""time""
""fullscreenenter"",""0"",""1997""
","
","1083.0999999940395","run_exp/static/images/Set 6_rs/169a.jpg","78","","","","","","learn","SR",""
"","show_choice","194","203561","0.0-194.0","""event"",""trial"",""time""
""fullscreenenter"",""0"",""1997""
","
","
","""event"",""trial"",""time""
""fullscreenenter"",""0"",""1997""
","
","null","run_exp/static/images/Set 6_rs/169a.jpg","null","","","","","","learn","SR",""
"","html-keyboard-response","195","204071","0.0-195.0","""event"",""trial"",""time""
""fullscreenenter"",""0"",""1997""
","
","
","""event"",""trial"",""time""
""fullscreenenter"",""0"",""1997""
","
","null","<p></p>","null","","","","","","","",""
"","test_intro","196","240903","0.0-196.0","""event"",""trial"",""time""
""fullscreenenter"",""0"",""1997""
","
","
","""event"",""trial"",""time""
""fullscreenenter"",""0"",""1997""
","
","null","run_exp/static/audio/clip_2_memory.m4a","null","","","","","<div class='center'><p>Now, lets see how much you remember about the items you just saw.  For each item, you need to indicate if it was <b>old</b> by pressing the <b>v</b> key, <b>similar</b> by pressing the <b>b</b> key, or <b>new</b> by pressing the <b>n</b> key.</p><p>Old refers to an item that you saw before in the indoor/outdoor game that you just played, new refers to an item you have <b>not</b> seen before within the indoor/outdoor game, and similar refers to an item that is similar to an item youve seen before but is not exactly the same. </p><p>Before we begin, lets go over some brief demonstrations to make sure you understand.</p></div>","","",""
"","html-keyboard-response","197","241798","0.0-197.0","""event"",""trial"",""time""
""fullscreenenter"",""0"",""1997""
","
","
","""event"",""trial"",""time""
""fullscreenenter"",""0"",""1997""
","
","893.5","<div class='center'><p>Now, lets see how much you remember about the items you just saw.  For each item, you need to indicate if it was <b>old</b> by pressing the <b>v</b> key, <b>similar</b> by pressing the <b>b</b> key, or <b>new</b> by pressing the <b>n</b> key.</p><p>Old refers to an item that you saw before in the indoor/outdoor game that you just played, new refers to an item you have <b>not</b> seen before within the indoor/outdoor game, and similar refers to an item that is similar to an item youve seen before but is not exactly the same. </p><p>Before we begin, lets go over some brief demonstrations to make sure you understand.</p><div><p><b>[Press the space bar to continue]</b></p></div>","32","","","","","","","",""
"","items","198","249310","0.0-198.0","""event"",""trial"",""time""
""fullscreenenter"",""0"",""1997""
","
","
","""event"",""trial"",""time""
""fullscreenenter"",""0"",""1997""
","
","null","run_exp/static/audio/clip_3_items.m4a","null","","","","","","","",""
"","mop","199","253822","0.0-199.0","""event"",""trial"",""time""
""fullscreenenter"",""0"",""1997""
","
","
","""event"",""trial"",""time""
""fullscreenenter"",""0"",""1997""
","
","null","run_exp/static/audio/clip_4_mop.m4a","null","","","","","","","",""
"","baseball","200","257333","0.0-200.0","""event"",""trial"",""time""
""fullscreenenter"",""0"",""1997""
","
","
","""event"",""trial"",""time""
""fullscreenenter"",""0"",""1997""
","
","null","run_exp/static/audio/clip_5_baseball.m4a","null","","","","","","","",""
"","trumpet","201","260842","0.0-201.0","""event"",""trial"",""time""
""fullscreenenter"",""0"",""1997""
","
","
","""event"",""trial"",""time""
""fullscreenenter"",""0"",""1997""
","
","null","run_exp/static/audio/clip_6_trumpet.m4a","null","","","","","","","",""
"","gummies","202","264354","0.0-202.0","""event"",""trial"",""time""
""fullscreenenter"",""0"",""1997""
","
","
","""event"",""trial"",""time""
""fullscreenenter"",""0"",""1997""
","
","null","run_exp/static/audio/clip_7_gummies.m4a","null","","","","","","","",""
"","osn","203","268859","0.0-203.0","""event"",""trial"",""time""
""fullscreenenter"",""0"",""1997""
","
","
","""event"",""trial"",""time""
""fullscreenenter"",""0"",""1997""
","
","null","run_exp/static/audio/clip_8_osn.m4a","null","","","","","","","",""
"","old_1","204","275371","0.0-204.0","""event"",""trial"",""time""
""fullscreenenter"",""0"",""1997""
","
","
","""event"",""trial"",""time""
""fullscreenenter"",""0"",""1997""
","
","null","run_exp/static/audio/clip_9_old_trumpet.m4a","null","","","","","","","",""
"","new_1","205","282891","0.0-205.0","""event"",""trial"",""time""
""fullscreenenter"",""0"",""1997""
","
","
","""event"",""trial"",""time""
""fullscreenenter"",""0"",""1997""
","
","null","run_exp/static/audio/clip_10_new_balloon.m4a","null","","","","","","","",""
"","similar_1a","206","287401","0.0-206.0","""event"",""trial"",""time""
""fullscreenenter"",""0"",""1997""
","
","
","""event"",""trial"",""time""
""fullscreenenter"",""0"",""1997""
","
","null","run_exp/static/audio/clip_11a_similar_mop.m4a","null","","","","","","","",""
"","similar_1b","207","293922","0.0-207.0","""event"",""trial"",""time""
""fullscreenenter"",""0"",""1997""
","
","
","""event"",""trial"",""time""
""fullscreenenter"",""0"",""1997""
","
","null","run_exp/static/audio/clip_11b_similar_mop.m4a","null","","","","","","","",""
"","new_2","208","297429","0.0-208.0","""event"",""trial"",""time""
""fullscreenenter"",""0"",""1997""
","
","
","""event"",""trial"",""time""
""fullscreenenter"",""0"",""1997""
","
","null","run_exp/static/audio/clip_12_new_stoplight.m4a","null","","","","","","","",""
"","old_2","209","300941","0.0-209.0","""event"",""trial"",""time""
""fullscreenenter"",""0"",""1997""
","
","
","""event"",""trial"",""time""
""fullscreenenter"",""0"",""1997""
","
","null","run_exp/static/audio/clip_13_old_baseball.m4a","null","","","","","","","",""
"","similar_2a","210","304451","0.0-210.0","""event"",""trial"",""time""
""fullscreenenter"",""0"",""1997""
","
","
","""event"",""trial"",""time""
""fullscreenenter"",""0"",""1997""
","
","null","run_exp/static/audio/clip_14a_similar_gummies.m4a","null","","","","","","","",""
"","similar_2b","211","311971","0.0-211.0","""event"",""trial"",""time""
""fullscreenenter"",""0"",""1997""
","
","
","""event"",""trial"",""time""
""fullscreenenter"",""0"",""1997""
","
","null","run_exp/static/audio/clip_14b_similar_gummies.m4a","null","","","","","","","",""
"","practice","212","354091","0.0-212.0","""event"",""trial"",""time""
""fullscreenenter"",""0"",""1997""
","
","
","""event"",""trial"",""time""
""fullscreenenter"",""0"",""1997""
","
","null","run_exp/static/audio/clip_15_practice.m4a","null","","","","","<div class='center'><p>Lets practice a little to make sure you understand the difference between new, similar, and old. Lets say you saw these three items in the indoor/outdoor game.</p><p> Try your best to remember these images because youll soon be tested on them in a practice game. In the practice game, youll be shown images and youll have to say if they are old (one of the three images belows), similar (similar to one of the images below but not exactly the same), or new (are not one of the images below nor similar to them).</p><p>Once you press the space bar youll be shown these images again but one at time. Then youll begin the practice game.</p><p><img src='run_exp/static/images/tutorial/test/three_indoor_outdoor.png' height='300'></p></div>","","",""
"","html-keyboard-response","213","355441","0.0-213.0","""event"",""trial"",""time""
""fullscreenenter"",""0"",""1997""
","
","
","""event"",""trial"",""time""
""fullscreenenter"",""0"",""1997""
","
","1348","<div class='center'><p>Lets practice a little to make sure you understand the difference between new, similar, and old. Lets say you saw these three items in the indoor/outdoor game.</p><p> Try your best to remember these images because youll soon be tested on them in a practice game. In the practice game, youll be shown images and youll have to say if they are old (one of the three images belows), similar (similar to one of the images below but not exactly the same), or new (are not one of the images below nor similar to them).</p><p>Once you press the space bar youll be shown these images again but one at time. Then youll begin the practice game.</p><p><img src='run_exp/static/images/tutorial/test/three_indoor_outdoor.png' height='300'></p><div><p><b>[Press the space bar to continue]</b></p></div>","32","","","","","","","",""
"","planet","214","357449","0.0-214.0","""event"",""trial"",""time""
""fullscreenenter"",""0"",""1997""
","
","
","""event"",""trial"",""time""
""fullscreenenter"",""0"",""1997""
","
","null","run_exp/static/images/tutorial/test/008a.jpg","null","","","","","","","",""
"","boot","215","359461","0.0-215.0","""event"",""trial"",""time""
""fullscreenenter"",""0"",""1997""
","
","
","""event"",""trial"",""time""
""fullscreenenter"",""0"",""1997""
","
","null","run_exp/static/images/tutorial/test/011a.jpg","null","","","","","","","",""
"","lemon","216","361471","0.0-216.0","""event"",""trial"",""time""
""fullscreenenter"",""0"",""1997""
","
","
","""event"",""trial"",""time""
""fullscreenenter"",""0"",""1997""
","
","null","run_exp/static/images/tutorial/test/018a.jpg","null","","","","","","","",""
"","practice_q1","217","367144","0.0-217.0","""event"",""trial"",""time""
""fullscreenenter"",""0"",""1997""
","
","
","""event"",""trial"",""time""
""fullscreenenter"",""0"",""1997""
","
","5670.5","run_exp/static/audio/clip_16_practice_question.m4a","78","","","","","","","",""
"","correct","218","369050","0.0-218.0-0.0","""event"",""trial"",""time""
""fullscreenenter"",""0"",""1997""
","
","
","""event"",""trial"",""time""
""fullscreenenter"",""0"",""1997""
","
","null","run_exp/static/audio/clip_17_correct.m4a","null","","","","","<div class='center'><p>That's correct!</p></div>","","",""
"","html-keyboard-response","219","369587","0.0-218.0-1.0","""event"",""trial"",""time""
""fullscreenenter"",""0"",""1997""
","
","
","""event"",""trial"",""time""
""fullscreenenter"",""0"",""1997""
","
","535.9000000059605","<div class='center'><p>That's correct!</p><div><p><b>[Press the space bar to continue]</b></p></div>","32","","","","","","","",""
"","practice_q2","220","370533","0.0-218.0-2.0","""event"",""trial"",""time""
""fullscreenenter"",""0"",""1997""
","
","
","""event"",""trial"",""time""
""fullscreenenter"",""0"",""1997""
","
","944.4000000059605","run_exp/static/audio/clip_16_practice_question.m4a","86","","","","","","","",""
"","correct","221","372424","0.0-219.0-0.0","""event"",""trial"",""time""
""fullscreenenter"",""0"",""1997""
","
","
","""event"",""trial"",""time""
""fullscreenenter"",""0"",""1997""
","
","null","run_exp/static/audio/clip_17_correct.m4a","null","","","","","<div class='center'><p>That's correct!</p></div>","","",""
"","html-keyboard-response","222","372922","0.0-219.0-1.0","""event"",""trial"",""time""
""fullscreenenter"",""0"",""1997""
","
","
","""event"",""trial"",""time""
""fullscreenenter"",""0"",""1997""
","
","496.8999999910593","<div class='center'><p>That's correct!</p><div><p><b>[Press the space bar to continue]</b></p></div>","32","","","","","","","",""
"","practice_q3","223","374444","0.0-219.0-2.0","""event"",""trial"",""time""
""fullscreenenter"",""0"",""1997""
","
","
","""event"",""trial"",""time""
""fullscreenenter"",""0"",""1997""
","
","1521.0999999940395","run_exp/static/audio/clip_16_practice_question.m4a","66","","","","","","","",""
"","correct","224","376550","0.0-220.0-0.0","""event"",""trial"",""time""
""fullscreenenter"",""0"",""1997""
","
","
","""event"",""trial"",""time""
""fullscreenenter"",""0"",""1997""
","
","null","run_exp/static/audio/clip_17_correct.m4a","null","","","","","<div class='center'><p>That's correct!</p></div>","","",""
"","html-keyboard-response","225","376939","0.0-220.0-1.0","""event"",""trial"",""time""
""fullscreenenter"",""0"",""1997""
","
","
","""event"",""trial"",""time""
""fullscreenenter"",""0"",""1997""
","
","387.80000001192093","<div class='center'><p>That's correct!</p><div><p><b>[Press the space bar to continue]</b></p></div>","32","","","","","","","",""
"","begin_text","226","395424","0.0-221.0-0.0","""event"",""trial"",""time""
""fullscreenenter"",""0"",""1997""
","
","
","""event"",""trial"",""time""
""fullscreenenter"",""0"",""1997""
","
","null","run_exp/static/audio/clip_22_begin_test.m4a","null","","","","","<div class='center'><p>On to the real game where well test your memory of items from the indoor/outdoor game. For each item, you need to indicate if the item is <b>old</b> by pressing the <b>v</b> key, <b>similar</b> by pressing the <b>b</b> key, or <b>new</b> by pressing the <b>n</b> key. </p></div>","","",""
"","html-keyboard-response","227","397228","0.0-221.0-1.0","""event"",""trial"",""time""
""fullscreenenter"",""0"",""1997""
","
","
","""event"",""trial"",""time""
""fullscreenenter"",""0"",""1997""
","
","1802.2999999970198","<div class='center'><p>On to the real game where well test your memory of items from the indoor/outdoor game. For each item, you need to indicate if the item is <b>old</b> by pressing the <b>v</b> key, <b>similar</b> by pressing the <b>b</b> key, or <b>new</b> by pressing the <b>n</b> key. </p><div><p><b>[Press the space bar to continue]</b></p></div>","32","","","","","","","",""
"","image","228","398582","0.0-222.0-0.0","""event"",""trial"",""time""
""fullscreenenter"",""0"",""1997""
","
","
","""event"",""trial"",""time""
""fullscreenenter"",""0"",""1997""
","
","1353","run_exp/static/images/Set 6_rs/022a.jpg","78","","","","","","test","TF","4"
"","show_choice","229","399091","0.0-222.0-1.0","""event"",""trial"",""time""
""fullscreenenter"",""0"",""1997""
","
","
","""event"",""trial"",""time""
""fullscreenenter"",""0"",""1997""
","
","null","run_exp/static/images/Set 6_rs/022a.jpg","null","","","","","","test","TF",""
"","html-keyboard-response","230","399602","0.0-222.0-2.0","""event"",""trial"",""time""
""fullscreenenter"",""0"",""1997""
","
","
","""event"",""trial"",""time""
""fullscreenenter"",""0"",""1997""
","
","null","<p></p>","null","","","","","","","",""
"","image","231","400684","0.0-223.0-0.0","""event"",""trial"",""time""
""fullscreenenter"",""0"",""1997""
","
","
","""event"",""trial"",""time""
""fullscreenenter"",""0"",""1997""
","
","1079.5","run_exp/static/images/Set 6_rs/035a.jpg","78","","","","","","test","TF","4"
"","show_choice","232","401192","0.0-223.0-1.0","""event"",""trial"",""time""
""fullscreenenter"",""0"",""1997""
","
","
","""event"",""trial"",""time""
""fullscreenenter"",""0"",""1997""
","
","null","run_exp/static/images/Set 6_rs/035a.jpg","null","","","","","","test","TF",""
"","html-keyboard-response","233","401700","0.0-223.0-2.0","""event"",""trial"",""time""
""fullscreenenter"",""0"",""1997""
","
","
","""event"",""trial"",""time""
""fullscreenenter"",""0"",""1997""
","
","null","<p></p>","null","","","","","","","",""
"","image","234","403193","0.0-224.0-0.0","""event"",""trial"",""time""
""fullscreenenter"",""0"",""1997""
","
","
","""event"",""trial"",""time""
""fullscreenenter"",""0"",""1997""
","
","1491.2000000029802","run_exp/static/images/Set 6_rs/015a.jpg","78","","","","","","test","TF","4"
"","show_choice","235","403699","0.0-224.0-1.0","""event"",""trial"",""time""
""fullscreenenter"",""0"",""1997""
","
","
","""event"",""trial"",""time""
""fullscreenenter"",""0"",""1997""
","
","null","run_exp/static/images/Set 6_rs/015a.jpg","null","","","","","","test","TF",""
"","html-keyboard-response","236","404202","0.0-224.0-2.0","""event"",""trial"",""time""
""fullscreenenter"",""0"",""1997""
","
","
","""event"",""trial"",""time""
""fullscreenenter"",""0"",""1997""
","
","null","<p></p>","null","","","","","","","",""
"","image","237","405320","0.0-225.0-0.0","""event"",""trial"",""time""
""fullscreenenter"",""0"",""1997""
","
","
","""event"",""trial"",""time""
""fullscreenenter"",""0"",""1997""
","
","1116.9000000059605","run_exp/static/images/Set 6_rs/064a.jpg","86","","","","","","test","TR","5"
"","show_choice","238","405823","0.0-225.0-1.0","""event"",""trial"",""time""
""fullscreenenter"",""0"",""1997""
","
","
","""event"",""trial"",""time""
""fullscreenenter"",""0"",""1997""
","
","null","run_exp/static/images/Set 6_rs/064a.jpg","null","","","","","","test","TR",""
"","html-keyboard-response","239","406340","0.0-225.0-2.0","""event"",""trial"",""time""
""fullscreenenter"",""0"",""1997""
","
","
","""event"",""trial"",""time""
""fullscreenenter"",""0"",""1997""
","
","null","<p></p>","null","","","","","","","",""
"","image","240","407255","0.0-226.0-0.0","""event"",""trial"",""time""
""fullscreenenter"",""0"",""1997""
","
","
","""event"",""trial"",""time""
""fullscreenenter"",""0"",""1997""
","
","914.2000000029802","run_exp/static/images/Set 6_rs/056a.jpg","78","","","","","","test","TF","3"
"","show_choice","241","407763","0.0-226.0-1.0","""event"",""trial"",""time""
""fullscreenenter"",""0"",""1997""
","
","
","""event"",""trial"",""time""
""fullscreenenter"",""0"",""1997""
","
","null","run_exp/static/images/Set 6_rs/056a.jpg","null","","","","","","test","TF",""
"","html-keyboard-response","242","408279","0.0-226.0-2.0","""event"",""trial"",""time""
""fullscreenenter"",""0"",""1997""
","
","
","""event"",""trial"",""time""
""fullscreenenter"",""0"",""1997""
","
","null","<p></p>","null","","","","","","","",""
"","image","243","409875","0.0-227.0-0.0","""event"",""trial"",""time""
""fullscreenenter"",""0"",""1997""
","
","
","""event"",""trial"",""time""
""fullscreenenter"",""0"",""1997""
","
","1594.7000000029802","run_exp/static/images/Set 6_rs/014b.jpg","86","","","","","","test","TL","5"
"","show_choice","244","410382","0.0-227.0-1.0","""event"",""trial"",""time""
""fullscreenenter"",""0"",""1997""
","
","
","""event"",""trial"",""time""
""fullscreenenter"",""0"",""1997""
","
","null","run_exp/static/images/Set 6_rs/014b.jpg","null","","","","","","test","TL",""
"","html-keyboard-response","245","410902","0.0-227.0-2.0","""event"",""trial"",""time""
""fullscreenenter"",""0"",""1997""
","
","
","""event"",""trial"",""time""
""fullscreenenter"",""0"",""1997""
","
","null","<p></p>","null","","","","","","","",""
"","image","246","412012","0.0-228.0-0.0","""event"",""trial"",""time""
""fullscreenenter"",""0"",""1997""
","
","
","""event"",""trial"",""time""
""fullscreenenter"",""0"",""1997""
","
","1108.7000000029802","run_exp/static/images/Set 6_rs/097a.jpg","78","","","","","","test","TF","5"
"","show_choice","247","412533","0.0-228.0-1.0","""event"",""trial"",""time""
""fullscreenenter"",""0"",""1997""
","
","
","""event"",""trial"",""time""
""fullscreenenter"",""0"",""1997""
","
","null","run_exp/static/images/Set 6_rs/097a.jpg","null","","","","","","test","TF",""
"","html-keyboard-response","248","413043","0.0-228.0-2.0","""event"",""trial"",""time""
""fullscreenenter"",""0"",""1997""
","
","
","""event"",""trial"",""time""
""fullscreenenter"",""0"",""1997""
","
","null","<p></p>","null","","","","","","","",""
"","image","249","414132","0.0-229.0-0.0","""event"",""trial"",""time""
""fullscreenenter"",""0"",""1997""
","
","
","""event"",""trial"",""time""
""fullscreenenter"",""0"",""1997""
","
","1087.5","run_exp/static/images/Set 6_rs/078a.jpg","78","","","","","","test","TF","1"
"","show_choice","250","414652","0.0-229.0-1.0","""event"",""trial"",""time""
""fullscreenenter"",""0"",""1997""
","
","
","""event"",""trial"",""time""
""fullscreenenter"",""0"",""1997""
","
","null","run_exp/static/images/Set 6_rs/078a.jpg","null","","","","","","test","TF",""
"","html-keyboard-response","251","415162","0.0-229.0-2.0","""event"",""trial"",""time""
""fullscreenenter"",""0"",""1997""
","
","
","""event"",""trial"",""time""
""fullscreenenter"",""0"",""1997""
","
","null","<p></p>","null","","","","","","","",""
"","image","252","417010","0.0-230.0-0.0","""event"",""trial"",""time""
""fullscreenenter"",""0"",""1997""
","
","
","""event"",""trial"",""time""
""fullscreenenter"",""0"",""1997""
","
","1846.2999999970198","run_exp/static/images/Set 6_rs/100a.jpg","66","","","","","","test","TF","2"
"","show_choice","253","417522","0.0-230.0-1.0","""event"",""trial"",""time""
""fullscreenenter"",""0"",""1997""
","
","
","""event"",""trial"",""time""
""fullscreenenter"",""0"",""1997""
","
","null","run_exp/static/images/Set 6_rs/100a.jpg","null","","","","","","test","TF",""
"","html-keyboard-response","254","418030","0.0-230.0-2.0","""event"",""trial"",""time""
""fullscreenenter"",""0"",""1997""
","
","
","""event"",""trial"",""time""
""fullscreenenter"",""0"",""1997""
","
","null","<p></p>","null","","","","","","","",""
"","image","255","419277","0.0-231.0-0.0","""event"",""trial"",""time""
""fullscreenenter"",""0"",""1997""
","
","
","""event"",""trial"",""time""
""fullscreenenter"",""0"",""1997""
","
","1245.7000000029802","run_exp/static/images/Set 6_rs/122a.jpg","86","","","","","","test","TR","5"
"","show_choice","256","419780","0.0-231.0-1.0","""event"",""trial"",""time""
""fullscreenenter"",""0"",""1997""
","
","
","""event"",""trial"",""time""
""fullscreenenter"",""0"",""1997""
","
","null","run_exp/static/images/Set 6_rs/122a.jpg","null","","","","","","test","TR",""
"","html-keyboard-response","257","420283","0.0-231.0-2.0","""event"",""trial"",""time""
""fullscreenenter"",""0"",""1997""
","
","
","""event"",""trial"",""time""
""fullscreenenter"",""0"",""1997""
","
","null","<p></p>","null","","","","","","","",""
"","image","258","421279","0.0-232.0-0.0","""event"",""trial"",""time""
""fullscreenenter"",""0"",""1997""
","
","
","""event"",""trial"",""time""
""fullscreenenter"",""0"",""1997""
","
","995","run_exp/static/images/Set 6_rs/070a.jpg","86","","","","","","test","TR","2"
"","show_choice","259","421793","0.0-232.0-1.0","""event"",""trial"",""time""
""fullscreenenter"",""0"",""1997""
","
","
","""event"",""trial"",""time""
""fullscreenenter"",""0"",""1997""
","
","null","run_exp/static/images/Set 6_rs/070a.jpg","null","","","","","","test","TR",""
"","html-keyboard-response","260","422312","0.0-232.0-2.0","""event"",""trial"",""time""
""fullscreenenter"",""0"",""1997""
","
","
","""event"",""trial"",""time""
""fullscreenenter"",""0"",""1997""
","
","null","<p></p>","null","","","","","","","",""
"","image","261","423305","0.0-233.0-0.0","""event"",""trial"",""time""
""fullscreenenter"",""0"",""1997""
","
","
","""event"",""trial"",""time""
""fullscreenenter"",""0"",""1997""
","
","992","run_exp/static/images/Set 6_rs/047a.jpg","78","","","","","","test","TF","3"
"","show_choice","262","423808","0.0-233.0-1.0","""event"",""trial"",""time""
""fullscreenenter"",""0"",""1997""
","
","
","""event"",""trial"",""time""
""fullscreenenter"",""0"",""1997""
","
","null","run_exp/static/images/Set 6_rs/047a.jpg","null","","","","","","test","TF",""
"","html-keyboard-response","263","424310","0.0-233.0-2.0","""event"",""trial"",""time""
""fullscreenenter"",""0"",""1997""
","
","
","""event"",""trial"",""time""
""fullscreenenter"",""0"",""1997""
","
","null","<p></p>","null","","","","","","","",""
"","image","264","425413","0.0-234.0-0.0","""event"",""trial"",""time""
""fullscreenenter"",""0"",""1997""
","
","
","""event"",""trial"",""time""
""fullscreenenter"",""0"",""1997""
","
","1101.7999999970198","run_exp/static/images/Set 6_rs/134a.jpg","86","","","","","","test","TR","3"
"","show_choice","265","425925","0.0-234.0-1.0","""event"",""trial"",""time""
""fullscreenenter"",""0"",""1997""
","
","
","""event"",""trial"",""time""
""fullscreenenter"",""0"",""1997""
","
","null","run_exp/static/images/Set 6_rs/134a.jpg","null","","","","","","test","TR",""
"","html-keyboard-response","266","426431","0.0-234.0-2.0","""event"",""trial"",""time""
""fullscreenenter"",""0"",""1997""
","
","
","""event"",""trial"",""time""
""fullscreenenter"",""0"",""1997""
","
","null","<p></p>","null","","","","","","","",""
"","image","267","428089","0.0-235.0-0.0","""event"",""trial"",""time""
""fullscreenenter"",""0"",""1997""
","
","
","""event"",""trial"",""time""
""fullscreenenter"",""0"",""1997""
","
","1656.5","run_exp/static/images/Set 6_rs/076a.jpg","66","","","","","","test","TR","4"
"","show_choice","268","428601","0.0-235.0-1.0","""event"",""trial"",""time""
""fullscreenenter"",""0"",""1997""
","
","
","""event"",""trial"",""time""
""fullscreenenter"",""0"",""1997""
","
","null","run_exp/static/images/Set 6_rs/076a.jpg","null","","","","","","test","TR",""
"","html-keyboard-response","269","429112","0.0-235.0-2.0","""event"",""trial"",""time""
""fullscreenenter"",""0"",""1997""
","
","
","""event"",""trial"",""time""
""fullscreenenter"",""0"",""1997""
","
","null","<p></p>","null","","","","","","","",""
"","image","270","430774","0.0-236.0-0.0","""event"",""trial"",""time""
""fullscreenenter"",""0"",""1997""
","
","
","""event"",""trial"",""time""
""fullscreenenter"",""0"",""1997""
","
","1660.7999999970198","run_exp/static/images/Set 6_rs/062b.jpg","66","","","","","","test","TL","1"
"","show_choice","271","431291","0.0-236.0-1.0","""event"",""trial"",""time""
""fullscreenenter"",""0"",""1997""
","
","
","""event"",""trial"",""time""
""fullscreenenter"",""0"",""1997""
","
","null","run_exp/static/images/Set 6_rs/062b.jpg","null","","","","","","test","TL",""
"","html-keyboard-response","272","431792","0.0-236.0-2.0","""event"",""trial"",""time""
""fullscreenenter"",""0"",""1997""
","
","
","""event"",""trial"",""time""
""fullscreenenter"",""0"",""1997""
","
","null","<p></p>","null","","","","","","","",""
"","image","273","433471","0.0-237.0-0.0","""event"",""trial"",""time""
""fullscreenenter"",""0"",""1997""
","
","
","""event"",""trial"",""time""
""fullscreenenter"",""0"",""1997""
","
","1677.5","run_exp/static/images/Set 6_rs/095b.jpg","66","","","","","","test","TL","5"
"","show_choice","274","433980","0.0-237.0-1.0","""event"",""trial"",""time""
""fullscreenenter"",""0"",""1997""
","
","
","""event"",""trial"",""time""
""fullscreenenter"",""0"",""1997""
","
","null","run_exp/static/images/Set 6_rs/095b.jpg","null","","","","","","test","TL",""
"","html-keyboard-response","275","434491","0.0-237.0-2.0","""event"",""trial"",""time""
""fullscreenenter"",""0"",""1997""
","
","
","""event"",""trial"",""time""
""fullscreenenter"",""0"",""1997""
","
","null","<p></p>","null","","","","","","","",""
"","image","276","435520","0.0-238.0-0.0","""event"",""trial"",""time""
""fullscreenenter"",""0"",""1997""
","
","
","""event"",""trial"",""time""
""fullscreenenter"",""0"",""1997""
","
","1027.2999999970198","run_exp/static/images/Set 6_rs/048a.jpg","78","","","","","","test","TF","4"
"","show_choice","277","436032","0.0-238.0-1.0","""event"",""trial"",""time""
""fullscreenenter"",""0"",""1997""
","
","
","""event"",""trial"",""time""
""fullscreenenter"",""0"",""1997""
","
","null","run_exp/static/images/Set 6_rs/048a.jpg","null","","","","","","test","TF",""
"","html-keyboard-response","278","436543","0.0-238.0-2.0","""event"",""trial"",""time""
""fullscreenenter"",""0"",""1997""
","
","
","""event"",""trial"",""time""
""fullscreenenter"",""0"",""1997""
","
","null","<p></p>","null","","","","","","","",""
"","image","279","438089","0.0-239.0-0.0","""event"",""trial"",""time""
""fullscreenenter"",""0"",""1997""
","
","
","""event"",""trial"",""time""
""fullscreenenter"",""0"",""1997""
","
","1544.4000000059605","run_exp/static/images/Set 6_rs/065a.jpg","78","","","","","","test","TF","3"
"","show_choice","280","438592","0.0-239.0-1.0","""event"",""trial"",""time""
""fullscreenenter"",""0"",""1997""
","
","
","""event"",""trial"",""time""
""fullscreenenter"",""0"",""1997""
","
","null","run_exp/static/images/Set 6_rs/065a.jpg","null","","","","","","test","TF",""
"","html-keyboard-response","281","439093","0.0-239.0-2.0","""event"",""trial"",""time""
""fullscreenenter"",""0"",""1997""
","
","
","""event"",""trial"",""time""
""fullscreenenter"",""0"",""1997""
","
","null","<p></p>","null","","","","","","","",""
"","image","282","440204","0.0-240.0-0.0","""event"",""trial"",""time""
""fullscreenenter"",""0"",""1997""
","
","
","""event"",""trial"",""time""
""fullscreenenter"",""0"",""1997""
","
","1109.800000011921","run_exp/static/images/Set 6_rs/088a.jpg","86","","","","","","test","TR","2"
"","show_choice","283","440722","0.0-240.0-1.0","""event"",""trial"",""time""
""fullscreenenter"",""0"",""1997""
","
","
","""event"",""trial"",""time""
""fullscreenenter"",""0"",""1997""
","
","null","run_exp/static/images/Set 6_rs/088a.jpg","null","","","","","","test","TR",""
"","html-keyboard-response","284","441231","0.0-240.0-2.0","""event"",""trial"",""time""
""fullscreenenter"",""0"",""1997""
","
","
","""event"",""trial"",""time""
""fullscreenenter"",""0"",""1997""
","
","null","<p></p>","null","","","","","","","",""
"","image","285","442108","0.0-241.0-0.0","""event"",""trial"",""time""
""fullscreenenter"",""0"",""1997""
","
","
","""event"",""trial"",""time""
""fullscreenenter"",""0"",""1997""
","
","874.2000000029802","run_exp/static/images/Set 6_rs/045a.jpg","86","","","","","","test","TR","2"
"","show_choice","286","442613","0.0-241.0-1.0","""event"",""trial"",""time""
""fullscreenenter"",""0"",""1997""
","
","
","""event"",""trial"",""time""
""fullscreenenter"",""0"",""1997""
","
","null","run_exp/static/images/Set 6_rs/045a.jpg","null","","","","","","test","TR",""
"","html-keyboard-response","287","443122","0.0-241.0-2.0","""event"",""trial"",""time""
""fullscreenenter"",""0"",""1997""
","
","
","""event"",""trial"",""time""
""fullscreenenter"",""0"",""1997""
","
","null","<p></p>","null","","","","","","","",""
"","image","288","444366","0.0-242.0-0.0","""event"",""trial"",""time""
""fullscreenenter"",""0"",""1997""
","
","
","""event"",""trial"",""time""
""fullscreenenter"",""0"",""1997""
","
","1242.7999999970198","run_exp/static/images/Set 6_rs/155a.jpg","78","","","","","","test","TF","4"
"","show_choice","289","444871","0.0-242.0-1.0","""event"",""trial"",""time""
""fullscreenenter"",""0"",""1997""
","
","
","""event"",""trial"",""time""
""fullscreenenter"",""0"",""1997""
","
","null","run_exp/static/images/Set 6_rs/155a.jpg","null","","","","","","test","TF",""
"","html-keyboard-response","290","445391","0.0-242.0-2.0","""event"",""trial"",""time""
""fullscreenenter"",""0"",""1997""
","
","
","""event"",""trial"",""time""
""fullscreenenter"",""0"",""1997""
","
","null","<p></p>","null","","","","","","","",""
"","image","291","447080","0.0-243.0-0.0","""event"",""trial"",""time""
""fullscreenenter"",""0"",""1997""
","
","
","""event"",""trial"",""time""
""fullscreenenter"",""0"",""1997""
","
","1686.7000000029802","run_exp/static/images/Set 6_rs/129b.jpg","66","","","","","","test","TL","1"
"","show_choice","292","447592","0.0-243.0-1.0","""event"",""trial"",""time""
""fullscreenenter"",""0"",""1997""
","
","
","""event"",""trial"",""time""
""fullscreenenter"",""0"",""1997""
","
","null","run_exp/static/images/Set 6_rs/129b.jpg","null","","","","","","test","TL",""
"","html-keyboard-response","293","448111","0.0-243.0-2.0","""event"",""trial"",""time""
""fullscreenenter"",""0"",""1997""
","
","
","""event"",""trial"",""time""
""fullscreenenter"",""0"",""1997""
","
","null","<p></p>","null","","","","","","","",""
"","image","294","449166","0.0-244.0-0.0","""event"",""trial"",""time""
""fullscreenenter"",""0"",""1997""
","
","
","""event"",""trial"",""time""
""fullscreenenter"",""0"",""1997""
","
","1053","run_exp/static/images/Set 6_rs/001a.jpg","78","","","","","","test","TF","1"
"","show_choice","295","449670","0.0-244.0-1.0","""event"",""trial"",""time""
""fullscreenenter"",""0"",""1997""
","
","
","""event"",""trial"",""time""
""fullscreenenter"",""0"",""1997""
","
","null","run_exp/static/images/Set 6_rs/001a.jpg","null","","","","","","test","TF",""
"","html-keyboard-response","296","450172","0.0-244.0-2.0","""event"",""trial"",""time""
""fullscreenenter"",""0"",""1997""
","
","
","""event"",""trial"",""time""
""fullscreenenter"",""0"",""1997""
","
","null","<p></p>","null","","","","","","","",""
"","image","297","451433","0.0-245.0-0.0","""event"",""trial"",""time""
""fullscreenenter"",""0"",""1997""
","
","
","""event"",""trial"",""time""
""fullscreenenter"",""0"",""1997""
","
","1260.2999999970198","run_exp/static/images/Set 6_rs/086a.jpg","78","","","","","","test","TF","1"
"","show_choice","298","451943","0.0-245.0-1.0","""event"",""trial"",""time""
""fullscreenenter"",""0"",""1997""
","
","
","""event"",""trial"",""time""
""fullscreenenter"",""0"",""1997""
","
","null","run_exp/static/images/Set 6_rs/086a.jpg","null","","","","","","test","TF",""
"","html-keyboard-response","299","452450","0.0-245.0-2.0","""event"",""trial"",""time""
""fullscreenenter"",""0"",""1997""
","
","
","""event"",""trial"",""time""
""fullscreenenter"",""0"",""1997""
","
","null","<p></p>","null","","","","","","","",""
"","image","300","453408","0.0-246.0-0.0","""event"",""trial"",""time""
""fullscreenenter"",""0"",""1997""
","
","
","""event"",""trial"",""time""
""fullscreenenter"",""0"",""1997""
","
","957.3999999910593","run_exp/static/images/Set 6_rs/150a.jpg","86","","","","","","test","TR","1"
"","show_choice","301","453923","0.0-246.0-1.0","""event"",""trial"",""time""
""fullscreenenter"",""0"",""1997""
","
","
","""event"",""trial"",""time""
""fullscreenenter"",""0"",""1997""
","
","null","run_exp/static/images/Set 6_rs/150a.jpg","null","","","","","","test","TR",""
"","html-keyboard-response","302","454430","0.0-246.0-2.0","""event"",""trial"",""time""
""fullscreenenter"",""0"",""1997""
","
","
","""event"",""trial"",""time""
""fullscreenenter"",""0"",""1997""
","
","null","<p></p>","null","","","","","","","",""
"","image","303","455487","0.0-247.0-0.0","""event"",""trial"",""time""
""fullscreenenter"",""0"",""1997""
","
","
","""event"",""trial"",""time""
""fullscreenenter"",""0"",""1997""
","
","1055.7999999970198","run_exp/static/images/Set 6_rs/132a.jpg","86","","","","","","test","TR","5"
"","show_choice","304","455992","0.0-247.0-1.0","""event"",""trial"",""time""
""fullscreenenter"",""0"",""1997""
","
","
","""event"",""trial"",""time""
""fullscreenenter"",""0"",""1997""
","
","null","run_exp/static/images/Set 6_rs/132a.jpg","null","","","","","","test","TR",""
"","html-keyboard-response","305","456500","0.0-247.0-2.0","""event"",""trial"",""time""
""fullscreenenter"",""0"",""1997""
","
","
","""event"",""trial"",""time""
""fullscreenenter"",""0"",""1997""
","
","null","<p></p>","null","","","","","","","",""
"","image","306","457480","0.0-248.0-0.0","""event"",""trial"",""time""
""fullscreenenter"",""0"",""1997""
","
","
","""event"",""trial"",""time""
""fullscreenenter"",""0"",""1997""
","
","978.6999999880791","run_exp/static/images/Set 6_rs/077a.jpg","78","","","","","","test","TF","3"
"","show_choice","307","457982","0.0-248.0-1.0","""event"",""trial"",""time""
""fullscreenenter"",""0"",""1997""
","
","
","""event"",""trial"",""time""
""fullscreenenter"",""0"",""1997""
","
","null","run_exp/static/images/Set 6_rs/077a.jpg","null","","","","","","test","TF",""
"","html-keyboard-response","308","458492","0.0-248.0-2.0","""event"",""trial"",""time""
""fullscreenenter"",""0"",""1997""
","
","
","""event"",""trial"",""time""
""fullscreenenter"",""0"",""1997""
","
","null","<p></p>","null","","","","","","","",""
"","image","309","459338","0.0-249.0-0.0","""event"",""trial"",""time""
""fullscreenenter"",""0"",""1997""
","
","
","""event"",""trial"",""time""
""fullscreenenter"",""0"",""1997""
","
","844.5999999940395","run_exp/static/images/Set 6_rs/105a.jpg","78","","","","","","test","TF","5"
"","show_choice","310","459848","0.0-249.0-1.0","""event"",""trial"",""time""
""fullscreenenter"",""0"",""1997""
","
","
","""event"",""trial"",""time""
""fullscreenenter"",""0"",""1997""
","
","null","run_exp/static/images/Set 6_rs/105a.jpg","null","","","","","","test","TF",""
"","html-keyboard-response","311","460361","0.0-249.0-2.0","""event"",""trial"",""time""
""fullscreenenter"",""0"",""1997""
","
","
","""event"",""trial"",""time""
""fullscreenenter"",""0"",""1997""
","
","null","<p></p>","null","","","","","","","",""
"","image","312","461878","0.0-250.0-0.0","""event"",""trial"",""time""
""fullscreenenter"",""0"",""1997""
","
","
","""event"",""trial"",""time""
""fullscreenenter"",""0"",""1997""
","
","1515.5","run_exp/static/images/Set 6_rs/091b.jpg","86","","","","","","test","TL","3"
"","show_choice","313","462392","0.0-250.0-1.0","""event"",""trial"",""time""
""fullscreenenter"",""0"",""1997""
","
","
","""event"",""trial"",""time""
""fullscreenenter"",""0"",""1997""
","
","null","run_exp/static/images/Set 6_rs/091b.jpg","null","","","","","","test","TL",""
"","html-keyboard-response","314","462902","0.0-250.0-2.0","""event"",""trial"",""time""
""fullscreenenter"",""0"",""1997""
","
","
","""event"",""trial"",""time""
""fullscreenenter"",""0"",""1997""
","
","null","<p></p>","null","","","","","","","",""
"","image","315","463794","0.0-251.0-0.0","""event"",""trial"",""time""
""fullscreenenter"",""0"",""1997""
","
","
","""event"",""trial"",""time""
""fullscreenenter"",""0"",""1997""
","
","890.7000000029802","run_exp/static/images/Set 6_rs/131a.jpg","86","","","","","","test","TR","5"
"","show_choice","316","464309","0.0-251.0-1.0","""event"",""trial"",""time""
""fullscreenenter"",""0"",""1997""
","
","
","""event"",""trial"",""time""
""fullscreenenter"",""0"",""1997""
","
","null","run_exp/static/images/Set 6_rs/131a.jpg","null","","","","","","test","TR",""
"","html-keyboard-response","317","464820","0.0-251.0-2.0","""event"",""trial"",""time""
""fullscreenenter"",""0"",""1997""
","
","
","""event"",""trial"",""time""
""fullscreenenter"",""0"",""1997""
","
","null","<p></p>","null","","","","","","","",""
"","image","318","465642","0.0-252.0-0.0","""event"",""trial"",""time""
""fullscreenenter"",""0"",""1997""
","
","
","""event"",""trial"",""time""
""fullscreenenter"",""0"",""1997""
","
","820.5","run_exp/static/images/Set 6_rs/176a.jpg","78","","","","","","test","TF","4"
"","show_choice","319","466151","0.0-252.0-1.0","""event"",""trial"",""time""
""fullscreenenter"",""0"",""1997""
","
","
","""event"",""trial"",""time""
""fullscreenenter"",""0"",""1997""
","
","null","run_exp/static/images/Set 6_rs/176a.jpg","null","","","","","","test","TF",""
"","html-keyboard-response","320","466662","0.0-252.0-2.0","""event"",""trial"",""time""
""fullscreenenter"",""0"",""1997""
","
","
","""event"",""trial"",""time""
""fullscreenenter"",""0"",""1997""
","
","null","<p></p>","null","","","","","","","",""
"","image","321","468145","0.0-253.0-0.0","""event"",""trial"",""time""
""fullscreenenter"",""0"",""1997""
","
","
","""event"",""trial"",""time""
""fullscreenenter"",""0"",""1997""
","
","1482","run_exp/static/images/Set 6_rs/111b.jpg","66","","","","","","test","TL","3"
"","show_choice","322","468652","0.0-253.0-1.0","""event"",""trial"",""time""
""fullscreenenter"",""0"",""1997""
","
","
","""event"",""trial"",""time""
""fullscreenenter"",""0"",""1997""
","
","null","run_exp/static/images/Set 6_rs/111b.jpg","null","","","","","","test","TL",""
"","html-keyboard-response","323","469162","0.0-253.0-2.0","""event"",""trial"",""time""
""fullscreenenter"",""0"",""1997""
","
","
","""event"",""trial"",""time""
""fullscreenenter"",""0"",""1997""
","
","null","<p></p>","null","","","","","","","",""
"","image","324","470635","0.0-254.0-0.0","""event"",""trial"",""time""
""fullscreenenter"",""0"",""1997""
","
","
","""event"",""trial"",""time""
""fullscreenenter"",""0"",""1997""
","
","1471.1000000089407","run_exp/static/images/Set 6_rs/066b.jpg","66","","","","","","test","TL","5"
"","show_choice","325","471143","0.0-254.0-1.0","""event"",""trial"",""time""
""fullscreenenter"",""0"",""1997""
","
","
","""event"",""trial"",""time""
""fullscreenenter"",""0"",""1997""
","
","null","run_exp/static/images/Set 6_rs/066b.jpg","null","","","","","","test","TL",""
"","html-keyboard-response","326","471660","0.0-254.0-2.0","""event"",""trial"",""time""
""fullscreenenter"",""0"",""1997""
","
","
","""event"",""trial"",""time""
""fullscreenenter"",""0"",""1997""
","
","null","<p></p>","null","","","","","","","",""
"","image","327","472777","0.0-255.0-0.0","""event"",""trial"",""time""
""fullscreenenter"",""0"",""1997""
","
","
","""event"",""trial"",""time""
""fullscreenenter"",""0"",""1997""
","
","1115.699999988079","run_exp/static/images/Set 6_rs/024a.jpg","86","","","","","","test","TR","5"
"","show_choice","328","473293","0.0-255.0-1.0","""event"",""trial"",""time""
""fullscreenenter"",""0"",""1997""
","
","
","""event"",""trial"",""time""
""fullscreenenter"",""0"",""1997""
","
","null","run_exp/static/images/Set 6_rs/024a.jpg","null","","","","","","test","TR",""
"","html-keyboard-response","329","473800","0.0-255.0-2.0","""event"",""trial"",""time""
""fullscreenenter"",""0"",""1997""
","
","
","""event"",""trial"",""time""
""fullscreenenter"",""0"",""1997""
","
","null","<p></p>","null","","","","","","","",""
"","image","330","474789","0.0-256.0-0.0","""event"",""trial"",""time""
""fullscreenenter"",""0"",""1997""
","
","
","""event"",""trial"",""time""
""fullscreenenter"",""0"",""1997""
","
","987.5","run_exp/static/images/Set 6_rs/169a.jpg","78","","","","","","test","TR","4"
"","show_choice","331","475292","0.0-256.0-1.0","""event"",""trial"",""time""
""fullscreenenter"",""0"",""1997""
","
","
","""event"",""trial"",""time""
""fullscreenenter"",""0"",""1997""
","
","null","run_exp/static/images/Set 6_rs/169a.jpg","null","","","","","","test","TR",""
"","html-keyboard-response","332","475803","0.0-256.0-2.0","""event"",""trial"",""time""
""fullscreenenter"",""0"",""1997""
","
","
","""event"",""trial"",""time""
""fullscreenenter"",""0"",""1997""
","
","null","<p></p>","null","","","","","","","",""
"","image","333","477574","0.0-257.0-0.0","""event"",""trial"",""time""
""fullscreenenter"",""0"",""1997""
","
","
","""event"",""trial"",""time""
""fullscreenenter"",""0"",""1997""
","
","1769","run_exp/static/images/Set 6_rs/073b.jpg","86","","","","","","test","TL","3"
"","show_choice","334","478082","0.0-257.0-1.0","""event"",""trial"",""time""
""fullscreenenter"",""0"",""1997""
","
","
","""event"",""trial"",""time""
""fullscreenenter"",""0"",""1997""
","
","null","run_exp/static/images/Set 6_rs/073b.jpg","null","","","","","","test","TL",""
"","html-keyboard-response","335","478602","0.0-257.0-2.0","""event"",""trial"",""time""
""fullscreenenter"",""0"",""1997""
","
","
","""event"",""trial"",""time""
""fullscreenenter"",""0"",""1997""
","
","null","<p></p>","null","","","","","","","",""
"","image","336","479853","0.0-258.0-0.0","""event"",""trial"",""time""
""fullscreenenter"",""0"",""1997""
","
","
","""event"",""trial"",""time""
""fullscreenenter"",""0"",""1997""
","
","1250.0999999940395","run_exp/static/images/Set 6_rs/191b.jpg","86","","","","","","test","TL","2"
"","show_choice","337","480363","0.0-258.0-1.0","""event"",""trial"",""time""
""fullscreenenter"",""0"",""1997""
","
","
","""event"",""trial"",""time""
""fullscreenenter"",""0"",""1997""
","
","null","run_exp/static/images/Set 6_rs/191b.jpg","null","","","","","","test","TL",""
"","html-keyboard-response","338","480880","0.0-258.0-2.0","""event"",""trial"",""time""
""fullscreenenter"",""0"",""1997""
","
","
","""event"",""trial"",""time""
""fullscreenenter"",""0"",""1997""
","
","null","<p></p>","null","","","","","","","",""
"","image","339","482190","0.0-259.0-0.0","""event"",""trial"",""time""
""fullscreenenter"",""0"",""1997""
","
","
","""event"",""trial"",""time""
""fullscreenenter"",""0"",""1997""
","
","1309.4000000059605","run_exp/static/images/Set 6_rs/138b.jpg","86","","","","","","test","TL","1"
"","show_choice","340","482701","0.0-259.0-1.0","""event"",""trial"",""time""
""fullscreenenter"",""0"",""1997""
","
","
","""event"",""trial"",""time""
""fullscreenenter"",""0"",""1997""
","
","null","run_exp/static/images/Set 6_rs/138b.jpg","null","","","","","","test","TL",""
"","html-keyboard-response","341","483207","0.0-259.0-2.0","""event"",""trial"",""time""
""fullscreenenter"",""0"",""1997""
","
","
","""event"",""trial"",""time""
