"success","trial_type","trial_index","time_elapsed","internal_node_id","interactions","blur_events","focus_events","fullscreenenter_events","fullscreenexit_events","rt","stimulus","key_press","subject_id","participant_id","age","gender","prompt","phase","condition","lure_bin"
"true","fullscreen","0","4324","0.0-0.0","""event"",""trial"",""time""
""fullscreenenter"",""0"",""3374""
","
","
","""event"",""trial"",""time""
""fullscreenenter"",""0"",""3374""
","
","","","","","","","","","","",""
"","pavlovia","1","4327","0.0-1.0","""event"",""trial"",""time""
""fullscreenenter"",""0"",""3374""
","
","
","""event"",""trial"",""time""
""fullscreenenter"",""0"",""3374""
","
","","","","","","","","","","",""
"","welcome","2","39102","0.0-2.0","""event"",""trial"",""time""
""fullscreenenter"",""0"",""3374""
","
","
","""event"",""trial"",""time""
""fullscreenenter"",""0"",""3374""
","
","null","run_exp/static/audio/clip_1_welcome.m4a","null","475","900","10","Female","<div class='center'><p>Welcome to the third part of the study! First, you'll be shown pictures of items one at a time. For each picture, you have to decide if the item is typically found indoors or outdoors.</p><p>If you think it's usually found indoors, then press <b>v</b> key on your keyboard. If you think it's usually found outdoors, then press the <b>n</b> key.There will be reminders on the screen to help you remember which keys to press. </p><p>If you're not sure whether the item is an indoor item or an outdoor item, go ahead and take a guess but try your best not to skip that choice. </p></div>","","",""
"","html-keyboard-response","3","39725","0.0-3.0","""event"",""trial"",""time""
""fullscreenenter"",""0"",""3374""
","
","
","""event"",""trial"",""time""
""fullscreenenter"",""0"",""3374""
","
","620.3000000119209","<div class='center'><p>Welcome to the third part of the study! First, you'll be shown pictures of items one at a time. For each picture, you have to decide if the item is typically found indoors or outdoors.</p><p>If you think it's usually found indoors, then press <b>v</b> key on your keyboard. If you think it's usually found outdoors, then press the <b>n</b> key.There will be reminders on the screen to help you remember which keys to press. </p><p>If you're not sure whether the item is an indoor item or an outdoor item, go ahead and take a guess but try your best not to skip that choice. </p><div><p><b>[Press the space bar to continue]</b></p></div>","32","","","","","","","",""
"","image","4","41733","0.0-4.0","""event"",""trial"",""time""
""fullscreenenter"",""0"",""3374""
","
","
","""event"",""trial"",""time""
""fullscreenenter"",""0"",""3374""
","
","null","run_exp/static/images/Set 6_rs/172a.jpg","null","","","","","","learn","SR",""
"","show_choice","5","43745","0.0-5.0","""event"",""trial"",""time""
""fullscreenenter"",""0"",""3374""
","
","
","""event"",""trial"",""time""
""fullscreenenter"",""0"",""3374""
","
","null","run_exp/static/images/blank.png","null","","","","","","learn","SR",""
"","html-keyboard-response","6","44255","0.0-6.0","""event"",""trial"",""time""
""fullscreenenter"",""0"",""3374""
","
","
","""event"",""trial"",""time""
""fullscreenenter"",""0"",""3374""
","
","null","<p></p>","null","","","","","","","",""
"","image","7","45262","0.0-7.0","""event"",""trial"",""time""
""fullscreenenter"",""0"",""3374""
","
","
","""event"",""trial"",""time""
""fullscreenenter"",""0"",""3374""
","
","1004.3999999761581","run_exp/static/images/Set 6_rs/036a.jpg","86","","","","","","learn","SL",""
"","show_choice","8","46271","0.0-8.0","""event"",""trial"",""time""
""fullscreenenter"",""0"",""3374""
","
","
","""event"",""trial"",""time""
""fullscreenenter"",""0"",""3374""
","
","null","run_exp/static/images/Set 6_rs/036a.jpg","null","","","","","","learn","SL",""
"","html-keyboard-response","9","46785","0.0-9.0","""event"",""trial"",""time""
""fullscreenenter"",""0"",""3374""
","
","
","""event"",""trial"",""time""
""fullscreenenter"",""0"",""3374""
","
","null","<p></p>","null","","","","","","","",""
"","image","10","47537","0.0-10.0","""event"",""trial"",""time""
""fullscreenenter"",""0"",""3374""
","
","
","""event"",""trial"",""time""
""fullscreenenter"",""0"",""3374""
","
","749.7000000476837","run_exp/static/images/Set 6_rs/191a.jpg","86","","","","","","learn","SL",""
"","show_choice","11","48793","0.0-11.0","""event"",""trial"",""time""
""fullscreenenter"",""0"",""3374""
","
","
","""event"",""trial"",""time""
""fullscreenenter"",""0"",""3374""
","
","null","run_exp/static/images/Set 6_rs/191a.jpg","null","","","","","","learn","SL",""
"","html-keyboard-response","12","49307","0.0-12.0","""event"",""trial"",""time""
""fullscreenenter"",""0"",""3374""
","
","
","""event"",""trial"",""time""
""fullscreenenter"",""0"",""3374""
","
","null","<p></p>","null","","","","","","","",""
"","image","13","50158","0.0-13.0","""event"",""trial"",""time""
""fullscreenenter"",""0"",""3374""
","
","
","""event"",""trial"",""time""
""fullscreenenter"",""0"",""3374""
","
","848","run_exp/static/images/Set 6_rs/050a.jpg","86","","","","","","learn","SL",""
"","show_choice","14","51314","0.0-14.0","""event"",""trial"",""time""
""fullscreenenter"",""0"",""3374""
","
","
","""event"",""trial"",""time""
""fullscreenenter"",""0"",""3374""
","
","null","run_exp/static/images/Set 6_rs/050a.jpg","null","","","","","","learn","SL",""
"","html-keyboard-response","15","51815","0.0-15.0","""event"",""trial"",""time""
""fullscreenenter"",""0"",""3374""
","
","
","""event"",""trial"",""time""
""fullscreenenter"",""0"",""3374""
","
","null","<p></p>","null","","","","","","","",""
"","image","16","53174","0.0-16.0","""event"",""trial"",""time""
""fullscreenenter"",""0"",""3374""
","
","
","""event"",""trial"",""time""
""fullscreenenter"",""0"",""3374""
","
","1355.8999999761581","run_exp/static/images/Set 6_rs/121a.jpg","86","","","","","","learn","SR",""
"","show_choice","17","53822","0.0-17.0","""event"",""trial"",""time""
""fullscreenenter"",""0"",""3374""
","
","
","""event"",""trial"",""time""
""fullscreenenter"",""0"",""3374""
","
","null","run_exp/static/images/Set 6_rs/121a.jpg","null","","","","","","learn","SR",""
"","html-keyboard-response","18","54330","0.0-18.0","""event"",""trial"",""time""
""fullscreenenter"",""0"",""3374""
","
","
","""event"",""trial"",""time""
""fullscreenenter"",""0"",""3374""
","
","null","<p></p>","null","","","","","","","",""
"","image","19","55480","0.0-19.0","""event"",""trial"",""time""
""fullscreenenter"",""0"",""3374""
","
","
","""event"",""trial"",""time""
""fullscreenenter"",""0"",""3374""
","
","1148","run_exp/static/images/Set 6_rs/061a.jpg","78","","","","","","learn","SR",""
"","show_choice","20","56339","0.0-20.0","""event"",""trial"",""time""
""fullscreenenter"",""0"",""3374""
","
","
","""event"",""trial"",""time""
""fullscreenenter"",""0"",""3374""
","
","null","run_exp/static/images/Set 6_rs/061a.jpg","null","","","","","","learn","SR",""
"","html-keyboard-response","21","56844","0.0-21.0","""event"",""trial"",""time""
""fullscreenenter"",""0"",""3374""
","
","
","""event"",""trial"",""time""
""fullscreenenter"",""0"",""3374""
","
","null","<p></p>","null","","","","","","","",""
"","image","22","57672","0.0-22.0","""event"",""trial"",""time""
""fullscreenenter"",""0"",""3374""
","
","
","""event"",""trial"",""time""
""fullscreenenter"",""0"",""3374""
","
","825.3999999761581","run_exp/static/images/Set 6_rs/073a.jpg","86","","","","","","learn","SL",""
"","show_choice","23","58852","0.0-23.0","""event"",""trial"",""time""
""fullscreenenter"",""0"",""3374""
","
","
","""event"",""trial"",""time""
""fullscreenenter"",""0"",""3374""
","
","null","run_exp/static/images/Set 6_rs/073a.jpg","null","","","","","","learn","SL",""
"","html-keyboard-response","24","59369","0.0-24.0","""event"",""trial"",""time""
""fullscreenenter"",""0"",""3374""
","
","
","""event"",""trial"",""time""
""fullscreenenter"",""0"",""3374""
","
","null","<p></p>","null","","","","","","","",""
"","image","25","60487","0.0-25.0","""event"",""trial"",""time""
""fullscreenenter"",""0"",""3374""
","
","
","""event"",""trial"",""time""
""fullscreenenter"",""0"",""3374""
","
","1115.300000011921","run_exp/static/images/Set 6_rs/126a.jpg","86","","","","","","learn","SR",""
"","show_choice","26","61385","0.0-26.0","""event"",""trial"",""time""
""fullscreenenter"",""0"",""3374""
","
","
","""event"",""trial"",""time""
""fullscreenenter"",""0"",""3374""
","
","null","run_exp/static/images/Set 6_rs/126a.jpg","null","","","","","","learn","SR",""
"","html-keyboard-response","27","61887","0.0-27.0","""event"",""trial"",""time""
""fullscreenenter"",""0"",""3374""
","
","
","""event"",""trial"",""time""
""fullscreenenter"",""0"",""3374""
","
","null","<p></p>","null","","","","","","","",""
"","image","28","62860","0.0-28.0","""event"",""trial"",""time""
""fullscreenenter"",""0"",""3374""
","
","
","""event"",""trial"",""time""
""fullscreenenter"",""0"",""3374""
","
","972.3999999761581","run_exp/static/images/Set 6_rs/186a.jpg","86","","","","","","learn","SR",""
"","show_choice","29","63889","0.0-29.0","""event"",""trial"",""time""
""fullscreenenter"",""0"",""3374""
","
","
","""event"",""trial"",""time""
""fullscreenenter"",""0"",""3374""
","
","null","run_exp/static/images/Set 6_rs/186a.jpg","null","","","","","","learn","SR",""
"","html-keyboard-response","30","64392","0.0-30.0","""event"",""trial"",""time""
""fullscreenenter"",""0"",""3374""
","
","
","""event"",""trial"",""time""
""fullscreenenter"",""0"",""3374""
","
","null","<p></p>","null","","","","","","","",""
"","image","31","65388","0.0-31.0","""event"",""trial"",""time""
""fullscreenenter"",""0"",""3374""
","
","
","""event"",""trial"",""time""
""fullscreenenter"",""0"",""3374""
","
","995","run_exp/static/images/Set 6_rs/132a.jpg","86","","","","","","learn","SR",""
"","show_choice","32","66404","0.0-32.0","""event"",""trial"",""time""
""fullscreenenter"",""0"",""3374""
","
","
","""event"",""trial"",""time""
""fullscreenenter"",""0"",""3374""
","
","null","run_exp/static/images/Set 6_rs/132a.jpg","null","","","","","","learn","SR",""
"","html-keyboard-response","33","66906","0.0-33.0","""event"",""trial"",""time""
""fullscreenenter"",""0"",""3374""
","
","
","""event"",""trial"",""time""
""fullscreenenter"",""0"",""3374""
","
","null","<p></p>","null","","","","","","","",""
"","image","34","68550","0.0-34.0","""event"",""trial"",""time""
""fullscreenenter"",""0"",""3374""
","
","
","""event"",""trial"",""time""
""fullscreenenter"",""0"",""3374""
","
","1642.300000011921","run_exp/static/images/Set 6_rs/075a.jpg","86","","","","","","learn","SR",""
"","show_choice","35","68917","0.0-35.0","""event"",""trial"",""time""
""fullscreenenter"",""0"",""3374""
","
","
","""event"",""trial"",""time""
""fullscreenenter"",""0"",""3374""
","
","null","run_exp/static/images/Set 6_rs/075a.jpg","null","","","","","","learn","SR",""
"","html-keyboard-response","36","69419","0.0-36.0","""event"",""trial"",""time""
""fullscreenenter"",""0"",""3374""
","
","
","""event"",""trial"",""time""
""fullscreenenter"",""0"",""3374""
","
","null","<p></p>","null","","","","","","","",""
"","image","37","70691","0.0-37.0","""event"",""trial"",""time""
""fullscreenenter"",""0"",""3374""
","
","
","""event"",""trial"",""time""
""fullscreenenter"",""0"",""3374""
","
","1269.699999988079","run_exp/static/images/Set 6_rs/141a.jpg","78","","","","","","learn","SR",""
"","show_choice","38","71429","0.0-38.0","""event"",""trial"",""time""
""fullscreenenter"",""0"",""3374""
","
","
","""event"",""trial"",""time""
""fullscreenenter"",""0"",""3374""
","
","null","run_exp/static/images/Set 6_rs/141a.jpg","null","","","","","","learn","SR",""
"","html-keyboard-response","39","71933","0.0-39.0","""event"",""trial"",""time""
""fullscreenenter"",""0"",""3374""
","
","
","""event"",""trial"",""time""
""fullscreenenter"",""0"",""3374""
","
","null","<p></p>","null","","","","","","","",""
"","image","40","72904","0.0-40.0","""event"",""trial"",""time""
""fullscreenenter"",""0"",""3374""
","
","
","""event"",""trial"",""time""
""fullscreenenter"",""0"",""3374""
","
","968.5","run_exp/static/images/Set 6_rs/138a.jpg","78","","","","","","learn","SL",""
"","show_choice","41","73942","0.0-41.0","""event"",""trial"",""time""
""fullscreenenter"",""0"",""3374""
","
","
","""event"",""trial"",""time""
""fullscreenenter"",""0"",""3374""
","
","null","run_exp/static/images/Set 6_rs/138a.jpg","null","","","","","","learn","SL",""
"","html-keyboard-response","42","74446","0.0-42.0","""event"",""trial"",""time""
""fullscreenenter"",""0"",""3374""
","
","
","""event"",""trial"",""time""
""fullscreenenter"",""0"",""3374""
","
","null","<p></p>","null","","","","","","","",""
"","image","43","75442","0.0-43.0","""event"",""trial"",""time""
""fullscreenenter"",""0"",""3374""
","
","
","""event"",""trial"",""time""
""fullscreenenter"",""0"",""3374""
","
","994.5","run_exp/static/images/Set 6_rs/007a.jpg","86","","","","","","learn","SR",""
"","show_choice","44","76456","0.0-44.0","""event"",""trial"",""time""
""fullscreenenter"",""0"",""3374""
","
","
","""event"",""trial"",""time""
""fullscreenenter"",""0"",""3374""
","
","null","run_exp/static/images/Set 6_rs/007a.jpg","null","","","","","","learn","SR",""
"","html-keyboard-response","45","76958","0.0-45.0","""event"",""trial"",""time""
""fullscreenenter"",""0"",""3374""
","
","
","""event"",""trial"",""time""
""fullscreenenter"",""0"",""3374""
","
","null","<p></p>","null","","","","","","","",""
"","image","46","77902","0.0-46.0","""event"",""trial"",""time""
""fullscreenenter"",""0"",""3374""
","
","
","""event"",""trial"",""time""
""fullscreenenter"",""0"",""3374""
","
","941.3000000119209","run_exp/static/images/Set 6_rs/076a.jpg","78","","","","","","learn","SR",""
"","show_choice","47","78972","0.0-47.0","""event"",""trial"",""time""
""fullscreenenter"",""0"",""3374""
","
","
","""event"",""trial"",""time""
""fullscreenenter"",""0"",""3374""
","
","null","run_exp/static/images/Set 6_rs/076a.jpg","null","","","","","","learn","SR",""
"","html-keyboard-response","48","79475","0.0-48.0","""event"",""trial"",""time""
""fullscreenenter"",""0"",""3374""
","
","
","""event"",""trial"",""time""
""fullscreenenter"",""0"",""3374""
","
","null","<p></p>","null","","","","","","","",""
"","image","49","80445","0.0-49.0","""event"",""trial"",""time""
""fullscreenenter"",""0"",""3374""
","
","
","""event"",""trial"",""time""
""fullscreenenter"",""0"",""3374""
","
","967.8000000119209","run_exp/static/images/Set 6_rs/012a.jpg","86","","","","","","learn","SR",""
"","show_choice","50","81481","0.0-50.0","""event"",""trial"",""time""
""fullscreenenter"",""0"",""3374""
","
","
","""event"",""trial"",""time""
""fullscreenenter"",""0"",""3374""
","
","null","run_exp/static/images/Set 6_rs/012a.jpg","null","","","","","","learn","SR",""
"","html-keyboard-response","51","81982","0.0-51.0","""event"",""trial"",""time""
""fullscreenenter"",""0"",""3374""
","
","
","""event"",""trial"",""time""
""fullscreenenter"",""0"",""3374""
","
","null","<p></p>","null","","","","","","","",""
"","image","52","82850","0.0-52.0","""event"",""trial"",""time""
""fullscreenenter"",""0"",""3374""
","
","
","""event"",""trial"",""time""
""fullscreenenter"",""0"",""3374""
","
","867.8999999761581","run_exp/static/images/Set 6_rs/152a.jpg","86","","","","","","learn","SR",""
"","show_choice","53","83994","0.0-53.0","""event"",""trial"",""time""
""fullscreenenter"",""0"",""3374""
","
","
","""event"",""trial"",""time""
""fullscreenenter"",""0"",""3374""
","
","null","run_exp/static/images/Set 6_rs/152a.jpg","null","","","","","","learn","SR",""
"","html-keyboard-response","54","84501","0.0-54.0","""event"",""trial"",""time""
""fullscreenenter"",""0"",""3374""
","
","
","""event"",""trial"",""time""
""fullscreenenter"",""0"",""3374""
","
","null","<p></p>","null","","","","","","","",""
"","image","55","85702","0.0-55.0","""event"",""trial"",""time""
""fullscreenenter"",""0"",""3374""
","
","
","""event"",""trial"",""time""
""fullscreenenter"",""0"",""3374""
","
","1199.699999988079","run_exp/static/images/Set 6_rs/045a.jpg","86","","","","","","learn","SR",""
"","show_choice","56","86510","0.0-56.0","""event"",""trial"",""time""
""fullscreenenter"",""0"",""3374""
","
","
","""event"",""trial"",""time""
""fullscreenenter"",""0"",""3374""
","
","null","run_exp/static/images/Set 6_rs/045a.jpg","null","","","","","","learn","SR",""
"","html-keyboard-response","57","87014","0.0-57.0","""event"",""trial"",""time""
""fullscreenenter"",""0"",""3374""
","
","
","""event"",""trial"",""time""
""fullscreenenter"",""0"",""3374""
","
","null","<p></p>","null","","","","","","","",""
"","image","58","87889","0.0-58.0","""event"",""trial"",""time""
""fullscreenenter"",""0"",""3374""
","
","
","""event"",""trial"",""time""
""fullscreenenter"",""0"",""3374""
","
","872.8000000119209","run_exp/static/images/Set 6_rs/055a.jpg","86","","","","","","learn","SL",""
"","show_choice","59","89027","0.0-59.0","""event"",""trial"",""time""
""fullscreenenter"",""0"",""3374""
","
","
","""event"",""trial"",""time""
""fullscreenenter"",""0"",""3374""
","
","null","run_exp/static/images/Set 6_rs/055a.jpg","null","","","","","","learn","SL",""
"","html-keyboard-response","60","89531","0.0-60.0","""event"",""trial"",""time""
""fullscreenenter"",""0"",""3374""
","
","
","""event"",""trial"",""time""
""fullscreenenter"",""0"",""3374""
","
","null","<p></p>","null","","","","","","","",""
"","image","61","90506","0.0-61.0","""event"",""trial"",""time""
""fullscreenenter"",""0"",""3374""
","
","
","""event"",""trial"",""time""
""fullscreenenter"",""0"",""3374""
","
","972.5999999642372","run_exp/static/images/Set 6_rs/131a.jpg","86","","","","","","learn","SR",""
"","show_choice","62","91544","0.0-62.0","""event"",""trial"",""time""
""fullscreenenter"",""0"",""3374""
","
","
","""event"",""trial"",""time""
""fullscreenenter"",""0"",""3374""
","
","null","run_exp/static/images/Set 6_rs/131a.jpg","null","","","","","","learn","SR",""
"","html-keyboard-response","63","92047","0.0-63.0","""event"",""trial"",""time""
""fullscreenenter"",""0"",""3374""
","
","
","""event"",""trial"",""time""
""fullscreenenter"",""0"",""3374""
","
","null","<p></p>","null","","","","","","","",""
"","image","64","92988","0.0-64.0","""event"",""trial"",""time""
""fullscreenenter"",""0"",""3374""
","
","
","""event"",""trial"",""time""
""fullscreenenter"",""0"",""3374""
","
","938.8999999761581","run_exp/static/images/Set 6_rs/091a.jpg","78","","","","","","learn","SL",""
"","show_choice","65","94056","0.0-65.0","""event"",""trial"",""time""
""fullscreenenter"",""0"",""3374""
","
","
","""event"",""trial"",""time""
""fullscreenenter"",""0"",""3374""
","
","null","run_exp/static/images/Set 6_rs/091a.jpg","null","","","","","","learn","SL",""
"","html-keyboard-response","66","94559","0.0-66.0","""event"",""trial"",""time""
""fullscreenenter"",""0"",""3374""
","
","
","""event"",""trial"",""time""
""fullscreenenter"",""0"",""3374""
","
","null","<p></p>","null","","","","","","","",""
"","image","67","95764","0.0-67.0","""event"",""trial"",""time""
""fullscreenenter"",""0"",""3374""
","
","
","""event"",""trial"",""time""
""fullscreenenter"",""0"",""3374""
","
","1202.699999988079","run_exp/static/images/Set 6_rs/074a.jpg","86","","","","","","learn","SL",""
"","show_choice","68","96574","0.0-68.0","""event"",""trial"",""time""
""fullscreenenter"",""0"",""3374""
","
","
","""event"",""trial"",""time""
""fullscreenenter"",""0"",""3374""
","
","null","run_exp/static/images/Set 6_rs/074a.jpg","null","","","","","","learn","SL",""
"","html-keyboard-response","69","97077","0.0-69.0","""event"",""trial"",""time""
""fullscreenenter"",""0"",""3374""
","
","
","""event"",""trial"",""time""
""fullscreenenter"",""0"",""3374""
","
","null","<p></p>","null","","","","","","","",""
"","image","70","98900","0.0-70.0","""event"",""trial"",""time""
""fullscreenenter"",""0"",""3374""
","
","
","""event"",""trial"",""time""
""fullscreenenter"",""0"",""3374""
","
","1820.800000011921","run_exp/static/images/Set 6_rs/023a.jpg","86","","","","","","learn","SR",""
"","show_choice","71","99090","0.0-71.0","""event"",""trial"",""time""
""fullscreenenter"",""0"",""3374""
","
","
","""event"",""trial"",""time""
""fullscreenenter"",""0"",""3374""
","
","null","run_exp/static/images/Set 6_rs/023a.jpg","null","","","","","","learn","SR",""
"","html-keyboard-response","72","99592","0.0-72.0","""event"",""trial"",""time""
""fullscreenenter"",""0"",""3374""
","
","
","""event"",""trial"",""time""
""fullscreenenter"",""0"",""3374""
","
","null","<p></p>","null","","","","","","","",""
"","image","73","100937","0.0-73.0","""event"",""trial"",""time""
""fullscreenenter"",""0"",""3374""
","
","
","""event"",""trial"",""time""
""fullscreenenter"",""0"",""3374""
","
","1342.5","run_exp/static/images/Set 6_rs/071a.jpg","78","","","","","","learn","SL",""
"","show_choice","74","101595","0.0-74.0","""event"",""trial"",""time""
""fullscreenenter"",""0"",""3374""
","
","
","""event"",""trial"",""time""
""fullscreenenter"",""0"",""3374""
","
","null","run_exp/static/images/Set 6_rs/071a.jpg","null","","","","","","learn","SL",""
"","html-keyboard-response","75","102099","0.0-75.0","""event"",""trial"",""time""
""fullscreenenter"",""0"",""3374""
","
","
","""event"",""trial"",""time""
""fullscreenenter"",""0"",""3374""
","
","null","<p></p>","null","","","","","","","",""
"","image","76","103023","0.0-76.0","""event"",""trial"",""time""
""fullscreenenter"",""0"",""3374""
","
","
","""event"",""trial"",""time""
""fullscreenenter"",""0"",""3374""
","
","921.5999999642372","run_exp/static/images/Set 6_rs/095a.jpg","86","","","","","","learn","SL",""
"","show_choice","77","104116","0.0-77.0","""event"",""trial"",""time""
""fullscreenenter"",""0"",""3374""
","
","
","""event"",""trial"",""time""
""fullscreenenter"",""0"",""3374""
","
","null","run_exp/static/images/Set 6_rs/095a.jpg","null","","","","","","learn","SL",""
"","html-keyboard-response","78","104618","0.0-78.0","""event"",""trial"",""time""
""fullscreenenter"",""0"",""3374""
","
","
","""event"",""trial"",""time""
""fullscreenenter"",""0"",""3374""
","
","null","<p></p>","null","","","","","","","",""
"","image","79","105410","0.0-79.0","""event"",""trial"",""time""
""fullscreenenter"",""0"",""3374""
","
","
","""event"",""trial"",""time""
""fullscreenenter"",""0"",""3374""
","
","790.1999999880791","run_exp/static/images/Set 6_rs/169a.jpg","86","","","","","","learn","SR",""
"","show_choice","80","106627","0.0-80.0","""event"",""trial"",""time""
""fullscreenenter"",""0"",""3374""
","
","
","""event"",""trial"",""time""
""fullscreenenter"",""0"",""3374""
","
","null","run_exp/static/images/Set 6_rs/169a.jpg","null","","","","","","learn","SR",""
"","html-keyboard-response","81","107130","0.0-81.0","""event"",""trial"",""time""
""fullscreenenter"",""0"",""3374""
","
","
","""event"",""trial"",""time""
""fullscreenenter"",""0"",""3374""
","
","null","<p></p>","null","","","","","","","",""
"","image","82","108458","0.0-82.0","""event"",""trial"",""time""
""fullscreenenter"",""0"",""3374""
","
","
","""event"",""trial"",""time""
""fullscreenenter"",""0"",""3374""
","
","1325.699999988079","run_exp/static/images/Set 6_rs/129a.jpg","86","","","","","","learn","SL",""
"","show_choice","83","109138","0.0-83.0","""event"",""trial"",""time""
""fullscreenenter"",""0"",""3374""
","
","
","""event"",""trial"",""time""
""fullscreenenter"",""0"",""3374""
","
","null","run_exp/static/images/Set 6_rs/129a.jpg","null","","","","","","learn","SL",""
"","html-keyboard-response","84","109645","0.0-84.0","""event"",""trial"",""time""
""fullscreenenter"",""0"",""3374""
","
","
","""event"",""trial"",""time""
""fullscreenenter"",""0"",""3374""
","
","null","<p></p>","null","","","","","","","",""
"","image","85","110657","0.0-85.0","""event"",""trial"",""time""
""fullscreenenter"",""0"",""3374""
","
","
","""event"",""trial"",""time""
""fullscreenenter"",""0"",""3374""
","
","1010.5","run_exp/static/images/Set 6_rs/070a.jpg","86","","","","","","learn","SR",""
"","show_choice","86","111661","0.0-86.0","""event"",""trial"",""time""
""fullscreenenter"",""0"",""3374""
","
","
","""event"",""trial"",""time""
""fullscreenenter"",""0"",""3374""
","
","null","run_exp/static/images/Set 6_rs/070a.jpg","null","","","","","","learn","SR",""
"","html-keyboard-response","87","112163","0.0-87.0","""event"",""trial"",""time""
""fullscreenenter"",""0"",""3374""
","
","
","""event"",""trial"",""time""
""fullscreenenter"",""0"",""3374""
","
","null","<p></p>","null","","","","","","","",""
"","image","88","114177","0.0-88.0","""event"",""trial"",""time""
""fullscreenenter"",""0"",""3374""
","
","
","""event"",""trial"",""time""
""fullscreenenter"",""0"",""3374""
","
","null","run_exp/static/images/Set 6_rs/154a.jpg","null","","","","","","learn","SR",""
"","show_choice","89","116181","0.0-89.0","""event"",""trial"",""time""
""fullscreenenter"",""0"",""3374""
","
","
","""event"",""trial"",""time""
""fullscreenenter"",""0"",""3374""
","
","null","run_exp/static/images/blank.png","null","","","","","","learn","SR",""
"","html-keyboard-response","90","116683","0.0-90.0","""event"",""trial"",""time""
""fullscreenenter"",""0"",""3374""
","
","
","""event"",""trial"",""time""
""fullscreenenter"",""0"",""3374""
","
","null","<p></p>","null","","","","","","","",""
"","image","91","117553","0.0-91.0","""event"",""trial"",""time""
""fullscreenenter"",""0"",""3374""
","
","
","""event"",""trial"",""time""
""fullscreenenter"",""0"",""3374""
","
","869","run_exp/static/images/Set 6_rs/112a.jpg","86","","","","","","learn","SR",""
"","show_choice","92","118690","0.0-92.0","""event"",""trial"",""time""
""fullscreenenter"",""0"",""3374""
","
","
","""event"",""trial"",""time""
""fullscreenenter"",""0"",""3374""
","
","null","run_exp/static/images/Set 6_rs/112a.jpg","null","","","","","","learn","SR",""
"","html-keyboard-response","93","119194","0.0-93.0","""event"",""trial"",""time""
""fullscreenenter"",""0"",""3374""
","
","
","""event"",""trial"",""time""
""fullscreenenter"",""0"",""3374""
","
","null","<p></p>","null","","","","","","","",""
"","image","94","119912","0.0-94.0","""event"",""trial"",""time""
""fullscreenenter"",""0"",""3374""
","
","
","""event"",""trial"",""time""
""fullscreenenter"",""0"",""3374""
","
","716.5","run_exp/static/images/Set 6_rs/024a.jpg","86","","","","","","learn","SR",""
"","show_choice","95","121210","0.0-95.0","""event"",""trial"",""time""
""fullscreenenter"",""0"",""3374""
","
","
","""event"",""trial"",""time""
""fullscreenenter"",""0"",""3374""
","
","null","run_exp/static/images/Set 6_rs/024a.jpg","null","","","","","","learn","SR",""
"","html-keyboard-response","96","121717","0.0-96.0","""event"",""trial"",""time""
""fullscreenenter"",""0"",""3374""
","
","
","""event"",""trial"",""time""
""fullscreenenter"",""0"",""3374""
","
","null","<p></p>","null","","","","","","","",""
"","image","97","122997","0.0-97.0","""event"",""trial"",""time""
""fullscreenenter"",""0"",""3374""
","
","
","""event"",""trial"",""time""
""fullscreenenter"",""0"",""3374""
","
","1274.199999988079","run_exp/static/images/Set 6_rs/167a.jpg","78","","","","","","learn","SL",""
"","show_choice","98","123731","0.0-98.0","""event"",""trial"",""time""
""fullscreenenter"",""0"",""3374""
","
","
","""event"",""trial"",""time""
""fullscreenenter"",""0"",""3374""
","
","null","run_exp/static/images/Set 6_rs/167a.jpg","null","","","","","","learn","SL",""
"","html-keyboard-response","99","124247","0.0-99.0","""event"",""trial"",""time""
""fullscreenenter"",""0"",""3374""
","
","
","""event"",""trial"",""time""
""fullscreenenter"",""0"",""3374""
","
","null","<p></p>","null","","","","","","","",""
"","image","100","125487","0.0-100.0","""event"",""trial"",""time""
""fullscreenenter"",""0"",""3374""
","
","
","""event"",""trial"",""time""
""fullscreenenter"",""0"",""3374""
","
","1237","run_exp/static/images/Set 6_rs/085a.jpg","86","","","","","","learn","SL",""
"","show_choice","101","126257","0.0-101.0","""event"",""trial"",""time""
""fullscreenenter"",""0"",""3374""
","
","
","""event"",""trial"",""time""
""fullscreenenter"",""0"",""3374""
","
","null","run_exp/static/images/Set 6_rs/085a.jpg","null","","","","","","learn","SL",""
"","html-keyboard-response","102","126760","0.0-102.0","""event"",""trial"",""time""
""fullscreenenter"",""0"",""3374""
","
","
","""event"",""trial"",""time""
""fullscreenenter"",""0"",""3374""
","
","null","<p></p>","null","","","","","","","",""
"","image","103","128251","0.0-103.0","""event"",""trial"",""time""
""fullscreenenter"",""0"",""3374""
","
","
","""event"",""trial"",""time""
""fullscreenenter"",""0"",""3374""
","
","1488.699999988079","run_exp/static/images/Set 6_rs/064a.jpg","78","","","","","","learn","SR",""
"","show_choice","104","128770","0.0-104.0","""event"",""trial"",""time""
""fullscreenenter"",""0"",""3374""
","
","
","""event"",""trial"",""time""
""fullscreenenter"",""0"",""3374""
","
","null","run_exp/static/images/Set 6_rs/064a.jpg","null","","","","","","learn","SR",""
"","html-keyboard-response","105","129274","0.0-105.0","""event"",""trial"",""time""
""fullscreenenter"",""0"",""3374""
","
","
","""event"",""trial"",""time""
""fullscreenenter"",""0"",""3374""
","
","null","<p></p>","null","","","","","","","",""
"","image","106","130381","0.0-106.0","""event"",""trial"",""time""
""fullscreenenter"",""0"",""3374""
","
","
","""event"",""trial"",""time""
""fullscreenenter"",""0"",""3374""
","
","1105.7999999523163","run_exp/static/images/Set 6_rs/108a.jpg","86","","","","","","learn","SR",""
"","show_choice","107","131289","0.0-107.0","""event"",""trial"",""time""
""fullscreenenter"",""0"",""3374""
","
","
","""event"",""trial"",""time""
""fullscreenenter"",""0"",""3374""
","
","null","run_exp/static/images/Set 6_rs/108a.jpg","null","","","","","","learn","SR",""
"","html-keyboard-response","108","131792","0.0-108.0","""event"",""trial"",""time""
""fullscreenenter"",""0"",""3374""
","
","
","""event"",""trial"",""time""
""fullscreenenter"",""0"",""3374""
","
","null","<p></p>","null","","","","","","","",""
"","image","109","132848","0.0-109.0","""event"",""trial"",""time""
""fullscreenenter"",""0"",""3374""
","
","
","""event"",""trial"",""time""
""fullscreenenter"",""0"",""3374""
","
","1053.4000000357628","run_exp/static/images/Set 6_rs/066a.jpg","86","","","","","","learn","SL",""
"","show_choice","110","133802","0.0-110.0","""event"",""trial"",""time""
""fullscreenenter"",""0"",""3374""
","
","
","""event"",""trial"",""time""
""fullscreenenter"",""0"",""3374""
","
","null","run_exp/static/images/Set 6_rs/066a.jpg","null","","","","","","learn","SL",""
"","html-keyboard-response","111","134309","0.0-111.0","""event"",""trial"",""time""
""fullscreenenter"",""0"",""3374""
","
","
","""event"",""trial"",""time""
""fullscreenenter"",""0"",""3374""
","
","null","<p></p>","null","","","","","","","",""
"","image","112","136093","0.0-112.0","""event"",""trial"",""time""
""fullscreenenter"",""0"",""3374""
","
","
","""event"",""trial"",""time""
""fullscreenenter"",""0"",""3374""
","
","1783.800000011921","run_exp/static/images/Set 6_rs/010a.jpg","86","","","","","","learn","SR",""
"","show_choice","113","136313","0.0-113.0","""event"",""trial"",""time""
""fullscreenenter"",""0"",""3374""
","
","
","""event"",""trial"",""time""
""fullscreenenter"",""0"",""3374""
","
","null","run_exp/static/images/Set 6_rs/010a.jpg","null","","","","","","learn","SR",""
"","html-keyboard-response","114","136816","0.0-114.0","""event"",""trial"",""time""
""fullscreenenter"",""0"",""3374""
","
","
","""event"",""trial"",""time""
""fullscreenenter"",""0"",""3374""
","
","null","<p></p>","null","","","","","","","",""
"","image","115","137626","0.0-115.0","""event"",""trial"",""time""
""fullscreenenter"",""0"",""3374""
","
","
","""event"",""trial"",""time""
""fullscreenenter"",""0"",""3374""
","
","808","run_exp/static/images/Set 6_rs/150a.jpg","86","","","","","","learn","SR",""
"","show_choice","116","138834","0.0-116.0","""event"",""trial"",""time""
""fullscreenenter"",""0"",""3374""
","
","
","""event"",""trial"",""time""
""fullscreenenter"",""0"",""3374""
","
","null","run_exp/static/images/Set 6_rs/150a.jpg","null","","","","","","learn","SR",""
"","html-keyboard-response","117","139337","0.0-117.0","""event"",""trial"",""time""
""fullscreenenter"",""0"",""3374""
","
","
","""event"",""trial"",""time""
""fullscreenenter"",""0"",""3374""
","
","null","<p></p>","null","","","","","","","",""
"","image","118","140297","0.0-118.0","""event"",""trial"",""time""
""fullscreenenter"",""0"",""3374""
","
","
","""event"",""trial"",""time""
""fullscreenenter"",""0"",""3374""
","
","957.6000000238419","run_exp/static/images/Set 6_rs/088a.jpg","86","","","","","","learn","SR",""
"","show_choice","119","141341","0.0-119.0","""event"",""trial"",""time""
""fullscreenenter"",""0"",""3374""
","
","
","""event"",""trial"",""time""
""fullscreenenter"",""0"",""3374""
","
","null","run_exp/static/images/Set 6_rs/088a.jpg","null","","","","","","learn","SR",""
"","html-keyboard-response","120","141855","0.0-120.0","""event"",""trial"",""time""
""fullscreenenter"",""0"",""3374""
","
","
","""event"",""trial"",""time""
""fullscreenenter"",""0"",""3374""
","
","null","<p></p>","null","","","","","","","",""
"","image","121","143007","0.0-121.0","""event"",""trial"",""time""
""fullscreenenter"",""0"",""3374""
","
","
","""event"",""trial"",""time""
""fullscreenenter"",""0"",""3374""
","
","1150.1000000238419","run_exp/static/images/Set 6_rs/122a.jpg","86","","","","","","learn","SR",""
"","show_choice","122","143861","0.0-122.0","""event"",""trial"",""time""
""fullscreenenter"",""0"",""3374""
","
","
","""event"",""trial"",""time""
""fullscreenenter"",""0"",""3374""
","
","null","run_exp/static/images/Set 6_rs/122a.jpg","null","","","","","","learn","SR",""
"","html-keyboard-response","123","144363","0.0-123.0","""event"",""trial"",""time""
""fullscreenenter"",""0"",""3374""
","
","
","""event"",""trial"",""time""
""fullscreenenter"",""0"",""3374""
","
","null","<p></p>","null","","","","","","","",""
"","image","124","145376","0.0-124.0","""event"",""trial"",""time""
""fullscreenenter"",""0"",""3374""
","
","
","""event"",""trial"",""time""
""fullscreenenter"",""0"",""3374""
","
","1011.0999999642372","run_exp/static/images/Set 6_rs/117a.jpg","86","","","","","","learn","SL",""
"","show_choice","125","146375","0.0-125.0","""event"",""trial"",""time""
""fullscreenenter"",""0"",""3374""
","
","
","""event"",""trial"",""time""
""fullscreenenter"",""0"",""3374""
","
","null","run_exp/static/images/Set 6_rs/117a.jpg","null","","","","","","learn","SL",""
"","html-keyboard-response","126","146877","0.0-126.0","""event"",""trial"",""time""
""fullscreenenter"",""0"",""3374""
","
","
","""event"",""trial"",""time""
""fullscreenenter"",""0"",""3374""
","
","null","<p></p>","null","","","","","","","",""
"","image","127","148192","0.0-127.0","""event"",""trial"",""time""
""fullscreenenter"",""0"",""3374""
","
","
","""event"",""trial"",""time""
""fullscreenenter"",""0"",""3374""
","
","1312.5999999642372","run_exp/static/images/Set 6_rs/017a.jpg","78","","","","","","learn","SL",""
"","show_choice","128","148881","0.0-128.0","""event"",""trial"",""time""
""fullscreenenter"",""0"",""3374""
","
","
","""event"",""trial"",""time""
""fullscreenenter"",""0"",""3374""
","
","null","run_exp/static/images/Set 6_rs/017a.jpg","null","","","","","","learn","SL",""
"","html-keyboard-response","129","149383","0.0-129.0","""event"",""trial"",""time""
""fullscreenenter"",""0"",""3374""
","
","
","""event"",""trial"",""time""
""fullscreenenter"",""0"",""3374""
","
","null","<p></p>","null","","","","","","","",""
"","image","130","150342","0.0-130.0","""event"",""trial"",""time""
""fullscreenenter"",""0"",""3374""
","
","
","""event"",""trial"",""time""
""fullscreenenter"",""0"",""3374""
","
","956.6000000238419","run_exp/static/images/Set 6_rs/111a.jpg","86","","","","","","learn","SL",""
"","show_choice","131","151402","0.0-131.0","""event"",""trial"",""time""
""fullscreenenter"",""0"",""3374""
","
","
","""event"",""trial"",""time""
""fullscreenenter"",""0"",""3374""
","
","null","run_exp/static/images/Set 6_rs/111a.jpg","null","","","","","","learn","SL",""
"","html-keyboard-response","132","151918","0.0-132.0","""event"",""trial"",""time""
""fullscreenenter"",""0"",""3374""
","
","
","""event"",""trial"",""time""
""fullscreenenter"",""0"",""3374""
","
","null","<p></p>","null","","","","","","","",""
"","image","133","152741","0.0-133.0","""event"",""trial"",""time""
""fullscreenenter"",""0"",""3374""
","
","
","""event"",""trial"",""time""
""fullscreenenter"",""0"",""3374""
","
","821.3000000119209","run_exp/static/images/Set 6_rs/008a.jpg","86","","","","","","learn","SL",""
"","show_choice","134","153921","0.0-134.0","""event"",""trial"",""time""
""fullscreenenter"",""0"",""3374""
","
","
","""event"",""trial"",""time""
""fullscreenenter"",""0"",""3374""
","
","null","run_exp/static/images/Set 6_rs/008a.jpg","null","","","","","","learn","SL",""
"","html-keyboard-response","135","154425","0.0-135.0","""event"",""trial"",""time""
""fullscreenenter"",""0"",""3374""
","
","
","""event"",""trial"",""time""
""fullscreenenter"",""0"",""3374""
","
","null","<p></p>","null","","","","","","","",""
"","image","136","155647","0.0-136.0","""event"",""trial"",""time""
""fullscreenenter"",""0"",""3374""
","
","
","""event"",""trial"",""time""
""fullscreenenter"",""0"",""3374""
","
","1219.800000011921","run_exp/static/images/Set 6_rs/187a.jpg","86","","","","","","learn","SR",""
"","show_choice","137","156430","0.0-137.0","""event"",""trial"",""time""
""fullscreenenter"",""0"",""3374""
","
","
","""event"",""trial"",""time""
""fullscreenenter"",""0"",""3374""
","
","null","run_exp/static/images/Set 6_rs/187a.jpg","null","","","","","","learn","SR",""
"","html-keyboard-response","138","156947","0.0-138.0","""event"",""trial"",""time""
""fullscreenenter"",""0"",""3374""
","
","
","""event"",""trial"",""time""
""fullscreenenter"",""0"",""3374""
","
","null","<p></p>","null","","","","","","","",""
"","image","139","158311","0.0-139.0","""event"",""trial"",""time""
""fullscreenenter"",""0"",""3374""
","
","
","""event"",""trial"",""time""
""fullscreenenter"",""0"",""3374""
","
","1361.8999999761581","run_exp/static/images/Set 6_rs/123a.jpg","86","","","","","","learn","SL",""
"","show_choice","140","158959","0.0-140.0","""event"",""trial"",""time""
""fullscreenenter"",""0"",""3374""
","
","
","""event"",""trial"",""time""
""fullscreenenter"",""0"",""3374""
","
","null","run_exp/static/images/Set 6_rs/123a.jpg","null","","","","","","learn","SL",""
"","html-keyboard-response","141","159468","0.0-141.0","""event"",""trial"",""time""
""fullscreenenter"",""0"",""3374""
","
","
","""event"",""trial"",""time""
""fullscreenenter"",""0"",""3374""
","
","null","<p></p>","null","","","","","","","",""
"","image","142","160766","0.0-142.0","""event"",""trial"",""time""
""fullscreenenter"",""0"",""3374""
","
","
","""event"",""trial"",""time""
""fullscreenenter"",""0"",""3374""
","
","1297.3999999761581","run_exp/static/images/Set 6_rs/063a.jpg","86","","","","","","learn","SR",""
"","show_choice","143","161482","0.0-143.0","""event"",""trial"",""time""
""fullscreenenter"",""0"",""3374""
","
","
","""event"",""trial"",""time""
""fullscreenenter"",""0"",""3374""
","
","null","run_exp/static/images/Set 6_rs/063a.jpg","null","","","","","","learn","SR",""
"","html-keyboard-response","144","161989","0.0-144.0","""event"",""trial"",""time""
""fullscreenenter"",""0"",""3374""
","
","
","""event"",""trial"",""time""
""fullscreenenter"",""0"",""3374""
","
","null","<p></p>","null","","","","","","","",""
"","image","145","162646","0.0-145.0","""event"",""trial"",""time""
""fullscreenenter"",""0"",""3374""
","
","
","""event"",""trial"",""time""
""fullscreenenter"",""0"",""3374""
","
","655.9000000357628","run_exp/static/images/Set 6_rs/166a.jpg","86","","","","","","learn","SR",""
"","show_choice","146","164000","0.0-146.0","""event"",""trial"",""time""
""fullscreenenter"",""0"",""3374""
","
","
","""event"",""trial"",""time""
""fullscreenenter"",""0"",""3374""
","
","null","run_exp/static/images/Set 6_rs/166a.jpg","null","","","","","","learn","SR",""
"","html-keyboard-response","147","164503","0.0-147.0","""event"",""trial"",""time""
""fullscreenenter"",""0"",""3374""
","
","
","""event"",""trial"",""time""
""fullscreenenter"",""0"",""3374""
","
","null","<p></p>","null","","","","","","","",""
"","image","148","165223","0.0-148.0","""event"",""trial"",""time""
""fullscreenenter"",""0"",""3374""
","
","
","""event"",""trial"",""time""
""fullscreenenter"",""0"",""3374""
","
","718","run_exp/static/images/Set 6_rs/079a.jpg","86","","","","","","learn","SL",""
"","show_choice","149","166512","0.0-149.0","""event"",""trial"",""time""
""fullscreenenter"",""0"",""3374""
","
","
","""event"",""trial"",""time""
""fullscreenenter"",""0"",""3374""
","
","null","run_exp/static/images/Set 6_rs/079a.jpg","null","","","","","","learn","SL",""
"","html-keyboard-response","150","167020","0.0-150.0","""event"",""trial"",""time""
""fullscreenenter"",""0"",""3374""
","
","
","""event"",""trial"",""time""
""fullscreenenter"",""0"",""3374""
","
","null","<p></p>","null","","","","","","","",""
"","image","151","167874","0.0-151.0","""event"",""trial"",""time""
""fullscreenenter"",""0"",""3374""
","
","
","""event"",""trial"",""time""
""fullscreenenter"",""0"",""3374""
","
","852.1999999880791","run_exp/static/images/Set 6_rs/057a.jpg","86","","","","","","learn","SL",""
"","show_choice","152","169033","0.0-152.0","""event"",""trial"",""time""
""fullscreenenter"",""0"",""3374""
","
","
","""event"",""trial"",""time""
""fullscreenenter"",""0"",""3374""
","
","null","run_exp/static/images/Set 6_rs/057a.jpg","null","","","","","","learn","SL",""
"","html-keyboard-response","153","169536","0.0-153.0","""event"",""trial"",""time""
""fullscreenenter"",""0"",""3374""
","
","
","""event"",""trial"",""time""
""fullscreenenter"",""0"",""3374""
","
","null","<p></p>","null","","","","","","","",""
"","image","154","170327","0.0-154.0","""event"",""trial"",""time""
""fullscreenenter"",""0"",""3374""
","
","
","""event"",""trial"",""time""
""fullscreenenter"",""0"",""3374""
","
","789.3000000119209","run_exp/static/images/Set 6_rs/168a.jpg","86","","","","","","learn","SL",""
"","show_choice","155","171545","0.0-155.0","""event"",""trial"",""time""
""fullscreenenter"",""0"",""3374""
","
","
","""event"",""trial"",""time""
""fullscreenenter"",""0"",""3374""
","
","null","run_exp/static/images/Set 6_rs/168a.jpg","null","","","","","","learn","SL",""
"","html-keyboard-response","156","172049","0.0-156.0","""event"",""trial"",""time""
""fullscreenenter"",""0"",""3374""
","
","
","""event"",""trial"",""time""
""fullscreenenter"",""0"",""3374""
","
","null","<p></p>","null","","","","","","","",""
"","image","157","173151","0.0-157.0","""event"",""trial"",""time""
""fullscreenenter"",""0"",""3374""
","
","
","""event"",""trial"",""time""
""fullscreenenter"",""0"",""3374""
","
","1100","run_exp/static/images/Set 6_rs/089a.jpg","86","","","","","","learn","SL",""
"","show_choice","158","174062","0.0-158.0","""event"",""trial"",""time""
""fullscreenenter"",""0"",""3374""
","
","
","""event"",""trial"",""time""
""fullscreenenter"",""0"",""3374""
","
","null","run_exp/static/images/Set 6_rs/089a.jpg","null","","","","","","learn","SL",""
"","html-keyboard-response","159","174565","0.0-159.0","""event"",""trial"",""time""
""fullscreenenter"",""0"",""3374""
","
","
","""event"",""trial"",""time""
""fullscreenenter"",""0"",""3374""
","
","null","<p></p>","null","","","","","","","",""
"","image","160","175399","0.0-160.0","""event"",""trial"",""time""
""fullscreenenter"",""0"",""3374""
","
","
","""event"",""trial"",""time""
""fullscreenenter"",""0"",""3374""
","
","830.7000000476837","run_exp/static/images/Set 6_rs/144a.jpg","86","","","","","","learn","SL",""
"","show_choice","161","176581","0.0-161.0","""event"",""trial"",""time""
""fullscreenenter"",""0"",""3374""
","
","
","""event"",""trial"",""time""
""fullscreenenter"",""0"",""3374""
","
","null","run_exp/static/images/Set 6_rs/144a.jpg","null","","","","","","learn","SL",""
"","html-keyboard-response","162","177084","0.0-162.0","""event"",""trial"",""time""
""fullscreenenter"",""0"",""3374""
","
","
","""event"",""trial"",""time""
""fullscreenenter"",""0"",""3374""
","
","null","<p></p>","null","","","","","","","",""
"","image","163","178090","0.0-163.0","""event"",""trial"",""time""
""fullscreenenter"",""0"",""3374""
","
","
","""event"",""trial"",""time""
""fullscreenenter"",""0"",""3374""
","
","1003.6999999880791","run_exp/static/images/Set 6_rs/016a.jpg","86","","","","","","learn","SL",""
"","show_choice","164","179094","0.0-164.0","""event"",""trial"",""time""
""fullscreenenter"",""0"",""3374""
","
","
","""event"",""trial"",""time""
""fullscreenenter"",""0"",""3374""
","
","null","run_exp/static/images/Set 6_rs/016a.jpg","null","","","","","","learn","SL",""
"","html-keyboard-response","165","179609","0.0-165.0","""event"",""trial"",""time""
""fullscreenenter"",""0"",""3374""
","
","
","""event"",""trial"",""time""
""fullscreenenter"",""0"",""3374""
","
","null","<p></p>","null","","","","","","","",""
"","image","166","180396","0.0-166.0","""event"",""trial"",""time""
""fullscreenenter"",""0"",""3374""
","
","
","""event"",""trial"",""time""
""fullscreenenter"",""0"",""3374""
","
","785.1999999880791","run_exp/static/images/Set 6_rs/025a.jpg","78","","","","","","learn","SL",""
"","show_choice","167","181622","0.0-167.0","""event"",""trial"",""time""
""fullscreenenter"",""0"",""3374""
","
","
","""event"",""trial"",""time""
""fullscreenenter"",""0"",""3374""
","
","null","run_exp/static/images/Set 6_rs/025a.jpg","null","","","","","","learn","SL",""
"","html-keyboard-response","168","182127","0.0-168.0","""event"",""trial"",""time""
""fullscreenenter"",""0"",""3374""
","
","
","""event"",""trial"",""time""
""fullscreenenter"",""0"",""3374""
","
","null","<p></p>","null","","","","","","","",""
"","image","169","183036","0.0-169.0","""event"",""trial"",""time""
""fullscreenenter"",""0"",""3374""
","
","
","""event"",""trial"",""time""
""fullscreenenter"",""0"",""3374""
","
","907.6000000238419","run_exp/static/images/Set 6_rs/181a.jpg","78","","","","","","learn","SL",""
"","show_choice","170","184139","0.0-170.0","""event"",""trial"",""time""
""fullscreenenter"",""0"",""3374""
","
","
","""event"",""trial"",""time""
""fullscreenenter"",""0"",""3374""
","
","null","run_exp/static/images/Set 6_rs/181a.jpg","null","","","","","","learn","SL",""
"","html-keyboard-response","171","184642","0.0-171.0","""event"",""trial"",""time""
""fullscreenenter"",""0"",""3374""
","
","
","""event"",""trial"",""time""
""fullscreenenter"",""0"",""3374""
","
","null","<p></p>","null","","","","","","","",""
"","image","172","185267","0.0-172.0","""event"",""trial"",""time""
""fullscreenenter"",""0"",""3374""
","
","
","""event"",""trial"",""time""
""fullscreenenter"",""0"",""3374""
","
","623.5","run_exp/static/images/Set 6_rs/177a.jpg","78","","","","","","learn","SR",""
"","show_choice","173","186645","0.0-173.0","""event"",""trial"",""time""
""fullscreenenter"",""0"",""3374""
","
","
","""event"",""trial"",""time""
""fullscreenenter"",""0"",""3374""
","
","null","run_exp/static/images/Set 6_rs/177a.jpg","null","","","","","","learn","SR",""
"","html-keyboard-response","174","187152","0.0-174.0","""event"",""trial"",""time""
""fullscreenenter"",""0"",""3374""
","
","
","""event"",""trial"",""time""
""fullscreenenter"",""0"",""3374""
","
","null","<p></p>","null","","","","","","","",""
"","image","175","187930","0.0-175.0","""event"",""trial"",""time""
""fullscreenenter"",""0"",""3374""
","
","
","""event"",""trial"",""time""
""fullscreenenter"",""0"",""3374""
","
","776.9000000357628","run_exp/static/images/Set 6_rs/178a.jpg","78","","","","","","learn","SR",""
"","show_choice","176","189168","0.0-176.0","""event"",""trial"",""time""
""fullscreenenter"",""0"",""3374""
","
","
","""event"",""trial"",""time""
""fullscreenenter"",""0"",""3374""
","
","null","run_exp/static/images/Set 6_rs/178a.jpg","null","","","","","","learn","SR",""
"","html-keyboard-response","177","189670","0.0-177.0","""event"",""trial"",""time""
""fullscreenenter"",""0"",""3374""
","
","
","""event"",""trial"",""time""
""fullscreenenter"",""0"",""3374""
","
","null","<p></p>","null","","","","","","","",""
"","image","178","190827","0.0-178.0","""event"",""trial"",""time""
""fullscreenenter"",""0"",""3374""
","
","
","""event"",""trial"",""time""
""fullscreenenter"",""0"",""3374""
","
","1154.800000011921","run_exp/static/images/Set 6_rs/062a.jpg","78","","","","","","learn","SL",""
"","show_choice","179","191686","0.0-179.0","""event"",""trial"",""time""
""fullscreenenter"",""0"",""3374""
","
","
","""event"",""trial"",""time""
""fullscreenenter"",""0"",""3374""
","
","null","run_exp/static/images/Set 6_rs/062a.jpg","null","","","","","","learn","SL",""
"","html-keyboard-response","180","192191","0.0-180.0","""event"",""trial"",""time""
""fullscreenenter"",""0"",""3374""
","
","
","""event"",""trial"",""time""
""fullscreenenter"",""0"",""3374""
","
","null","<p></p>","null","","","","","","","",""
"","image","181","192971","0.0-181.0","""event"",""trial"",""time""
""fullscreenenter"",""0"",""3374""
","
","
","""event"",""trial"",""time""
""fullscreenenter"",""0"",""3374""
","
","778.5","run_exp/static/images/Set 6_rs/116a.jpg","78","","","","","","learn","SL",""
"","show_choice","182","194202","0.0-182.0","""event"",""trial"",""time""
""fullscreenenter"",""0"",""3374""
","
","
","""event"",""trial"",""time""
""fullscreenenter"",""0"",""3374""
","
","null","run_exp/static/images/Set 6_rs/116a.jpg","null","","","","","","learn","SL",""
"","html-keyboard-response","183","194704","0.0-183.0","""event"",""trial"",""time""
""fullscreenenter"",""0"",""3374""
","
","
","""event"",""trial"",""time""
""fullscreenenter"",""0"",""3374""
","
","null","<p></p>","null","","","","","","","",""
"","image","184","196406","0.0-184.0","""event"",""trial"",""time""
""fullscreenenter"",""0"",""3374""
","
","
","""event"",""trial"",""time""
""fullscreenenter"",""0"",""3374""
","
","1699.8999999761581","run_exp/static/images/Set 6_rs/006a.jpg","86","","","","","","learn","SL",""
"","show_choice","185","196714","0.0-185.0","""event"",""trial"",""time""
""fullscreenenter"",""0"",""3374""
","
","
","""event"",""trial"",""time""
""fullscreenenter"",""0"",""3374""
","
","null","run_exp/static/images/Set 6_rs/006a.jpg","null","","","","","","learn","SL",""
"","html-keyboard-response","186","197219","0.0-186.0","""event"",""trial"",""time""
""fullscreenenter"",""0"",""3374""
","
","
","""event"",""trial"",""time""
""fullscreenenter"",""0"",""3374""
","
","null","<p></p>","null","","","","","","","",""
"","image","187","199232","0.0-187.0","""event"",""trial"",""time""
""fullscreenenter"",""0"",""3374""
","
","
","""event"",""trial"",""time""
""fullscreenenter"",""0"",""3374""
","
","null","run_exp/static/images/Set 6_rs/019a.jpg","null","","","","","","learn","SL",""
"","show_choice","188","201235","0.0-188.0","""event"",""trial"",""time""
""fullscreenenter"",""0"",""3374""
","
","
","""event"",""trial"",""time""
""fullscreenenter"",""0"",""3374""
","
","null","run_exp/static/images/blank.png","null","","","","","","learn","SL",""
"","html-keyboard-response","189","201740","0.0-189.0","""event"",""trial"",""time""
""fullscreenenter"",""0"",""3374""
","
","
","""event"",""trial"",""time""
""fullscreenenter"",""0"",""3374""
","
","null","<p></p>","null","","","","","","","",""
"","image","190","203416","0.0-190.0","""event"",""trial"",""time""
""fullscreenenter"",""0"",""3374""
","
","
","""event"",""trial"",""time""
""fullscreenenter"",""0"",""3374""
","
","1674","run_exp/static/images/Set 6_rs/134a.jpg","86","","","","","","learn","SR",""
"","show_choice","191","203757","0.0-191.0","""event"",""trial"",""time""
""fullscreenenter"",""0"",""3374""
","
","
","""event"",""trial"",""time""
""fullscreenenter"",""0"",""3374""
","
","null","run_exp/static/images/Set 6_rs/134a.jpg","null","","","","","","learn","SR",""
"","html-keyboard-response","192","204273","0.0-192.0","""event"",""trial"",""time""
""fullscreenenter"",""0"",""3374""
","
","
","""event"",""trial"",""time""
""fullscreenenter"",""0"",""3374""
","
","null","<p></p>","null","","","","","","","",""
"","image","193","205427","0.0-193.0","""event"",""trial"",""time""
""fullscreenenter"",""0"",""3374""
","
","
","""event"",""trial"",""time""
""fullscreenenter"",""0"",""3374""
","
","1151.199999988079","run_exp/static/images/Set 6_rs/014a.jpg","86","","","","","","learn","SL",""
"","show_choice","194","206285","0.0-194.0","""event"",""trial"",""time""
""fullscreenenter"",""0"",""3374""
","
","
","""event"",""trial"",""time""
""fullscreenenter"",""0"",""3374""
","
","null","run_exp/static/images/Set 6_rs/014a.jpg","null","","","","","","learn","SL",""
"","html-keyboard-response","195","206788","0.0-195.0","""event"",""trial"",""time""
""fullscreenenter"",""0"",""3374""
","
","
","""event"",""trial"",""time""
""fullscreenenter"",""0"",""3374""
","
","null","<p></p>","null","","","","","","","",""
"","test_intro","196","243806","0.0-196.0","""event"",""trial"",""time""
""fullscreenenter"",""0"",""3374""
","
","
","""event"",""trial"",""time""
""fullscreenenter"",""0"",""3374""
","
","null","run_exp/static/audio/clip_2_memory.m4a","null","","","","","<div class='center'><p>Now, lets see how much you remember about the items you just saw.  For each item, you need to indicate if it was <b>old</b> by pressing the <b>v</b> key, <b>similar</b> by pressing the <b>b</b> key, or <b>new</b> by pressing the <b>n</b> key.</p><p>Old refers to an item that you saw before in the indoor/outdoor game that you just played, new refers to an item you have <b>not</b> seen before within the indoor/outdoor game, and similar refers to an item that is similar to an item youve seen before but is not exactly the same. </p><p>Before we begin, lets go over some brief demonstrations to make sure you understand.</p></div>","","",""
"","html-keyboard-response","197","244453","0.0-197.0","""event"",""trial"",""time""
""fullscreenenter"",""0"",""3374""
","
","
","""event"",""trial"",""time""
""fullscreenenter"",""0"",""3374""
","
","644.1000000238419","<div class='center'><p>Now, lets see how much you remember about the items you just saw.  For each item, you need to indicate if it was <b>old</b> by pressing the <b>v</b> key, <b>similar</b> by pressing the <b>b</b> key, or <b>new</b> by pressing the <b>n</b> key.</p><p>Old refers to an item that you saw before in the indoor/outdoor game that you just played, new refers to an item you have <b>not</b> seen before within the indoor/outdoor game, and similar refers to an item that is similar to an item youve seen before but is not exactly the same. </p><p>Before we begin, lets go over some brief demonstrations to make sure you understand.</p><div><p><b>[Press the space bar to continue]</b></p></div>","32","","","","","","","",""
"","items","198","251964","0.0-198.0","""event"",""trial"",""time""
""fullscreenenter"",""0"",""3374""
","
","
","""event"",""trial"",""time""
""fullscreenenter"",""0"",""3374""
","
","null","run_exp/static/audio/clip_3_items.m4a","null","","","","","","","",""
"","mop","199","256470","0.0-199.0","""event"",""trial"",""time""
""fullscreenenter"",""0"",""3374""
","
","
","""event"",""trial"",""time""
""fullscreenenter"",""0"",""3374""
","
","null","run_exp/static/audio/clip_4_mop.m4a","null","","","","","","","",""
"","baseball","200","259986","0.0-200.0","""event"",""trial"",""time""
""fullscreenenter"",""0"",""3374""
","
","
","""event"",""trial"",""time""
""fullscreenenter"",""0"",""3374""
","
","null","run_exp/static/audio/clip_5_baseball.m4a","null","","","","","","","",""
"","trumpet","201","263492","0.0-201.0","""event"",""trial"",""time""
""fullscreenenter"",""0"",""3374""
","
","
","""event"",""trial"",""time""
""fullscreenenter"",""0"",""3374""
","
","null","run_exp/static/audio/clip_6_trumpet.m4a","null","","","","","","","",""
"","gummies","202","266998","0.0-202.0","""event"",""trial"",""time""
""fullscreenenter"",""0"",""3374""
","
","
","""event"",""trial"",""time""
""fullscreenenter"",""0"",""3374""
","
","null","run_exp/static/audio/clip_7_gummies.m4a","null","","","","","","","",""
"","osn","203","271501","0.0-203.0","""event"",""trial"",""time""
""fullscreenenter"",""0"",""3374""
","
","
","""event"",""trial"",""time""
""fullscreenenter"",""0"",""3374""
","
","null","run_exp/static/audio/clip_8_osn.m4a","null","","","","","","","",""
"","old_1","204","278012","0.0-204.0","""event"",""trial"",""time""
""fullscreenenter"",""0"",""3374""
","
","
","""event"",""trial"",""time""
""fullscreenenter"",""0"",""3374""
","
","null","run_exp/static/audio/clip_9_old_trumpet.m4a","null","","","","","","","",""
"","new_1","205","285519","0.0-205.0","""event"",""trial"",""time""
""fullscreenenter"",""0"",""3374""
","
","
","""event"",""trial"",""time""
""fullscreenenter"",""0"",""3374""
","
","null","run_exp/static/audio/clip_10_new_balloon.m4a","null","","","","","","","",""
"","similar_1a","206","290026","0.0-206.0","""event"",""trial"",""time""
""fullscreenenter"",""0"",""3374""
","
","
","""event"",""trial"",""time""
""fullscreenenter"",""0"",""3374""
","
","null","run_exp/static/audio/clip_11a_similar_mop.m4a","null","","","","","","","",""
"","similar_1b","207","296542","0.0-207.0","""event"",""trial"",""time""
""fullscreenenter"",""0"",""3374""
","
","
","""event"",""trial"",""time""
""fullscreenenter"",""0"",""3374""
","
","null","run_exp/static/audio/clip_11b_similar_mop.m4a","null","","","","","","","",""
"","new_2","208","300053","0.0-208.0","""event"",""trial"",""time""
""fullscreenenter"",""0"",""3374""
","
","
","""event"",""trial"",""time""
""fullscreenenter"",""0"",""3374""
","
","null","run_exp/static/audio/clip_12_new_stoplight.m4a","null","","","","","","","",""
"","old_2","209","303556","0.0-209.0","""event"",""trial"",""time""
""fullscreenenter"",""0"",""3374""
","
","
","""event"",""trial"",""time""
""fullscreenenter"",""0"",""3374""
","
","null","run_exp/static/audio/clip_13_old_baseball.m4a","null","","","","","","","",""
"","similar_2a","210","307074","0.0-210.0","""event"",""trial"",""time""
""fullscreenenter"",""0"",""3374""
","
","
","""event"",""trial"",""time""
""fullscreenenter"",""0"",""3374""
","
","null","run_exp/static/audio/clip_14a_similar_gummies.m4a","null","","","","","","","",""
"","similar_2b","211","314582","0.0-211.0","""event"",""trial"",""time""
""fullscreenenter"",""0"",""3374""
","
","
","""event"",""trial"",""time""
""fullscreenenter"",""0"",""3374""
","
","null","run_exp/static/audio/clip_14b_similar_gummies.m4a","null","","","","","","","",""
"","practice","212","356685","0.0-212.0","""event"",""trial"",""time""
""fullscreenenter"",""0"",""3374""
","
","
","""event"",""trial"",""time""
""fullscreenenter"",""0"",""3374""
","
","null","run_exp/static/audio/clip_15_practice.m4a","null","","","","","<div class='center'><p>Lets practice a little to make sure you understand the difference between new, similar, and old. Lets say you saw these three items in the indoor/outdoor game.</p><p> Try your best to remember these images because youll soon be tested on them in a practice game. In the practice game, youll be shown images and youll have to say if they are old (one of the three images belows), similar (similar to one of the images below but not exactly the same), or new (are not one of the images below nor similar to them).</p><p>Once you press the space bar youll be shown these images again but one at time. Then youll begin the practice game.</p><p><img src='run_exp/static/images/tutorial/test/three_indoor_outdoor.png' height='300'></p></div>","","",""
"","html-keyboard-response","213","357083","0.0-213.0","""event"",""trial"",""time""
""fullscreenenter"",""0"",""3374""
","
","
","""event"",""trial"",""time""
""fullscreenenter"",""0"",""3374""
","
","394.39999997615814","<div class='center'><p>Lets practice a little to make sure you understand the difference between new, similar, and old. Lets say you saw these three items in the indoor/outdoor game.</p><p> Try your best to remember these images because youll soon be tested on them in a practice game. In the practice game, youll be shown images and youll have to say if they are old (one of the three images belows), similar (similar to one of the images below but not exactly the same), or new (are not one of the images below nor similar to them).</p><p>Once you press the space bar youll be shown these images again but one at time. Then youll begin the practice game.</p><p><img src='run_exp/static/images/tutorial/test/three_indoor_outdoor.png' height='300'></p><div><p><b>[Press the space bar to continue]</b></p></div>","32","","","","","","","",""
"","planet","214","359099","0.0-214.0","""event"",""trial"",""time""
""fullscreenenter"",""0"",""3374""
","
","
","""event"",""trial"",""time""
""fullscreenenter"",""0"",""3374""
","
","null","run_exp/static/images/tutorial/test/008a.jpg","null","","","","","","","",""
"","boot","215","361104","0.0-215.0","""event"",""trial"",""time""
""fullscreenenter"",""0"",""3374""
","
","
","""event"",""trial"",""time""
""fullscreenenter"",""0"",""3374""
","
","null","run_exp/static/images/tutorial/test/011a.jpg","null","","","","","","","",""
"","lemon","216","363110","0.0-216.0","""event"",""trial"",""time""
""fullscreenenter"",""0"",""3374""
","
","
","""event"",""trial"",""time""
""fullscreenenter"",""0"",""3374""
","
","null","run_exp/static/images/tutorial/test/018a.jpg","null","","","","","","","",""
"","practice_q1","217","368376","0.0-217.0","""event"",""trial"",""time""
""fullscreenenter"",""0"",""3374""
","
","
","""event"",""trial"",""time""
""fullscreenenter"",""0"",""3374""
","
","5262.600000023842","run_exp/static/audio/clip_16_practice_question.m4a","78","","","","","","","",""
"","correct","218","370284","0.0-218.0-0.0","""event"",""trial"",""time""
""fullscreenenter"",""0"",""3374""
","
","
","""event"",""trial"",""time""
""fullscreenenter"",""0"",""3374""
","
","null","run_exp/static/audio/clip_17_correct.m4a","null","","","","","<div class='center'><p>That's correct!</p></div>","","",""
"","html-keyboard-response","219","372031","0.0-218.0-1.0","""event"",""trial"",""time""
""fullscreenenter"",""0"",""3374""
","
","
","""event"",""trial"",""time""
""fullscreenenter"",""0"",""3374""
","
","1745.199999988079","<div class='center'><p>That's correct!</p><div><p><b>[Press the space bar to continue]</b></p></div>","32","","","","","","","",""
"","practice_q2","220","374166","0.0-218.0-2.0","""event"",""trial"",""time""
""fullscreenenter"",""0"",""3374""
","
","
","""event"",""trial"",""time""
""fullscreenenter"",""0"",""3374""
","
","2132.5","run_exp/static/audio/clip_16_practice_question.m4a","86","","","","","","","",""
"","correct","221","376066","0.0-219.0-0.0","""event"",""trial"",""time""
""fullscreenenter"",""0"",""3374""
","
","
","""event"",""trial"",""time""
""fullscreenenter"",""0"",""3374""
","
","null","run_exp/static/audio/clip_17_correct.m4a","null","","","","","<div class='center'><p>That's correct!</p></div>","","",""
"","html-keyboard-response","222","376697","0.0-219.0-1.0","""event"",""trial"",""time""
""fullscreenenter"",""0"",""3374""
","
","
","""event"",""trial"",""time""
""fullscreenenter"",""0"",""3374""
","
","629.3000000119209","<div class='center'><p>That's correct!</p><div><p><b>[Press the space bar to continue]</b></p></div>","32","","","","","","","",""
"","practice_q3","223","377808","0.0-219.0-2.0","""event"",""trial"",""time""
""fullscreenenter"",""0"",""3374""
","
","
","""event"",""trial"",""time""
""fullscreenenter"",""0"",""3374""
","
","1110.300000011921","run_exp/static/audio/clip_16_practice_question.m4a","86","","","","","","","",""
"","incorrect_q3","224","380546","0.0-220.0-0.0","""event"",""trial"",""time""
""fullscreenenter"",""0"",""3374""
","
","
","""event"",""trial"",""time""
""fullscreenenter"",""0"",""3374""
","
","null","run_exp/static/audio/clip_20_incorrect_similar.m4a","null","","","","","<div class='center'><p>Thats incorrect. Its similar.</p><p><img src='run_exp/static/images/tutorial/test/boot_comparison.png' height='300'></p></div>","","",""
"","html-keyboard-response","225","381278","0.0-220.0-1.0","""event"",""trial"",""time""
""fullscreenenter"",""0"",""3374""
","
","
","""event"",""trial"",""time""
""fullscreenenter"",""0"",""3374""
","
","729.3999999761581","<div class='center'><p>Thats incorrect. Its similar.</p><p><img src='run_exp/static/images/tutorial/test/boot_comparison.png' height='300'></p><div><p><b>[Press the space bar to continue]</b></p></div>","32","","","","","","","",""
"","repeat","226","386026","0.0-221.0-0.0","""event"",""trial"",""time""
""fullscreenenter"",""0"",""3374""
","
","
","""event"",""trial"",""time""
""fullscreenenter"",""0"",""3374""
","
","null","run_exp/static/audio/clip_21_practice_again.m4a","null","","","","","<div class='center'><p>Oops. you missed at least one of these questions. Let's try practicing again. </p></div>","","",""
"","html-keyboard-response","227","386441","0.0-221.0-1.0","""event"",""trial"",""time""
""fullscreenenter"",""0"",""3374""
","
","
","""event"",""trial"",""time""
""fullscreenenter"",""0"",""3374""
","
","412.10000002384186","<div class='center'><p>Oops. you missed at least one of these questions. Let's try practicing again. </p><div><p><b>[Press the space bar to continue]</b></p></div>","32","","","","","","","",""
"","practice_q1","228","388260","0.0-221.0-2.0","""event"",""trial"",""time""
""fullscreenenter"",""0"",""3374""
","
","
","""event"",""trial"",""time""
""fullscreenenter"",""0"",""3374""
","
","1817","run_exp/static/audio/clip_16_practice_question.m4a","78","","","","","","","",""
"","correct","229","390165","0.0-222.0-0.0","""event"",""trial"",""time""
""fullscreenenter"",""0"",""3374""
","
","
","""event"",""trial"",""time""
""fullscreenenter"",""0"",""3374""
","
","null","run_exp/static/audio/clip_17_correct.m4a","null","","","","","<div class='center'><p>That's correct!</p></div>","","",""
"","html-keyboard-response","230","390665","0.0-222.0-1.0","""event"",""trial"",""time""
""fullscreenenter"",""0"",""3374""
","
","
","""event"",""trial"",""time""
""fullscreenenter"",""0"",""3374""
","
","497.30000001192093","<div class='center'><p>That's correct!</p><div><p><b>[Press the space bar to continue]</b></p></div>","32","","","","","","","",""
"","practice_q2","231","390896","0.0-222.0-2.0","""event"",""trial"",""time""
""fullscreenenter"",""0"",""3374""
","
","
","""event"",""trial"",""time""
""fullscreenenter"",""0"",""3374""
","
","230.19999998807907","run_exp/static/audio/clip_16_practice_question.m4a","86","","","","","","","",""
"","correct","232","392806","0.0-223.0-0.0","""event"",""trial"",""time""
""fullscreenenter"",""0"",""3374""
","
","
","""event"",""trial"",""time""
""fullscreenenter"",""0"",""3374""
","
","null","run_exp/static/audio/clip_17_correct.m4a","null","","","","","<div class='center'><p>That's correct!</p></div>","","",""
"","html-keyboard-response","233","393166","0.0-223.0-1.0","""event"",""trial"",""time""
""fullscreenenter"",""0"",""3374""
","
","
","""event"",""trial"",""time""
""fullscreenenter"",""0"",""3374""
","
","359","<div class='center'><p>That's correct!</p><div><p><b>[Press the space bar to continue]</b></p></div>","32","","","","","","","",""
"","practice_q3","234","393290","0.0-223.0-2.0","""event"",""trial"",""time""
""fullscreenenter"",""0"",""3374""
","
","
","""event"",""trial"",""time""
""fullscreenenter"",""0"",""3374""
","
","122.39999997615814","run_exp/static/audio/clip_16_practice_question.m4a","66","","","","","","","",""
"","correct","235","395324","0.0-224.0-0.0","""event"",""trial"",""time""
""fullscreenenter"",""0"",""3374""
","
","
","""event"",""trial"",""time""
""fullscreenenter"",""0"",""3374""
","
","null","run_exp/static/audio/clip_17_correct.m4a","null","","","","","<div class='center'><p>That's correct!</p></div>","","",""
"","html-keyboard-response","236","395741","0.0-224.0-1.0","""event"",""trial"",""time""
""fullscreenenter"",""0"",""3374""
","
","
","""event"",""trial"",""time""
""fullscreenenter"",""0"",""3374""
","
","415.69999998807907","<div class='center'><p>That's correct!</p><div><p><b>[Press the space bar to continue]</b></p></div>","32","","","","","","","",""
"","begin_text","237","414226","0.0-225.0-0.0","""event"",""trial"",""time""
""fullscreenenter"",""0"",""3374""
","
","
","""event"",""trial"",""time""
""fullscreenenter"",""0"",""3374""
","
","null","run_exp/static/audio/clip_22_begin_test.m4a","null","","","","","<div class='center'><p>On to the real game where well test your memory of items from the indoor/outdoor game. For each item, you need to indicate if the item is <b>old</b> by pressing the <b>v</b> key, <b>similar</b> by pressing the <b>b</b> key, or <b>new</b> by pressing the <b>n</b> key. </p></div>","","",""
"","html-keyboard-response","238","414699","0.0-225.0-1.0","""event"",""trial"",""time""
""fullscreenenter"",""0"",""3374""
","
","
","""event"",""trial"",""time""
""fullscreenenter"",""0"",""3374""
","
","469.4000000357628","<div class='center'><p>On to the real game where well test your memory of items from the indoor/outdoor game. For each item, you need to indicate if the item is <b>old</b> by pressing the <b>v</b> key, <b>similar</b> by pressing the <b>b</b> key, or <b>new</b> by pressing the <b>n</b> key. </p><div><p><b>[Press the space bar to continue]</b></p></div>","32","","","","","","","",""
"","image","239","416382","0.0-226.0-0.0","""event"",""trial"",""time""
""fullscreenenter"",""0"",""3374""
","
","
","""event"",""trial"",""time""
""fullscreenenter"",""0"",""3374""
","
","1681","run_exp/static/images/Set 6_rs/005a.jpg","78","","","","","","test","TF","5"
"","show_choice","240","416898","0.0-226.0-1.0","""event"",""trial"",""time""
""fullscreenenter"",""0"",""3374""
","
","
","""event"",""trial"",""time""
""fullscreenenter"",""0"",""3374""
","
","null","run_exp/static/images/Set 6_rs/005a.jpg","null","","","","","","test","TF",""
"","html-keyboard-response","241","417414","0.0-226.0-2.0","""event"",""trial"",""time""
""fullscreenenter"",""0"",""3374""
","
","
","""event"",""trial"",""time""
""fullscreenenter"",""0"",""3374""
","
","null","<p></p>","null","","","","","","","",""
"","image","242","418788","0.0-227.0-0.0","""event"",""trial"",""time""
""fullscreenenter"",""0"",""3374""
","
","
","""event"",""trial"",""time""
""fullscreenenter"",""0"",""3374""
","
","1372.199999988079","run_exp/static/images/Set 6_rs/024a.jpg","86","","","","","","test","TR","5"
"","show_choice","243","419301","0.0-227.0-1.0","""event"",""trial"",""time""
""fullscreenenter"",""0"",""3374""
","
","
","""event"",""trial"",""time""
""fullscreenenter"",""0"",""3374""
","
","null","run_exp/static/images/Set 6_rs/024a.jpg","null","","","","","","test","TR",""
"","html-keyboard-response","244","419812","0.0-227.0-2.0","""event"",""trial"",""time""
""fullscreenenter"",""0"",""3374""
","
","
","""event"",""trial"",""time""
""fullscreenenter"",""0"",""3374""
","
","null","<p></p>","null","","","","","","","",""
"","image","245","421053","0.0-228.0-0.0","""event"",""trial"",""time""
""fullscreenenter"",""0"",""3374""
","
","
","""event"",""trial"",""time""
""fullscreenenter"",""0"",""3374""
","
","1240.300000011921","run_exp/static/images/Set 6_rs/057b.jpg","86","","","","","","test","TL","1"
"","show_choice","246","421563","0.0-228.0-1.0","""event"",""trial"",""time""
""fullscreenenter"",""0"",""3374""
","
","
","""event"",""trial"",""time""
""fullscreenenter"",""0"",""3374""
","
","null","run_exp/static/images/Set 6_rs/057b.jpg","null","","","","","","test","TL",""
"","html-keyboard-response","247","422080","0.0-228.0-2.0","""event"",""trial"",""time""
""fullscreenenter"",""0"",""3374""
","
","
","""event"",""trial"",""time""
""fullscreenenter"",""0"",""3374""
","
","null","<p></p>","null","","","","","","","",""
"","image","248","423301","0.0-229.0-0.0","""event"",""trial"",""time""
""fullscreenenter"",""0"",""3374""
","
","
","""event"",""trial"",""time""
""fullscreenenter"",""0"",""3374""
","
","1219.199999988079","run_exp/static/images/Set 6_rs/036b.jpg","78","","","","","","test","TL","4"
"","show_choice","249","423811","0.0-229.0-1.0","""event"",""trial"",""time""
""fullscreenenter"",""0"",""3374""
","
","
","""event"",""trial"",""time""
""fullscreenenter"",""0"",""3374""
","
","null","run_exp/static/images/Set 6_rs/036b.jpg","null","","","","","","test","TL",""
"","html-keyboard-response","250","424315","0.0-229.0-2.0","""event"",""trial"",""time""
""fullscreenenter"",""0"",""3374""
","
","
","""event"",""trial"",""time""
""fullscreenenter"",""0"",""3374""
","
","null","<p></p>","null","","","","","","","",""
"","image","251","425817","0.0-230.0-0.0","""event"",""trial"",""time""
""fullscreenenter"",""0"",""3374""
","
","
","""event"",""trial"",""time""
""fullscreenenter"",""0"",""3374""
","
","1500.300000011921","run_exp/static/images/Set 6_rs/063a.jpg","86","","","","","","test","TR","2"
"","show_choice","252","426330","0.0-230.0-1.0","""event"",""trial"",""time""
""fullscreenenter"",""0"",""3374""
","
","
","""event"",""trial"",""time""
""fullscreenenter"",""0"",""3374""
","
","null","run_exp/static/images/Set 6_rs/063a.jpg","null","","","","","","test","TR",""
"","html-keyboard-response","253","426844","0.0-230.0-2.0","""event"",""trial"",""time""
""fullscreenenter"",""0"",""3374""
","
","
","""event"",""trial"",""time""
""fullscreenenter"",""0"",""3374""
","
","null","<p></p>","null","","","","","","","",""
"","image","254","427797","0.0-231.0-0.0","""event"",""trial"",""time""
""fullscreenenter"",""0"",""3374""
","
","
","""event"",""trial"",""time""
""fullscreenenter"",""0"",""3374""
","
","951.1999999880791","run_exp/static/images/Set 6_rs/088a.jpg","86","","","","","","test","TR","2"
"","show_choice","255","428308","0.0-231.0-1.0","""event"",""trial"",""time""
""fullscreenenter"",""0"",""3374""
","
","
","""event"",""trial"",""time""
""fullscreenenter"",""0"",""3374""
","
","null","run_exp/static/images/Set 6_rs/088a.jpg","null","","","","","","test","TR",""
"","html-keyboard-response","256","428814","0.0-231.0-2.0","""event"",""trial"",""time""
""fullscreenenter"",""0"",""3374""
","
","
","""event"",""trial"",""time""
""fullscreenenter"",""0"",""3374""
","
","null","<p></p>","null","","","","","","","",""
"","image","257","430377","0.0-232.0-0.0","""event"",""trial"",""time""
""fullscreenenter"",""0"",""3374""
","
","
","""event"",""trial"",""time""
""fullscreenenter"",""0"",""3374""
","
","1561.8999999761581","run_exp/static/images/Set 6_rs/055b.jpg","66","","","","","","test","TL","4"
"","show_choice","258","430885","0.0-232.0-1.0","""event"",""trial"",""time""
""fullscreenenter"",""0"",""3374""
","
","
","""event"",""trial"",""time""
""fullscreenenter"",""0"",""3374""
","
","null","run_exp/static/images/Set 6_rs/055b.jpg","null","","","","","","test","TL",""
"","html-keyboard-response","259","431387","0.0-232.0-2.0","""event"",""trial"",""time""
""fullscreenenter"",""0"",""3374""
","
","
","""event"",""trial"",""time""
""fullscreenenter"",""0"",""3374""
","
","null","<p></p>","null","","","","","","","",""
"","image","260","432275","0.0-233.0-0.0","""event"",""trial"",""time""
""fullscreenenter"",""0"",""3374""
","
","
","""event"",""trial"",""time""
""fullscreenenter"",""0"",""3374""
","
","886","run_exp/static/images/Set 6_rs/014b.jpg","86","","","","","","test","TL","5"
"","show_choice","261","432789","0.0-233.0-1.0","""event"",""trial"",""time""
""fullscreenenter"",""0"",""3374""
","
","
","""event"",""trial"",""time""
""fullscreenenter"",""0"",""3374""
","
","null","run_exp/static/images/Set 6_rs/014b.jpg","null","","","","","","test","TL",""
"","html-keyboard-response","262","433305","0.0-233.0-2.0","""event"",""trial"",""time""
""fullscreenenter"",""0"",""3374""
","
","
","""event"",""trial"",""time""
""fullscreenenter"",""0"",""3374""
","
","null","<p></p>","null","","","","","","","",""
"","image","263","434308","0.0-234.0-0.0","""event"",""trial"",""time""
""fullscreenenter"",""0"",""3374""
","
","
","""event"",""trial"",""time""
""fullscreenenter"",""0"",""3374""
","
","1000.4000000357628","run_exp/static/images/Set 6_rs/166a.jpg","86","","","","","","test","TR","1"
"","show_choice","264","434819","0.0-234.0-1.0","""event"",""trial"",""time""
""fullscreenenter"",""0"",""3374""
","
","
","""event"",""trial"",""time""
""fullscreenenter"",""0"",""3374""
","
","null","run_exp/static/images/Set 6_rs/166a.jpg","null","","","","","","test","TR",""
"","html-keyboard-response","265","435333","0.0-234.0-2.0","""event"",""trial"",""time""
""fullscreenenter"",""0"",""3374""
","
","
","""event"",""trial"",""time""
""fullscreenenter"",""0"",""3374""
","
","null","<p></p>","null","","","","","","","",""
"","image","266","436470","0.0-235.0-0.0","""event"",""trial"",""time""
""fullscreenenter"",""0"",""3374""
","
","
","""event"",""trial"",""time""
""fullscreenenter"",""0"",""3374""
","
","1133.800000011921","run_exp/static/images/Set 6_rs/177a.jpg","86","","","","","","test","TR","5"
"","show_choice","267","436977","0.0-235.0-1.0","""event"",""trial"",""time""
""fullscreenenter"",""0"",""3374""
","
","
","""event"",""trial"",""time""
""fullscreenenter"",""0"",""3374""
","
","null","run_exp/static/images/Set 6_rs/177a.jpg","null","","","","","","test","TR",""
"","html-keyboard-response","268","437492","0.0-235.0-2.0","""event"",""trial"",""time""
""fullscreenenter"",""0"",""3374""
","
","
","""event"",""trial"",""time""
""fullscreenenter"",""0"",""3374""
","
","null","<p></p>","null","","","","","","","",""
"","image","269","438357","0.0-236.0-0.0","""event"",""trial"",""time""
""fullscreenenter"",""0"",""3374""
","
","
","""event"",""trial"",""time""
""fullscreenenter"",""0"",""3374""
","
","862.5999999642372","run_exp/static/images/Set 6_rs/085b.jpg","86","","","","","","test","TL","1"
"","show_choice","270","438871","0.0-236.0-1.0","""event"",""trial"",""time""
""fullscreenenter"",""0"",""3374""
","
","
","""event"",""trial"",""time""
""fullscreenenter"",""0"",""3374""
","
","null","run_exp/static/images/Set 6_rs/085b.jpg","null","","","","","","test","TL",""
"","html-keyboard-response","271","439386","0.0-236.0-2.0","""event"",""trial"",""time""
""fullscreenenter"",""0"",""3374""
","
","
","""event"",""trial"",""time""
""fullscreenenter"",""0"",""3374""
","
","null","<p></p>","null","","","","","","","",""
"","image","272","440219","0.0-237.0-0.0","""event"",""trial"",""time""
""fullscreenenter"",""0"",""3374""
","
","
","""event"",""trial"",""time""
""fullscreenenter"",""0"",""3374""
","
","830.9000000357628","run_exp/static/images/Set 6_rs/045a.jpg","86","","","","","","test","TR","2"
"","show_choice","273","440730","0.0-237.0-1.0","""event"",""trial"",""time""
""fullscreenenter"",""0"",""3374""
","
","
","""event"",""trial"",""time""
""fullscreenenter"",""0"",""3374""
","
","null","run_exp/static/images/Set 6_rs/045a.jpg","null","","","","","","test","TR",""
"","html-keyboard-response","274","441240","0.0-237.0-2.0","""event"",""trial"",""time""
""fullscreenenter"",""0"",""3374""
","
","
","""event"",""trial"",""time""
""fullscreenenter"",""0"",""3374""
","
","null","<p></p>","null","","","","","","","",""
"","image","275","442319","0.0-238.0-0.0","""event"",""trial"",""time""
""fullscreenenter"",""0"",""3374""
","
","
","""event"",""trial"",""time""
""fullscreenenter"",""0"",""3374""
","
","1076.5","run_exp/static/images/Set 6_rs/187a.jpg","86","","","","","","test","TR","3"
"","show_choice","276","442830","0.0-238.0-1.0","""event"",""trial"",""time""
""fullscreenenter"",""0"",""3374""
","
","
","""event"",""trial"",""time""
""fullscreenenter"",""0"",""3374""
","
","null","run_exp/static/images/Set 6_rs/187a.jpg","null","","","","","","test","TR",""
"","html-keyboard-response","277","443346","0.0-238.0-2.0","""event"",""trial"",""time""
""fullscreenenter"",""0"",""3374""
","
","
","""event"",""trial"",""time""
""fullscreenenter"",""0"",""3374""
","
","null","<p></p>","null","","","","","","","",""
"","image","278","444654","0.0-239.0-0.0","""event"",""trial"",""time""
""fullscreenenter"",""0"",""3374""
","
","
","""event"",""trial"",""time""
""fullscreenenter"",""0"",""3374""
","
","1305","run_exp/static/images/Set 6_rs/117b.jpg","66","","","","","","test","TL","5"
"","show_choice","279","445158","0.0-239.0-1.0","""event"",""trial"",""time""
""fullscreenenter"",""0"",""3374""
","
","
","""event"",""trial"",""time""
""fullscreenenter"",""0"",""3374""
","
","null","run_exp/static/images/Set 6_rs/117b.jpg","null","","","","","","test","TL",""
"","html-keyboard-response","280","445674","0.0-239.0-2.0","""event"",""trial"",""time""
""fullscreenenter"",""0"",""3374""
","
","
","""event"",""trial"",""time""
""fullscreenenter"",""0"",""3374""
","
","null","<p></p>","null","","","","","","","",""
"","image","281","446675","0.0-240.0-0.0","""event"",""trial"",""time""
""fullscreenenter"",""0"",""3374""
","
","
","""event"",""trial"",""time""
""fullscreenenter"",""0"",""3374""
","
","999.8000000119209","run_exp/static/images/Set 6_rs/188a.jpg","86","","","","","","test","TF","3"
"","show_choice","282","447191","0.0-240.0-1.0","""event"",""trial"",""time""
""fullscreenenter"",""0"",""3374""
","
","
","""event"",""trial"",""time""
""fullscreenenter"",""0"",""3374""
","
","null","run_exp/static/images/Set 6_rs/188a.jpg","null","","","","","","test","TF",""
"","html-keyboard-response","283","447698","0.0-240.0-2.0","""event"",""trial"",""time""
""fullscreenenter"",""0"",""3374""
","
","
","""event"",""trial"",""time""
""fullscreenenter"",""0"",""3374""
","
","null","<p></p>","null","","","","","","","",""
"","image","284","448536","0.0-241.0-0.0","""event"",""trial"",""time""
""fullscreenenter"",""0"",""3374""
","
","
","""event"",""trial"",""time""
""fullscreenenter"",""0"",""3374""
","
","836.8000000119209","run_exp/static/images/Set 6_rs/012a.jpg","86","","","","","","test","TR","1"
"","show_choice","285","449050","0.0-241.0-1.0","""event"",""trial"",""time""
""fullscreenenter"",""0"",""3374""
","
","
","""event"",""trial"",""time""
""fullscreenenter"",""0"",""3374""
","
","null","run_exp/static/images/Set 6_rs/012a.jpg","null","","","","","","test","TR",""
"","html-keyboard-response","286","449556","0.0-241.0-2.0","""event"",""trial"",""time""
""fullscreenenter"",""0"",""3374""
","
","
","""event"",""trial"",""time""
""fullscreenenter"",""0"",""3374""
","
","null","<p></p>","null","","","","","","","",""
"","image","287","451045","0.0-242.0-0.0","""event"",""trial"",""time""
""fullscreenenter"",""0"",""3374""
","
","
","""event"",""trial"",""time""
""fullscreenenter"",""0"",""3374""
","
","1487.3999999761581","run_exp/static/images/Set 6_rs/171a.jpg","78","","","","","","test","TF","1"
"","show_choice","288","451554","0.0-242.0-1.0","""event"",""trial"",""time""
""fullscreenenter"",""0"",""3374""
","
","
","""event"",""trial"",""time""
""fullscreenenter"",""0"",""3374""
","
","null","run_exp/static/images/Set 6_rs/171a.jpg","null","","","","","","test","TF",""
"","html-keyboard-response","289","452070","0.0-242.0-2.0","""event"",""trial"",""time""
""fullscreenenter"",""0"",""3374""
","
","
","""event"",""trial"",""time""
""fullscreenenter"",""0"",""3374""
","
","null","<p></p>","null","","","","","","","",""
"","image","290","453377","0.0-243.0-0.0","""event"",""trial"",""time""
""fullscreenenter"",""0"",""3374""
","
","
","""event"",""trial"",""time""
""fullscreenenter"",""0"",""3374""
","
","1305.5","run_exp/static/images/Set 6_rs/011a.jpg","78","","","","","","test","TF","3"
"","show_choice","291","453886","0.0-243.0-1.0","""event"",""trial"",""time""
""fullscreenenter"",""0"",""3374""
","
","
","""event"",""trial"",""time""
""fullscreenenter"",""0"",""3374""
","
","null","run_exp/static/images/Set 6_rs/011a.jpg","null","","","","","","test","TF",""
"","html-keyboard-response","292","454387","0.0-243.0-2.0","""event"",""trial"",""time""
""fullscreenenter"",""0"",""3374""
","
","
","""event"",""trial"",""time""
""fullscreenenter"",""0"",""3374""
","
","null","<p></p>","null","","","","","","","",""
"","image","293","455795","0.0-244.0-0.0","""event"",""trial"",""time""
""fullscreenenter"",""0"",""3374""
","
","
","""event"",""trial"",""time""
""fullscreenenter"",""0"",""3374""
","
","1406.6000000238419","run_exp/static/images/Set 6_rs/152a.jpg","86","","","","","","test","TR","2"
"","show_choice","294","456311","0.0-244.0-1.0","""event"",""trial"",""time""
""fullscreenenter"",""0"",""3374""
","
","
","""event"",""trial"",""time""
""fullscreenenter"",""0"",""3374""
","
","null","run_exp/static/images/Set 6_rs/152a.jpg","null","","","","","","test","TR",""
"","html-keyboard-response","295","456828","0.0-244.0-2.0","""event"",""trial"",""time""
""fullscreenenter"",""0"",""3374""
","
","
","""event"",""trial"",""time""
""fullscreenenter"",""0"",""3374""
","
","null","<p></p>","null","","","","","","","",""
"","image","296","457698","0.0-245.0-0.0","""event"",""trial"",""time""
""fullscreenenter"",""0"",""3374""
","
","
","""event"",""trial"",""time""
""fullscreenenter"",""0"",""3374""
","
","868","run_exp/static/images/Set 6_rs/191b.jpg","86","","","","","","test","TL","2"
"","show_choice","297","458201","0.0-245.0-1.0","""event"",""trial"",""time""
""fullscreenenter"",""0"",""3374""
","
","
","""event"",""trial"",""time""
""fullscreenenter"",""0"",""3374""
","
","null","run_exp/static/images/Set 6_rs/191b.jpg","null","","","","","","test","TL",""
"","html-keyboard-response","298","458715","0.0-245.0-2.0","""event"",""trial"",""time""
""fullscreenenter"",""0"",""3374""
","
","
","""event"",""trial"",""time""
""fullscreenenter"",""0"",""3374""
","
","null","<p></p>","null","","","","","","","",""
"","image","299","460286","0.0-246.0-0.0","""event"",""trial"",""time""
""fullscreenenter"",""0"",""3374""
","
","
","""event"",""trial"",""time""
""fullscreenenter"",""0"",""3374""
","
","1568.0999999642372","run_exp/static/images/Set 6_rs/176a.jpg","78","","","","","","test","TF","4"
"","show_choice","300","460801","0.0-246.0-1.0","""event"",""trial"",""time""
""fullscreenenter"",""0"",""3374""
","
","
","""event"",""trial"",""time""
""fullscreenenter"",""0"",""3374""
","
","null","run_exp/static/images/Set 6_rs/176a.jpg","null","","","","","","test","TF",""
"","html-keyboard-response","301","461317","0.0-246.0-2.0","""event"",""trial"",""time""
""fullscreenenter"",""0"",""3374""
","
","
","""event"",""trial"",""time""
""fullscreenenter"",""0"",""3374""
","
","null","<p></p>","null","","","","","","","",""
"","image","302","462382","0.0-247.0-0.0","""event"",""trial"",""time""
""fullscreenenter"",""0"",""3374""
","
","
","""event"",""trial"",""time""
""fullscreenenter"",""0"",""3374""
","
","1062.6000000238419","run_exp/static/images/Set 6_rs/008b.jpg","86","","","","","","test","TL","2"
"","show_choice","303","462889","0.0-247.0-1.0","""event"",""trial"",""time""
""fullscreenenter"",""0"",""3374""
","
","
","""event"",""trial"",""time""
""fullscreenenter"",""0"",""3374""
","
","null","run_exp/static/images/Set 6_rs/008b.jpg","null","","","","","","test","TL",""
"","html-keyboard-response","304","463405","0.0-247.0-2.0","""event"",""trial"",""time""
""fullscreenenter"",""0"",""3374""
","
","
","""event"",""trial"",""time""
""fullscreenenter"",""0"",""3374""
","
","null","<p></p>","null","","","","","","","",""
"","image","305","465048","0.0-248.0-0.0","""event"",""trial"",""time""
""fullscreenenter"",""0"",""3374""
","
","
","""event"",""trial"",""time""
""fullscreenenter"",""0"",""3374""
","
","1640.7000000476837","run_exp/static/images/Set 6_rs/071b.jpg","66","","","","","","test","TL","4"
"","show_choice","306","465553","0.0-248.0-1.0","""event"",""trial"",""time""
""fullscreenenter"",""0"",""3374""
","
","
","""event"",""trial"",""time""
""fullscreenenter"",""0"",""3374""
","
","null","run_exp/static/images/Set 6_rs/071b.jpg","null","","","","","","test","TL",""
"","html-keyboard-response","307","466059","0.0-248.0-2.0","""event"",""trial"",""time""
""fullscreenenter"",""0"",""3374""
","
","
","""event"",""trial"",""time""
""fullscreenenter"",""0"",""3374""
","
","null","<p></p>","null","","","","","","","",""
"","image","308","467266","0.0-249.0-0.0","""event"",""trial"",""time""
""fullscreenenter"",""0"",""3374""
","
","
","""event"",""trial"",""time""
""fullscreenenter"",""0"",""3374""
","
","1205.199999988079","run_exp/static/images/Set 6_rs/050b.jpg","66","","","","","","test","TL","3"
"","show_choice","309","467774","0.0-249.0-1.0","""event"",""trial"",""time""
""fullscreenenter"",""0"",""3374""
","
","
","""event"",""trial"",""time""
""fullscreenenter"",""0"",""3374""
","
","null","run_exp/static/images/Set 6_rs/050b.jpg","null","","","","","","test","TL",""
"","html-keyboard-response","310","468286","0.0-249.0-2.0","""event"",""trial"",""time""
""fullscreenenter"",""0"",""3374""
","
","
","""event"",""trial"",""time""
""fullscreenenter"",""0"",""3374""
","
","null","<p></p>","null","","","","","","","",""
"","image","311","469493","0.0-250.0-0.0","""event"",""trial"",""time""
""fullscreenenter"",""0"",""3374""
","
","
","""event"",""trial"",""time""
""fullscreenenter"",""0"",""3374""
","
","1205.300000011921","run_exp/static/images/Set 6_rs/066b.jpg","66","","","","","","test","TL","5"
"","show_choice","312","470007","0.0-250.0-1.0","""event"",""trial"",""time""
""fullscreenenter"",""0"",""3374""
","
","
","""event"",""trial"",""time""
""fullscreenenter"",""0"",""3374""
","
","null","run_exp/static/images/Set 6_rs/066b.jpg","null","","","","","","test","TL",""
"","html-keyboard-response","313","470508","0.0-250.0-2.0","""event"",""trial"",""time""
""fullscreenenter"",""0"",""3374""
","
","
","""event"",""trial"",""time""
""fullscreenenter"",""0"",""3374""
","
","null","<p></p>","null","","","","","","","",""
"","image","314","471902","0.0-251.0-0.0","""event"",""trial"",""time""
""fullscreenenter"",""0"",""3374""
","
","
","""event"",""trial"",""time""
""fullscreenenter"",""0"",""3374""
","
","1391.199999988079","run_exp/static/images/Set 6_rs/028a.jpg","78","","","","","","test","TF","1"
"","show_choice","315","472418","0.0-251.0-1.0","""event"",""trial"",""time""
""fullscreenenter"",""0"",""3374""
","
","
","""event"",""trial"",""time""
""fullscreenenter"",""0"",""3374""
","
","null","run_exp/static/images/Set 6_rs/028a.jpg","null","","","","","","test","TF",""
"","html-keyboard-response","316","472930","0.0-251.0-2.0","""event"",""trial"",""time""
""fullscreenenter"",""0"",""3374""
","
","
","""event"",""trial"",""time""
""fullscreenenter"",""0"",""3374""
","
","null","<p></p>","null","","","","","","","",""
"","image","317","474339","0.0-252.0-0.0","""event"",""trial"",""time""
""fullscreenenter"",""0"",""3374""
","
","
","""event"",""trial"",""time""
""fullscreenenter"",""0"",""3374""
","
","1406","run_exp/static/images/Set 6_rs/019b.jpg","66","","","","","","test","TL","2"
"","show_choice","318","474847","0.0-252.0-1.0","""event"",""trial"",""time""
""fullscreenenter"",""0"",""3374""
","
","
","""event"",""trial"",""time""
""fullscreenenter"",""0"",""3374""
","
","null","run_exp/static/images/Set 6_rs/019b.jpg","null","","","","","","test","TL",""
"","html-keyboard-response","319","475363","0.0-252.0-2.0","""event"",""trial"",""time""
""fullscreenenter"",""0"",""3374""
","
","
","""event"",""trial"",""time""
""fullscreenenter"",""0"",""3374""
","
","null","<p></p>","null","","","","","","","",""
"","image","320","477106","0.0-253.0-0.0","""event"",""trial"",""time""
""fullscreenenter"",""0"",""3374""
","
","
","""event"",""trial"",""time""
""fullscreenenter"",""0"",""3374""
","
","1740.800000011921","run_exp/static/images/Set 6_rs/021a.jpg","66","","","","","","test","TF","2"
"","show_choice","321","477608","0.0-253.0-1.0","""event"",""trial"",""time""
""fullscreenenter"",""0"",""3374""
","
","
","""event"",""trial"",""time""
""fullscreenenter"",""0"",""3374""
","
","null","run_exp/static/images/Set 6_rs/021a.jpg","null","","","","","","test","TF",""
"","html-keyboard-response","322","478112","0.0-253.0-2.0","""event"",""trial"",""time""
""fullscreenenter"",""0"",""3374""
","
","
","""event"",""trial"",""time""
""fullscreenenter"",""0"",""3374""
","
","null","<p></p>","null","","","","","","","",""
"","image","323","479047","0.0-254.0-0.0","""event"",""trial"",""time""
""fullscreenenter"",""0"",""3374""
","
","
","""event"",""trial"",""time""
""fullscreenenter"",""0"",""3374""
","
","932.5","run_exp/static/images/Set 6_rs/075a.jpg","86","","","","","","test","TR","1"
"","show_choice","324","479562","0.0-254.0-1.0","""event"",""trial"",""time""
""fullscreenenter"",""0"",""3374""
","
","
","""event"",""trial"",""time""
""fullscreenenter"",""0"",""3374""
","
","null","run_exp/static/images/Set 6_rs/075a.jpg","null","","","","","","test","TR",""
"","html-keyboard-response","325","480077","0.0-254.0-2.0","""event"",""trial"",""time""
""fullscreenenter"",""0"",""3374""
","
","
","""event"",""trial"",""time""
""fullscreenenter"",""0"",""3374""
","
","null","<p></p>","null","","","","","","","",""
"","image","326","481361","0.0-255.0-0.0","""event"",""trial"",""time""
""fullscreenenter"",""0"",""3374""
","
","
","""event"",""trial"",""time""
""fullscreenenter"",""0"",""3374""
","
","1282.2999999523163","run_exp/static/images/Set 6_rs/168b.jpg","66","","","","","","test","TL","3"
"","show_choice","327","481868","0.0-255.0-1.0","""event"",""trial"",""time""
""fullscreenenter"",""0"",""3374""
","
","
","""event"",""trial"",""time""
""fullscreenenter"",""0"",""3374""
","
","null","run_exp/static/images/Set 6_rs/168b.jpg","null","","","","","","test","TL",""
"","html-keyboard-response","328","482380","0.0-255.0-2.0","""event"",""trial"",""time""
""fullscreenenter"",""0"",""3374""
","
","
","""event"",""trial"",""time""
""fullscreenenter"",""0"",""3374""
","
","null","<p></p>","null","","","","","","","",""
"","image","329","483611","0.0-256.0-0.0","""event"",""trial"",""time""
""fullscreenenter"",""0"",""3374""
","
","
","""event"",""trial"",""time""
""fullscreenenter"",""0"",""3374""
","
","1228.1000000238419","run_exp/static/images/Set 6_rs/154a.jpg","86","","","","","","test","TR","3"
"","show_choice","330","484128","0.0-256.0-1.0","""event"",""trial"",""time""
""fullscreenenter"",""0"",""3374""
","
","
","""event"",""trial"",""time""
""fullscreenenter"",""0"",""3374""
","
","null","run_exp/static/images/Set 6_rs/154a.jpg","null","","","","","","test","TR",""
"","html-keyboard-response","331","484644","0.0-256.0-2.0","""event"",""trial"",""time""
""fullscreenenter"",""0"",""3374""
","
","
","""event"",""trial"",""time""
""fullscreenenter"",""0"",""3374""
","
","null","<p></p>","null","","","","","","","",""
"","image","332","486035","0.0-257.0-0.0","""event"",""trial"",""time""
""fullscreenenter"",""0"",""3374""
","
","
","""event"",""trial"",""time""
""fullscreenenter"",""0"",""3374""
","
","1388.9000000357628","run_exp/static/images/Set 6_rs/001a.jpg","78","","","","","","test","TF","1"
"","show_choice","333","486546","0.0-257.0-1.0","""event"",""trial"",""time""
""fullscreenenter"",""0"",""3374""
","
","
","""event"",""trial"",""time""
""fullscreenenter"",""0"",""3374""
","
","null","run_exp/static/images/Set 6_rs/001a.jpg","null","","","","","","test","TF",""
"","html-keyboard-response","334","487063","0.0-257.0-2.0","""event"",""trial"",""time""
""fullscreenenter"",""0"",""3374""
","
","
","""event"",""trial"",""time""
""fullscreenenter"",""0"",""3374""
","
","null","<p></p>","null","","","","","","","",""
"","image","335","487913","0.0-258.0-0.0","""event"",""trial"",""time""
""fullscreenenter"",""0"",""3374""
","
","
","""event"",""trial"",""time""
""fullscreenenter"",""0"",""3374""
","
","847.5999999642372","run_exp/static/images/Set 6_rs/048a.jpg","78","","","","","","test","TF","4"
"","show_choice","336","488420","0.0-258.0-1.0","""event"",""trial"",""time""
""fullscreenenter"",""0"",""3374""
","
","
","""event"",""trial"",""time""
""fullscreenenter"",""0"",""3374""
","
","null","run_exp/static/images/Set 6_rs/048a.jpg","null","","","","","","test","TF",""
"","html-keyboard-response","337","488923","0.0-258.0-2.0","""event"",""trial"",""time""
""fullscreenenter"",""0"",""3374""
","
","
","""event"",""trial"",""time""
""fullscreenenter"",""0"",""3374""
","
","null","<p></p>","null","","","","","","","",""
"","image","338","490559","0.0-259.0-0.0","""event"",""trial"",""time""
""fullscreenenter"",""0"",""3374""
","
","
