"success","trial_type","trial_index","time_elapsed","internal_node_id","interactions","blur_events","focus_events","fullscreenenter_events","fullscreenexit_events","rt","stimulus","key_press","subject_id","participant_id","age","gender","prompt","phase","condition","lure_bin"
"true","fullscreen","0","6062","0.0-0.0","""event"",""trial"",""time""
""fullscreenenter"",""0"",""5127""
","
","
","""event"",""trial"",""time""
""fullscreenenter"",""0"",""5127""
","
","","","","","","","","","","",""
"","pavlovia","1","6069","0.0-1.0","""event"",""trial"",""time""
""fullscreenenter"",""0"",""5127""
""blur"",""2"",""8317""
","""event"",""trial"",""time""
""blur"",""2"",""8317""
","
","""event"",""trial"",""time""
""fullscreenenter"",""0"",""5127""
","
","","","","","","","","","","",""
"","welcome","2","40907","0.0-2.0","""event"",""trial"",""time""
""fullscreenenter"",""0"",""5127""
""blur"",""2"",""8317""
""focus"",""3"",""48244""
","""event"",""trial"",""time""
""blur"",""2"",""8317""
","""event"",""trial"",""time""
""focus"",""3"",""48244""
","""event"",""trial"",""time""
""fullscreenenter"",""0"",""5127""
","
","null","run_exp/static/audio/clip_1_welcome.m4a","null","598","875","25","Male","<div class='center'><p>Welcome to the third part of the study! First, you'll be shown pictures of items one at a time. For each picture, you have to decide if the item is typically found indoors or outdoors.</p><p>If you think it's usually found indoors, then press <b>v</b> key on your keyboard. If you think it's usually found outdoors, then press the <b>n</b> key.There will be reminders on the screen to help you remember which keys to press. </p><p>If you're not sure whether the item is an indoor item or an outdoor item, go ahead and take a guess but try your best not to skip that choice. </p></div>","","",""
"","html-keyboard-response","3","48723","0.0-3.0","""event"",""trial"",""time""
""fullscreenenter"",""0"",""5127""
""blur"",""2"",""8317""
""focus"",""3"",""48244""
","""event"",""trial"",""time""
""blur"",""2"",""8317""
","""event"",""trial"",""time""
""focus"",""3"",""48244""
","""event"",""trial"",""time""
""fullscreenenter"",""0"",""5127""
","
","7813.9000000003725","<div class='center'><p>Welcome to the third part of the study! First, you'll be shown pictures of items one at a time. For each picture, you have to decide if the item is typically found indoors or outdoors.</p><p>If you think it's usually found indoors, then press <b>v</b> key on your keyboard. If you think it's usually found outdoors, then press the <b>n</b> key.There will be reminders on the screen to help you remember which keys to press. </p><p>If you're not sure whether the item is an indoor item or an outdoor item, go ahead and take a guess but try your best not to skip that choice. </p><div><p><b>[Press the space bar to continue]</b></p></div>","32","","","","","","","",""
"","image","4","50335","0.0-4.0","""event"",""trial"",""time""
""fullscreenenter"",""0"",""5127""
""blur"",""2"",""8317""
""focus"",""3"",""48244""
","""event"",""trial"",""time""
""blur"",""2"",""8317""
","""event"",""trial"",""time""
""focus"",""3"",""48244""
","""event"",""trial"",""time""
""fullscreenenter"",""0"",""5127""
","
","1609.699999999255","run_exp/static/images/Set 6_rs/055a.jpg","86","","","","","","learn","SL",""
"","show_choice","5","50730","0.0-5.0","""event"",""trial"",""time""
""fullscreenenter"",""0"",""5127""
""blur"",""2"",""8317""
""focus"",""3"",""48244""
","""event"",""trial"",""time""
""blur"",""2"",""8317""
","""event"",""trial"",""time""
""focus"",""3"",""48244""
","""event"",""trial"",""time""
""fullscreenenter"",""0"",""5127""
","
","null","run_exp/static/images/Set 6_rs/055a.jpg","null","","","","","","learn","SL",""
"","html-keyboard-response","6","51234","0.0-6.0","""event"",""trial"",""time""
""fullscreenenter"",""0"",""5127""
""blur"",""2"",""8317""
""focus"",""3"",""48244""
","""event"",""trial"",""time""
""blur"",""2"",""8317""
","""event"",""trial"",""time""
""focus"",""3"",""48244""
","""event"",""trial"",""time""
""fullscreenenter"",""0"",""5127""
","
","null","<p></p>","null","","","","","","","",""
"","image","7","52752","0.0-7.0","""event"",""trial"",""time""
""fullscreenenter"",""0"",""5127""
""blur"",""2"",""8317""
""focus"",""3"",""48244""
","""event"",""trial"",""time""
""blur"",""2"",""8317""
","""event"",""trial"",""time""
""focus"",""3"",""48244""
","""event"",""trial"",""time""
""fullscreenenter"",""0"",""5127""
","
","1517.0999999996275","run_exp/static/images/Set 6_rs/075a.jpg","78","","","","","","learn","SR",""
"","show_choice","8","53241","0.0-8.0","""event"",""trial"",""time""
""fullscreenenter"",""0"",""5127""
""blur"",""2"",""8317""
""focus"",""3"",""48244""
","""event"",""trial"",""time""
""blur"",""2"",""8317""
","""event"",""trial"",""time""
""focus"",""3"",""48244""
","""event"",""trial"",""time""
""fullscreenenter"",""0"",""5127""
","
","null","run_exp/static/images/Set 6_rs/075a.jpg","null","","","","","","learn","SR",""
"","html-keyboard-response","9","53742","0.0-9.0","""event"",""trial"",""time""
""fullscreenenter"",""0"",""5127""
""blur"",""2"",""8317""
""focus"",""3"",""48244""
","""event"",""trial"",""time""
""blur"",""2"",""8317""
","""event"",""trial"",""time""
""focus"",""3"",""48244""
","""event"",""trial"",""time""
""fullscreenenter"",""0"",""5127""
","
","null","<p></p>","null","","","","","","","",""
"","image","10","54522","0.0-10.0","""event"",""trial"",""time""
""fullscreenenter"",""0"",""5127""
""blur"",""2"",""8317""
""focus"",""3"",""48244""
","""event"",""trial"",""time""
""blur"",""2"",""8317""
","""event"",""trial"",""time""
""focus"",""3"",""48244""
","""event"",""trial"",""time""
""fullscreenenter"",""0"",""5127""
","
","779.0999999996275","run_exp/static/images/Set 6_rs/024a.jpg","86","","","","","","learn","SR",""
"","show_choice","11","55746","0.0-11.0","""event"",""trial"",""time""
""fullscreenenter"",""0"",""5127""
""blur"",""2"",""8317""
""focus"",""3"",""48244""
","""event"",""trial"",""time""
""blur"",""2"",""8317""
","""event"",""trial"",""time""
""focus"",""3"",""48244""
","""event"",""trial"",""time""
""fullscreenenter"",""0"",""5127""
","
","null","run_exp/static/images/Set 6_rs/024a.jpg","null","","","","","","learn","SR",""
"","html-keyboard-response","12","56252","0.0-12.0","""event"",""trial"",""time""
""fullscreenenter"",""0"",""5127""
""blur"",""2"",""8317""
""focus"",""3"",""48244""
","""event"",""trial"",""time""
""blur"",""2"",""8317""
","""event"",""trial"",""time""
""focus"",""3"",""48244""
","""event"",""trial"",""time""
""fullscreenenter"",""0"",""5127""
","
","null","<p></p>","null","","","","","","","",""
"","image","13","57325","0.0-13.0","""event"",""trial"",""time""
""fullscreenenter"",""0"",""5127""
""blur"",""2"",""8317""
""focus"",""3"",""48244""
","""event"",""trial"",""time""
""blur"",""2"",""8317""
","""event"",""trial"",""time""
""focus"",""3"",""48244""
","""event"",""trial"",""time""
""fullscreenenter"",""0"",""5127""
","
","1072.199999999255","run_exp/static/images/Set 6_rs/116a.jpg","78","","","","","","learn","SL",""
"","show_choice","14","58258","0.0-14.0","""event"",""trial"",""time""
""fullscreenenter"",""0"",""5127""
""blur"",""2"",""8317""
""focus"",""3"",""48244""
","""event"",""trial"",""time""
""blur"",""2"",""8317""
","""event"",""trial"",""time""
""focus"",""3"",""48244""
","""event"",""trial"",""time""
""fullscreenenter"",""0"",""5127""
","
","null","run_exp/static/images/Set 6_rs/116a.jpg","null","","","","","","learn","SL",""
"","html-keyboard-response","15","58764","0.0-15.0","""event"",""trial"",""time""
""fullscreenenter"",""0"",""5127""
""blur"",""2"",""8317""
""focus"",""3"",""48244""
","""event"",""trial"",""time""
""blur"",""2"",""8317""
","""event"",""trial"",""time""
""focus"",""3"",""48244""
","""event"",""trial"",""time""
""fullscreenenter"",""0"",""5127""
","
","null","<p></p>","null","","","","","","","",""
"","image","16","60003","0.0-16.0","""event"",""trial"",""time""
""fullscreenenter"",""0"",""5127""
""blur"",""2"",""8317""
""focus"",""3"",""48244""
","""event"",""trial"",""time""
""blur"",""2"",""8317""
","""event"",""trial"",""time""
""focus"",""3"",""48244""
","""event"",""trial"",""time""
""fullscreenenter"",""0"",""5127""
","
","1238.5","run_exp/static/images/Set 6_rs/117a.jpg","86","","","","","","learn","SL",""
"","show_choice","17","60771","0.0-17.0","""event"",""trial"",""time""
""fullscreenenter"",""0"",""5127""
""blur"",""2"",""8317""
""focus"",""3"",""48244""
","""event"",""trial"",""time""
""blur"",""2"",""8317""
","""event"",""trial"",""time""
""focus"",""3"",""48244""
","""event"",""trial"",""time""
""fullscreenenter"",""0"",""5127""
","
","null","run_exp/static/images/Set 6_rs/117a.jpg","null","","","","","","learn","SL",""
"","html-keyboard-response","18","61277","0.0-18.0","""event"",""trial"",""time""
""fullscreenenter"",""0"",""5127""
""blur"",""2"",""8317""
""focus"",""3"",""48244""
","""event"",""trial"",""time""
""blur"",""2"",""8317""
","""event"",""trial"",""time""
""focus"",""3"",""48244""
","""event"",""trial"",""time""
""fullscreenenter"",""0"",""5127""
","
","null","<p></p>","null","","","","","","","",""
"","image","19","62390","0.0-19.0","""event"",""trial"",""time""
""fullscreenenter"",""0"",""5127""
""blur"",""2"",""8317""
""focus"",""3"",""48244""
","""event"",""trial"",""time""
""blur"",""2"",""8317""
","""event"",""trial"",""time""
""focus"",""3"",""48244""
","""event"",""trial"",""time""
""fullscreenenter"",""0"",""5127""
","
","1111.7000000011176","run_exp/static/images/Set 6_rs/014a.jpg","86","","","","","","learn","SL",""
"","show_choice","20","63284","0.0-20.0","""event"",""trial"",""time""
""fullscreenenter"",""0"",""5127""
""blur"",""2"",""8317""
""focus"",""3"",""48244""
","""event"",""trial"",""time""
""blur"",""2"",""8317""
","""event"",""trial"",""time""
""focus"",""3"",""48244""
","""event"",""trial"",""time""
""fullscreenenter"",""0"",""5127""
","
","null","run_exp/static/images/Set 6_rs/014a.jpg","null","","","","","","learn","SL",""
"","html-keyboard-response","21","63787","0.0-21.0","""event"",""trial"",""time""
""fullscreenenter"",""0"",""5127""
""blur"",""2"",""8317""
""focus"",""3"",""48244""
","""event"",""trial"",""time""
""blur"",""2"",""8317""
","""event"",""trial"",""time""
""focus"",""3"",""48244""
","""event"",""trial"",""time""
""fullscreenenter"",""0"",""5127""
","
","null","<p></p>","null","","","","","","","",""
"","image","22","64761","0.0-22.0","""event"",""trial"",""time""
""fullscreenenter"",""0"",""5127""
""blur"",""2"",""8317""
""focus"",""3"",""48244""
","""event"",""trial"",""time""
""blur"",""2"",""8317""
","""event"",""trial"",""time""
""focus"",""3"",""48244""
","""event"",""trial"",""time""
""fullscreenenter"",""0"",""5127""
","
","973.3999999985099","run_exp/static/images/Set 6_rs/144a.jpg","86","","","","","","learn","SL",""
"","show_choice","23","65790","0.0-23.0","""event"",""trial"",""time""
""fullscreenenter"",""0"",""5127""
""blur"",""2"",""8317""
""focus"",""3"",""48244""
","""event"",""trial"",""time""
""blur"",""2"",""8317""
","""event"",""trial"",""time""
""focus"",""3"",""48244""
","""event"",""trial"",""time""
""fullscreenenter"",""0"",""5127""
","
","null","run_exp/static/images/Set 6_rs/144a.jpg","null","","","","","","learn","SL",""
"","html-keyboard-response","24","66296","0.0-24.0","""event"",""trial"",""time""
""fullscreenenter"",""0"",""5127""
""blur"",""2"",""8317""
""focus"",""3"",""48244""
","""event"",""trial"",""time""
""blur"",""2"",""8317""
","""event"",""trial"",""time""
""focus"",""3"",""48244""
","""event"",""trial"",""time""
""fullscreenenter"",""0"",""5127""
","
","null","<p></p>","null","","","","","","","",""
"","image","25","67249","0.0-25.0","""event"",""trial"",""time""
""fullscreenenter"",""0"",""5127""
""blur"",""2"",""8317""
""focus"",""3"",""48244""
","""event"",""trial"",""time""
""blur"",""2"",""8317""
","""event"",""trial"",""time""
""focus"",""3"",""48244""
","""event"",""trial"",""time""
""fullscreenenter"",""0"",""5127""
","
","951.5","run_exp/static/images/Set 6_rs/010a.jpg","86","","","","","","learn","SR",""
"","show_choice","26","68303","0.0-26.0","""event"",""trial"",""time""
""fullscreenenter"",""0"",""5127""
""blur"",""2"",""8317""
""focus"",""3"",""48244""
","""event"",""trial"",""time""
""blur"",""2"",""8317""
","""event"",""trial"",""time""
""focus"",""3"",""48244""
","""event"",""trial"",""time""
""fullscreenenter"",""0"",""5127""
","
","null","run_exp/static/images/Set 6_rs/010a.jpg","null","","","","","","learn","SR",""
"","html-keyboard-response","27","68804","0.0-27.0","""event"",""trial"",""time""
""fullscreenenter"",""0"",""5127""
""blur"",""2"",""8317""
""focus"",""3"",""48244""
","""event"",""trial"",""time""
""blur"",""2"",""8317""
","""event"",""trial"",""time""
""focus"",""3"",""48244""
","""event"",""trial"",""time""
""fullscreenenter"",""0"",""5127""
","
","null","<p></p>","null","","","","","","","",""
"","image","28","69677","0.0-28.0","""event"",""trial"",""time""
""fullscreenenter"",""0"",""5127""
""blur"",""2"",""8317""
""focus"",""3"",""48244""
","""event"",""trial"",""time""
""blur"",""2"",""8317""
","""event"",""trial"",""time""
""focus"",""3"",""48244""
","""event"",""trial"",""time""
""fullscreenenter"",""0"",""5127""
","
","872.1999999992549","run_exp/static/images/Set 6_rs/111a.jpg","86","","","","","","learn","SL",""
"","show_choice","29","70811","0.0-29.0","""event"",""trial"",""time""
""fullscreenenter"",""0"",""5127""
""blur"",""2"",""8317""
""focus"",""3"",""48244""
","""event"",""trial"",""time""
""blur"",""2"",""8317""
","""event"",""trial"",""time""
""focus"",""3"",""48244""
","""event"",""trial"",""time""
""fullscreenenter"",""0"",""5127""
","
","null","run_exp/static/images/Set 6_rs/111a.jpg","null","","","","","","learn","SL",""
"","html-keyboard-response","30","71317","0.0-30.0","""event"",""trial"",""time""
""fullscreenenter"",""0"",""5127""
""blur"",""2"",""8317""
""focus"",""3"",""48244""
","""event"",""trial"",""time""
""blur"",""2"",""8317""
","""event"",""trial"",""time""
""focus"",""3"",""48244""
","""event"",""trial"",""time""
""fullscreenenter"",""0"",""5127""
","
","null","<p></p>","null","","","","","","","",""
"","image","31","72456","0.0-31.0","""event"",""trial"",""time""
""fullscreenenter"",""0"",""5127""
""blur"",""2"",""8317""
""focus"",""3"",""48244""
","""event"",""trial"",""time""
""blur"",""2"",""8317""
","""event"",""trial"",""time""
""focus"",""3"",""48244""
","""event"",""trial"",""time""
""fullscreenenter"",""0"",""5127""
","
","1138.699999999255","run_exp/static/images/Set 6_rs/071a.jpg","78","","","","","","learn","SL",""
"","show_choice","32","73324","0.0-32.0","""event"",""trial"",""time""
""fullscreenenter"",""0"",""5127""
""blur"",""2"",""8317""
""focus"",""3"",""48244""
","""event"",""trial"",""time""
""blur"",""2"",""8317""
","""event"",""trial"",""time""
""focus"",""3"",""48244""
","""event"",""trial"",""time""
""fullscreenenter"",""0"",""5127""
","
","null","run_exp/static/images/Set 6_rs/071a.jpg","null","","","","","","learn","SL",""
"","html-keyboard-response","33","73826","0.0-33.0","""event"",""trial"",""time""
""fullscreenenter"",""0"",""5127""
""blur"",""2"",""8317""
""focus"",""3"",""48244""
","""event"",""trial"",""time""
""blur"",""2"",""8317""
","""event"",""trial"",""time""
""focus"",""3"",""48244""
","""event"",""trial"",""time""
""fullscreenenter"",""0"",""5127""
","
","null","<p></p>","null","","","","","","","",""
"","image","34","74691","0.0-34.0","""event"",""trial"",""time""
""fullscreenenter"",""0"",""5127""
""blur"",""2"",""8317""
""focus"",""3"",""48244""
","""event"",""trial"",""time""
""blur"",""2"",""8317""
","""event"",""trial"",""time""
""focus"",""3"",""48244""
","""event"",""trial"",""time""
""fullscreenenter"",""0"",""5127""
","
","863.4000000003725","run_exp/static/images/Set 6_rs/089a.jpg","86","","","","","","learn","SL",""
"","show_choice","35","75833","0.0-35.0","""event"",""trial"",""time""
""fullscreenenter"",""0"",""5127""
""blur"",""2"",""8317""
""focus"",""3"",""48244""
","""event"",""trial"",""time""
""blur"",""2"",""8317""
","""event"",""trial"",""time""
""focus"",""3"",""48244""
","""event"",""trial"",""time""
""fullscreenenter"",""0"",""5127""
","
","null","run_exp/static/images/Set 6_rs/089a.jpg","null","","","","","","learn","SL",""
"","html-keyboard-response","36","76338","0.0-36.0","""event"",""trial"",""time""
""fullscreenenter"",""0"",""5127""
""blur"",""2"",""8317""
""focus"",""3"",""48244""
","""event"",""trial"",""time""
""blur"",""2"",""8317""
","""event"",""trial"",""time""
""focus"",""3"",""48244""
","""event"",""trial"",""time""
""fullscreenenter"",""0"",""5127""
","
","null","<p></p>","null","","","","","","","",""
"","image","37","77209","0.0-37.0","""event"",""trial"",""time""
""fullscreenenter"",""0"",""5127""
""blur"",""2"",""8317""
""focus"",""3"",""48244""
","""event"",""trial"",""time""
""blur"",""2"",""8317""
","""event"",""trial"",""time""
""focus"",""3"",""48244""
","""event"",""trial"",""time""
""fullscreenenter"",""0"",""5127""
","
","869.4000000003725","run_exp/static/images/Set 6_rs/150a.jpg","86","","","","","","learn","SR",""
"","show_choice","38","78341","0.0-38.0","""event"",""trial"",""time""
""fullscreenenter"",""0"",""5127""
""blur"",""2"",""8317""
""focus"",""3"",""48244""
","""event"",""trial"",""time""
""blur"",""2"",""8317""
","""event"",""trial"",""time""
""focus"",""3"",""48244""
","""event"",""trial"",""time""
""fullscreenenter"",""0"",""5127""
","
","null","run_exp/static/images/Set 6_rs/150a.jpg","null","","","","","","learn","SR",""
"","html-keyboard-response","39","78847","0.0-39.0","""event"",""trial"",""time""
""fullscreenenter"",""0"",""5127""
""blur"",""2"",""8317""
""focus"",""3"",""48244""
","""event"",""trial"",""time""
""blur"",""2"",""8317""
","""event"",""trial"",""time""
""focus"",""3"",""48244""
","""event"",""trial"",""time""
""fullscreenenter"",""0"",""5127""
","
","null","<p></p>","null","","","","","","","",""
"","image","40","79659","0.0-40.0","""event"",""trial"",""time""
""fullscreenenter"",""0"",""5127""
""blur"",""2"",""8317""
""focus"",""3"",""48244""
","""event"",""trial"",""time""
""blur"",""2"",""8317""
","""event"",""trial"",""time""
""focus"",""3"",""48244""
","""event"",""trial"",""time""
""fullscreenenter"",""0"",""5127""
","
","810.7999999988824","run_exp/static/images/Set 6_rs/073a.jpg","86","","","","","","learn","SL",""
"","show_choice","41","80852","0.0-41.0","""event"",""trial"",""time""
""fullscreenenter"",""0"",""5127""
""blur"",""2"",""8317""
""focus"",""3"",""48244""
","""event"",""trial"",""time""
""blur"",""2"",""8317""
","""event"",""trial"",""time""
""focus"",""3"",""48244""
","""event"",""trial"",""time""
""fullscreenenter"",""0"",""5127""
","
","null","run_exp/static/images/Set 6_rs/073a.jpg","null","","","","","","learn","SL",""
"","html-keyboard-response","42","81357","0.0-42.0","""event"",""trial"",""time""
""fullscreenenter"",""0"",""5127""
""blur"",""2"",""8317""
""focus"",""3"",""48244""
","""event"",""trial"",""time""
""blur"",""2"",""8317""
","""event"",""trial"",""time""
""focus"",""3"",""48244""
","""event"",""trial"",""time""
""fullscreenenter"",""0"",""5127""
","
","null","<p></p>","null","","","","","","","",""
"","image","43","82111","0.0-43.0","""event"",""trial"",""time""
""fullscreenenter"",""0"",""5127""
""blur"",""2"",""8317""
""focus"",""3"",""48244""
","""event"",""trial"",""time""
""blur"",""2"",""8317""
","""event"",""trial"",""time""
""focus"",""3"",""48244""
","""event"",""trial"",""time""
""fullscreenenter"",""0"",""5127""
","
","753.4000000003725","run_exp/static/images/Set 6_rs/123a.jpg","78","","","","","","learn","SL",""
"","show_choice","44","83364","0.0-44.0","""event"",""trial"",""time""
""fullscreenenter"",""0"",""5127""
""blur"",""2"",""8317""
""focus"",""3"",""48244""
","""event"",""trial"",""time""
""blur"",""2"",""8317""
","""event"",""trial"",""time""
""focus"",""3"",""48244""
","""event"",""trial"",""time""
""fullscreenenter"",""0"",""5127""
","
","null","run_exp/static/images/Set 6_rs/123a.jpg","null","","","","","","learn","SL",""
"","html-keyboard-response","45","83870","0.0-45.0","""event"",""trial"",""time""
""fullscreenenter"",""0"",""5127""
""blur"",""2"",""8317""
""focus"",""3"",""48244""
","""event"",""trial"",""time""
""blur"",""2"",""8317""
","""event"",""trial"",""time""
""focus"",""3"",""48244""
","""event"",""trial"",""time""
""fullscreenenter"",""0"",""5127""
","
","null","<p></p>","null","","","","","","","",""
"","image","46","84787","0.0-46.0","""event"",""trial"",""time""
""fullscreenenter"",""0"",""5127""
""blur"",""2"",""8317""
""focus"",""3"",""48244""
","""event"",""trial"",""time""
""blur"",""2"",""8317""
","""event"",""trial"",""time""
""focus"",""3"",""48244""
","""event"",""trial"",""time""
""fullscreenenter"",""0"",""5127""
","
","915.9000000003725","run_exp/static/images/Set 6_rs/006a.jpg","86","","","","","","learn","SL",""
"","show_choice","47","85877","0.0-47.0","""event"",""trial"",""time""
""fullscreenenter"",""0"",""5127""
""blur"",""2"",""8317""
""focus"",""3"",""48244""
","""event"",""trial"",""time""
""blur"",""2"",""8317""
","""event"",""trial"",""time""
""focus"",""3"",""48244""
","""event"",""trial"",""time""
""fullscreenenter"",""0"",""5127""
","
","null","run_exp/static/images/Set 6_rs/006a.jpg","null","","","","","","learn","SL",""
"","html-keyboard-response","48","86382","0.0-48.0","""event"",""trial"",""time""
""fullscreenenter"",""0"",""5127""
""blur"",""2"",""8317""
""focus"",""3"",""48244""
","""event"",""trial"",""time""
""blur"",""2"",""8317""
","""event"",""trial"",""time""
""focus"",""3"",""48244""
","""event"",""trial"",""time""
""fullscreenenter"",""0"",""5127""
","
","null","<p></p>","null","","","","","","","",""
"","image","49","87265","0.0-49.0","""event"",""trial"",""time""
""fullscreenenter"",""0"",""5127""
""blur"",""2"",""8317""
""focus"",""3"",""48244""
","""event"",""trial"",""time""
""blur"",""2"",""8317""
","""event"",""trial"",""time""
""focus"",""3"",""48244""
","""event"",""trial"",""time""
""fullscreenenter"",""0"",""5127""
","
","881.2999999988824","run_exp/static/images/Set 6_rs/138a.jpg","78","","","","","","learn","SL",""
"","show_choice","50","88389","0.0-50.0","""event"",""trial"",""time""
""fullscreenenter"",""0"",""5127""
""blur"",""2"",""8317""
""focus"",""3"",""48244""
","""event"",""trial"",""time""
""blur"",""2"",""8317""
","""event"",""trial"",""time""
""focus"",""3"",""48244""
","""event"",""trial"",""time""
""fullscreenenter"",""0"",""5127""
","
","null","run_exp/static/images/Set 6_rs/138a.jpg","null","","","","","","learn","SL",""
"","html-keyboard-response","51","88891","0.0-51.0","""event"",""trial"",""time""
""fullscreenenter"",""0"",""5127""
""blur"",""2"",""8317""
""focus"",""3"",""48244""
","""event"",""trial"",""time""
""blur"",""2"",""8317""
","""event"",""trial"",""time""
""focus"",""3"",""48244""
","""event"",""trial"",""time""
""fullscreenenter"",""0"",""5127""
","
","null","<p></p>","null","","","","","","","",""
"","image","52","90036","0.0-52.0","""event"",""trial"",""time""
""fullscreenenter"",""0"",""5127""
""blur"",""2"",""8317""
""focus"",""3"",""48244""
","""event"",""trial"",""time""
""blur"",""2"",""8317""
","""event"",""trial"",""time""
""focus"",""3"",""48244""
","""event"",""trial"",""time""
""fullscreenenter"",""0"",""5127""
","
","1143.800000000745","run_exp/static/images/Set 6_rs/074a.jpg","78","","","","","","learn","SL",""
"","show_choice","53","90898","0.0-53.0","""event"",""trial"",""time""
""fullscreenenter"",""0"",""5127""
""blur"",""2"",""8317""
""focus"",""3"",""48244""
","""event"",""trial"",""time""
""blur"",""2"",""8317""
","""event"",""trial"",""time""
""focus"",""3"",""48244""
","""event"",""trial"",""time""
""fullscreenenter"",""0"",""5127""
","
","null","run_exp/static/images/Set 6_rs/074a.jpg","null","","","","","","learn","SL",""
"","html-keyboard-response","54","91400","0.0-54.0","""event"",""trial"",""time""
""fullscreenenter"",""0"",""5127""
""blur"",""2"",""8317""
""focus"",""3"",""48244""
","""event"",""trial"",""time""
""blur"",""2"",""8317""
","""event"",""trial"",""time""
""focus"",""3"",""48244""
","""event"",""trial"",""time""
""fullscreenenter"",""0"",""5127""
","
","null","<p></p>","null","","","","","","","",""
"","image","55","92211","0.0-55.0","""event"",""trial"",""time""
""fullscreenenter"",""0"",""5127""
""blur"",""2"",""8317""
""focus"",""3"",""48244""
","""event"",""trial"",""time""
""blur"",""2"",""8317""
","""event"",""trial"",""time""
""focus"",""3"",""48244""
","""event"",""trial"",""time""
""fullscreenenter"",""0"",""5127""
","
","809.5","run_exp/static/images/Set 6_rs/131a.jpg","86","","","","","","learn","SR",""
"","show_choice","56","93404","0.0-56.0","""event"",""trial"",""time""
""fullscreenenter"",""0"",""5127""
""blur"",""2"",""8317""
""focus"",""3"",""48244""
","""event"",""trial"",""time""
""blur"",""2"",""8317""
","""event"",""trial"",""time""
""focus"",""3"",""48244""
","""event"",""trial"",""time""
""fullscreenenter"",""0"",""5127""
","
","null","run_exp/static/images/Set 6_rs/131a.jpg","null","","","","","","learn","SR",""
"","html-keyboard-response","57","93909","0.0-57.0","""event"",""trial"",""time""
""fullscreenenter"",""0"",""5127""
""blur"",""2"",""8317""
""focus"",""3"",""48244""
","""event"",""trial"",""time""
""blur"",""2"",""8317""
","""event"",""trial"",""time""
""focus"",""3"",""48244""
","""event"",""trial"",""time""
""fullscreenenter"",""0"",""5127""
","
","null","<p></p>","null","","","","","","","",""
"","image","58","95113","0.0-58.0","""event"",""trial"",""time""
""fullscreenenter"",""0"",""5127""
""blur"",""2"",""8317""
""focus"",""3"",""48244""
","""event"",""trial"",""time""
""blur"",""2"",""8317""
","""event"",""trial"",""time""
""focus"",""3"",""48244""
","""event"",""trial"",""time""
""fullscreenenter"",""0"",""5127""
","
","1202.5","run_exp/static/images/Set 6_rs/008a.jpg","86","","","","","","learn","SL",""
"","show_choice","59","95913","0.0-59.0","""event"",""trial"",""time""
""fullscreenenter"",""0"",""5127""
""blur"",""2"",""8317""
""focus"",""3"",""48244""
","""event"",""trial"",""time""
""blur"",""2"",""8317""
","""event"",""trial"",""time""
""focus"",""3"",""48244""
","""event"",""trial"",""time""
""fullscreenenter"",""0"",""5127""
","
","null","run_exp/static/images/Set 6_rs/008a.jpg","null","","","","","","learn","SL",""
"","html-keyboard-response","60","96419","0.0-60.0","""event"",""trial"",""time""
""fullscreenenter"",""0"",""5127""
""blur"",""2"",""8317""
""focus"",""3"",""48244""
","""event"",""trial"",""time""
""blur"",""2"",""8317""
","""event"",""trial"",""time""
""focus"",""3"",""48244""
","""event"",""trial"",""time""
""fullscreenenter"",""0"",""5127""
","
","null","<p></p>","null","","","","","","","",""
"","image","61","97267","0.0-61.0","""event"",""trial"",""time""
""fullscreenenter"",""0"",""5127""
""blur"",""2"",""8317""
""focus"",""3"",""48244""
","""event"",""trial"",""time""
""blur"",""2"",""8317""
","""event"",""trial"",""time""
""focus"",""3"",""48244""
","""event"",""trial"",""time""
""fullscreenenter"",""0"",""5127""
","
","847.4000000003725","run_exp/static/images/Set 6_rs/076a.jpg","78","","","","","","learn","SR",""
"","show_choice","62","98421","0.0-62.0","""event"",""trial"",""time""
""fullscreenenter"",""0"",""5127""
""blur"",""2"",""8317""
""focus"",""3"",""48244""
","""event"",""trial"",""time""
""blur"",""2"",""8317""
","""event"",""trial"",""time""
""focus"",""3"",""48244""
","""event"",""trial"",""time""
""fullscreenenter"",""0"",""5127""
","
","null","run_exp/static/images/Set 6_rs/076a.jpg","null","","","","","","learn","SR",""
"","html-keyboard-response","63","98927","0.0-63.0","""event"",""trial"",""time""
""fullscreenenter"",""0"",""5127""
""blur"",""2"",""8317""
""focus"",""3"",""48244""
","""event"",""trial"",""time""
""blur"",""2"",""8317""
","""event"",""trial"",""time""
""focus"",""3"",""48244""
","""event"",""trial"",""time""
""fullscreenenter"",""0"",""5127""
","
","null","<p></p>","null","","","","","","","",""
"","image","64","100315","0.0-64.0","""event"",""trial"",""time""
""fullscreenenter"",""0"",""5127""
""blur"",""2"",""8317""
""focus"",""3"",""48244""
","""event"",""trial"",""time""
""blur"",""2"",""8317""
","""event"",""trial"",""time""
""focus"",""3"",""48244""
","""event"",""trial"",""time""
""fullscreenenter"",""0"",""5127""
","
","1387.0999999996275","run_exp/static/images/Set 6_rs/066a.jpg","86","","","","","","learn","SL",""
"","show_choice","65","100933","0.0-65.0","""event"",""trial"",""time""
""fullscreenenter"",""0"",""5127""
""blur"",""2"",""8317""
""focus"",""3"",""48244""
","""event"",""trial"",""time""
""blur"",""2"",""8317""
","""event"",""trial"",""time""
""focus"",""3"",""48244""
","""event"",""trial"",""time""
""fullscreenenter"",""0"",""5127""
","
","null","run_exp/static/images/Set 6_rs/066a.jpg","null","","","","","","learn","SL",""
"","html-keyboard-response","66","101440","0.0-66.0","""event"",""trial"",""time""
""fullscreenenter"",""0"",""5127""
""blur"",""2"",""8317""
""focus"",""3"",""48244""
","""event"",""trial"",""time""
""blur"",""2"",""8317""
","""event"",""trial"",""time""
""focus"",""3"",""48244""
","""event"",""trial"",""time""
""fullscreenenter"",""0"",""5127""
","
","null","<p></p>","null","","","","","","","",""
"","image","67","102729","0.0-67.0","""event"",""trial"",""time""
""fullscreenenter"",""0"",""5127""
""blur"",""2"",""8317""
""focus"",""3"",""48244""
","""event"",""trial"",""time""
""blur"",""2"",""8317""
","""event"",""trial"",""time""
""focus"",""3"",""48244""
","""event"",""trial"",""time""
""fullscreenenter"",""0"",""5127""
","
","1288.1000000014901","run_exp/static/images/Set 6_rs/122a.jpg","86","","","","","","learn","SR",""
"","show_choice","68","103446","0.0-68.0","""event"",""trial"",""time""
""fullscreenenter"",""0"",""5127""
""blur"",""2"",""8317""
""focus"",""3"",""48244""
","""event"",""trial"",""time""
""blur"",""2"",""8317""
","""event"",""trial"",""time""
""focus"",""3"",""48244""
","""event"",""trial"",""time""
""fullscreenenter"",""0"",""5127""
","
","null","run_exp/static/images/Set 6_rs/122a.jpg","null","","","","","","learn","SR",""
"","html-keyboard-response","69","103951","0.0-69.0","""event"",""trial"",""time""
""fullscreenenter"",""0"",""5127""
""blur"",""2"",""8317""
""focus"",""3"",""48244""
","""event"",""trial"",""time""
""blur"",""2"",""8317""
","""event"",""trial"",""time""
""focus"",""3"",""48244""
","""event"",""trial"",""time""
""fullscreenenter"",""0"",""5127""
","
","null","<p></p>","null","","","","","","","",""
"","image","70","105695","0.0-70.0","""event"",""trial"",""time""
""fullscreenenter"",""0"",""5127""
""blur"",""2"",""8317""
""focus"",""3"",""48244""
","""event"",""trial"",""time""
""blur"",""2"",""8317""
","""event"",""trial"",""time""
""focus"",""3"",""48244""
","""event"",""trial"",""time""
""fullscreenenter"",""0"",""5127""
","
","1743.5","run_exp/static/images/Set 6_rs/108a.jpg","78","","","","","","learn","SR",""
"","show_choice","71","105957","0.0-71.0","""event"",""trial"",""time""
""fullscreenenter"",""0"",""5127""
""blur"",""2"",""8317""
""focus"",""3"",""48244""
","""event"",""trial"",""time""
""blur"",""2"",""8317""
","""event"",""trial"",""time""
""focus"",""3"",""48244""
","""event"",""trial"",""time""
""fullscreenenter"",""0"",""5127""
","
","null","run_exp/static/images/Set 6_rs/108a.jpg","null","","","","","","learn","SR",""
"","html-keyboard-response","72","106462","0.0-72.0","""event"",""trial"",""time""
""fullscreenenter"",""0"",""5127""
""blur"",""2"",""8317""
""focus"",""3"",""48244""
","""event"",""trial"",""time""
""blur"",""2"",""8317""
","""event"",""trial"",""time""
""focus"",""3"",""48244""
","""event"",""trial"",""time""
""fullscreenenter"",""0"",""5127""
","
","null","<p></p>","null","","","","","","","",""
"","image","73","107257","0.0-73.0","""event"",""trial"",""time""
""fullscreenenter"",""0"",""5127""
""blur"",""2"",""8317""
""focus"",""3"",""48244""
","""event"",""trial"",""time""
""blur"",""2"",""8317""
","""event"",""trial"",""time""
""focus"",""3"",""48244""
","""event"",""trial"",""time""
""fullscreenenter"",""0"",""5127""
","
","793","run_exp/static/images/Set 6_rs/112a.jpg","86","","","","","","learn","SR",""
"","show_choice","74","108466","0.0-74.0","""event"",""trial"",""time""
""fullscreenenter"",""0"",""5127""
""blur"",""2"",""8317""
""focus"",""3"",""48244""
","""event"",""trial"",""time""
""blur"",""2"",""8317""
","""event"",""trial"",""time""
""focus"",""3"",""48244""
","""event"",""trial"",""time""
""fullscreenenter"",""0"",""5127""
","
","null","run_exp/static/images/Set 6_rs/112a.jpg","null","","","","","","learn","SR",""
"","html-keyboard-response","75","108967","0.0-75.0","""event"",""trial"",""time""
""fullscreenenter"",""0"",""5127""
""blur"",""2"",""8317""
""focus"",""3"",""48244""
","""event"",""trial"",""time""
""blur"",""2"",""8317""
","""event"",""trial"",""time""
""focus"",""3"",""48244""
","""event"",""trial"",""time""
""fullscreenenter"",""0"",""5127""
","
","null","<p></p>","null","","","","","","","",""
"","image","76","110523","0.0-76.0","""event"",""trial"",""time""
""fullscreenenter"",""0"",""5127""
""blur"",""2"",""8317""
""focus"",""3"",""48244""
","""event"",""trial"",""time""
""blur"",""2"",""8317""
","""event"",""trial"",""time""
""focus"",""3"",""48244""
","""event"",""trial"",""time""
""fullscreenenter"",""0"",""5127""
","
","1553.9000000003725","run_exp/static/images/Set 6_rs/187a.jpg","78","","","","","","learn","SR",""
"","show_choice","77","110973","0.0-77.0","""event"",""trial"",""time""
""fullscreenenter"",""0"",""5127""
""blur"",""2"",""8317""
""focus"",""3"",""48244""
","""event"",""trial"",""time""
""blur"",""2"",""8317""
","""event"",""trial"",""time""
""focus"",""3"",""48244""
","""event"",""trial"",""time""
""fullscreenenter"",""0"",""5127""
","
","null","run_exp/static/images/Set 6_rs/187a.jpg","null","","","","","","learn","SR",""
"","html-keyboard-response","78","111479","0.0-78.0","""event"",""trial"",""time""
""fullscreenenter"",""0"",""5127""
""blur"",""2"",""8317""
""focus"",""3"",""48244""
","""event"",""trial"",""time""
""blur"",""2"",""8317""
","""event"",""trial"",""time""
""focus"",""3"",""48244""
","""event"",""trial"",""time""
""fullscreenenter"",""0"",""5127""
","
","null","<p></p>","null","","","","","","","",""
"","image","79","112334","0.0-79.0","""event"",""trial"",""time""
""fullscreenenter"",""0"",""5127""
""blur"",""2"",""8317""
""focus"",""3"",""48244""
","""event"",""trial"",""time""
""blur"",""2"",""8317""
","""event"",""trial"",""time""
""focus"",""3"",""48244""
","""event"",""trial"",""time""
""fullscreenenter"",""0"",""5127""
","
","853.9000000003725","run_exp/static/images/Set 6_rs/007a.jpg","86","","","","","","learn","SR",""
"","show_choice","80","113482","0.0-80.0","""event"",""trial"",""time""
""fullscreenenter"",""0"",""5127""
""blur"",""2"",""8317""
""focus"",""3"",""48244""
","""event"",""trial"",""time""
""blur"",""2"",""8317""
","""event"",""trial"",""time""
""focus"",""3"",""48244""
","""event"",""trial"",""time""
""fullscreenenter"",""0"",""5127""
","
","null","run_exp/static/images/Set 6_rs/007a.jpg","null","","","","","","learn","SR",""
"","html-keyboard-response","81","113985","0.0-81.0","""event"",""trial"",""time""
""fullscreenenter"",""0"",""5127""
""blur"",""2"",""8317""
""focus"",""3"",""48244""
","""event"",""trial"",""time""
""blur"",""2"",""8317""
","""event"",""trial"",""time""
""focus"",""3"",""48244""
","""event"",""trial"",""time""
""fullscreenenter"",""0"",""5127""
","
","null","<p></p>","null","","","","","","","",""
"","image","82","115601","0.0-82.0","""event"",""trial"",""time""
""fullscreenenter"",""0"",""5127""
""blur"",""2"",""8317""
""focus"",""3"",""48244""
","""event"",""trial"",""time""
""blur"",""2"",""8317""
","""event"",""trial"",""time""
""focus"",""3"",""48244""
","""event"",""trial"",""time""
""fullscreenenter"",""0"",""5127""
","
","1614.800000000745","run_exp/static/images/Set 6_rs/121a.jpg","86","","","","","","learn","SR",""
"","show_choice","83","115992","0.0-83.0","""event"",""trial"",""time""
""fullscreenenter"",""0"",""5127""
""blur"",""2"",""8317""
""focus"",""3"",""48244""
","""event"",""trial"",""time""
""blur"",""2"",""8317""
","""event"",""trial"",""time""
""focus"",""3"",""48244""
","""event"",""trial"",""time""
""fullscreenenter"",""0"",""5127""
","
","null","run_exp/static/images/Set 6_rs/121a.jpg","null","","","","","","learn","SR",""
"","html-keyboard-response","84","116498","0.0-84.0","""event"",""trial"",""time""
""fullscreenenter"",""0"",""5127""
""blur"",""2"",""8317""
""focus"",""3"",""48244""
","""event"",""trial"",""time""
""blur"",""2"",""8317""
","""event"",""trial"",""time""
""focus"",""3"",""48244""
","""event"",""trial"",""time""
""fullscreenenter"",""0"",""5127""
","
","null","<p></p>","null","","","","","","","",""
"","image","85","117400","0.0-85.0","""event"",""trial"",""time""
""fullscreenenter"",""0"",""5127""
""blur"",""2"",""8317""
""focus"",""3"",""48244""
","""event"",""trial"",""time""
""blur"",""2"",""8317""
","""event"",""trial"",""time""
""focus"",""3"",""48244""
","""event"",""trial"",""time""
""fullscreenenter"",""0"",""5127""
","
","900.5","run_exp/static/images/Set 6_rs/057a.jpg","86","","","","","","learn","SL",""
"","show_choice","86","118502","0.0-86.0","""event"",""trial"",""time""
""fullscreenenter"",""0"",""5127""
""blur"",""2"",""8317""
""focus"",""3"",""48244""
","""event"",""trial"",""time""
""blur"",""2"",""8317""
","""event"",""trial"",""time""
""focus"",""3"",""48244""
","""event"",""trial"",""time""
""fullscreenenter"",""0"",""5127""
","
","null","run_exp/static/images/Set 6_rs/057a.jpg","null","","","","","","learn","SL",""
"","html-keyboard-response","87","119004","0.0-87.0","""event"",""trial"",""time""
""fullscreenenter"",""0"",""5127""
""blur"",""2"",""8317""
""focus"",""3"",""48244""
","""event"",""trial"",""time""
""blur"",""2"",""8317""
","""event"",""trial"",""time""
""focus"",""3"",""48244""
","""event"",""trial"",""time""
""fullscreenenter"",""0"",""5127""
","
","null","<p></p>","null","","","","","","","",""
"","image","88","120419","0.0-88.0","""event"",""trial"",""time""
""fullscreenenter"",""0"",""5127""
""blur"",""2"",""8317""
""focus"",""3"",""48244""
","""event"",""trial"",""time""
""blur"",""2"",""8317""
","""event"",""trial"",""time""
""focus"",""3"",""48244""
","""event"",""trial"",""time""
""fullscreenenter"",""0"",""5127""
","
","1414.0999999996275","run_exp/static/images/Set 6_rs/132a.jpg","78","","","","","","learn","SR",""
"","show_choice","89","121008","0.0-89.0","""event"",""trial"",""time""
""fullscreenenter"",""0"",""5127""
""blur"",""2"",""8317""
""focus"",""3"",""48244""
","""event"",""trial"",""time""
""blur"",""2"",""8317""
","""event"",""trial"",""time""
""focus"",""3"",""48244""
","""event"",""trial"",""time""
""fullscreenenter"",""0"",""5127""
","
","null","run_exp/static/images/Set 6_rs/132a.jpg","null","","","","","","learn","SR",""
"","html-keyboard-response","90","121512","0.0-90.0","""event"",""trial"",""time""
""fullscreenenter"",""0"",""5127""
""blur"",""2"",""8317""
""focus"",""3"",""48244""
","""event"",""trial"",""time""
""blur"",""2"",""8317""
","""event"",""trial"",""time""
""focus"",""3"",""48244""
","""event"",""trial"",""time""
""fullscreenenter"",""0"",""5127""
","
","null","<p></p>","null","","","","","","","",""
"","image","91","122470","0.0-91.0","""event"",""trial"",""time""
""fullscreenenter"",""0"",""5127""
""blur"",""2"",""8317""
""focus"",""3"",""48244""
","""event"",""trial"",""time""
""blur"",""2"",""8317""
","""event"",""trial"",""time""
""focus"",""3"",""48244""
","""event"",""trial"",""time""
""fullscreenenter"",""0"",""5127""
","
","956.5999999996275","run_exp/static/images/Set 6_rs/036a.jpg","86","","","","","","learn","SL",""
"","show_choice","92","123519","0.0-92.0","""event"",""trial"",""time""
""fullscreenenter"",""0"",""5127""
""blur"",""2"",""8317""
""focus"",""3"",""48244""
","""event"",""trial"",""time""
""blur"",""2"",""8317""
","""event"",""trial"",""time""
""focus"",""3"",""48244""
","""event"",""trial"",""time""
""fullscreenenter"",""0"",""5127""
","
","null","run_exp/static/images/Set 6_rs/036a.jpg","null","","","","","","learn","SL",""
"","html-keyboard-response","93","124022","0.0-93.0","""event"",""trial"",""time""
""fullscreenenter"",""0"",""5127""
""blur"",""2"",""8317""
""focus"",""3"",""48244""
","""event"",""trial"",""time""
""blur"",""2"",""8317""
","""event"",""trial"",""time""
""focus"",""3"",""48244""
","""event"",""trial"",""time""
""fullscreenenter"",""0"",""5127""
","
","null","<p></p>","null","","","","","","","",""
"","image","94","125227","0.0-94.0","""event"",""trial"",""time""
""fullscreenenter"",""0"",""5127""
""blur"",""2"",""8317""
""focus"",""3"",""48244""
","""event"",""trial"",""time""
""blur"",""2"",""8317""
","""event"",""trial"",""time""
""focus"",""3"",""48244""
","""event"",""trial"",""time""
""fullscreenenter"",""0"",""5127""
","
","1203","run_exp/static/images/Set 6_rs/064a.jpg","78","","","","","","learn","SR",""
"","show_choice","95","126030","0.0-95.0","""event"",""trial"",""time""
""fullscreenenter"",""0"",""5127""
""blur"",""2"",""8317""
""focus"",""3"",""48244""
","""event"",""trial"",""time""
""blur"",""2"",""8317""
","""event"",""trial"",""time""
""focus"",""3"",""48244""
","""event"",""trial"",""time""
""fullscreenenter"",""0"",""5127""
","
","null","run_exp/static/images/Set 6_rs/064a.jpg","null","","","","","","learn","SR",""
"","html-keyboard-response","96","126536","0.0-96.0","""event"",""trial"",""time""
""fullscreenenter"",""0"",""5127""
""blur"",""2"",""8317""
""focus"",""3"",""48244""
","""event"",""trial"",""time""
""blur"",""2"",""8317""
","""event"",""trial"",""time""
""focus"",""3"",""48244""
","""event"",""trial"",""time""
""fullscreenenter"",""0"",""5127""
","
","null","<p></p>","null","","","","","","","",""
"","image","97","127801","0.0-97.0","""event"",""trial"",""time""
""fullscreenenter"",""0"",""5127""
""blur"",""2"",""8317""
""focus"",""3"",""48244""
","""event"",""trial"",""time""
""blur"",""2"",""8317""
","""event"",""trial"",""time""
""focus"",""3"",""48244""
","""event"",""trial"",""time""
""fullscreenenter"",""0"",""5127""
","
","1264.300000000745","run_exp/static/images/Set 6_rs/063a.jpg","86","","","","","","learn","SR",""
"","show_choice","98","128539","0.0-98.0","""event"",""trial"",""time""
""fullscreenenter"",""0"",""5127""
""blur"",""2"",""8317""
""focus"",""3"",""48244""
","""event"",""trial"",""time""
""blur"",""2"",""8317""
","""event"",""trial"",""time""
""focus"",""3"",""48244""
","""event"",""trial"",""time""
""fullscreenenter"",""0"",""5127""
","
","null","run_exp/static/images/Set 6_rs/063a.jpg","null","","","","","","learn","SR",""
"","html-keyboard-response","99","129043","0.0-99.0","""event"",""trial"",""time""
""fullscreenenter"",""0"",""5127""
""blur"",""2"",""8317""
""focus"",""3"",""48244""
","""event"",""trial"",""time""
""blur"",""2"",""8317""
","""event"",""trial"",""time""
""focus"",""3"",""48244""
","""event"",""trial"",""time""
""fullscreenenter"",""0"",""5127""
","
","null","<p></p>","null","","","","","","","",""
"","image","100","130022","0.0-100.0","""event"",""trial"",""time""
""fullscreenenter"",""0"",""5127""
""blur"",""2"",""8317""
""focus"",""3"",""48244""
","""event"",""trial"",""time""
""blur"",""2"",""8317""
","""event"",""trial"",""time""
""focus"",""3"",""48244""
","""event"",""trial"",""time""
""fullscreenenter"",""0"",""5127""
","
","977.9000000003725","run_exp/static/images/Set 6_rs/178a.jpg","78","","","","","","learn","SR",""
"","show_choice","101","131050","0.0-101.0","""event"",""trial"",""time""
""fullscreenenter"",""0"",""5127""
""blur"",""2"",""8317""
""focus"",""3"",""48244""
","""event"",""trial"",""time""
""blur"",""2"",""8317""
","""event"",""trial"",""time""
""focus"",""3"",""48244""
","""event"",""trial"",""time""
""fullscreenenter"",""0"",""5127""
","
","null","run_exp/static/images/Set 6_rs/178a.jpg","null","","","","","","learn","SR",""
"","html-keyboard-response","102","131554","0.0-102.0","""event"",""trial"",""time""
""fullscreenenter"",""0"",""5127""
""blur"",""2"",""8317""
""focus"",""3"",""48244""
","""event"",""trial"",""time""
""blur"",""2"",""8317""
","""event"",""trial"",""time""
""focus"",""3"",""48244""
","""event"",""trial"",""time""
""fullscreenenter"",""0"",""5127""
","
","null","<p></p>","null","","","","","","","",""
"","image","103","132369","0.0-103.0","""event"",""trial"",""time""
""fullscreenenter"",""0"",""5127""
""blur"",""2"",""8317""
""focus"",""3"",""48244""
","""event"",""trial"",""time""
""blur"",""2"",""8317""
","""event"",""trial"",""time""
""focus"",""3"",""48244""
","""event"",""trial"",""time""
""fullscreenenter"",""0"",""5127""
","
","814.0999999996275","run_exp/static/images/Set 6_rs/079a.jpg","86","","","","","","learn","SL",""
"","show_choice","104","133560","0.0-104.0","""event"",""trial"",""time""
""fullscreenenter"",""0"",""5127""
""blur"",""2"",""8317""
""focus"",""3"",""48244""
","""event"",""trial"",""time""
""blur"",""2"",""8317""
","""event"",""trial"",""time""
""focus"",""3"",""48244""
","""event"",""trial"",""time""
""fullscreenenter"",""0"",""5127""
","
","null","run_exp/static/images/Set 6_rs/079a.jpg","null","","","","","","learn","SL",""
"","html-keyboard-response","105","134062","0.0-105.0","""event"",""trial"",""time""
""fullscreenenter"",""0"",""5127""
""blur"",""2"",""8317""
""focus"",""3"",""48244""
","""event"",""trial"",""time""
""blur"",""2"",""8317""
","""event"",""trial"",""time""
""focus"",""3"",""48244""
","""event"",""trial"",""time""
""fullscreenenter"",""0"",""5127""
","
","null","<p></p>","null","","","","","","","",""
"","image","106","134910","0.0-106.0","""event"",""trial"",""time""
""fullscreenenter"",""0"",""5127""
""blur"",""2"",""8317""
""focus"",""3"",""48244""
","""event"",""trial"",""time""
""blur"",""2"",""8317""
","""event"",""trial"",""time""
""focus"",""3"",""48244""
","""event"",""trial"",""time""
""fullscreenenter"",""0"",""5127""
","
","846.3999999985099","run_exp/static/images/Set 6_rs/177a.jpg","78","","","","","","learn","SR",""
"","show_choice","107","136069","0.0-107.0","""event"",""trial"",""time""
""fullscreenenter"",""0"",""5127""
""blur"",""2"",""8317""
""focus"",""3"",""48244""
","""event"",""trial"",""time""
""blur"",""2"",""8317""
","""event"",""trial"",""time""
""focus"",""3"",""48244""
","""event"",""trial"",""time""
""fullscreenenter"",""0"",""5127""
","
","null","run_exp/static/images/Set 6_rs/177a.jpg","null","","","","","","learn","SR",""
"","html-keyboard-response","108","136570","0.0-108.0","""event"",""trial"",""time""
""fullscreenenter"",""0"",""5127""
""blur"",""2"",""8317""
""focus"",""3"",""48244""
","""event"",""trial"",""time""
""blur"",""2"",""8317""
","""event"",""trial"",""time""
""focus"",""3"",""48244""
","""event"",""trial"",""time""
""fullscreenenter"",""0"",""5127""
","
","null","<p></p>","null","","","","","","","",""
"","image","109","137526","0.0-109.0","""event"",""trial"",""time""
""fullscreenenter"",""0"",""5127""
""blur"",""2"",""8317""
""focus"",""3"",""48244""
","""event"",""trial"",""time""
""blur"",""2"",""8317""
","""event"",""trial"",""time""
""focus"",""3"",""48244""
","""event"",""trial"",""time""
""fullscreenenter"",""0"",""5127""
","
","954.7999999988824","run_exp/static/images/Set 6_rs/062a.jpg","86","","","","","","learn","SL",""
"","show_choice","110","138574","0.0-110.0","""event"",""trial"",""time""
""fullscreenenter"",""0"",""5127""
""blur"",""2"",""8317""
""focus"",""3"",""48244""
","""event"",""trial"",""time""
""blur"",""2"",""8317""
","""event"",""trial"",""time""
""focus"",""3"",""48244""
","""event"",""trial"",""time""
""fullscreenenter"",""0"",""5127""
","
","null","run_exp/static/images/Set 6_rs/062a.jpg","null","","","","","","learn","SL",""
"","html-keyboard-response","111","139080","0.0-111.0","""event"",""trial"",""time""
""fullscreenenter"",""0"",""5127""
""blur"",""2"",""8317""
""focus"",""3"",""48244""
","""event"",""trial"",""time""
""blur"",""2"",""8317""
","""event"",""trial"",""time""
""focus"",""3"",""48244""
","""event"",""trial"",""time""
""fullscreenenter"",""0"",""5127""
","
","null","<p></p>","null","","","","","","","",""
"","image","112","140118","0.0-112.0","""event"",""trial"",""time""
""fullscreenenter"",""0"",""5127""
""blur"",""2"",""8317""
""focus"",""3"",""48244""
","""event"",""trial"",""time""
""blur"",""2"",""8317""
","""event"",""trial"",""time""
""focus"",""3"",""48244""
","""event"",""trial"",""time""
""fullscreenenter"",""0"",""5127""
","
","1037.4000000003725","run_exp/static/images/Set 6_rs/168a.jpg","86","","","","","","learn","SL",""
"","show_choice","113","141086","0.0-113.0","""event"",""trial"",""time""
""fullscreenenter"",""0"",""5127""
""blur"",""2"",""8317""
""focus"",""3"",""48244""
","""event"",""trial"",""time""
""blur"",""2"",""8317""
","""event"",""trial"",""time""
""focus"",""3"",""48244""
","""event"",""trial"",""time""
""fullscreenenter"",""0"",""5127""
","
","null","run_exp/static/images/Set 6_rs/168a.jpg","null","","","","","","learn","SL",""
"","html-keyboard-response","114","141592","0.0-114.0","""event"",""trial"",""time""
""fullscreenenter"",""0"",""5127""
""blur"",""2"",""8317""
""focus"",""3"",""48244""
","""event"",""trial"",""time""
""blur"",""2"",""8317""
","""event"",""trial"",""time""
""focus"",""3"",""48244""
","""event"",""trial"",""time""
""fullscreenenter"",""0"",""5127""
","
","null","<p></p>","null","","","","","","","",""
"","image","115","143522","0.0-115.0","""event"",""trial"",""time""
""fullscreenenter"",""0"",""5127""
""blur"",""2"",""8317""
""focus"",""3"",""48244""
","""event"",""trial"",""time""
""blur"",""2"",""8317""
","""event"",""trial"",""time""
""focus"",""3"",""48244""
","""event"",""trial"",""time""
""fullscreenenter"",""0"",""5127""
","
","1929.0999999996275","run_exp/static/images/Set 6_rs/191a.jpg","78","","","","","","learn","SL",""
"","show_choice","116","143594","0.0-116.0","""event"",""trial"",""time""
""fullscreenenter"",""0"",""5127""
""blur"",""2"",""8317""
""focus"",""3"",""48244""
","""event"",""trial"",""time""
""blur"",""2"",""8317""
","""event"",""trial"",""time""
""focus"",""3"",""48244""
","""event"",""trial"",""time""
""fullscreenenter"",""0"",""5127""
","
","null","run_exp/static/images/Set 6_rs/191a.jpg","null","","","","","","learn","SL",""
"","html-keyboard-response","117","144094","0.0-117.0","""event"",""trial"",""time""
""fullscreenenter"",""0"",""5127""
""blur"",""2"",""8317""
""focus"",""3"",""48244""
","""event"",""trial"",""time""
""blur"",""2"",""8317""
","""event"",""trial"",""time""
""focus"",""3"",""48244""
","""event"",""trial"",""time""
""fullscreenenter"",""0"",""5127""
","
","null","<p></p>","null","","","","","","","",""
"","image","118","146100","0.0-118.0","""event"",""trial"",""time""
""fullscreenenter"",""0"",""5127""
""blur"",""2"",""8317""
""focus"",""3"",""48244""
","""event"",""trial"",""time""
""blur"",""2"",""8317""
","""event"",""trial"",""time""
""focus"",""3"",""48244""
","""event"",""trial"",""time""
""fullscreenenter"",""0"",""5127""
","
","null","run_exp/static/images/Set 6_rs/085a.jpg","null","","","","","","learn","SL",""
"","show_choice","119","148104","0.0-119.0","""event"",""trial"",""time""
""fullscreenenter"",""0"",""5127""
""blur"",""2"",""8317""
""focus"",""3"",""48244""
","""event"",""trial"",""time""
""blur"",""2"",""8317""
","""event"",""trial"",""time""
""focus"",""3"",""48244""
","""event"",""trial"",""time""
""fullscreenenter"",""0"",""5127""
","
","null","run_exp/static/images/blank.png","null","","","","","","learn","SL",""
"","html-keyboard-response","120","148610","0.0-120.0","""event"",""trial"",""time""
""fullscreenenter"",""0"",""5127""
""blur"",""2"",""8317""
""focus"",""3"",""48244""
","""event"",""trial"",""time""
""blur"",""2"",""8317""
","""event"",""trial"",""time""
""focus"",""3"",""48244""
","""event"",""trial"",""time""
""fullscreenenter"",""0"",""5127""
","
","null","<p></p>","null","","","","","","","",""
"","image","121","149351","0.0-121.0","""event"",""trial"",""time""
""fullscreenenter"",""0"",""5127""
""blur"",""2"",""8317""
""focus"",""3"",""48244""
","""event"",""trial"",""time""
""blur"",""2"",""8317""
","""event"",""trial"",""time""
""focus"",""3"",""48244""
","""event"",""trial"",""time""
""fullscreenenter"",""0"",""5127""
","
","739.8000000007451","run_exp/static/images/Set 6_rs/129a.jpg","86","","","","","","learn","SL",""
"","show_choice","122","150617","0.0-122.0","""event"",""trial"",""time""
""fullscreenenter"",""0"",""5127""
""blur"",""2"",""8317""
""focus"",""3"",""48244""
","""event"",""trial"",""time""
""blur"",""2"",""8317""
","""event"",""trial"",""time""
""focus"",""3"",""48244""
","""event"",""trial"",""time""
""fullscreenenter"",""0"",""5127""
","
","null","run_exp/static/images/Set 6_rs/129a.jpg","null","","","","","","learn","SL",""
"","html-keyboard-response","123","151123","0.0-123.0","""event"",""trial"",""time""
""fullscreenenter"",""0"",""5127""
""blur"",""2"",""8317""
""focus"",""3"",""48244""
","""event"",""trial"",""time""
""blur"",""2"",""8317""
","""event"",""trial"",""time""
""focus"",""3"",""48244""
","""event"",""trial"",""time""
""fullscreenenter"",""0"",""5127""
","
","null","<p></p>","null","","","","","","","",""
"","image","124","152109","0.0-124.0","""event"",""trial"",""time""
""fullscreenenter"",""0"",""5127""
""blur"",""2"",""8317""
""focus"",""3"",""48244""
","""event"",""trial"",""time""
""blur"",""2"",""8317""
","""event"",""trial"",""time""
""focus"",""3"",""48244""
","""event"",""trial"",""time""
""fullscreenenter"",""0"",""5127""
","
","985.6000000014901","run_exp/static/images/Set 6_rs/091a.jpg","78","","","","","","learn","SL",""
"","show_choice","125","153127","0.0-125.0","""event"",""trial"",""time""
""fullscreenenter"",""0"",""5127""
""blur"",""2"",""8317""
""focus"",""3"",""48244""
","""event"",""trial"",""time""
""blur"",""2"",""8317""
","""event"",""trial"",""time""
""focus"",""3"",""48244""
","""event"",""trial"",""time""
""fullscreenenter"",""0"",""5127""
","
","null","run_exp/static/images/Set 6_rs/091a.jpg","null","","","","","","learn","SL",""
"","html-keyboard-response","126","153633","0.0-126.0","""event"",""trial"",""time""
""fullscreenenter"",""0"",""5127""
""blur"",""2"",""8317""
""focus"",""3"",""48244""
","""event"",""trial"",""time""
""blur"",""2"",""8317""
","""event"",""trial"",""time""
""focus"",""3"",""48244""
","""event"",""trial"",""time""
""fullscreenenter"",""0"",""5127""
","
","null","<p></p>","null","","","","","","","",""
"","image","127","154661","0.0-127.0","""event"",""trial"",""time""
""fullscreenenter"",""0"",""5127""
""blur"",""2"",""8317""
""focus"",""3"",""48244""
","""event"",""trial"",""time""
""blur"",""2"",""8317""
","""event"",""trial"",""time""
""focus"",""3"",""48244""
","""event"",""trial"",""time""
""fullscreenenter"",""0"",""5127""
","
","1026.5999999996275","run_exp/static/images/Set 6_rs/141a.jpg","78","","","","","","learn","SR",""
"","show_choice","128","155640","0.0-128.0","""event"",""trial"",""time""
""fullscreenenter"",""0"",""5127""
""blur"",""2"",""8317""
""focus"",""3"",""48244""
","""event"",""trial"",""time""
""blur"",""2"",""8317""
","""event"",""trial"",""time""
""focus"",""3"",""48244""
","""event"",""trial"",""time""
""fullscreenenter"",""0"",""5127""
","
","null","run_exp/static/images/Set 6_rs/141a.jpg","null","","","","","","learn","SR",""
"","html-keyboard-response","129","156141","0.0-129.0","""event"",""trial"",""time""
""fullscreenenter"",""0"",""5127""
""blur"",""2"",""8317""
""focus"",""3"",""48244""
","""event"",""trial"",""time""
""blur"",""2"",""8317""
","""event"",""trial"",""time""
""focus"",""3"",""48244""
","""event"",""trial"",""time""
""fullscreenenter"",""0"",""5127""
","
","null","<p></p>","null","","","","","","","",""
"","image","130","156843","0.0-130.0","""event"",""trial"",""time""
""fullscreenenter"",""0"",""5127""
""blur"",""2"",""8317""
""focus"",""3"",""48244""
","""event"",""trial"",""time""
""blur"",""2"",""8317""
","""event"",""trial"",""time""
""focus"",""3"",""48244""
","""event"",""trial"",""time""
""fullscreenenter"",""0"",""5127""
","
","699.9000000003725","run_exp/static/images/Set 6_rs/061a.jpg","78","","","","","","learn","SR",""
"","show_choice","131","158149","0.0-131.0","""event"",""trial"",""time""
""fullscreenenter"",""0"",""5127""
""blur"",""2"",""8317""
""focus"",""3"",""48244""
","""event"",""trial"",""time""
""blur"",""2"",""8317""
","""event"",""trial"",""time""
""focus"",""3"",""48244""
","""event"",""trial"",""time""
""fullscreenenter"",""0"",""5127""
","
","null","run_exp/static/images/Set 6_rs/061a.jpg","null","","","","","","learn","SR",""
"","html-keyboard-response","132","158654","0.0-132.0","""event"",""trial"",""time""
""fullscreenenter"",""0"",""5127""
""blur"",""2"",""8317""
""focus"",""3"",""48244""
","""event"",""trial"",""time""
""blur"",""2"",""8317""
","""event"",""trial"",""time""
""focus"",""3"",""48244""
","""event"",""trial"",""time""
""fullscreenenter"",""0"",""5127""
","
","null","<p></p>","null","","","","","","","",""
"","image","133","159340","0.0-133.0","""event"",""trial"",""time""
""fullscreenenter"",""0"",""5127""
""blur"",""2"",""8317""
""focus"",""3"",""48244""
","""event"",""trial"",""time""
""blur"",""2"",""8317""
","""event"",""trial"",""time""
""focus"",""3"",""48244""
","""event"",""trial"",""time""
""fullscreenenter"",""0"",""5127""
","
","685.6000000014901","run_exp/static/images/Set 6_rs/070a.jpg","86","","","","","","learn","SR",""
"","show_choice","134","160661","0.0-134.0","""event"",""trial"",""time""
""fullscreenenter"",""0"",""5127""
""blur"",""2"",""8317""
""focus"",""3"",""48244""
","""event"",""trial"",""time""
""blur"",""2"",""8317""
","""event"",""trial"",""time""
""focus"",""3"",""48244""
","""event"",""trial"",""time""
""fullscreenenter"",""0"",""5127""
","
","null","run_exp/static/images/Set 6_rs/070a.jpg","null","","","","","","learn","SR",""
"","html-keyboard-response","135","161166","0.0-135.0","""event"",""trial"",""time""
""fullscreenenter"",""0"",""5127""
""blur"",""2"",""8317""
""focus"",""3"",""48244""
","""event"",""trial"",""time""
""blur"",""2"",""8317""
","""event"",""trial"",""time""
""focus"",""3"",""48244""
","""event"",""trial"",""time""
""fullscreenenter"",""0"",""5127""
","
","null","<p></p>","null","","","","","","","",""
"","image","136","161870","0.0-136.0","""event"",""trial"",""time""
""fullscreenenter"",""0"",""5127""
""blur"",""2"",""8317""
""focus"",""3"",""48244""
","""event"",""trial"",""time""
""blur"",""2"",""8317""
","""event"",""trial"",""time""
""focus"",""3"",""48244""
","""event"",""trial"",""time""
""fullscreenenter"",""0"",""5127""
","
","703.5","run_exp/static/images/Set 6_rs/023a.jpg","86","","","","","","learn","SR",""
"","show_choice","137","163172","0.0-137.0","""event"",""trial"",""time""
""fullscreenenter"",""0"",""5127""
""blur"",""2"",""8317""
""focus"",""3"",""48244""
","""event"",""trial"",""time""
""blur"",""2"",""8317""
","""event"",""trial"",""time""
""focus"",""3"",""48244""
","""event"",""trial"",""time""
""fullscreenenter"",""0"",""5127""
","
","null","run_exp/static/images/Set 6_rs/023a.jpg","null","","","","","","learn","SR",""
"","html-keyboard-response","138","163677","0.0-138.0","""event"",""trial"",""time""
""fullscreenenter"",""0"",""5127""
""blur"",""2"",""8317""
""focus"",""3"",""48244""
","""event"",""trial"",""time""
""blur"",""2"",""8317""
","""event"",""trial"",""time""
""focus"",""3"",""48244""
","""event"",""trial"",""time""
""fullscreenenter"",""0"",""5127""
","
","null","<p></p>","null","","","","","","","",""
"","image","139","164603","0.0-139.0","""event"",""trial"",""time""
""fullscreenenter"",""0"",""5127""
""blur"",""2"",""8317""
""focus"",""3"",""48244""
","""event"",""trial"",""time""
""blur"",""2"",""8317""
","""event"",""trial"",""time""
""focus"",""3"",""48244""
","""event"",""trial"",""time""
""fullscreenenter"",""0"",""5127""
","
","924.2999999988824","run_exp/static/images/Set 6_rs/016a.jpg","86","","","","","","learn","SL",""
"","show_choice","140","165681","0.0-140.0","""event"",""trial"",""time""
""fullscreenenter"",""0"",""5127""
""blur"",""2"",""8317""
""focus"",""3"",""48244""
","""event"",""trial"",""time""
""blur"",""2"",""8317""
","""event"",""trial"",""time""
""focus"",""3"",""48244""
","""event"",""trial"",""time""
""fullscreenenter"",""0"",""5127""
","
","null","run_exp/static/images/Set 6_rs/016a.jpg","null","","","","","","learn","SL",""
"","html-keyboard-response","141","166185","0.0-141.0","""event"",""trial"",""time""
""fullscreenenter"",""0"",""5127""
""blur"",""2"",""8317""
""focus"",""3"",""48244""
","""event"",""trial"",""time""
""blur"",""2"",""8317""
","""event"",""trial"",""time""
""focus"",""3"",""48244""
","""event"",""trial"",""time""
""fullscreenenter"",""0"",""5127""
","
","null","<p></p>","null","","","","","","","",""
"","image","142","166856","0.0-142.0","""event"",""trial"",""time""
""fullscreenenter"",""0"",""5127""
""blur"",""2"",""8317""
""focus"",""3"",""48244""
","""event"",""trial"",""time""
""blur"",""2"",""8317""
","""event"",""trial"",""time""
""focus"",""3"",""48244""
","""event"",""trial"",""time""
""fullscreenenter"",""0"",""5127""
","
","669.5","run_exp/static/images/Set 6_rs/126a.jpg","78","","","","","","learn","SR",""
"","show_choice","143","168192","0.0-143.0","""event"",""trial"",""time""
""fullscreenenter"",""0"",""5127""
""blur"",""2"",""8317""
""focus"",""3"",""48244""
","""event"",""trial"",""time""
""blur"",""2"",""8317""
","""event"",""trial"",""time""
""focus"",""3"",""48244""
","""event"",""trial"",""time""
""fullscreenenter"",""0"",""5127""
","
","null","run_exp/static/images/Set 6_rs/126a.jpg","null","","","","","","learn","SR",""
"","html-keyboard-response","144","168697","0.0-144.0","""event"",""trial"",""time""
""fullscreenenter"",""0"",""5127""
""blur"",""2"",""8317""
""focus"",""3"",""48244""
","""event"",""trial"",""time""
""blur"",""2"",""8317""
","""event"",""trial"",""time""
""focus"",""3"",""48244""
","""event"",""trial"",""time""
""fullscreenenter"",""0"",""5127""
","
","null","<p></p>","null","","","","","","","",""
"","image","145","169433","0.0-145.0","""event"",""trial"",""time""
""fullscreenenter"",""0"",""5127""
""blur"",""2"",""8317""
""focus"",""3"",""48244""
","""event"",""trial"",""time""
""blur"",""2"",""8317""
","""event"",""trial"",""time""
""focus"",""3"",""48244""
","""event"",""trial"",""time""
""fullscreenenter"",""0"",""5127""
","
","734.5","run_exp/static/images/Set 6_rs/169a.jpg","78","","","","","","learn","SR",""
"","show_choice","146","170704","0.0-146.0","""event"",""trial"",""time""
""fullscreenenter"",""0"",""5127""
""blur"",""2"",""8317""
""focus"",""3"",""48244""
","""event"",""trial"",""time""
""blur"",""2"",""8317""
","""event"",""trial"",""time""
""focus"",""3"",""48244""
","""event"",""trial"",""time""
""fullscreenenter"",""0"",""5127""
","
","null","run_exp/static/images/Set 6_rs/169a.jpg","null","","","","","","learn","SR",""
"","html-keyboard-response","147","171207","0.0-147.0","""event"",""trial"",""time""
""fullscreenenter"",""0"",""5127""
""blur"",""2"",""8317""
""focus"",""3"",""48244""
","""event"",""trial"",""time""
""blur"",""2"",""8317""
","""event"",""trial"",""time""
""focus"",""3"",""48244""
","""event"",""trial"",""time""
""fullscreenenter"",""0"",""5127""
","
","null","<p></p>","null","","","","","","","",""
"","image","148","172401","0.0-148.0","""event"",""trial"",""time""
""fullscreenenter"",""0"",""5127""
""blur"",""2"",""8317""
""focus"",""3"",""48244""
","""event"",""trial"",""time""
""blur"",""2"",""8317""
","""event"",""trial"",""time""
""focus"",""3"",""48244""
","""event"",""trial"",""time""
""fullscreenenter"",""0"",""5127""
","
","1192.5","run_exp/static/images/Set 6_rs/025a.jpg","78","","","","","","learn","SL",""
"","show_choice","149","173214","0.0-149.0","""event"",""trial"",""time""
""fullscreenenter"",""0"",""5127""
""blur"",""2"",""8317""
""focus"",""3"",""48244""
","""event"",""trial"",""time""
""blur"",""2"",""8317""
","""event"",""trial"",""time""
""focus"",""3"",""48244""
","""event"",""trial"",""time""
""fullscreenenter"",""0"",""5127""
","
","null","run_exp/static/images/Set 6_rs/025a.jpg","null","","","","","","learn","SL",""
"","html-keyboard-response","150","173720","0.0-150.0","""event"",""trial"",""time""
""fullscreenenter"",""0"",""5127""
""blur"",""2"",""8317""
""focus"",""3"",""48244""
","""event"",""trial"",""time""
""blur"",""2"",""8317""
","""event"",""trial"",""time""
""focus"",""3"",""48244""
","""event"",""trial"",""time""
""fullscreenenter"",""0"",""5127""
","
","null","<p></p>","null","","","","","","","",""
"","image","151","174468","0.0-151.0","""event"",""trial"",""time""
""fullscreenenter"",""0"",""5127""
""blur"",""2"",""8317""
""focus"",""3"",""48244""
","""event"",""trial"",""time""
""blur"",""2"",""8317""
","""event"",""trial"",""time""
""focus"",""3"",""48244""
","""event"",""trial"",""time""
""fullscreenenter"",""0"",""5127""
","
","747.7000000011176","run_exp/static/images/Set 6_rs/186a.jpg","86","","","","","","learn","SR",""
"","show_choice","152","175725","0.0-152.0","""event"",""trial"",""time""
""fullscreenenter"",""0"",""5127""
""blur"",""2"",""8317""
""focus"",""3"",""48244""
","""event"",""trial"",""time""
""blur"",""2"",""8317""
","""event"",""trial"",""time""
""focus"",""3"",""48244""
","""event"",""trial"",""time""
""fullscreenenter"",""0"",""5127""
","
","null","run_exp/static/images/Set 6_rs/186a.jpg","null","","","","","","learn","SR",""
"","html-keyboard-response","153","176230","0.0-153.0","""event"",""trial"",""time""
""fullscreenenter"",""0"",""5127""
""blur"",""2"",""8317""
""focus"",""3"",""48244""
","""event"",""trial"",""time""
""blur"",""2"",""8317""
","""event"",""trial"",""time""
""focus"",""3"",""48244""
","""event"",""trial"",""time""
""fullscreenenter"",""0"",""5127""
","
","null","<p></p>","null","","","","","","","",""
"","image","154","177148","0.0-154.0","""event"",""trial"",""time""
""fullscreenenter"",""0"",""5127""
""blur"",""2"",""8317""
""focus"",""3"",""48244""
","""event"",""trial"",""time""
""blur"",""2"",""8317""
","""event"",""trial"",""time""
""focus"",""3"",""48244""
","""event"",""trial"",""time""
""fullscreenenter"",""0"",""5127""
","
","916.2999999988824","run_exp/static/images/Set 6_rs/045a.jpg","86","","","","","","learn","SR",""
"","show_choice","155","178237","0.0-155.0","""event"",""trial"",""time""
""fullscreenenter"",""0"",""5127""
""blur"",""2"",""8317""
""focus"",""3"",""48244""
","""event"",""trial"",""time""
""blur"",""2"",""8317""
","""event"",""trial"",""time""
""focus"",""3"",""48244""
","""event"",""trial"",""time""
""fullscreenenter"",""0"",""5127""
","
","null","run_exp/static/images/Set 6_rs/045a.jpg","null","","","","","","learn","SR",""
"","html-keyboard-response","156","178739","0.0-156.0","""event"",""trial"",""time""
""fullscreenenter"",""0"",""5127""
""blur"",""2"",""8317""
""focus"",""3"",""48244""
","""event"",""trial"",""time""
""blur"",""2"",""8317""
","""event"",""trial"",""time""
""focus"",""3"",""48244""
","""event"",""trial"",""time""
""fullscreenenter"",""0"",""5127""
","
","null","<p></p>","null","","","","","","","",""
"","image","157","179414","0.0-157.0","""event"",""trial"",""time""
""fullscreenenter"",""0"",""5127""
""blur"",""2"",""8317""
""focus"",""3"",""48244""
","""event"",""trial"",""time""
""blur"",""2"",""8317""
","""event"",""trial"",""time""
""focus"",""3"",""48244""
","""event"",""trial"",""time""
""fullscreenenter"",""0"",""5127""
","
","673.8000000007451","run_exp/static/images/Set 6_rs/019a.jpg","86","","","","","","learn","SL",""
"","show_choice","158","180746","0.0-158.0","""event"",""trial"",""time""
""fullscreenenter"",""0"",""5127""
""blur"",""2"",""8317""
""focus"",""3"",""48244""
","""event"",""trial"",""time""
""blur"",""2"",""8317""
","""event"",""trial"",""time""
""focus"",""3"",""48244""
","""event"",""trial"",""time""
""fullscreenenter"",""0"",""5127""
","
","null","run_exp/static/images/Set 6_rs/019a.jpg","null","","","","","","learn","SL",""
"","html-keyboard-response","159","181251","0.0-159.0","""event"",""trial"",""time""
""fullscreenenter"",""0"",""5127""
""blur"",""2"",""8317""
""focus"",""3"",""48244""
","""event"",""trial"",""time""
""blur"",""2"",""8317""
","""event"",""trial"",""time""
""focus"",""3"",""48244""
","""event"",""trial"",""time""
""fullscreenenter"",""0"",""5127""
","
","null","<p></p>","null","","","","","","","",""
"","image","160","182380","0.0-160.0","""event"",""trial"",""time""
""fullscreenenter"",""0"",""5127""
""blur"",""2"",""8317""
""focus"",""3"",""48244""
","""event"",""trial"",""time""
""blur"",""2"",""8317""
","""event"",""trial"",""time""
""focus"",""3"",""48244""
","""event"",""trial"",""time""
""fullscreenenter"",""0"",""5127""
","
","1127.5","run_exp/static/images/Set 6_rs/152a.jpg","78","","","","","","learn","SR",""
"","show_choice","161","183253","0.0-161.0","""event"",""trial"",""time""
""fullscreenenter"",""0"",""5127""
""blur"",""2"",""8317""
""focus"",""3"",""48244""
","""event"",""trial"",""time""
""blur"",""2"",""8317""
","""event"",""trial"",""time""
""focus"",""3"",""48244""
","""event"",""trial"",""time""
""fullscreenenter"",""0"",""5127""
","
","null","run_exp/static/images/Set 6_rs/152a.jpg","null","","","","","","learn","SR",""
"","html-keyboard-response","162","183754","0.0-162.0","""event"",""trial"",""time""
""fullscreenenter"",""0"",""5127""
""blur"",""2"",""8317""
""focus"",""3"",""48244""
","""event"",""trial"",""time""
""blur"",""2"",""8317""
","""event"",""trial"",""time""
""focus"",""3"",""48244""
","""event"",""trial"",""time""
""fullscreenenter"",""0"",""5127""
","
","null","<p></p>","null","","","","","","","",""
"","image","163","184798","0.0-163.0","""event"",""trial"",""time""
""fullscreenenter"",""0"",""5127""
""blur"",""2"",""8317""
""focus"",""3"",""48244""
","""event"",""trial"",""time""
""blur"",""2"",""8317""
","""event"",""trial"",""time""
""focus"",""3"",""48244""
","""event"",""trial"",""time""
""fullscreenenter"",""0"",""5127""
","
","1042.5","run_exp/static/images/Set 6_rs/181a.jpg","78","","","","","","learn","SL",""
"","show_choice","164","185761","0.0-164.0","""event"",""trial"",""time""
""fullscreenenter"",""0"",""5127""
""blur"",""2"",""8317""
""focus"",""3"",""48244""
","""event"",""trial"",""time""
""blur"",""2"",""8317""
","""event"",""trial"",""time""
""focus"",""3"",""48244""
","""event"",""trial"",""time""
""fullscreenenter"",""0"",""5127""
","
","null","run_exp/static/images/Set 6_rs/181a.jpg","null","","","","","","learn","SL",""
"","html-keyboard-response","165","186267","0.0-165.0","""event"",""trial"",""time""
""fullscreenenter"",""0"",""5127""
""blur"",""2"",""8317""
""focus"",""3"",""48244""
","""event"",""trial"",""time""
""blur"",""2"",""8317""
","""event"",""trial"",""time""
""focus"",""3"",""48244""
","""event"",""trial"",""time""
""fullscreenenter"",""0"",""5127""
","
","null","<p></p>","null","","","","","","","",""
"","image","166","187035","0.0-166.0","""event"",""trial"",""time""
""fullscreenenter"",""0"",""5127""
""blur"",""2"",""8317""
""focus"",""3"",""48244""
","""event"",""trial"",""time""
""blur"",""2"",""8317""
","""event"",""trial"",""time""
""focus"",""3"",""48244""
","""event"",""trial"",""time""
""fullscreenenter"",""0"",""5127""
","
","766.5999999996275","run_exp/static/images/Set 6_rs/088a.jpg","86","","","","","","learn","SR",""
"","show_choice","167","188274","0.0-167.0","""event"",""trial"",""time""
""fullscreenenter"",""0"",""5127""
""blur"",""2"",""8317""
""focus"",""3"",""48244""
","""event"",""trial"",""time""
""blur"",""2"",""8317""
","""event"",""trial"",""time""
""focus"",""3"",""48244""
","""event"",""trial"",""time""
""fullscreenenter"",""0"",""5127""
","
","null","run_exp/static/images/Set 6_rs/088a.jpg","null","","","","","","learn","SR",""
"","html-keyboard-response","168","188780","0.0-168.0","""event"",""trial"",""time""
""fullscreenenter"",""0"",""5127""
""blur"",""2"",""8317""
""focus"",""3"",""48244""
","""event"",""trial"",""time""
""blur"",""2"",""8317""
","""event"",""trial"",""time""
""focus"",""3"",""48244""
","""event"",""trial"",""time""
""fullscreenenter"",""0"",""5127""
","
","null","<p></p>","null","","","","","","","",""
"","image","169","189926","0.0-169.0","""event"",""trial"",""time""
""fullscreenenter"",""0"",""5127""
""blur"",""2"",""8317""
""focus"",""3"",""48244""
","""event"",""trial"",""time""
""blur"",""2"",""8317""
","""event"",""trial"",""time""
""focus"",""3"",""48244""
","""event"",""trial"",""time""
""fullscreenenter"",""0"",""5127""
","
","1145.0999999996275","run_exp/static/images/Set 6_rs/095a.jpg","86","","","","","","learn","SL",""
"","show_choice","170","190786","0.0-170.0","""event"",""trial"",""time""
""fullscreenenter"",""0"",""5127""
""blur"",""2"",""8317""
""focus"",""3"",""48244""
","""event"",""trial"",""time""
""blur"",""2"",""8317""
","""event"",""trial"",""time""
""focus"",""3"",""48244""
","""event"",""trial"",""time""
""fullscreenenter"",""0"",""5127""
","
","null","run_exp/static/images/Set 6_rs/095a.jpg","null","","","","","","learn","SL",""
"","html-keyboard-response","171","191288","0.0-171.0","""event"",""trial"",""time""
""fullscreenenter"",""0"",""5127""
""blur"",""2"",""8317""
""focus"",""3"",""48244""
","""event"",""trial"",""time""
""blur"",""2"",""8317""
","""event"",""trial"",""time""
""focus"",""3"",""48244""
","""event"",""trial"",""time""
""fullscreenenter"",""0"",""5127""
","
","null","<p></p>","null","","","","","","","",""
"","image","172","192300","0.0-172.0","""event"",""trial"",""time""
""fullscreenenter"",""0"",""5127""
""blur"",""2"",""8317""
""focus"",""3"",""48244""
","""event"",""trial"",""time""
""blur"",""2"",""8317""
","""event"",""trial"",""time""
""focus"",""3"",""48244""
","""event"",""trial"",""time""
""fullscreenenter"",""0"",""5127""
","
","1011.5","run_exp/static/images/Set 6_rs/012a.jpg","86","","","","","","learn","SR",""
"","show_choice","173","193294","0.0-173.0","""event"",""trial"",""time""
""fullscreenenter"",""0"",""5127""
""blur"",""2"",""8317""
""focus"",""3"",""48244""
","""event"",""trial"",""time""
""blur"",""2"",""8317""
","""event"",""trial"",""time""
""focus"",""3"",""48244""
","""event"",""trial"",""time""
""fullscreenenter"",""0"",""5127""
","
","null","run_exp/static/images/Set 6_rs/012a.jpg","null","","","","","","learn","SR",""
"","html-keyboard-response","174","193795","0.0-174.0","""event"",""trial"",""time""
""fullscreenenter"",""0"",""5127""
""blur"",""2"",""8317""
""focus"",""3"",""48244""
","""event"",""trial"",""time""
""blur"",""2"",""8317""
","""event"",""trial"",""time""
""focus"",""3"",""48244""
","""event"",""trial"",""time""
""fullscreenenter"",""0"",""5127""
","
","null","<p></p>","null","","","","","","","",""
"","image","175","194965","0.0-175.0","""event"",""trial"",""time""
""fullscreenenter"",""0"",""5127""
""blur"",""2"",""8317""
""focus"",""3"",""48244""
","""event"",""trial"",""time""
""blur"",""2"",""8317""
","""event"",""trial"",""time""
""focus"",""3"",""48244""
","""event"",""trial"",""time""
""fullscreenenter"",""0"",""5127""
","
","1168.7999999988824","run_exp/static/images/Set 6_rs/050a.jpg","86","","","","","","learn","SL",""
"","show_choice","176","195803","0.0-176.0","""event"",""trial"",""time""
""fullscreenenter"",""0"",""5127""
""blur"",""2"",""8317""
""focus"",""3"",""48244""
","""event"",""trial"",""time""
""blur"",""2"",""8317""
","""event"",""trial"",""time""
""focus"",""3"",""48244""
","""event"",""trial"",""time""
""fullscreenenter"",""0"",""5127""
","
","null","run_exp/static/images/Set 6_rs/050a.jpg","null","","","","","","learn","SL",""
"","html-keyboard-response","177","196308","0.0-177.0","""event"",""trial"",""time""
""fullscreenenter"",""0"",""5127""
""blur"",""2"",""8317""
""focus"",""3"",""48244""
","""event"",""trial"",""time""
""blur"",""2"",""8317""
","""event"",""trial"",""time""
""focus"",""3"",""48244""
","""event"",""trial"",""time""
""fullscreenenter"",""0"",""5127""
","
","null","<p></p>","null","","","","","","","",""
"","image","178","197979","0.0-178.0","""event"",""trial"",""time""
""fullscreenenter"",""0"",""5127""
""blur"",""2"",""8317""
""focus"",""3"",""48244""
","""event"",""trial"",""time""
""blur"",""2"",""8317""
","""event"",""trial"",""time""
""focus"",""3"",""48244""
","""event"",""trial"",""time""
""fullscreenenter"",""0"",""5127""
","
","1669.9000000003725","run_exp/static/images/Set 6_rs/134a.jpg","78","","","","","","learn","SR",""
"","show_choice","179","198315","0.0-179.0","""event"",""trial"",""time""
""fullscreenenter"",""0"",""5127""
""blur"",""2"",""8317""
""focus"",""3"",""48244""
","""event"",""trial"",""time""
""blur"",""2"",""8317""
","""event"",""trial"",""time""
""focus"",""3"",""48244""
","""event"",""trial"",""time""
""fullscreenenter"",""0"",""5127""
","
","null","run_exp/static/images/Set 6_rs/134a.jpg","null","","","","","","learn","SR",""
"","html-keyboard-response","180","198821","0.0-180.0","""event"",""trial"",""time""
""fullscreenenter"",""0"",""5127""
""blur"",""2"",""8317""
""focus"",""3"",""48244""
","""event"",""trial"",""time""
""blur"",""2"",""8317""
","""event"",""trial"",""time""
""focus"",""3"",""48244""
","""event"",""trial"",""time""
""fullscreenenter"",""0"",""5127""
","
","null","<p></p>","null","","","","","","","",""
"","image","181","200565","0.0-181.0","""event"",""trial"",""time""
""fullscreenenter"",""0"",""5127""
""blur"",""2"",""8317""
""focus"",""3"",""48244""
","""event"",""trial"",""time""
""blur"",""2"",""8317""
","""event"",""trial"",""time""
""focus"",""3"",""48244""
","""event"",""trial"",""time""
""fullscreenenter"",""0"",""5127""
","
","1743.4000000003725","run_exp/static/images/Set 6_rs/166a.jpg","86","","","","","","learn","SR",""
"","show_choice","182","200823","0.0-182.0","""event"",""trial"",""time""
""fullscreenenter"",""0"",""5127""
""blur"",""2"",""8317""
""focus"",""3"",""48244""
","""event"",""trial"",""time""
""blur"",""2"",""8317""
","""event"",""trial"",""time""
""focus"",""3"",""48244""
","""event"",""trial"",""time""
""fullscreenenter"",""0"",""5127""
","
","null","run_exp/static/images/Set 6_rs/166a.jpg","null","","","","","","learn","SR",""
"","html-keyboard-response","183","201326","0.0-183.0","""event"",""trial"",""time""
""fullscreenenter"",""0"",""5127""
""blur"",""2"",""8317""
""focus"",""3"",""48244""
","""event"",""trial"",""time""
""blur"",""2"",""8317""
","""event"",""trial"",""time""
""focus"",""3"",""48244""
","""event"",""trial"",""time""
""fullscreenenter"",""0"",""5127""
","
","null","<p></p>","null","","","","","","","",""
"","image","184","203095","0.0-184.0","""event"",""trial"",""time""
""fullscreenenter"",""0"",""5127""
""blur"",""2"",""8317""
""focus"",""3"",""48244""
","""event"",""trial"",""time""
""blur"",""2"",""8317""
","""event"",""trial"",""time""
""focus"",""3"",""48244""
","""event"",""trial"",""time""
""fullscreenenter"",""0"",""5127""
","
","1768.300000000745","run_exp/static/images/Set 6_rs/017a.jpg","86","","","","","","learn","SL",""
"","show_choice","185","203328","0.0-185.0","""event"",""trial"",""time""
""fullscreenenter"",""0"",""5127""
""blur"",""2"",""8317""
""focus"",""3"",""48244""
","""event"",""trial"",""time""
""blur"",""2"",""8317""
","""event"",""trial"",""time""
""focus"",""3"",""48244""
","""event"",""trial"",""time""
""fullscreenenter"",""0"",""5127""
","
","null","run_exp/static/images/Set 6_rs/017a.jpg","null","","","","","","learn","SL",""
"","html-keyboard-response","186","203831","0.0-186.0","""event"",""trial"",""time""
""fullscreenenter"",""0"",""5127""
""blur"",""2"",""8317""
""focus"",""3"",""48244""
","""event"",""trial"",""time""
""blur"",""2"",""8317""
","""event"",""trial"",""time""
""focus"",""3"",""48244""
","""event"",""trial"",""time""
""fullscreenenter"",""0"",""5127""
","
","null","<p></p>","null","","","","","","","",""
"","image","187","204542","0.0-187.0","""event"",""trial"",""time""
""fullscreenenter"",""0"",""5127""
""blur"",""2"",""8317""
""focus"",""3"",""48244""
","""event"",""trial"",""time""
""blur"",""2"",""8317""
","""event"",""trial"",""time""
""focus"",""3"",""48244""
","""event"",""trial"",""time""
""fullscreenenter"",""0"",""5127""
","
","709.5999999996275","run_exp/static/images/Set 6_rs/172a.jpg","78","","","","","","learn","SR",""
"","show_choice","188","205833","0.0-188.0","""event"",""trial"",""time""
""fullscreenenter"",""0"",""5127""
""blur"",""2"",""8317""
""focus"",""3"",""48244""
","""event"",""trial"",""time""
""blur"",""2"",""8317""
","""event"",""trial"",""time""
""focus"",""3"",""48244""
","""event"",""trial"",""time""
""fullscreenenter"",""0"",""5127""
","
","null","run_exp/static/images/Set 6_rs/172a.jpg","null","","","","","","learn","SR",""
"","html-keyboard-response","189","206338","0.0-189.0","""event"",""trial"",""time""
""fullscreenenter"",""0"",""5127""
""blur"",""2"",""8317""
""focus"",""3"",""48244""
","""event"",""trial"",""time""
""blur"",""2"",""8317""
","""event"",""trial"",""time""
""focus"",""3"",""48244""
","""event"",""trial"",""time""
""fullscreenenter"",""0"",""5127""
","
","null","<p></p>","null","","","","","","","",""
"","image","190","207815","0.0-190.0","""event"",""trial"",""time""
""fullscreenenter"",""0"",""5127""
""blur"",""2"",""8317""
""focus"",""3"",""48244""
","""event"",""trial"",""time""
""blur"",""2"",""8317""
","""event"",""trial"",""time""
""focus"",""3"",""48244""
","""event"",""trial"",""time""
""fullscreenenter"",""0"",""5127""
","
","1476.300000000745","run_exp/static/images/Set 6_rs/167a.jpg","86","","","","","","learn","SL",""
"","show_choice","191","208344","0.0-191.0","""event"",""trial"",""time""
""fullscreenenter"",""0"",""5127""
""blur"",""2"",""8317""
""focus"",""3"",""48244""
","""event"",""trial"",""time""
""blur"",""2"",""8317""
","""event"",""trial"",""time""
""focus"",""3"",""48244""
","""event"",""trial"",""time""
""fullscreenenter"",""0"",""5127""
","
","null","run_exp/static/images/Set 6_rs/167a.jpg","null","","","","","","learn","SL",""
"","html-keyboard-response","192","208850","0.0-192.0","""event"",""trial"",""time""
""fullscreenenter"",""0"",""5127""
""blur"",""2"",""8317""
""focus"",""3"",""48244""
","""event"",""trial"",""time""
""blur"",""2"",""8317""
","""event"",""trial"",""time""
""focus"",""3"",""48244""
","""event"",""trial"",""time""
""fullscreenenter"",""0"",""5127""
","
","null","<p></p>","null","","","","","","","",""
"","image","193","209479","0.0-193.0","""event"",""trial"",""time""
""fullscreenenter"",""0"",""5127""
""blur"",""2"",""8317""
""focus"",""3"",""48244""
","""event"",""trial"",""time""
""blur"",""2"",""8317""
","""event"",""trial"",""time""
""focus"",""3"",""48244""
","""event"",""trial"",""time""
""fullscreenenter"",""0"",""5127""
","
","627.6999999992549","run_exp/static/images/Set 6_rs/154a.jpg","86","","","","","","learn","SR",""
"","show_choice","194","210853","0.0-194.0","""event"",""trial"",""time""
""fullscreenenter"",""0"",""5127""
""blur"",""2"",""8317""
""focus"",""3"",""48244""
","""event"",""trial"",""time""
""blur"",""2"",""8317""
","""event"",""trial"",""time""
""focus"",""3"",""48244""
","""event"",""trial"",""time""
""fullscreenenter"",""0"",""5127""
","
","null","run_exp/static/images/Set 6_rs/154a.jpg","null","","","","","","learn","SR",""
"","html-keyboard-response","195","211359","0.0-195.0","""event"",""trial"",""time""
""fullscreenenter"",""0"",""5127""
""blur"",""2"",""8317""
""focus"",""3"",""48244""
","""event"",""trial"",""time""
""blur"",""2"",""8317""
","""event"",""trial"",""time""
""focus"",""3"",""48244""
","""event"",""trial"",""time""
""fullscreenenter"",""0"",""5127""
","
","null","<p></p>","null","","","","","","","",""
"","test_intro","196","248269","0.0-196.0","""event"",""trial"",""time""
""fullscreenenter"",""0"",""5127""
""blur"",""2"",""8317""
""focus"",""3"",""48244""
","""event"",""trial"",""time""
""blur"",""2"",""8317""
","""event"",""trial"",""time""
""focus"",""3"",""48244""
","""event"",""trial"",""time""
""fullscreenenter"",""0"",""5127""
","
","null","run_exp/static/audio/clip_2_memory.m4a","null","","","","","<div class='center'><p>Now, lets see how much you remember about the items you just saw.  For each item, you need to indicate if it was <b>old</b> by pressing the <b>v</b> key, <b>similar</b> by pressing the <b>b</b> key, or <b>new</b> by pressing the <b>n</b> key.</p><p>Old refers to an item that you saw before in the indoor/outdoor game that you just played, new refers to an item you have <b>not</b> seen before within the indoor/outdoor game, and similar refers to an item that is similar to an item youve seen before but is not exactly the same. </p><p>Before we begin, lets go over some brief demonstrations to make sure you understand.</p></div>","","",""
"","html-keyboard-response","197","254669","0.0-197.0","""event"",""trial"",""time""
""fullscreenenter"",""0"",""5127""
""blur"",""2"",""8317""
""focus"",""3"",""48244""
","""event"",""trial"",""time""
""blur"",""2"",""8317""
","""event"",""trial"",""time""
""focus"",""3"",""48244""
","""event"",""trial"",""time""
""fullscreenenter"",""0"",""5127""
","
","6397.9000000003725","<div class='center'><p>Now, lets see how much you remember about the items you just saw.  For each item, you need to indicate if it was <b>old</b> by pressing the <b>v</b> key, <b>similar</b> by pressing the <b>b</b> key, or <b>new</b> by pressing the <b>n</b> key.</p><p>Old refers to an item that you saw before in the indoor/outdoor game that you just played, new refers to an item you have <b>not</b> seen before within the indoor/outdoor game, and similar refers to an item that is similar to an item youve seen before but is not exactly the same. </p><p>Before we begin, lets go over some brief demonstrations to make sure you understand.</p><div><p><b>[Press the space bar to continue]</b></p></div>","32","","","","","","","",""
"","items","198","262170","0.0-198.0","""event"",""trial"",""time""
""fullscreenenter"",""0"",""5127""
""blur"",""2"",""8317""
""focus"",""3"",""48244""
","""event"",""trial"",""time""
""blur"",""2"",""8317""
","""event"",""trial"",""time""
""focus"",""3"",""48244""
","""event"",""trial"",""time""
""fullscreenenter"",""0"",""5127""
","
","null","run_exp/static/audio/clip_3_items.m4a","null","","","","","","","",""
"","mop","199","266677","0.0-199.0","""event"",""trial"",""time""
""fullscreenenter"",""0"",""5127""
""blur"",""2"",""8317""
""focus"",""3"",""48244""
","""event"",""trial"",""time""
""blur"",""2"",""8317""
","""event"",""trial"",""time""
""focus"",""3"",""48244""
","""event"",""trial"",""time""
""fullscreenenter"",""0"",""5127""
","
","null","run_exp/static/audio/clip_4_mop.m4a","null","","","","","","","",""
"","baseball","200","270183","0.0-200.0","""event"",""trial"",""time""
""fullscreenenter"",""0"",""5127""
""blur"",""2"",""8317""
""focus"",""3"",""48244""
","""event"",""trial"",""time""
""blur"",""2"",""8317""
","""event"",""trial"",""time""
""focus"",""3"",""48244""
","""event"",""trial"",""time""
""fullscreenenter"",""0"",""5127""
","
","null","run_exp/static/audio/clip_5_baseball.m4a","null","","","","","","","",""
"","trumpet","201","273690","0.0-201.0","""event"",""trial"",""time""
""fullscreenenter"",""0"",""5127""
""blur"",""2"",""8317""
""focus"",""3"",""48244""
","""event"",""trial"",""time""
""blur"",""2"",""8317""
","""event"",""trial"",""time""
""focus"",""3"",""48244""
","""event"",""trial"",""time""
""fullscreenenter"",""0"",""5127""
","
","null","run_exp/static/audio/clip_6_trumpet.m4a","null","","","","","","","",""
"","gummies","202","277195","0.0-202.0","""event"",""trial"",""time""
""fullscreenenter"",""0"",""5127""
""blur"",""2"",""8317""
""focus"",""3"",""48244""
","""event"",""trial"",""time""
""blur"",""2"",""8317""
","""event"",""trial"",""time""
""focus"",""3"",""48244""
","""event"",""trial"",""time""
""fullscreenenter"",""0"",""5127""
","
","null","run_exp/static/audio/clip_7_gummies.m4a","null","","","","","","","",""
"","osn","203","281702","0.0-203.0","""event"",""trial"",""time""
""fullscreenenter"",""0"",""5127""
""blur"",""2"",""8317""
""focus"",""3"",""48244""
","""event"",""trial"",""time""
""blur"",""2"",""8317""
","""event"",""trial"",""time""
""focus"",""3"",""48244""
","""event"",""trial"",""time""
""fullscreenenter"",""0"",""5127""
","
","null","run_exp/static/audio/clip_8_osn.m4a","null","","","","","","","",""
"","old_1","204","288205","0.0-204.0","""event"",""trial"",""time""
""fullscreenenter"",""0"",""5127""
""blur"",""2"",""8317""
""focus"",""3"",""48244""
","""event"",""trial"",""time""
""blur"",""2"",""8317""
","""event"",""trial"",""time""
""focus"",""3"",""48244""
","""event"",""trial"",""time""
""fullscreenenter"",""0"",""5127""
","
","null","run_exp/static/audio/clip_9_old_trumpet.m4a","null","","","","","","","",""
"","new_1","205","295710","0.0-205.0","""event"",""trial"",""time""
""fullscreenenter"",""0"",""5127""
""blur"",""2"",""8317""
""focus"",""3"",""48244""
","""event"",""trial"",""time""
""blur"",""2"",""8317""
","""event"",""trial"",""time""
""focus"",""3"",""48244""
","""event"",""trial"",""time""
""fullscreenenter"",""0"",""5127""
","
","null","run_exp/static/audio/clip_10_new_balloon.m4a","null","","","","","","","",""
"","similar_1a","206","300217","0.0-206.0","""event"",""trial"",""time""
""fullscreenenter"",""0"",""5127""
""blur"",""2"",""8317""
""focus"",""3"",""48244""
","""event"",""trial"",""time""
""blur"",""2"",""8317""
","""event"",""trial"",""time""
""focus"",""3"",""48244""
","""event"",""trial"",""time""
""fullscreenenter"",""0"",""5127""
","
","null","run_exp/static/audio/clip_11a_similar_mop.m4a","null","","","","","","","",""
"","similar_1b","207","306724","0.0-207.0","""event"",""trial"",""time""
""fullscreenenter"",""0"",""5127""
""blur"",""2"",""8317""
""focus"",""3"",""48244""
","""event"",""trial"",""time""
""blur"",""2"",""8317""
","""event"",""trial"",""time""
""focus"",""3"",""48244""
","""event"",""trial"",""time""
""fullscreenenter"",""0"",""5127""
","
","null","run_exp/static/audio/clip_11b_similar_mop.m4a","null","","","","","","","",""
"","new_2","208","310229","0.0-208.0","""event"",""trial"",""time""
""fullscreenenter"",""0"",""5127""
""blur"",""2"",""8317""
""focus"",""3"",""48244""
","""event"",""trial"",""time""
""blur"",""2"",""8317""
","""event"",""trial"",""time""
""focus"",""3"",""48244""
","""event"",""trial"",""time""
""fullscreenenter"",""0"",""5127""
","
","null","run_exp/static/audio/clip_12_new_stoplight.m4a","null","","","","","","","",""
"","old_2","209","313733","0.0-209.0","""event"",""trial"",""time""
""fullscreenenter"",""0"",""5127""
""blur"",""2"",""8317""
""focus"",""3"",""48244""
","""event"",""trial"",""time""
""blur"",""2"",""8317""
","""event"",""trial"",""time""
""focus"",""3"",""48244""
","""event"",""trial"",""time""
""fullscreenenter"",""0"",""5127""
","
","null","run_exp/static/audio/clip_13_old_baseball.m4a","null","","","","","","","",""
"","similar_2a","210","317240","0.0-210.0","""event"",""trial"",""time""
""fullscreenenter"",""0"",""5127""
""blur"",""2"",""8317""
""focus"",""3"",""48244""
","""event"",""trial"",""time""
""blur"",""2"",""8317""
","""event"",""trial"",""time""
""focus"",""3"",""48244""
","""event"",""trial"",""time""
""fullscreenenter"",""0"",""5127""
","
","null","run_exp/static/audio/clip_14a_similar_gummies.m4a","null","","","","","","","",""
"","similar_2b","211","324745","0.0-211.0","""event"",""trial"",""time""
""fullscreenenter"",""0"",""5127""
""blur"",""2"",""8317""
""focus"",""3"",""48244""
","""event"",""trial"",""time""
""blur"",""2"",""8317""
","""event"",""trial"",""time""
""focus"",""3"",""48244""
","""event"",""trial"",""time""
""fullscreenenter"",""0"",""5127""
","
","null","run_exp/static/audio/clip_14b_similar_gummies.m4a","null","","","","","","","",""
"","practice","212","366853","0.0-212.0","""event"",""trial"",""time""
""fullscreenenter"",""0"",""5127""
""blur"",""2"",""8317""
""focus"",""3"",""48244""
","""event"",""trial"",""time""
""blur"",""2"",""8317""
","""event"",""trial"",""time""
""focus"",""3"",""48244""
","""event"",""trial"",""time""
""fullscreenenter"",""0"",""5127""
","
","null","run_exp/static/audio/clip_15_practice.m4a","null","","","","","<div class='center'><p>Lets practice a little to make sure you understand the difference between new, similar, and old. Lets say you saw these three items in the indoor/outdoor game.</p><p> Try your best to remember these images because youll soon be tested on them in a practice game. In the practice game, youll be shown images and youll have to say if they are old (one of the three images belows), similar (similar to one of the images below but not exactly the same), or new (are not one of the images below nor similar to them).</p><p>Once you press the space bar youll be shown these images again but one at time. Then youll begin the practice game.</p><p><img src='run_exp/static/images/tutorial/test/three_indoor_outdoor.png' height='300'></p></div>","","",""
"","html-keyboard-response","213","367235","0.0-213.0","""event"",""trial"",""time""
""fullscreenenter"",""0"",""5127""
""blur"",""2"",""8317""
""focus"",""3"",""48244""
","""event"",""trial"",""time""
""blur"",""2"",""8317""
","""event"",""trial"",""time""
""focus"",""3"",""48244""
","""event"",""trial"",""time""
""fullscreenenter"",""0"",""5127""
","
","380.90000000037253","<div class='center'><p>Lets practice a little to make sure you understand the difference between new, similar, and old. Lets say you saw these three items in the indoor/outdoor game.</p><p> Try your best to remember these images because youll soon be tested on them in a practice game. In the practice game, youll be shown images and youll have to say if they are old (one of the three images belows), similar (similar to one of the images below but not exactly the same), or new (are not one of the images below nor similar to them).</p><p>Once you press the space bar youll be shown these images again but one at time. Then youll begin the practice game.</p><p><img src='run_exp/static/images/tutorial/test/three_indoor_outdoor.png' height='300'></p><div><p><b>[Press the space bar to continue]</b></p></div>","32","","","","","","","",""
"","planet","214","369242","0.0-214.0","""event"",""trial"",""time""
""fullscreenenter"",""0"",""5127""
""blur"",""2"",""8317""
""focus"",""3"",""48244""
","""event"",""trial"",""time""
""blur"",""2"",""8317""
","""event"",""trial"",""time""
""focus"",""3"",""48244""
","""event"",""trial"",""time""
""fullscreenenter"",""0"",""5127""
","
","null","run_exp/static/images/tutorial/test/008a.jpg","null","","","","","","","",""
"","boot","215","371248","0.0-215.0","""event"",""trial"",""time""
""fullscreenenter"",""0"",""5127""
""blur"",""2"",""8317""
""focus"",""3"",""48244""
","""event"",""trial"",""time""
""blur"",""2"",""8317""
","""event"",""trial"",""time""
""focus"",""3"",""48244""
","""event"",""trial"",""time""
""fullscreenenter"",""0"",""5127""
","
","null","run_exp/static/images/tutorial/test/011a.jpg","null","","","","","","","",""
"","lemon","216","373254","0.0-216.0","""event"",""trial"",""time""
""fullscreenenter"",""0"",""5127""
""blur"",""2"",""8317""
""focus"",""3"",""48244""
","""event"",""trial"",""time""
""blur"",""2"",""8317""
","""event"",""trial"",""time""
""focus"",""3"",""48244""
","""event"",""trial"",""time""
""fullscreenenter"",""0"",""5127""
","
","null","run_exp/static/images/tutorial/test/018a.jpg","null","","","","","","","",""
"","practice_q1","217","377404","0.0-217.0","""event"",""trial"",""time""
""fullscreenenter"",""0"",""5127""
""blur"",""2"",""8317""
""focus"",""3"",""48244""
","""event"",""trial"",""time""
""blur"",""2"",""8317""
","""event"",""trial"",""time""
""focus"",""3"",""48244""
","""event"",""trial"",""time""
""fullscreenenter"",""0"",""5127""
","
","4148.199999999255","run_exp/static/audio/clip_16_practice_question.m4a","78","","","","","","","",""
"","correct","218","379276","0.0-218.0-0.0","""event"",""trial"",""time""
""fullscreenenter"",""0"",""5127""
""blur"",""2"",""8317""
""focus"",""3"",""48244""
","""event"",""trial"",""time""
""blur"",""2"",""8317""
","""event"",""trial"",""time""
""focus"",""3"",""48244""
","""event"",""trial"",""time""
""fullscreenenter"",""0"",""5127""
","
","null","run_exp/static/audio/clip_17_correct.m4a","null","","","","","<div class='center'><p>That's correct!</p></div>","","",""
"","html-keyboard-response","219","379912","0.0-218.0-1.0","""event"",""trial"",""time""
""fullscreenenter"",""0"",""5127""
""blur"",""2"",""8317""
""focus"",""3"",""48244""
","""event"",""trial"",""time""
""blur"",""2"",""8317""
","""event"",""trial"",""time""
""focus"",""3"",""48244""
","""event"",""trial"",""time""
""fullscreenenter"",""0"",""5127""
","
","635.3999999985099","<div class='center'><p>That's correct!</p><div><p><b>[Press the space bar to continue]</b></p></div>","32","","","","","","","",""
