"success","trial_type","trial_index","time_elapsed","internal_node_id","interactions","blur_events","focus_events","fullscreenenter_events","fullscreenexit_events","rt","stimulus","key_press","subject_id","participant_id","age","gender","prompt","phase","condition","lure_bin"
"true","fullscreen","0","2235","0.0-0.0","""event"",""trial"",""time""
""fullscreenenter"",""0"",""1264""
","
","
","""event"",""trial"",""time""
""fullscreenenter"",""0"",""1264""
","
","","","","","","","","","","",""
"","pavlovia","1","2241","0.0-1.0","""event"",""trial"",""time""
""fullscreenenter"",""0"",""1264""
","
","
","""event"",""trial"",""time""
""fullscreenenter"",""0"",""1264""
","
","","","","","","","","","","",""
"","welcome","2","37067","0.0-2.0","""event"",""trial"",""time""
""fullscreenenter"",""0"",""1264""
","
","
","""event"",""trial"",""time""
""fullscreenenter"",""0"",""1264""
","
","null","run_exp/static/audio/clip_1_welcome.m4a","null","664","959","17","Female","<div class='center'><p>Welcome to the third part of the study! First, you'll be shown pictures of items one at a time. For each picture, you have to decide if the item is typically found indoors or outdoors.</p><p>If you think it's usually found indoors, then press <b>v</b> key on your keyboard. If you think it's usually found outdoors, then press the <b>n</b> key.There will be reminders on the screen to help you remember which keys to press. </p><p>If you're not sure whether the item is an indoor item or an outdoor item, go ahead and take a guess but try your best not to skip that choice. </p></div>","","",""
"","html-keyboard-response","3","38414","0.0-3.0","""event"",""trial"",""time""
""fullscreenenter"",""0"",""1264""
","
","
","""event"",""trial"",""time""
""fullscreenenter"",""0"",""1264""
","
","1343.4000000059605","<div class='center'><p>Welcome to the third part of the study! First, you'll be shown pictures of items one at a time. For each picture, you have to decide if the item is typically found indoors or outdoors.</p><p>If you think it's usually found indoors, then press <b>v</b> key on your keyboard. If you think it's usually found outdoors, then press the <b>n</b> key.There will be reminders on the screen to help you remember which keys to press. </p><p>If you're not sure whether the item is an indoor item or an outdoor item, go ahead and take a guess but try your best not to skip that choice. </p><div><p><b>[Press the space bar to continue]</b></p></div>","32","","","","","","","",""
"","image","4","40421","0.0-4.0","""event"",""trial"",""time""
""fullscreenenter"",""0"",""1264""
","
","
","""event"",""trial"",""time""
""fullscreenenter"",""0"",""1264""
","
","null","run_exp/static/images/Set 6_rs/154a.jpg","null","","","","","","learn","SR",""
"","show_choice","5","42428","0.0-5.0","""event"",""trial"",""time""
""fullscreenenter"",""0"",""1264""
","
","
","""event"",""trial"",""time""
""fullscreenenter"",""0"",""1264""
","
","null","run_exp/static/images/blank.png","null","","","","","","learn","SR",""
"","html-keyboard-response","6","42933","0.0-6.0","""event"",""trial"",""time""
""fullscreenenter"",""0"",""1264""
","
","
","""event"",""trial"",""time""
""fullscreenenter"",""0"",""1264""
","
","null","<p></p>","null","","","","","","","",""
"","image","7","43764","0.0-7.0","""event"",""trial"",""time""
""fullscreenenter"",""0"",""1264""
","
","
","""event"",""trial"",""time""
""fullscreenenter"",""0"",""1264""
","
","828.6000000089407","run_exp/static/images/Set 6_rs/088a.jpg","86","","","","","","learn","SR",""
"","show_choice","8","44937","0.0-8.0","""event"",""trial"",""time""
""fullscreenenter"",""0"",""1264""
","
","
","""event"",""trial"",""time""
""fullscreenenter"",""0"",""1264""
","
","null","run_exp/static/images/Set 6_rs/088a.jpg","null","","","","","","learn","SR",""
"","html-keyboard-response","9","45442","0.0-9.0","""event"",""trial"",""time""
""fullscreenenter"",""0"",""1264""
","
","
","""event"",""trial"",""time""
""fullscreenenter"",""0"",""1264""
","
","null","<p></p>","null","","","","","","","",""
"","image","10","46295","0.0-10.0","""event"",""trial"",""time""
""fullscreenenter"",""0"",""1264""
","
","
","""event"",""trial"",""time""
""fullscreenenter"",""0"",""1264""
","
","850.7000000029802","run_exp/static/images/Set 6_rs/126a.jpg","86","","","","","","learn","SR",""
"","show_choice","11","47447","0.0-11.0","""event"",""trial"",""time""
""fullscreenenter"",""0"",""1264""
","
","
","""event"",""trial"",""time""
""fullscreenenter"",""0"",""1264""
","
","null","run_exp/static/images/Set 6_rs/126a.jpg","null","","","","","","learn","SR",""
"","html-keyboard-response","12","47953","0.0-12.0","""event"",""trial"",""time""
""fullscreenenter"",""0"",""1264""
","
","
","""event"",""trial"",""time""
""fullscreenenter"",""0"",""1264""
","
","null","<p></p>","null","","","","","","","",""
"","image","13","48788","0.0-13.0","""event"",""trial"",""time""
""fullscreenenter"",""0"",""1264""
","
","
","""event"",""trial"",""time""
""fullscreenenter"",""0"",""1264""
","
","832.1999999880791","run_exp/static/images/Set 6_rs/116a.jpg","86","","","","","","learn","SL",""
"","show_choice","14","49961","0.0-14.0","""event"",""trial"",""time""
""fullscreenenter"",""0"",""1264""
","
","
","""event"",""trial"",""time""
""fullscreenenter"",""0"",""1264""
","
","null","run_exp/static/images/Set 6_rs/116a.jpg","null","","","","","","learn","SL",""
"","html-keyboard-response","15","50467","0.0-15.0","""event"",""trial"",""time""
""fullscreenenter"",""0"",""1264""
","
","
","""event"",""trial"",""time""
""fullscreenenter"",""0"",""1264""
","
","null","<p></p>","null","","","","","","","",""
"","image","16","51107","0.0-16.0","""event"",""trial"",""time""
""fullscreenenter"",""0"",""1264""
","
","
","""event"",""trial"",""time""
""fullscreenenter"",""0"",""1264""
","
","638.5","run_exp/static/images/Set 6_rs/112a.jpg","86","","","","","","learn","SR",""
"","show_choice","17","52473","0.0-17.0","""event"",""trial"",""time""
""fullscreenenter"",""0"",""1264""
","
","
","""event"",""trial"",""time""
""fullscreenenter"",""0"",""1264""
","
","null","run_exp/static/images/Set 6_rs/112a.jpg","null","","","","","","learn","SR",""
"","html-keyboard-response","18","52979","0.0-18.0","""event"",""trial"",""time""
""fullscreenenter"",""0"",""1264""
","
","
","""event"",""trial"",""time""
""fullscreenenter"",""0"",""1264""
","
","null","<p></p>","null","","","","","","","",""
"","image","19","53702","0.0-19.0","""event"",""trial"",""time""
""fullscreenenter"",""0"",""1264""
","
","
","""event"",""trial"",""time""
""fullscreenenter"",""0"",""1264""
","
","720.9000000059605","run_exp/static/images/Set 6_rs/166a.jpg","86","","","","","","learn","SR",""
"","show_choice","20","54986","0.0-20.0","""event"",""trial"",""time""
""fullscreenenter"",""0"",""1264""
","
","
","""event"",""trial"",""time""
""fullscreenenter"",""0"",""1264""
","
","null","run_exp/static/images/Set 6_rs/166a.jpg","null","","","","","","learn","SR",""
"","html-keyboard-response","21","55488","0.0-21.0","""event"",""trial"",""time""
""fullscreenenter"",""0"",""1264""
","
","
","""event"",""trial"",""time""
""fullscreenenter"",""0"",""1264""
","
","null","<p></p>","null","","","","","","","",""
"","image","22","56528","0.0-22.0","""event"",""trial"",""time""
""fullscreenenter"",""0"",""1264""
","
","
","""event"",""trial"",""time""
""fullscreenenter"",""0"",""1264""
","
","1038.2000000029802","run_exp/static/images/Set 6_rs/066a.jpg","86","","","","","","learn","SL",""
"","show_choice","23","57495","0.0-23.0","""event"",""trial"",""time""
""fullscreenenter"",""0"",""1264""
","
","
","""event"",""trial"",""time""
""fullscreenenter"",""0"",""1264""
","
","null","run_exp/static/images/Set 6_rs/066a.jpg","null","","","","","","learn","SL",""
"","html-keyboard-response","24","58000","0.0-24.0","""event"",""trial"",""time""
""fullscreenenter"",""0"",""1264""
","
","
","""event"",""trial"",""time""
""fullscreenenter"",""0"",""1264""
","
","null","<p></p>","null","","","","","","","",""
"","image","25","58931","0.0-25.0","""event"",""trial"",""time""
""fullscreenenter"",""0"",""1264""
","
","
","""event"",""trial"",""time""
""fullscreenenter"",""0"",""1264""
","
","929.2000000029802","run_exp/static/images/Set 6_rs/122a.jpg","86","","","","","","learn","SR",""
"","show_choice","26","60003","0.0-26.0","""event"",""trial"",""time""
""fullscreenenter"",""0"",""1264""
","
","
","""event"",""trial"",""time""
""fullscreenenter"",""0"",""1264""
","
","null","run_exp/static/images/Set 6_rs/122a.jpg","null","","","","","","learn","SR",""
"","html-keyboard-response","27","60507","0.0-27.0","""event"",""trial"",""time""
""fullscreenenter"",""0"",""1264""
","
","
","""event"",""trial"",""time""
""fullscreenenter"",""0"",""1264""
","
","null","<p></p>","null","","","","","","","",""
"","image","28","61437","0.0-28.0","""event"",""trial"",""time""
""fullscreenenter"",""0"",""1264""
","
","
","""event"",""trial"",""time""
""fullscreenenter"",""0"",""1264""
","
","927.7000000029802","run_exp/static/images/Set 6_rs/129a.jpg","86","","","","","","learn","SL",""
"","show_choice","29","62514","0.0-29.0","""event"",""trial"",""time""
""fullscreenenter"",""0"",""1264""
","
","
","""event"",""trial"",""time""
""fullscreenenter"",""0"",""1264""
","
","null","run_exp/static/images/Set 6_rs/129a.jpg","null","","","","","","learn","SL",""
"","html-keyboard-response","30","63021","0.0-30.0","""event"",""trial"",""time""
""fullscreenenter"",""0"",""1264""
","
","
","""event"",""trial"",""time""
""fullscreenenter"",""0"",""1264""
","
","null","<p></p>","null","","","","","","","",""
"","image","31","63780","0.0-31.0","""event"",""trial"",""time""
""fullscreenenter"",""0"",""1264""
","
","
","""event"",""trial"",""time""
""fullscreenenter"",""0"",""1264""
","
","758","run_exp/static/images/Set 6_rs/073a.jpg","86","","","","","","learn","SL",""
"","show_choice","32","65024","0.0-32.0","""event"",""trial"",""time""
""fullscreenenter"",""0"",""1264""
","
","
","""event"",""trial"",""time""
""fullscreenenter"",""0"",""1264""
","
","null","run_exp/static/images/Set 6_rs/073a.jpg","null","","","","","","learn","SL",""
"","html-keyboard-response","33","65528","0.0-33.0","""event"",""trial"",""time""
""fullscreenenter"",""0"",""1264""
","
","
","""event"",""trial"",""time""
""fullscreenenter"",""0"",""1264""
","
","null","<p></p>","null","","","","","","","",""
"","image","34","66203","0.0-34.0","""event"",""trial"",""time""
""fullscreenenter"",""0"",""1264""
","
","
","""event"",""trial"",""time""
""fullscreenenter"",""0"",""1264""
","
","673.7999999970198","run_exp/static/images/Set 6_rs/111a.jpg","86","","","","","","learn","SL",""
"","show_choice","35","67532","0.0-35.0","""event"",""trial"",""time""
""fullscreenenter"",""0"",""1264""
","
","
","""event"",""trial"",""time""
""fullscreenenter"",""0"",""1264""
","
","null","run_exp/static/images/Set 6_rs/111a.jpg","null","","","","","","learn","SL",""
"","html-keyboard-response","36","68034","0.0-36.0","""event"",""trial"",""time""
""fullscreenenter"",""0"",""1264""
","
","
","""event"",""trial"",""time""
""fullscreenenter"",""0"",""1264""
","
","null","<p></p>","null","","","","","","","",""
"","image","37","68799","0.0-37.0","""event"",""trial"",""time""
""fullscreenenter"",""0"",""1264""
","
","
","""event"",""trial"",""time""
""fullscreenenter"",""0"",""1264""
","
","763.4000000059605","run_exp/static/images/Set 6_rs/172a.jpg","78","","","","","","learn","SR",""
"","show_choice","38","70041","0.0-38.0","""event"",""trial"",""time""
""fullscreenenter"",""0"",""1264""
","
","
","""event"",""trial"",""time""
""fullscreenenter"",""0"",""1264""
","
","null","run_exp/static/images/Set 6_rs/172a.jpg","null","","","","","","learn","SR",""
"","html-keyboard-response","39","70546","0.0-39.0","""event"",""trial"",""time""
""fullscreenenter"",""0"",""1264""
","
","
","""event"",""trial"",""time""
""fullscreenenter"",""0"",""1264""
","
","null","<p></p>","null","","","","","","","",""
"","image","40","71366","0.0-40.0","""event"",""trial"",""time""
""fullscreenenter"",""0"",""1264""
","
","
","""event"",""trial"",""time""
""fullscreenenter"",""0"",""1264""
","
","817.2999999970198","run_exp/static/images/Set 6_rs/016a.jpg","86","","","","","","learn","SL",""
"","show_choice","41","72552","0.0-41.0","""event"",""trial"",""time""
""fullscreenenter"",""0"",""1264""
","
","
","""event"",""trial"",""time""
""fullscreenenter"",""0"",""1264""
","
","null","run_exp/static/images/Set 6_rs/016a.jpg","null","","","","","","learn","SL",""
"","html-keyboard-response","42","73058","0.0-42.0","""event"",""trial"",""time""
""fullscreenenter"",""0"",""1264""
","
","
","""event"",""trial"",""time""
""fullscreenenter"",""0"",""1264""
","
","null","<p></p>","null","","","","","","","",""
"","image","43","74071","0.0-43.0","""event"",""trial"",""time""
""fullscreenenter"",""0"",""1264""
","
","
","""event"",""trial"",""time""
""fullscreenenter"",""0"",""1264""
","
","1011.7000000029802","run_exp/static/images/Set 6_rs/141a.jpg","78","","","","","","learn","SR",""
"","show_choice","44","75060","0.0-44.0","""event"",""trial"",""time""
""fullscreenenter"",""0"",""1264""
","
","
","""event"",""trial"",""time""
""fullscreenenter"",""0"",""1264""
","
","null","run_exp/static/images/Set 6_rs/141a.jpg","null","","","","","","learn","SR",""
"","html-keyboard-response","45","75565","0.0-45.0","""event"",""trial"",""time""
""fullscreenenter"",""0"",""1264""
","
","
","""event"",""trial"",""time""
""fullscreenenter"",""0"",""1264""
","
","null","<p></p>","null","","","","","","","",""
"","image","46","76285","0.0-46.0","""event"",""trial"",""time""
""fullscreenenter"",""0"",""1264""
","
","
","""event"",""trial"",""time""
""fullscreenenter"",""0"",""1264""
","
","717.9000000059605","run_exp/static/images/Set 6_rs/089a.jpg","86","","","","","","learn","SL",""
"","show_choice","47","77570","0.0-47.0","""event"",""trial"",""time""
""fullscreenenter"",""0"",""1264""
","
","
","""event"",""trial"",""time""
""fullscreenenter"",""0"",""1264""
","
","null","run_exp/static/images/Set 6_rs/089a.jpg","null","","","","","","learn","SL",""
"","html-keyboard-response","48","78077","0.0-48.0","""event"",""trial"",""time""
""fullscreenenter"",""0"",""1264""
","
","
","""event"",""trial"",""time""
""fullscreenenter"",""0"",""1264""
","
","null","<p></p>","null","","","","","","","",""
"","image","49","78729","0.0-49.0","""event"",""trial"",""time""
""fullscreenenter"",""0"",""1264""
","
","
","""event"",""trial"",""time""
""fullscreenenter"",""0"",""1264""
","
","650.6000000089407","run_exp/static/images/Set 6_rs/025a.jpg","78","","","","","","learn","SL",""
"","show_choice","50","80082","0.0-50.0","""event"",""trial"",""time""
""fullscreenenter"",""0"",""1264""
","
","
","""event"",""trial"",""time""
""fullscreenenter"",""0"",""1264""
","
","null","run_exp/static/images/Set 6_rs/025a.jpg","null","","","","","","learn","SL",""
"","html-keyboard-response","51","80588","0.0-51.0","""event"",""trial"",""time""
""fullscreenenter"",""0"",""1264""
","
","
","""event"",""trial"",""time""
""fullscreenenter"",""0"",""1264""
","
","null","<p></p>","null","","","","","","","",""
"","image","52","81490","0.0-52.0","""event"",""trial"",""time""
""fullscreenenter"",""0"",""1264""
","
","
","""event"",""trial"",""time""
""fullscreenenter"",""0"",""1264""
","
","900.8000000119209","run_exp/static/images/Set 6_rs/134a.jpg","86","","","","","","learn","SR",""
"","show_choice","53","82591","0.0-53.0","""event"",""trial"",""time""
""fullscreenenter"",""0"",""1264""
","
","
","""event"",""trial"",""time""
""fullscreenenter"",""0"",""1264""
","
","null","run_exp/static/images/Set 6_rs/134a.jpg","null","","","","","","learn","SR",""
"","html-keyboard-response","54","83095","0.0-54.0","""event"",""trial"",""time""
""fullscreenenter"",""0"",""1264""
","
","
","""event"",""trial"",""time""
""fullscreenenter"",""0"",""1264""
","
","null","<p></p>","null","","","","","","","",""
"","image","55","84043","0.0-55.0","""event"",""trial"",""time""
""fullscreenenter"",""0"",""1264""
","
","
","""event"",""trial"",""time""
""fullscreenenter"",""0"",""1264""
","
","946.5","run_exp/static/images/Set 6_rs/064a.jpg","78","","","","","","learn","SR",""
"","show_choice","56","85097","0.0-56.0","""event"",""trial"",""time""
""fullscreenenter"",""0"",""1264""
","
","
","""event"",""trial"",""time""
""fullscreenenter"",""0"",""1264""
","
","null","run_exp/static/images/Set 6_rs/064a.jpg","null","","","","","","learn","SR",""
"","html-keyboard-response","57","85597","0.0-57.0","""event"",""trial"",""time""
""fullscreenenter"",""0"",""1264""
","
","
","""event"",""trial"",""time""
""fullscreenenter"",""0"",""1264""
","
","null","<p></p>","null","","","","","","","",""
"","image","58","87039","0.0-58.0","""event"",""trial"",""time""
""fullscreenenter"",""0"",""1264""
","
","
","""event"",""trial"",""time""
""fullscreenenter"",""0"",""1264""
","
","1441.2999999970198","run_exp/static/images/Set 6_rs/045a.jpg","86","","","","","","learn","SR",""
"","show_choice","59","87603","0.0-59.0","""event"",""trial"",""time""
""fullscreenenter"",""0"",""1264""
","
","
","""event"",""trial"",""time""
""fullscreenenter"",""0"",""1264""
","
","null","run_exp/static/images/Set 6_rs/045a.jpg","null","","","","","","learn","SR",""
"","html-keyboard-response","60","88106","0.0-60.0","""event"",""trial"",""time""
""fullscreenenter"",""0"",""1264""
","
","
","""event"",""trial"",""time""
""fullscreenenter"",""0"",""1264""
","
","null","<p></p>","null","","","","","","","",""
"","image","61","89120","0.0-61.0","""event"",""trial"",""time""
""fullscreenenter"",""0"",""1264""
","
","
","""event"",""trial"",""time""
""fullscreenenter"",""0"",""1264""
","
","1012.6999999880791","run_exp/static/images/Set 6_rs/191a.jpg","78","","","","","","learn","SL",""
"","show_choice","62","90113","0.0-62.0","""event"",""trial"",""time""
""fullscreenenter"",""0"",""1264""
","
","
","""event"",""trial"",""time""
""fullscreenenter"",""0"",""1264""
","
","null","run_exp/static/images/Set 6_rs/191a.jpg","null","","","","","","learn","SL",""
"","html-keyboard-response","63","90620","0.0-63.0","""event"",""trial"",""time""
""fullscreenenter"",""0"",""1264""
","
","
","""event"",""trial"",""time""
""fullscreenenter"",""0"",""1264""
","
","null","<p></p>","null","","","","","","","",""
"","image","64","91748","0.0-64.0","""event"",""trial"",""time""
""fullscreenenter"",""0"",""1264""
","
","
","""event"",""trial"",""time""
""fullscreenenter"",""0"",""1264""
","
","1126.5999999940395","run_exp/static/images/Set 6_rs/063a.jpg","86","","","","","","learn","SR",""
"","show_choice","65","92622","0.0-65.0","""event"",""trial"",""time""
""fullscreenenter"",""0"",""1264""
","
","
","""event"",""trial"",""time""
""fullscreenenter"",""0"",""1264""
","
","null","run_exp/static/images/Set 6_rs/063a.jpg","null","","","","","","learn","SR",""
"","html-keyboard-response","66","93128","0.0-66.0","""event"",""trial"",""time""
""fullscreenenter"",""0"",""1264""
","
","
","""event"",""trial"",""time""
""fullscreenenter"",""0"",""1264""
","
","null","<p></p>","null","","","","","","","",""
"","image","67","94013","0.0-67.0","""event"",""trial"",""time""
""fullscreenenter"",""0"",""1264""
","
","
","""event"",""trial"",""time""
""fullscreenenter"",""0"",""1264""
","
","883.3000000119209","run_exp/static/images/Set 6_rs/108a.jpg","78","","","","","","learn","SR",""
"","show_choice","68","95132","0.0-68.0","""event"",""trial"",""time""
""fullscreenenter"",""0"",""1264""
","
","
","""event"",""trial"",""time""
""fullscreenenter"",""0"",""1264""
","
","null","run_exp/static/images/Set 6_rs/108a.jpg","null","","","","","","learn","SR",""
"","html-keyboard-response","69","95633","0.0-69.0","""event"",""trial"",""time""
""fullscreenenter"",""0"",""1264""
","
","
","""event"",""trial"",""time""
""fullscreenenter"",""0"",""1264""
","
","null","<p></p>","null","","","","","","","",""
"","image","70","96565","0.0-70.0","""event"",""trial"",""time""
""fullscreenenter"",""0"",""1264""
","
","
","""event"",""trial"",""time""
""fullscreenenter"",""0"",""1264""
","
","930","run_exp/static/images/Set 6_rs/117a.jpg","78","","","","","","learn","SL",""
"","show_choice","71","97637","0.0-71.0","""event"",""trial"",""time""
""fullscreenenter"",""0"",""1264""
","
","
","""event"",""trial"",""time""
""fullscreenenter"",""0"",""1264""
","
","null","run_exp/static/images/Set 6_rs/117a.jpg","null","","","","","","learn","SL",""
"","html-keyboard-response","72","98141","0.0-72.0","""event"",""trial"",""time""
""fullscreenenter"",""0"",""1264""
","
","
","""event"",""trial"",""time""
""fullscreenenter"",""0"",""1264""
","
","null","<p></p>","null","","","","","","","",""
"","image","73","99650","0.0-73.0","""event"",""trial"",""time""
""fullscreenenter"",""0"",""1264""
","
","
","""event"",""trial"",""time""
""fullscreenenter"",""0"",""1264""
","
","1507.300000011921","run_exp/static/images/Set 6_rs/057a.jpg","86","","","","","","learn","SL",""
"","show_choice","74","100145","0.0-74.0","""event"",""trial"",""time""
""fullscreenenter"",""0"",""1264""
","
","
","""event"",""trial"",""time""
""fullscreenenter"",""0"",""1264""
","
","null","run_exp/static/images/Set 6_rs/057a.jpg","null","","","","","","learn","SL",""
"","html-keyboard-response","75","100648","0.0-75.0","""event"",""trial"",""time""
""fullscreenenter"",""0"",""1264""
","
","
","""event"",""trial"",""time""
""fullscreenenter"",""0"",""1264""
","
","null","<p></p>","null","","","","","","","",""
"","image","76","101988","0.0-76.0","""event"",""trial"",""time""
""fullscreenenter"",""0"",""1264""
","
","
","""event"",""trial"",""time""
""fullscreenenter"",""0"",""1264""
","
","1338.4000000059605","run_exp/static/images/Set 6_rs/019a.jpg","86","","","","","","learn","SL",""
"","show_choice","77","102655","0.0-77.0","""event"",""trial"",""time""
""fullscreenenter"",""0"",""1264""
","
","
","""event"",""trial"",""time""
""fullscreenenter"",""0"",""1264""
","
","null","run_exp/static/images/Set 6_rs/019a.jpg","null","","","","","","learn","SL",""
"","html-keyboard-response","78","103156","0.0-78.0","""event"",""trial"",""time""
""fullscreenenter"",""0"",""1264""
","
","
","""event"",""trial"",""time""
""fullscreenenter"",""0"",""1264""
","
","null","<p></p>","null","","","","","","","",""
"","image","79","104095","0.0-79.0","""event"",""trial"",""time""
""fullscreenenter"",""0"",""1264""
","
","
","""event"",""trial"",""time""
""fullscreenenter"",""0"",""1264""
","
","937.2999999970198","run_exp/static/images/Set 6_rs/167a.jpg","86","","","","","","learn","SL",""
"","show_choice","80","105159","0.0-80.0","""event"",""trial"",""time""
""fullscreenenter"",""0"",""1264""
","
","
","""event"",""trial"",""time""
""fullscreenenter"",""0"",""1264""
","
","null","run_exp/static/images/Set 6_rs/167a.jpg","null","","","","","","learn","SL",""
"","html-keyboard-response","81","105660","0.0-81.0","""event"",""trial"",""time""
""fullscreenenter"",""0"",""1264""
","
","
","""event"",""trial"",""time""
""fullscreenenter"",""0"",""1264""
","
","null","<p></p>","null","","","","","","","",""
"","image","82","107021","0.0-82.0","""event"",""trial"",""time""
""fullscreenenter"",""0"",""1264""
","
","
","""event"",""trial"",""time""
""fullscreenenter"",""0"",""1264""
","
","1359.5","run_exp/static/images/Set 6_rs/168a.jpg","86","","","","","","learn","SL",""
"","show_choice","83","107662","0.0-83.0","""event"",""trial"",""time""
""fullscreenenter"",""0"",""1264""
","
","
","""event"",""trial"",""time""
""fullscreenenter"",""0"",""1264""
","
","null","run_exp/static/images/Set 6_rs/168a.jpg","null","","","","","","learn","SL",""
"","html-keyboard-response","84","108166","0.0-84.0","""event"",""trial"",""time""
""fullscreenenter"",""0"",""1264""
","
","
","""event"",""trial"",""time""
""fullscreenenter"",""0"",""1264""
","
","null","<p></p>","null","","","","","","","",""
"","image","85","109333","0.0-85.0","""event"",""trial"",""time""
""fullscreenenter"",""0"",""1264""
","
","
","""event"",""trial"",""time""
""fullscreenenter"",""0"",""1264""
","
","1164.7000000029802","run_exp/static/images/Set 6_rs/150a.jpg","86","","","","","","learn","SR",""
"","show_choice","86","110169","0.0-86.0","""event"",""trial"",""time""
""fullscreenenter"",""0"",""1264""
","
","
","""event"",""trial"",""time""
""fullscreenenter"",""0"",""1264""
","
","null","run_exp/static/images/Set 6_rs/150a.jpg","null","","","","","","learn","SR",""
"","html-keyboard-response","87","110674","0.0-87.0","""event"",""trial"",""time""
""fullscreenenter"",""0"",""1264""
","
","
","""event"",""trial"",""time""
""fullscreenenter"",""0"",""1264""
","
","null","<p></p>","null","","","","","","","",""
"","image","88","111628","0.0-88.0","""event"",""trial"",""time""
""fullscreenenter"",""0"",""1264""
","
","
","""event"",""trial"",""time""
""fullscreenenter"",""0"",""1264""
","
","952","run_exp/static/images/Set 6_rs/079a.jpg","86","","","","","","learn","SL",""
"","show_choice","89","112681","0.0-89.0","""event"",""trial"",""time""
""fullscreenenter"",""0"",""1264""
","
","
","""event"",""trial"",""time""
""fullscreenenter"",""0"",""1264""
","
","null","run_exp/static/images/Set 6_rs/079a.jpg","null","","","","","","learn","SL",""
"","html-keyboard-response","90","113183","0.0-90.0","""event"",""trial"",""time""
""fullscreenenter"",""0"",""1264""
","
","
","""event"",""trial"",""time""
""fullscreenenter"",""0"",""1264""
","
","null","<p></p>","null","","","","","","","",""
"","image","91","114050","0.0-91.0","""event"",""trial"",""time""
""fullscreenenter"",""0"",""1264""
","
","
","""event"",""trial"",""time""
""fullscreenenter"",""0"",""1264""
","
","865.8999999910593","run_exp/static/images/Set 6_rs/008a.jpg","78","","","","","","learn","SL",""
"","show_choice","92","115186","0.0-92.0","""event"",""trial"",""time""
""fullscreenenter"",""0"",""1264""
","
","
","""event"",""trial"",""time""
""fullscreenenter"",""0"",""1264""
","
","null","run_exp/static/images/Set 6_rs/008a.jpg","null","","","","","","learn","SL",""
"","html-keyboard-response","93","115690","0.0-93.0","""event"",""trial"",""time""
""fullscreenenter"",""0"",""1264""
","
","
","""event"",""trial"",""time""
""fullscreenenter"",""0"",""1264""
","
","null","<p></p>","null","","","","","","","",""
"","image","94","117454","0.0-94.0","""event"",""trial"",""time""
""fullscreenenter"",""0"",""1264""
","
","
","""event"",""trial"",""time""
""fullscreenenter"",""0"",""1264""
","
","1762.9000000059605","run_exp/static/images/Set 6_rs/036a.jpg","86","","","","","","learn","SL",""
"","show_choice","95","117692","0.0-95.0","""event"",""trial"",""time""
""fullscreenenter"",""0"",""1264""
","
","
","""event"",""trial"",""time""
""fullscreenenter"",""0"",""1264""
","
","null","run_exp/static/images/Set 6_rs/036a.jpg","null","","","","","","learn","SL",""
"","html-keyboard-response","96","118198","0.0-96.0","""event"",""trial"",""time""
""fullscreenenter"",""0"",""1264""
","
","
","""event"",""trial"",""time""
""fullscreenenter"",""0"",""1264""
","
","null","<p></p>","null","","","","","","","",""
"","image","97","119335","0.0-97.0","""event"",""trial"",""time""
""fullscreenenter"",""0"",""1264""
","
","
","""event"",""trial"",""time""
""fullscreenenter"",""0"",""1264""
","
","1135.2000000029802","run_exp/static/images/Set 6_rs/085a.jpg","78","","","","","","learn","SL",""
"","show_choice","98","120204","0.0-98.0","""event"",""trial"",""time""
""fullscreenenter"",""0"",""1264""
","
","
","""event"",""trial"",""time""
""fullscreenenter"",""0"",""1264""
","
","null","run_exp/static/images/Set 6_rs/085a.jpg","null","","","","","","learn","SL",""
"","html-keyboard-response","99","120710","0.0-99.0","""event"",""trial"",""time""
""fullscreenenter"",""0"",""1264""
","
","
","""event"",""trial"",""time""
""fullscreenenter"",""0"",""1264""
","
","null","<p></p>","null","","","","","","","",""
"","image","100","121786","0.0-100.0","""event"",""trial"",""time""
""fullscreenenter"",""0"",""1264""
","
","
","""event"",""trial"",""time""
""fullscreenenter"",""0"",""1264""
","
","1074.300000011921","run_exp/static/images/Set 6_rs/095a.jpg","86","","","","","","learn","SL",""
"","show_choice","101","122717","0.0-101.0","""event"",""trial"",""time""
""fullscreenenter"",""0"",""1264""
","
","
","""event"",""trial"",""time""
""fullscreenenter"",""0"",""1264""
","
","null","run_exp/static/images/Set 6_rs/095a.jpg","null","","","","","","learn","SL",""
"","html-keyboard-response","102","123223","0.0-102.0","""event"",""trial"",""time""
""fullscreenenter"",""0"",""1264""
","
","
","""event"",""trial"",""time""
""fullscreenenter"",""0"",""1264""
","
","null","<p></p>","null","","","","","","","",""
"","image","103","123977","0.0-103.0","""event"",""trial"",""time""
""fullscreenenter"",""0"",""1264""
","
","
","""event"",""trial"",""time""
""fullscreenenter"",""0"",""1264""
","
","752.2999999970198","run_exp/static/images/Set 6_rs/023a.jpg","86","","","","","","learn","SR",""
"","show_choice","104","125226","0.0-104.0","""event"",""trial"",""time""
""fullscreenenter"",""0"",""1264""
","
","
","""event"",""trial"",""time""
""fullscreenenter"",""0"",""1264""
","
","null","run_exp/static/images/Set 6_rs/023a.jpg","null","","","","","","learn","SR",""
"","html-keyboard-response","105","125732","0.0-105.0","""event"",""trial"",""time""
""fullscreenenter"",""0"",""1264""
","
","
","""event"",""trial"",""time""
""fullscreenenter"",""0"",""1264""
","
","null","<p></p>","null","","","","","","","",""
"","image","106","126622","0.0-106.0","""event"",""trial"",""time""
""fullscreenenter"",""0"",""1264""
","
","
","""event"",""trial"",""time""
""fullscreenenter"",""0"",""1264""
","
","889","run_exp/static/images/Set 6_rs/138a.jpg","78","","","","","","learn","SL",""
"","show_choice","107","127735","0.0-107.0","""event"",""trial"",""time""
""fullscreenenter"",""0"",""1264""
","
","
","""event"",""trial"",""time""
""fullscreenenter"",""0"",""1264""
","
","null","run_exp/static/images/Set 6_rs/138a.jpg","null","","","","","","learn","SL",""
"","html-keyboard-response","108","128241","0.0-108.0","""event"",""trial"",""time""
""fullscreenenter"",""0"",""1264""
","
","
","""event"",""trial"",""time""
""fullscreenenter"",""0"",""1264""
","
","null","<p></p>","null","","","","","","","",""
"","image","109","128973","0.0-109.0","""event"",""trial"",""time""
""fullscreenenter"",""0"",""1264""
","
","
","""event"",""trial"",""time""
""fullscreenenter"",""0"",""1264""
","
","730.3999999910593","run_exp/static/images/Set 6_rs/024a.jpg","86","","","","","","learn","SR",""
"","show_choice","110","130248","0.0-110.0","""event"",""trial"",""time""
""fullscreenenter"",""0"",""1264""
","
","
","""event"",""trial"",""time""
""fullscreenenter"",""0"",""1264""
","
","null","run_exp/static/images/Set 6_rs/024a.jpg","null","","","","","","learn","SR",""
"","html-keyboard-response","111","130751","0.0-111.0","""event"",""trial"",""time""
""fullscreenenter"",""0"",""1264""
","
","
","""event"",""trial"",""time""
""fullscreenenter"",""0"",""1264""
","
","null","<p></p>","null","","","","","","","",""
"","image","112","131500","0.0-112.0","""event"",""trial"",""time""
""fullscreenenter"",""0"",""1264""
","
","
","""event"",""trial"",""time""
""fullscreenenter"",""0"",""1264""
","
","747.8999999910593","run_exp/static/images/Set 6_rs/062a.jpg","86","","","","","","learn","SL",""
"","show_choice","113","132753","0.0-113.0","""event"",""trial"",""time""
""fullscreenenter"",""0"",""1264""
","
","
","""event"",""trial"",""time""
""fullscreenenter"",""0"",""1264""
","
","null","run_exp/static/images/Set 6_rs/062a.jpg","null","","","","","","learn","SL",""
"","html-keyboard-response","114","133256","0.0-114.0","""event"",""trial"",""time""
""fullscreenenter"",""0"",""1264""
","
","
","""event"",""trial"",""time""
""fullscreenenter"",""0"",""1264""
","
","null","<p></p>","null","","","","","","","",""
"","image","115","134339","0.0-115.0","""event"",""trial"",""time""
""fullscreenenter"",""0"",""1264""
","
","
","""event"",""trial"",""time""
""fullscreenenter"",""0"",""1264""
","
","1081.7000000029802","run_exp/static/images/Set 6_rs/131a.jpg","86","","","","","","learn","SR",""
"","show_choice","116","135259","0.0-116.0","""event"",""trial"",""time""
""fullscreenenter"",""0"",""1264""
","
","
","""event"",""trial"",""time""
""fullscreenenter"",""0"",""1264""
","
","null","run_exp/static/images/Set 6_rs/131a.jpg","null","","","","","","learn","SR",""
"","html-keyboard-response","117","135760","0.0-117.0","""event"",""trial"",""time""
""fullscreenenter"",""0"",""1264""
","
","
","""event"",""trial"",""time""
""fullscreenenter"",""0"",""1264""
","
","null","<p></p>","null","","","","","","","",""
"","image","118","137188","0.0-118.0","""event"",""trial"",""time""
""fullscreenenter"",""0"",""1264""
","
","
","""event"",""trial"",""time""
""fullscreenenter"",""0"",""1264""
","
","1426.7999999970198","run_exp/static/images/Set 6_rs/007a.jpg","78","","","","","","learn","SR",""
"","show_choice","119","137767","0.0-119.0","""event"",""trial"",""time""
""fullscreenenter"",""0"",""1264""
","
","
","""event"",""trial"",""time""
""fullscreenenter"",""0"",""1264""
","
","null","run_exp/static/images/Set 6_rs/007a.jpg","null","","","","","","learn","SR",""
"","html-keyboard-response","120","138272","0.0-120.0","""event"",""trial"",""time""
""fullscreenenter"",""0"",""1264""
","
","
","""event"",""trial"",""time""
""fullscreenenter"",""0"",""1264""
","
","null","<p></p>","null","","","","","","","",""
"","image","121","139435","0.0-121.0","""event"",""trial"",""time""
""fullscreenenter"",""0"",""1264""
","
","
","""event"",""trial"",""time""
""fullscreenenter"",""0"",""1264""
","
","1161.2000000029802","run_exp/static/images/Set 6_rs/187a.jpg","78","","","","","","learn","SR",""
"","show_choice","122","140279","0.0-122.0","""event"",""trial"",""time""
""fullscreenenter"",""0"",""1264""
","
","
","""event"",""trial"",""time""
""fullscreenenter"",""0"",""1264""
","
","null","run_exp/static/images/Set 6_rs/187a.jpg","null","","","","","","learn","SR",""
"","html-keyboard-response","123","140782","0.0-123.0","""event"",""trial"",""time""
""fullscreenenter"",""0"",""1264""
","
","
","""event"",""trial"",""time""
""fullscreenenter"",""0"",""1264""
","
","null","<p></p>","null","","","","","","","",""
"","image","124","142191","0.0-124.0","""event"",""trial"",""time""
""fullscreenenter"",""0"",""1264""
","
","
","""event"",""trial"",""time""
""fullscreenenter"",""0"",""1264""
","
","1407.300000011921","run_exp/static/images/Set 6_rs/055a.jpg","86","","","","","","learn","SL",""
"","show_choice","125","142786","0.0-125.0","""event"",""trial"",""time""
""fullscreenenter"",""0"",""1264""
","
","
","""event"",""trial"",""time""
""fullscreenenter"",""0"",""1264""
","
","null","run_exp/static/images/Set 6_rs/055a.jpg","null","","","","","","learn","SL",""
"","html-keyboard-response","126","143287","0.0-126.0","""event"",""trial"",""time""
""fullscreenenter"",""0"",""1264""
","
","
","""event"",""trial"",""time""
""fullscreenenter"",""0"",""1264""
","
","null","<p></p>","null","","","","","","","",""
"","image","127","144540","0.0-127.0","""event"",""trial"",""time""
""fullscreenenter"",""0"",""1264""
","
","
","""event"",""trial"",""time""
""fullscreenenter"",""0"",""1264""
","
","1251.4000000059605","run_exp/static/images/Set 6_rs/181a.jpg","78","","","","","","learn","SL",""
"","show_choice","128","145289","0.0-128.0","""event"",""trial"",""time""
""fullscreenenter"",""0"",""1264""
","
","
","""event"",""trial"",""time""
""fullscreenenter"",""0"",""1264""
","
","null","run_exp/static/images/Set 6_rs/181a.jpg","null","","","","","","learn","SL",""
"","html-keyboard-response","129","145792","0.0-129.0","""event"",""trial"",""time""
""fullscreenenter"",""0"",""1264""
","
","
","""event"",""trial"",""time""
""fullscreenenter"",""0"",""1264""
","
","null","<p></p>","null","","","","","","","",""
"","image","130","147244","0.0-130.0","""event"",""trial"",""time""
""fullscreenenter"",""0"",""1264""
","
","
","""event"",""trial"",""time""
""fullscreenenter"",""0"",""1264""
","
","1450.7000000029802","run_exp/static/images/Set 6_rs/012a.jpg","86","","","","","","learn","SR",""
"","show_choice","131","147799","0.0-131.0","""event"",""trial"",""time""
""fullscreenenter"",""0"",""1264""
","
","
","""event"",""trial"",""time""
""fullscreenenter"",""0"",""1264""
","
","null","run_exp/static/images/Set 6_rs/012a.jpg","null","","","","","","learn","SR",""
"","html-keyboard-response","132","148303","0.0-132.0","""event"",""trial"",""time""
""fullscreenenter"",""0"",""1264""
","
","
","""event"",""trial"",""time""
""fullscreenenter"",""0"",""1264""
","
","null","<p></p>","null","","","","","","","",""
"","image","133","149948","0.0-133.0","""event"",""trial"",""time""
""fullscreenenter"",""0"",""1264""
","
","
","""event"",""trial"",""time""
""fullscreenenter"",""0"",""1264""
","
","1643.7999999970198","run_exp/static/images/Set 6_rs/014a.jpg","86","","","","","","learn","SL",""
"","show_choice","134","150311","0.0-134.0","""event"",""trial"",""time""
""fullscreenenter"",""0"",""1264""
","
","
","""event"",""trial"",""time""
""fullscreenenter"",""0"",""1264""
","
","null","run_exp/static/images/Set 6_rs/014a.jpg","null","","","","","","learn","SL",""
"","html-keyboard-response","135","150817","0.0-135.0","""event"",""trial"",""time""
""fullscreenenter"",""0"",""1264""
","
","
","""event"",""trial"",""time""
""fullscreenenter"",""0"",""1264""
","
","null","<p></p>","null","","","","","","","",""
"","image","136","152299","0.0-136.0","""event"",""trial"",""time""
""fullscreenenter"",""0"",""1264""
","
","
","""event"",""trial"",""time""
""fullscreenenter"",""0"",""1264""
","
","1480.2000000029802","run_exp/static/images/Set 6_rs/010a.jpg","86","","","","","","learn","SR",""
"","show_choice","137","152821","0.0-137.0","""event"",""trial"",""time""
""fullscreenenter"",""0"",""1264""
","
","
","""event"",""trial"",""time""
""fullscreenenter"",""0"",""1264""
","
","null","run_exp/static/images/Set 6_rs/010a.jpg","null","","","","","","learn","SR",""
"","html-keyboard-response","138","153325","0.0-138.0","""event"",""trial"",""time""
""fullscreenenter"",""0"",""1264""
","
","
","""event"",""trial"",""time""
""fullscreenenter"",""0"",""1264""
","
","null","<p></p>","null","","","","","","","",""
"","image","139","154130","0.0-139.0","""event"",""trial"",""time""
""fullscreenenter"",""0"",""1264""
","
","
","""event"",""trial"",""time""
""fullscreenenter"",""0"",""1264""
","
","803.8000000119209","run_exp/static/images/Set 6_rs/071a.jpg","86","","","","","","learn","SL",""
"","show_choice","140","155330","0.0-140.0","""event"",""trial"",""time""
""fullscreenenter"",""0"",""1264""
","
","
","""event"",""trial"",""time""
""fullscreenenter"",""0"",""1264""
","
","null","run_exp/static/images/Set 6_rs/071a.jpg","null","","","","","","learn","SL",""
"","html-keyboard-response","141","155835","0.0-141.0","""event"",""trial"",""time""
""fullscreenenter"",""0"",""1264""
","
","
","""event"",""trial"",""time""
""fullscreenenter"",""0"",""1264""
","
","null","<p></p>","null","","","","","","","",""
"","image","142","157091","0.0-142.0","""event"",""trial"",""time""
""fullscreenenter"",""0"",""1264""
","
","
","""event"",""trial"",""time""
""fullscreenenter"",""0"",""1264""
","
","1254.5999999940395","run_exp/static/images/Set 6_rs/121a.jpg","86","","","","","","learn","SR",""
"","show_choice","143","157842","0.0-143.0","""event"",""trial"",""time""
""fullscreenenter"",""0"",""1264""
","
","
","""event"",""trial"",""time""
""fullscreenenter"",""0"",""1264""
","
","null","run_exp/static/images/Set 6_rs/121a.jpg","null","","","","","","learn","SR",""
"","html-keyboard-response","144","158348","0.0-144.0","""event"",""trial"",""time""
""fullscreenenter"",""0"",""1264""
","
","
","""event"",""trial"",""time""
""fullscreenenter"",""0"",""1264""
","
","null","<p></p>","null","","","","","","","",""
"","image","145","159821","0.0-145.0","""event"",""trial"",""time""
""fullscreenenter"",""0"",""1264""
","
","
","""event"",""trial"",""time""
""fullscreenenter"",""0"",""1264""
","
","1471.8999999910593","run_exp/static/images/Set 6_rs/177a.jpg","78","","","","","","learn","SR",""
"","show_choice","146","160351","0.0-146.0","""event"",""trial"",""time""
""fullscreenenter"",""0"",""1264""
","
","
","""event"",""trial"",""time""
""fullscreenenter"",""0"",""1264""
","
","null","run_exp/static/images/Set 6_rs/177a.jpg","null","","","","","","learn","SR",""
"","html-keyboard-response","147","160857","0.0-147.0","""event"",""trial"",""time""
""fullscreenenter"",""0"",""1264""
","
","
","""event"",""trial"",""time""
""fullscreenenter"",""0"",""1264""
","
","null","<p></p>","null","","","","","","","",""
"","image","148","162666","0.0-148.0","""event"",""trial"",""time""
""fullscreenenter"",""0"",""1264""
","
","
","""event"",""trial"",""time""
""fullscreenenter"",""0"",""1264""
","
","1807.7999999970198","run_exp/static/images/Set 6_rs/076a.jpg","78","","","","","","learn","SR",""
"","show_choice","149","162859","0.0-149.0","""event"",""trial"",""time""
""fullscreenenter"",""0"",""1264""
","
","
","""event"",""trial"",""time""
""fullscreenenter"",""0"",""1264""
","
","null","run_exp/static/images/Set 6_rs/076a.jpg","null","","","","","","learn","SR",""
"","html-keyboard-response","150","163365","0.0-150.0","""event"",""trial"",""time""
""fullscreenenter"",""0"",""1264""
","
","
","""event"",""trial"",""time""
""fullscreenenter"",""0"",""1264""
","
","null","<p></p>","null","","","","","","","",""
"","image","151","165241","0.0-151.0","""event"",""trial"",""time""
""fullscreenenter"",""0"",""1264""
","
","
","""event"",""trial"",""time""
""fullscreenenter"",""0"",""1264""
","
","1873.8999999910593","run_exp/static/images/Set 6_rs/091a.jpg","78","","","","","","learn","SL",""
"","show_choice","152","165372","0.0-152.0","""event"",""trial"",""time""
""fullscreenenter"",""0"",""1264""
","
","
","""event"",""trial"",""time""
""fullscreenenter"",""0"",""1264""
","
","null","run_exp/static/images/Set 6_rs/091a.jpg","null","","","","","","learn","SL",""
"","html-keyboard-response","153","165878","0.0-153.0","""event"",""trial"",""time""
""fullscreenenter"",""0"",""1264""
","
","
","""event"",""trial"",""time""
""fullscreenenter"",""0"",""1264""
","
","null","<p></p>","null","","","","","","","",""
"","image","154","167498","0.0-154.0","""event"",""trial"",""time""
""fullscreenenter"",""0"",""1264""
","
","
","""event"",""trial"",""time""
""fullscreenenter"",""0"",""1264""
","
","1617.9000000059605","run_exp/static/images/Set 6_rs/050a.jpg","86","","","","","","learn","SL",""
"","show_choice","155","167883","0.0-155.0","""event"",""trial"",""time""
""fullscreenenter"",""0"",""1264""
","
","
","""event"",""trial"",""time""
""fullscreenenter"",""0"",""1264""
","
","null","run_exp/static/images/Set 6_rs/050a.jpg","null","","","","","","learn","SL",""
"","html-keyboard-response","156","168390","0.0-156.0","""event"",""trial"",""time""
""fullscreenenter"",""0"",""1264""
","
","
","""event"",""trial"",""time""
""fullscreenenter"",""0"",""1264""
","
","null","<p></p>","null","","","","","","","",""
"","image","157","170394","0.0-157.0","""event"",""trial"",""time""
""fullscreenenter"",""0"",""1264""
","
","
","""event"",""trial"",""time""
""fullscreenenter"",""0"",""1264""
","
","null","run_exp/static/images/Set 6_rs/074a.jpg","null","","","","","","learn","SL",""
"","show_choice","158","172396","0.0-158.0","""event"",""trial"",""time""
""fullscreenenter"",""0"",""1264""
","
","
","""event"",""trial"",""time""
""fullscreenenter"",""0"",""1264""
","
","null","run_exp/static/images/blank.png","null","","","","","","learn","SL",""
"","html-keyboard-response","159","172900","0.0-159.0","""event"",""trial"",""time""
""fullscreenenter"",""0"",""1264""
","
","
","""event"",""trial"",""time""
""fullscreenenter"",""0"",""1264""
","
","null","<p></p>","null","","","","","","","",""
"","image","160","174031","0.0-160.0","""event"",""trial"",""time""
""fullscreenenter"",""0"",""1264""
","
","
","""event"",""trial"",""time""
""fullscreenenter"",""0"",""1264""
","
","1129.2000000029802","run_exp/static/images/Set 6_rs/006a.jpg","86","","","","","","learn","SL",""
"","show_choice","161","174902","0.0-161.0","""event"",""trial"",""time""
""fullscreenenter"",""0"",""1264""
","
","
","""event"",""trial"",""time""
""fullscreenenter"",""0"",""1264""
","
","null","run_exp/static/images/Set 6_rs/006a.jpg","null","","","","","","learn","SL",""
"","html-keyboard-response","162","175404","0.0-162.0","""event"",""trial"",""time""
""fullscreenenter"",""0"",""1264""
","
","
","""event"",""trial"",""time""
""fullscreenenter"",""0"",""1264""
","
","null","<p></p>","null","","","","","","","",""
"","image","163","176825","0.0-163.0","""event"",""trial"",""time""
""fullscreenenter"",""0"",""1264""
","
","
","""event"",""trial"",""time""
""fullscreenenter"",""0"",""1264""
","
","1419.199999988079","run_exp/static/images/Set 6_rs/123a.jpg","86","","","","","","learn","SL",""
"","show_choice","164","177407","0.0-164.0","""event"",""trial"",""time""
""fullscreenenter"",""0"",""1264""
","
","
","""event"",""trial"",""time""
""fullscreenenter"",""0"",""1264""
","
","null","run_exp/static/images/Set 6_rs/123a.jpg","null","","","","","","learn","SL",""
"","html-keyboard-response","165","177913","0.0-165.0","""event"",""trial"",""time""
""fullscreenenter"",""0"",""1264""
","
","
","""event"",""trial"",""time""
""fullscreenenter"",""0"",""1264""
","
","null","<p></p>","null","","","","","","","",""
"","image","166","179636","0.0-166.0","""event"",""trial"",""time""
""fullscreenenter"",""0"",""1264""
","
","
","""event"",""trial"",""time""
""fullscreenenter"",""0"",""1264""
","
","1721.7000000029802","run_exp/static/images/Set 6_rs/017a.jpg","86","","","","","","learn","SL",""
"","show_choice","167","179916","0.0-167.0","""event"",""trial"",""time""
""fullscreenenter"",""0"",""1264""
","
","
","""event"",""trial"",""time""
""fullscreenenter"",""0"",""1264""
","
","null","run_exp/static/images/Set 6_rs/017a.jpg","null","","","","","","learn","SL",""
"","html-keyboard-response","168","180418","0.0-168.0","""event"",""trial"",""time""
""fullscreenenter"",""0"",""1264""
","
","
","""event"",""trial"",""time""
""fullscreenenter"",""0"",""1264""
","
","null","<p></p>","null","","","","","","","",""
"","image","169","182284","0.0-169.0","""event"",""trial"",""time""
""fullscreenenter"",""0"",""1264""
","
","
","""event"",""trial"",""time""
""fullscreenenter"",""0"",""1264""
","
","1864.7000000029802","run_exp/static/images/Set 6_rs/144a.jpg","86","","","","","","learn","SL",""
"","show_choice","170","182421","0.0-170.0","""event"",""trial"",""time""
""fullscreenenter"",""0"",""1264""
","
","
","""event"",""trial"",""time""
""fullscreenenter"",""0"",""1264""
","
","null","run_exp/static/images/Set 6_rs/144a.jpg","null","","","","","","learn","SL",""
"","html-keyboard-response","171","182927","0.0-171.0","""event"",""trial"",""time""
""fullscreenenter"",""0"",""1264""
","
","
","""event"",""trial"",""time""
""fullscreenenter"",""0"",""1264""
","
","null","<p></p>","null","","","","","","","",""
"","image","172","183805","0.0-172.0","""event"",""trial"",""time""
""fullscreenenter"",""0"",""1264""
","
","
","""event"",""trial"",""time""
""fullscreenenter"",""0"",""1264""
","
","874.2999999970198","run_exp/static/images/Set 6_rs/186a.jpg","86","","","","","","learn","SR",""
"","show_choice","173","184932","0.0-173.0","""event"",""trial"",""time""
""fullscreenenter"",""0"",""1264""
","
","
","""event"",""trial"",""time""
""fullscreenenter"",""0"",""1264""
","
","null","run_exp/static/images/Set 6_rs/186a.jpg","null","","","","","","learn","SR",""
"","html-keyboard-response","174","185437","0.0-174.0","""event"",""trial"",""time""
""fullscreenenter"",""0"",""1264""
","
","
","""event"",""trial"",""time""
""fullscreenenter"",""0"",""1264""
","
","null","<p></p>","null","","","","","","","",""
"","image","175","186570","0.0-175.0","""event"",""trial"",""time""
""fullscreenenter"",""0"",""1264""
","
","
","""event"",""trial"",""time""
""fullscreenenter"",""0"",""1264""
","
","1132.199999988079","run_exp/static/images/Set 6_rs/169a.jpg","78","","","","","","learn","SR",""
"","show_choice","176","187443","0.0-176.0","""event"",""trial"",""time""
""fullscreenenter"",""0"",""1264""
","
","
","""event"",""trial"",""time""
""fullscreenenter"",""0"",""1264""
","
","null","run_exp/static/images/Set 6_rs/169a.jpg","null","","","","","","learn","SR",""
"","html-keyboard-response","177","187947","0.0-177.0","""event"",""trial"",""time""
""fullscreenenter"",""0"",""1264""
","
","
","""event"",""trial"",""time""
""fullscreenenter"",""0"",""1264""
","
","null","<p></p>","null","","","","","","","",""
"","image","178","188913","0.0-178.0","""event"",""trial"",""time""
""fullscreenenter"",""0"",""1264""
","
","
","""event"",""trial"",""time""
""fullscreenenter"",""0"",""1264""
","
","964.2999999970198","run_exp/static/images/Set 6_rs/152a.jpg","78","","","","","","learn","SR",""
"","show_choice","179","189953","0.0-179.0","""event"",""trial"",""time""
""fullscreenenter"",""0"",""1264""
","
","
","""event"",""trial"",""time""
""fullscreenenter"",""0"",""1264""
","
","null","run_exp/static/images/Set 6_rs/152a.jpg","null","","","","","","learn","SR",""
"","html-keyboard-response","180","190455","0.0-180.0","""event"",""trial"",""time""
""fullscreenenter"",""0"",""1264""
","
","
","""event"",""trial"",""time""
""fullscreenenter"",""0"",""1264""
","
","null","<p></p>","null","","","","","","","",""
"","image","181","191182","0.0-181.0","""event"",""trial"",""time""
""fullscreenenter"",""0"",""1264""
","
","
","""event"",""trial"",""time""
""fullscreenenter"",""0"",""1264""
","
","726","run_exp/static/images/Set 6_rs/075a.jpg","86","","","","","","learn","SR",""
"","show_choice","182","192458","0.0-182.0","""event"",""trial"",""time""
""fullscreenenter"",""0"",""1264""
","
","
","""event"",""trial"",""time""
""fullscreenenter"",""0"",""1264""
","
","null","run_exp/static/images/Set 6_rs/075a.jpg","null","","","","","","learn","SR",""
"","html-keyboard-response","183","192959","0.0-183.0","""event"",""trial"",""time""
""fullscreenenter"",""0"",""1264""
","
","
","""event"",""trial"",""time""
""fullscreenenter"",""0"",""1264""
","
","null","<p></p>","null","","","","","","","",""
"","image","184","194016","0.0-184.0","""event"",""trial"",""time""
""fullscreenenter"",""0"",""1264""
","
","
","""event"",""trial"",""time""
""fullscreenenter"",""0"",""1264""
","
","1055.2000000029802","run_exp/static/images/Set 6_rs/061a.jpg","78","","","","","","learn","SR",""
"","show_choice","185","194963","0.0-185.0","""event"",""trial"",""time""
""fullscreenenter"",""0"",""1264""
","
","
","""event"",""trial"",""time""
""fullscreenenter"",""0"",""1264""
","
","null","run_exp/static/images/Set 6_rs/061a.jpg","null","","","","","","learn","SR",""
"","html-keyboard-response","186","195469","0.0-186.0","""event"",""trial"",""time""
""fullscreenenter"",""0"",""1264""
","
","
","""event"",""trial"",""time""
""fullscreenenter"",""0"",""1264""
","
","null","<p></p>","null","","","","","","","",""
"","image","187","196440","0.0-187.0","""event"",""trial"",""time""
""fullscreenenter"",""0"",""1264""
","
","
","""event"",""trial"",""time""
""fullscreenenter"",""0"",""1264""
","
","968.7999999970198","run_exp/static/images/Set 6_rs/178a.jpg","78","","","","","","learn","SR",""
"","show_choice","188","197476","0.0-188.0","""event"",""trial"",""time""
""fullscreenenter"",""0"",""1264""
","
","
","""event"",""trial"",""time""
""fullscreenenter"",""0"",""1264""
","
","null","run_exp/static/images/Set 6_rs/178a.jpg","null","","","","","","learn","SR",""
"","html-keyboard-response","189","197979","0.0-189.0","""event"",""trial"",""time""
""fullscreenenter"",""0"",""1264""
","
","
","""event"",""trial"",""time""
""fullscreenenter"",""0"",""1264""
","
","null","<p></p>","null","","","","","","","",""
"","image","190","198931","0.0-190.0","""event"",""trial"",""time""
""fullscreenenter"",""0"",""1264""
","
","
","""event"",""trial"",""time""
""fullscreenenter"",""0"",""1264""
","
","950.5","run_exp/static/images/Set 6_rs/132a.jpg","78","","","","","","learn","SR",""
"","show_choice","191","199986","0.0-191.0","""event"",""trial"",""time""
""fullscreenenter"",""0"",""1264""
","
","
","""event"",""trial"",""time""
""fullscreenenter"",""0"",""1264""
","
","null","run_exp/static/images/Set 6_rs/132a.jpg","null","","","","","","learn","SR",""
"","html-keyboard-response","192","200492","0.0-192.0","""event"",""trial"",""time""
""fullscreenenter"",""0"",""1264""
","
","
","""event"",""trial"",""time""
""fullscreenenter"",""0"",""1264""
","
","null","<p></p>","null","","","","","","","",""
"","image","193","201175","0.0-193.0","""event"",""trial"",""time""
""fullscreenenter"",""0"",""1264""
","
","
","""event"",""trial"",""time""
""fullscreenenter"",""0"",""1264""
","
","681.4000000059605","run_exp/static/images/Set 6_rs/070a.jpg","86","","","","","","learn","SR",""
"","show_choice","194","202499","0.0-194.0","""event"",""trial"",""time""
""fullscreenenter"",""0"",""1264""
","
","
","""event"",""trial"",""time""
""fullscreenenter"",""0"",""1264""
","
","null","run_exp/static/images/Set 6_rs/070a.jpg","null","","","","","","learn","SR",""
"","html-keyboard-response","195","203001","0.0-195.0","""event"",""trial"",""time""
""fullscreenenter"",""0"",""1264""
","
","
","""event"",""trial"",""time""
""fullscreenenter"",""0"",""1264""
","
","null","<p></p>","null","","","","","","","",""
"","test_intro","196","239957","0.0-196.0","""event"",""trial"",""time""
""fullscreenenter"",""0"",""1264""
","
","
","""event"",""trial"",""time""
""fullscreenenter"",""0"",""1264""
","
","null","run_exp/static/audio/clip_2_memory.m4a","null","","","","","<div class='center'><p>Now, lets see how much you remember about the items you just saw.  For each item, you need to indicate if it was <b>old</b> by pressing the <b>v</b> key, <b>similar</b> by pressing the <b>b</b> key, or <b>new</b> by pressing the <b>n</b> key.</p><p>Old refers to an item that you saw before in the indoor/outdoor game that you just played, new refers to an item you have <b>not</b> seen before within the indoor/outdoor game, and similar refers to an item that is similar to an item youve seen before but is not exactly the same. </p><p>Before we begin, lets go over some brief demonstrations to make sure you understand.</p></div>","","",""
"","html-keyboard-response","197","240397","0.0-197.0","""event"",""trial"",""time""
""fullscreenenter"",""0"",""1264""
","
","
","""event"",""trial"",""time""
""fullscreenenter"",""0"",""1264""
","
","438.40000000596046","<div class='center'><p>Now, lets see how much you remember about the items you just saw.  For each item, you need to indicate if it was <b>old</b> by pressing the <b>v</b> key, <b>similar</b> by pressing the <b>b</b> key, or <b>new</b> by pressing the <b>n</b> key.</p><p>Old refers to an item that you saw before in the indoor/outdoor game that you just played, new refers to an item you have <b>not</b> seen before within the indoor/outdoor game, and similar refers to an item that is similar to an item youve seen before but is not exactly the same. </p><p>Before we begin, lets go over some brief demonstrations to make sure you understand.</p><div><p><b>[Press the space bar to continue]</b></p></div>","32","","","","","","","",""
"","items","198","247904","0.0-198.0","""event"",""trial"",""time""
""fullscreenenter"",""0"",""1264""
","
","
","""event"",""trial"",""time""
""fullscreenenter"",""0"",""1264""
","
","null","run_exp/static/audio/clip_3_items.m4a","null","","","","","","","",""
"","mop","199","252407","0.0-199.0","""event"",""trial"",""time""
""fullscreenenter"",""0"",""1264""
","
","
","""event"",""trial"",""time""
""fullscreenenter"",""0"",""1264""
","
","null","run_exp/static/audio/clip_4_mop.m4a","null","","","","","","","",""
"","baseball","200","255915","0.0-200.0","""event"",""trial"",""time""
""fullscreenenter"",""0"",""1264""
","
","
","""event"",""trial"",""time""
""fullscreenenter"",""0"",""1264""
","
","null","run_exp/static/audio/clip_5_baseball.m4a","null","","","","","","","",""
"","trumpet","201","259421","0.0-201.0","""event"",""trial"",""time""
""fullscreenenter"",""0"",""1264""
","
","
","""event"",""trial"",""time""
""fullscreenenter"",""0"",""1264""
","
","null","run_exp/static/audio/clip_6_trumpet.m4a","null","","","","","","","",""
"","gummies","202","262925","0.0-202.0","""event"",""trial"",""time""
""fullscreenenter"",""0"",""1264""
","
","
","""event"",""trial"",""time""
""fullscreenenter"",""0"",""1264""
","
","null","run_exp/static/audio/clip_7_gummies.m4a","null","","","","","","","",""
"","osn","203","267432","0.0-203.0","""event"",""trial"",""time""
""fullscreenenter"",""0"",""1264""
","
","
","""event"",""trial"",""time""
""fullscreenenter"",""0"",""1264""
","
","null","run_exp/static/audio/clip_8_osn.m4a","null","","","","","","","",""
"","old_1","204","273939","0.0-204.0","""event"",""trial"",""time""
""fullscreenenter"",""0"",""1264""
","
","
","""event"",""trial"",""time""
""fullscreenenter"",""0"",""1264""
","
","null","run_exp/static/audio/clip_9_old_trumpet.m4a","null","","","","","","","",""
"","new_1","205","281444","0.0-205.0","""event"",""trial"",""time""
""fullscreenenter"",""0"",""1264""
","
","
","""event"",""trial"",""time""
""fullscreenenter"",""0"",""1264""
","
","null","run_exp/static/audio/clip_10_new_balloon.m4a","null","","","","","","","",""
"","similar_1a","206","285951","0.0-206.0","""event"",""trial"",""time""
""fullscreenenter"",""0"",""1264""
","
","
","""event"",""trial"",""time""
""fullscreenenter"",""0"",""1264""
","
","null","run_exp/static/audio/clip_11a_similar_mop.m4a","null","","","","","","","",""
"","similar_1b","207","292455","0.0-207.0","""event"",""trial"",""time""
""fullscreenenter"",""0"",""1264""
","
","
","""event"",""trial"",""time""
""fullscreenenter"",""0"",""1264""
","
","null","run_exp/static/audio/clip_11b_similar_mop.m4a","null","","","","","","","",""
"","new_2","208","295959","0.0-208.0","""event"",""trial"",""time""
""fullscreenenter"",""0"",""1264""
","
","
","""event"",""trial"",""time""
""fullscreenenter"",""0"",""1264""
","
","null","run_exp/static/audio/clip_12_new_stoplight.m4a","null","","","","","","","",""
"","old_2","209","299465","0.0-209.0","""event"",""trial"",""time""
""fullscreenenter"",""0"",""1264""
","
","
","""event"",""trial"",""time""
""fullscreenenter"",""0"",""1264""
","
","null","run_exp/static/audio/clip_13_old_baseball.m4a","null","","","","","","","",""
"","similar_2a","210","302973","0.0-210.0","""event"",""trial"",""time""
""fullscreenenter"",""0"",""1264""
","
","
","""event"",""trial"",""time""
""fullscreenenter"",""0"",""1264""
","
","null","run_exp/static/audio/clip_14a_similar_gummies.m4a","null","","","","","","","",""
"","similar_2b","211","310480","0.0-211.0","""event"",""trial"",""time""
""fullscreenenter"",""0"",""1264""
","
","
","""event"",""trial"",""time""
""fullscreenenter"",""0"",""1264""
","
","null","run_exp/static/audio/clip_14b_similar_gummies.m4a","null","","","","","","","",""
"","practice","212","352596","0.0-212.0","""event"",""trial"",""time""
""fullscreenenter"",""0"",""1264""
","
","
","""event"",""trial"",""time""
""fullscreenenter"",""0"",""1264""
","
","null","run_exp/static/audio/clip_15_practice.m4a","null","","","","","<div class='center'><p>Lets practice a little to make sure you understand the difference between new, similar, and old. Lets say you saw these three items in the indoor/outdoor game.</p><p> Try your best to remember these images because youll soon be tested on them in a practice game. In the practice game, youll be shown images and youll have to say if they are old (one of the three images belows), similar (similar to one of the images below but not exactly the same), or new (are not one of the images below nor similar to them).</p><p>Once you press the space bar youll be shown these images again but one at time. Then youll begin the practice game.</p><p><img src='run_exp/static/images/tutorial/test/three_indoor_outdoor.png' height='300'></p></div>","","",""
"","html-keyboard-response","213","353251","0.0-213.0","""event"",""trial"",""time""
""fullscreenenter"",""0"",""1264""
","
","
","""event"",""trial"",""time""
""fullscreenenter"",""0"",""1264""
","
","653.7000000029802","<div class='center'><p>Lets practice a little to make sure you understand the difference between new, similar, and old. Lets say you saw these three items in the indoor/outdoor game.</p><p> Try your best to remember these images because youll soon be tested on them in a practice game. In the practice game, youll be shown images and youll have to say if they are old (one of the three images belows), similar (similar to one of the images below but not exactly the same), or new (are not one of the images below nor similar to them).</p><p>Once you press the space bar youll be shown these images again but one at time. Then youll begin the practice game.</p><p><img src='run_exp/static/images/tutorial/test/three_indoor_outdoor.png' height='300'></p><div><p><b>[Press the space bar to continue]</b></p></div>","32","","","","","","","",""
"","planet","214","355253","0.0-214.0","""event"",""trial"",""time""
""fullscreenenter"",""0"",""1264""
","
","
","""event"",""trial"",""time""
""fullscreenenter"",""0"",""1264""
","
","null","run_exp/static/images/tutorial/test/008a.jpg","null","","","","","","","",""
"","boot","215","357255","0.0-215.0","""event"",""trial"",""time""
""fullscreenenter"",""0"",""1264""
","
","
","""event"",""trial"",""time""
""fullscreenenter"",""0"",""1264""
","
","null","run_exp/static/images/tutorial/test/011a.jpg","null","","","","","","","",""
"","lemon","216","359259","0.0-216.0","""event"",""trial"",""time""
""fullscreenenter"",""0"",""1264""
","
","
","""event"",""trial"",""time""
""fullscreenenter"",""0"",""1264""
","
","null","run_exp/static/images/tutorial/test/018a.jpg","null","","","","","","","",""
"","practice_q1","217","361498","0.0-217.0","""event"",""trial"",""time""
""fullscreenenter"",""0"",""1264""
","
","
","""event"",""trial"",""time""
""fullscreenenter"",""0"",""1264""
","
","2235.5","run_exp/static/audio/clip_16_practice_question.m4a","78","","","","","","","",""
"","correct","218","363393","0.0-218.0-0.0","""event"",""trial"",""time""
""fullscreenenter"",""0"",""1264""
","
","
","""event"",""trial"",""time""
""fullscreenenter"",""0"",""1264""
","
","null","run_exp/static/audio/clip_17_correct.m4a","null","","","","","<div class='center'><p>That's correct!</p></div>","","",""
"","html-keyboard-response","219","364396","0.0-218.0-1.0","""event"",""trial"",""time""
""fullscreenenter"",""0"",""1264""
","
","
","""event"",""trial"",""time""
""fullscreenenter"",""0"",""1264""
","
","1001.2999999970198","<div class='center'><p>That's correct!</p><div><p><b>[Press the space bar to continue]</b></p></div>","32","","","","","","","",""
"","practice_q2","220","366195","0.0-218.0-2.0","""event"",""trial"",""time""
""fullscreenenter"",""0"",""1264""
","
","
","""event"",""trial"",""time""
""fullscreenenter"",""0"",""1264""
","
","1797.5","run_exp/static/audio/clip_16_practice_question.m4a","86","","","","","","","",""
"","correct","221","368060","0.0-219.0-0.0","""event"",""trial"",""time""
""fullscreenenter"",""0"",""1264""
","
","
","""event"",""trial"",""time""
""fullscreenenter"",""0"",""1264""
","
","null","run_exp/static/audio/clip_17_correct.m4a","null","","","","","<div class='center'><p>That's correct!</p></div>","","",""
"","html-keyboard-response","222","368305","0.0-219.0-1.0","""event"",""trial"",""time""
""fullscreenenter"",""0"",""1264""
","
","
","""event"",""trial"",""time""
""fullscreenenter"",""0"",""1264""
","
","243","<div class='center'><p>That's correct!</p><div><p><b>[Press the space bar to continue]</b></p></div>","32","","","","","","","",""
"","practice_q3","223","369966","0.0-219.0-2.0","""event"",""trial"",""time""
""fullscreenenter"",""0"",""1264""
","
","
","""event"",""trial"",""time""
""fullscreenenter"",""0"",""1264""
","
","1658.9000000059605","run_exp/static/audio/clip_16_practice_question.m4a","66","","","","","","","",""
"","correct","224","372008","0.0-220.0-0.0","""event"",""trial"",""time""
""fullscreenenter"",""0"",""1264""
","
","
","""event"",""trial"",""time""
""fullscreenenter"",""0"",""1264""
","
","null","run_exp/static/audio/clip_17_correct.m4a","null","","","","","<div class='center'><p>That's correct!</p></div>","","",""
"","html-keyboard-response","225","372394","0.0-220.0-1.0","""event"",""trial"",""time""
""fullscreenenter"",""0"",""1264""
","
","
","""event"",""trial"",""time""
""fullscreenenter"",""0"",""1264""
","
","384.29999999701977","<div class='center'><p>That's correct!</p><div><p><b>[Press the space bar to continue]</b></p></div>","32","","","","","","","",""
"","begin_text","226","390862","0.0-221.0-0.0","""event"",""trial"",""time""
""fullscreenenter"",""0"",""1264""
","
","
","""event"",""trial"",""time""
""fullscreenenter"",""0"",""1264""
","
","null","run_exp/static/audio/clip_22_begin_test.m4a","null","","","","","<div class='center'><p>On to the real game where well test your memory of items from the indoor/outdoor game. For each item, you need to indicate if the item is <b>old</b> by pressing the <b>v</b> key, <b>similar</b> by pressing the <b>b</b> key, or <b>new</b> by pressing the <b>n</b> key. </p></div>","","",""
"","html-keyboard-response","227","391311","0.0-221.0-1.0","""event"",""trial"",""time""
""fullscreenenter"",""0"",""1264""
","
","
","""event"",""trial"",""time""
""fullscreenenter"",""0"",""1264""
","
","447.40000000596046","<div class='center'><p>On to the real game where well test your memory of items from the indoor/outdoor game. For each item, you need to indicate if the item is <b>old</b> by pressing the <b>v</b> key, <b>similar</b> by pressing the <b>b</b> key, or <b>new</b> by pressing the <b>n</b> key. </p><div><p><b>[Press the space bar to continue]</b></p></div>","32","","","","","","","",""
"","image","228","393857","0.0-222.0-0.0","""event"",""trial"",""time""
""fullscreenenter"",""0"",""1264""
","
","
","""event"",""trial"",""time""
""fullscreenenter"",""0"",""1264""
","
","2543.699999988079","run_exp/static/images/Set 6_rs/016b.jpg","86","","","","","","test","TL","1"
"","show_choice","229","394359","0.0-222.0-1.0","""event"",""trial"",""time""
""fullscreenenter"",""0"",""1264""
","
","
","""event"",""trial"",""time""
""fullscreenenter"",""0"",""1264""
","
","null","run_exp/static/images/Set 6_rs/016b.jpg","null","","","","","","test","TL",""
"","html-keyboard-response","230","394864","0.0-222.0-2.0","""event"",""trial"",""time""
""fullscreenenter"",""0"",""1264""
","
","
","""event"",""trial"",""time""
""fullscreenenter"",""0"",""1264""
","
","null","<p></p>","null","","","","","","","",""
"","image","231","396210","0.0-223.0-0.0","""event"",""trial"",""time""
""fullscreenenter"",""0"",""1264""
","
","
","""event"",""trial"",""time""
""fullscreenenter"",""0"",""1264""
","
","1344","run_exp/static/images/Set 6_rs/011a.jpg","66","","","","","","test","TF","3"
"","show_choice","232","396712","0.0-223.0-1.0","""event"",""trial"",""time""
""fullscreenenter"",""0"",""1264""
","
","
","""event"",""trial"",""time""
""fullscreenenter"",""0"",""1264""
","
","null","run_exp/static/images/Set 6_rs/011a.jpg","null","","","","","","test","TF",""
"","html-keyboard-response","233","397216","0.0-223.0-2.0","""event"",""trial"",""time""
""fullscreenenter"",""0"",""1264""
","
","
","""event"",""trial"",""time""
""fullscreenenter"",""0"",""1264""
","
","null","<p></p>","null","","","","","","","",""
"","image","234","398865","0.0-224.0-0.0","""event"",""trial"",""time""
""fullscreenenter"",""0"",""1264""
","
","
","""event"",""trial"",""time""
""fullscreenenter"",""0"",""1264""
","
","1648.0999999940395","run_exp/static/images/Set 6_rs/172a.jpg","86","","","","","","test","TR","1"
"","show_choice","235","399368","0.0-224.0-1.0","""event"",""trial"",""time""
""fullscreenenter"",""0"",""1264""
","
","
","""event"",""trial"",""time""
""fullscreenenter"",""0"",""1264""
","
","null","run_exp/static/images/Set 6_rs/172a.jpg","null","","","","","","test","TR",""
"","html-keyboard-response","236","399873","0.0-224.0-2.0","""event"",""trial"",""time""
""fullscreenenter"",""0"",""1264""
","
","
","""event"",""trial"",""time""
""fullscreenenter"",""0"",""1264""
","
","null","<p></p>","null","","","","","","","",""
"","image","237","401493","0.0-225.0-0.0","""event"",""trial"",""time""
""fullscreenenter"",""0"",""1264""
","
","
","""event"",""trial"",""time""
""fullscreenenter"",""0"",""1264""
","
","1619.1000000089407","run_exp/static/images/Set 6_rs/007a.jpg","86","","","","","","test","TR","3"
"","show_choice","238","401999","0.0-225.0-1.0","""event"",""trial"",""time""
""fullscreenenter"",""0"",""1264""
","
","
","""event"",""trial"",""time""
""fullscreenenter"",""0"",""1264""
","
","null","run_exp/static/images/Set 6_rs/007a.jpg","null","","","","","","test","TR",""
"","html-keyboard-response","239","402500","0.0-225.0-2.0","""event"",""trial"",""time""
""fullscreenenter"",""0"",""1264""
","
","
","""event"",""trial"",""time""
""fullscreenenter"",""0"",""1264""
","
","null","<p></p>","null","","","","","","","",""
"","image","240","403721","0.0-226.0-0.0","""event"",""trial"",""time""
""fullscreenenter"",""0"",""1264""
","
","
","""event"",""trial"",""time""
""fullscreenenter"",""0"",""1264""
","
","1219.3999999910593","run_exp/static/images/Set 6_rs/116b.jpg","66","","","","","","test","TL","2"
"","show_choice","241","404224","0.0-226.0-1.0","""event"",""trial"",""time""
""fullscreenenter"",""0"",""1264""
","
","
","""event"",""trial"",""time""
""fullscreenenter"",""0"",""1264""
","
","null","run_exp/static/images/Set 6_rs/116b.jpg","null","","","","","","test","TL",""
"","html-keyboard-response","242","404726","0.0-226.0-2.0","""event"",""trial"",""time""
""fullscreenenter"",""0"",""1264""
","
","
","""event"",""trial"",""time""
""fullscreenenter"",""0"",""1264""
","
","null","<p></p>","null","","","","","","","",""
"","image","243","405750","0.0-227.0-0.0","""event"",""trial"",""time""
""fullscreenenter"",""0"",""1264""
","
","
","""event"",""trial"",""time""
""fullscreenenter"",""0"",""1264""
","
","1022.4000000059605","run_exp/static/images/Set 6_rs/086a.jpg","78","","","","","","test","TF","1"
"","show_choice","244","406255","0.0-227.0-1.0","""event"",""trial"",""time""
""fullscreenenter"",""0"",""1264""
","
","
","""event"",""trial"",""time""
""fullscreenenter"",""0"",""1264""
","
","null","run_exp/static/images/Set 6_rs/086a.jpg","null","","","","","","test","TF",""
"","html-keyboard-response","245","406757","0.0-227.0-2.0","""event"",""trial"",""time""
""fullscreenenter"",""0"",""1264""
","
","
","""event"",""trial"",""time""
""fullscreenenter"",""0"",""1264""
","
","null","<p></p>","null","","","","","","","",""
"","image","246","408179","0.0-228.0-0.0","""event"",""trial"",""time""
""fullscreenenter"",""0"",""1264""
","
","
","""event"",""trial"",""time""
""fullscreenenter"",""0"",""1264""
","
","1420.5999999940395","run_exp/static/images/Set 6_rs/190a.jpg","78","","","","","","test","TF","3"
"","show_choice","247","408681","0.0-228.0-1.0","""event"",""trial"",""time""
""fullscreenenter"",""0"",""1264""
","
","
","""event"",""trial"",""time""
""fullscreenenter"",""0"",""1264""
","
","null","run_exp/static/images/Set 6_rs/190a.jpg","null","","","","","","test","TF",""
"","html-keyboard-response","248","409187","0.0-228.0-2.0","""event"",""trial"",""time""
""fullscreenenter"",""0"",""1264""
","
","
","""event"",""trial"",""time""
""fullscreenenter"",""0"",""1264""
","
","null","<p></p>","null","","","","","","","",""
"","image","249","410643","0.0-229.0-0.0","""event"",""trial"",""time""
""fullscreenenter"",""0"",""1264""
","
","
","""event"",""trial"",""time""
""fullscreenenter"",""0"",""1264""
","
","1454.5999999940395","run_exp/static/images/Set 6_rs/132a.jpg","86","","","","","","test","TR","5"
"","show_choice","250","411148","0.0-229.0-1.0","""event"",""trial"",""time""
""fullscreenenter"",""0"",""1264""
","
","
","""event"",""trial"",""time""
""fullscreenenter"",""0"",""1264""
","
","null","run_exp/static/images/Set 6_rs/132a.jpg","null","","","","","","test","TR",""
"","html-keyboard-response","251","411651","0.0-229.0-2.0","""event"",""trial"",""time""
""fullscreenenter"",""0"",""1264""
","
","
","""event"",""trial"",""time""
""fullscreenenter"",""0"",""1264""
","
","null","<p></p>","null","","","","","","","",""
"","image","252","412872","0.0-230.0-0.0","""event"",""trial"",""time""
""fullscreenenter"",""0"",""1264""
","
","
","""event"",""trial"",""time""
""fullscreenenter"",""0"",""1264""
","
","1219.9000000059605","run_exp/static/images/Set 6_rs/077a.jpg","78","","","","","","test","TF","3"
"","show_choice","253","413377","0.0-230.0-1.0","""event"",""trial"",""time""
""fullscreenenter"",""0"",""1264""
","
","
","""event"",""trial"",""time""
""fullscreenenter"",""0"",""1264""
","
","null","run_exp/static/images/Set 6_rs/077a.jpg","null","","","","","","test","TF",""
"","html-keyboard-response","254","413879","0.0-230.0-2.0","""event"",""trial"",""time""
""fullscreenenter"",""0"",""1264""
","
","
","""event"",""trial"",""time""
""fullscreenenter"",""0"",""1264""
","
","null","<p></p>","null","","","","","","","",""
"","image","255","415639","0.0-231.0-0.0","""event"",""trial"",""time""
""fullscreenenter"",""0"",""1264""
","
","
","""event"",""trial"",""time""
""fullscreenenter"",""0"",""1264""
","
","1758.2000000029802","run_exp/static/images/Set 6_rs/062b.jpg","66","","","","","","test","TL","1"
"","show_choice","256","416143","0.0-231.0-1.0","""event"",""trial"",""time""
""fullscreenenter"",""0"",""1264""
","
","
","""event"",""trial"",""time""
""fullscreenenter"",""0"",""1264""
","
","null","run_exp/static/images/Set 6_rs/062b.jpg","null","","","","","","test","TL",""
"","html-keyboard-response","257","416646","0.0-231.0-2.0","""event"",""trial"",""time""
""fullscreenenter"",""0"",""1264""
","
","
","""event"",""trial"",""time""
""fullscreenenter"",""0"",""1264""
","
","null","<p></p>","null","","","","","","","",""
"","image","258","417808","0.0-232.0-0.0","""event"",""trial"",""time""
""fullscreenenter"",""0"",""1264""
","
","
","""event"",""trial"",""time""
""fullscreenenter"",""0"",""1264""
","
","1159.5999999940395","run_exp/static/images/Set 6_rs/105a.jpg","78","","","","","","test","TF","5"
"","show_choice","259","418313","0.0-232.0-1.0","""event"",""trial"",""time""
""fullscreenenter"",""0"",""1264""
","
","
","""event"",""trial"",""time""
""fullscreenenter"",""0"",""1264""
","
","null","run_exp/static/images/Set 6_rs/105a.jpg","null","","","","","","test","TF",""
"","html-keyboard-response","260","418814","0.0-232.0-2.0","""event"",""trial"",""time""
""fullscreenenter"",""0"",""1264""
","
","
","""event"",""trial"",""time""
""fullscreenenter"",""0"",""1264""
","
","null","<p></p>","null","","","","","","","",""
"","image","261","420121","0.0-233.0-0.0","""event"",""trial"",""time""
""fullscreenenter"",""0"",""1264""
","
","
","""event"",""trial"",""time""
""fullscreenenter"",""0"",""1264""
","
","1304.8999999910593","run_exp/static/images/Set 6_rs/066b.jpg","66","","","","","","test","TL","5"
"","show_choice","262","420626","0.0-233.0-1.0","""event"",""trial"",""time""
""fullscreenenter"",""0"",""1264""
","
","
","""event"",""trial"",""time""
""fullscreenenter"",""0"",""1264""
","
","null","run_exp/static/images/Set 6_rs/066b.jpg","null","","","","","","test","TL",""
"","html-keyboard-response","263","421128","0.0-233.0-2.0","""event"",""trial"",""time""
""fullscreenenter"",""0"",""1264""
","
","
","""event"",""trial"",""time""
""fullscreenenter"",""0"",""1264""
","
","null","<p></p>","null","","","","","","","",""
"","image","264","422415","0.0-234.0-0.0","""event"",""trial"",""time""
""fullscreenenter"",""0"",""1264""
","
","
","""event"",""trial"",""time""
""fullscreenenter"",""0"",""1264""
","
","1285.2000000029802","run_exp/static/images/Set 6_rs/017b.jpg","66","","","","","","test","TL","3"
"","show_choice","265","422918","0.0-234.0-1.0","""event"",""trial"",""time""
""fullscreenenter"",""0"",""1264""
","
","
","""event"",""trial"",""time""
""fullscreenenter"",""0"",""1264""
","
","null","run_exp/static/images/Set 6_rs/017b.jpg","null","","","","","","test","TL",""
"","html-keyboard-response","266","423422","0.0-234.0-2.0","""event"",""trial"",""time""
""fullscreenenter"",""0"",""1264""
","
","
","""event"",""trial"",""time""
""fullscreenenter"",""0"",""1264""
","
","null","<p></p>","null","","","","","","","",""
"","image","267","424901","0.0-235.0-0.0","""event"",""trial"",""time""
""fullscreenenter"",""0"",""1264""
","
","
","""event"",""trial"",""time""
""fullscreenenter"",""0"",""1264""
","
","1477.5999999940395","run_exp/static/images/Set 6_rs/167b.jpg","66","","","","","","test","TL","2"
"","show_choice","268","425405","0.0-235.0-1.0","""event"",""trial"",""time""
""fullscreenenter"",""0"",""1264""
","
","
","""event"",""trial"",""time""
""fullscreenenter"",""0"",""1264""
","
","null","run_exp/static/images/Set 6_rs/167b.jpg","null","","","","","","test","TL",""
"","html-keyboard-response","269","425906","0.0-235.0-2.0","""event"",""trial"",""time""
""fullscreenenter"",""0"",""1264""
","
","
","""event"",""trial"",""time""
""fullscreenenter"",""0"",""1264""
","
","null","<p></p>","null","","","","","","","",""
"","image","270","427374","0.0-236.0-0.0","""event"",""trial"",""time""
""fullscreenenter"",""0"",""1264""
","
","
","""event"",""trial"",""time""
""fullscreenenter"",""0"",""1264""
","
","1465.2000000029802","run_exp/static/images/Set 6_rs/073b.jpg","78","","","","","","test","TL","3"
"","show_choice","271","427875","0.0-236.0-1.0","""event"",""trial"",""time""
""fullscreenenter"",""0"",""1264""
","
","
","""event"",""trial"",""time""
""fullscreenenter"",""0"",""1264""
","
","null","run_exp/static/images/Set 6_rs/073b.jpg","null","","","","","","test","TL",""
"","html-keyboard-response","272","428380","0.0-236.0-2.0","""event"",""trial"",""time""
""fullscreenenter"",""0"",""1264""
","
","
","""event"",""trial"",""time""
""fullscreenenter"",""0"",""1264""
","
","null","<p></p>","null","","","","","","","",""
"","image","273","429466","0.0-237.0-0.0","""event"",""trial"",""time""
""fullscreenenter"",""0"",""1264""
","
","
","""event"",""trial"",""time""
""fullscreenenter"",""0"",""1264""
","
","1084.5","run_exp/static/images/Set 6_rs/150a.jpg","86","","","","","","test","TR","1"
"","show_choice","274","429971","0.0-237.0-1.0","""event"",""trial"",""time""
""fullscreenenter"",""0"",""1264""
","
","
","""event"",""trial"",""time""
""fullscreenenter"",""0"",""1264""
","
","null","run_exp/static/images/Set 6_rs/150a.jpg","null","","","","","","test","TR",""
"","html-keyboard-response","275","430473","0.0-237.0-2.0","""event"",""trial"",""time""
""fullscreenenter"",""0"",""1264""
","
","
","""event"",""trial"",""time""
""fullscreenenter"",""0"",""1264""
","
","null","<p></p>","null","","","","","","","",""
"","image","276","432361","0.0-238.0-0.0","""event"",""trial"",""time""
""fullscreenenter"",""0"",""1264""
","
","
","""event"",""trial"",""time""
""fullscreenenter"",""0"",""1264""
","
","1886.1000000089407","run_exp/static/images/Set 6_rs/140a.jpg","66","","","","","","test","TF","1"
"","show_choice","277","432866","0.0-238.0-1.0","""event"",""trial"",""time""
""fullscreenenter"",""0"",""1264""
","
","
","""event"",""trial"",""time""
""fullscreenenter"",""0"",""1264""
","
","null","run_exp/static/images/Set 6_rs/140a.jpg","null","","","","","","test","TF",""
"","html-keyboard-response","278","433367","0.0-238.0-2.0","""event"",""trial"",""time""
""fullscreenenter"",""0"",""1264""
","
","
","""event"",""trial"",""time""
""fullscreenenter"",""0"",""1264""
","
","null","<p></p>","null","","","","","","","",""
"","image","279","434485","0.0-239.0-0.0","""event"",""trial"",""time""
""fullscreenenter"",""0"",""1264""
","
","
","""event"",""trial"",""time""
""fullscreenenter"",""0"",""1264""
","
","1115.5999999940395","run_exp/static/images/Set 6_rs/048a.jpg","78","","","","","","test","TF","4"
"","show_choice","280","434987","0.0-239.0-1.0","""event"",""trial"",""time""
""fullscreenenter"",""0"",""1264""
","
","
","""event"",""trial"",""time""
""fullscreenenter"",""0"",""1264""
","
","null","run_exp/static/images/Set 6_rs/048a.jpg","null","","","","","","test","TF",""
"","html-keyboard-response","281","435490","0.0-239.0-2.0","""event"",""trial"",""time""
""fullscreenenter"",""0"",""1264""
","
","
","""event"",""trial"",""time""
""fullscreenenter"",""0"",""1264""
","
","null","<p></p>","null","","","","","","","",""
"","image","282","436680","0.0-240.0-0.0","""event"",""trial"",""time""
""fullscreenenter"",""0"",""1264""
","
","
","""event"",""trial"",""time""
""fullscreenenter"",""0"",""1264""
","
","1187.699999988079","run_exp/static/images/Set 6_rs/014b.jpg","78","","","","","","test","TL","5"
"","show_choice","283","437182","0.0-240.0-1.0","""event"",""trial"",""time""
""fullscreenenter"",""0"",""1264""
","
","
","""event"",""trial"",""time""
""fullscreenenter"",""0"",""1264""
","
","null","run_exp/static/images/Set 6_rs/014b.jpg","null","","","","","","test","TL",""
"","html-keyboard-response","284","437683","0.0-240.0-2.0","""event"",""trial"",""time""
""fullscreenenter"",""0"",""1264""
","
","
","""event"",""trial"",""time""
""fullscreenenter"",""0"",""1264""
","
","null","<p></p>","null","","","","","","","",""
"","image","285","439063","0.0-241.0-0.0","""event"",""trial"",""time""
""fullscreenenter"",""0"",""1264""
","
","
","""event"",""trial"",""time""
""fullscreenenter"",""0"",""1264""
","
","1378.4000000059605","run_exp/static/images/Set 6_rs/089b.jpg","66","","","","","","test","TL","4"
"","show_choice","286","439568","0.0-241.0-1.0","""event"",""trial"",""time""
""fullscreenenter"",""0"",""1264""
","
","
","""event"",""trial"",""time""
""fullscreenenter"",""0"",""1264""
","
","null","run_exp/static/images/Set 6_rs/089b.jpg","null","","","","","","test","TL",""
"","html-keyboard-response","287","440074","0.0-241.0-2.0","""event"",""trial"",""time""
""fullscreenenter"",""0"",""1264""
","
","
","""event"",""trial"",""time""
""fullscreenenter"",""0"",""1264""
","
","null","<p></p>","null","","","","","","","",""
"","image","288","441414","0.0-242.0-0.0","""event"",""trial"",""time""
""fullscreenenter"",""0"",""1264""
","
","
","""event"",""trial"",""time""
""fullscreenenter"",""0"",""1264""
","
","1338.7000000029802","run_exp/static/images/Set 6_rs/170a.jpg","78","","","","","","test","TF","2"
"","show_choice","289","441919","0.0-242.0-1.0","""event"",""trial"",""time""
""fullscreenenter"",""0"",""1264""
","
","
","""event"",""trial"",""time""
""fullscreenenter"",""0"",""1264""
","
","null","run_exp/static/images/Set 6_rs/170a.jpg","null","","","","","","test","TF",""
"","html-keyboard-response","290","442420","0.0-242.0-2.0","""event"",""trial"",""time""
""fullscreenenter"",""0"",""1264""
","
","
","""event"",""trial"",""time""
""fullscreenenter"",""0"",""1264""
","
","null","<p></p>","null","","","","","","","",""
"","image","291","443434","0.0-243.0-0.0","""event"",""trial"",""time""
""fullscreenenter"",""0"",""1264""
","
","
","""event"",""trial"",""time""
""fullscreenenter"",""0"",""1264""
","
","1012.2999999970198","run_exp/static/images/Set 6_rs/152a.jpg","86","","","","","","test","TR","2"
"","show_choice","292","443937","0.0-243.0-1.0","""event"",""trial"",""time""
""fullscreenenter"",""0"",""1264""
","
","
","""event"",""trial"",""time""
""fullscreenenter"",""0"",""1264""
","
","null","run_exp/static/images/Set 6_rs/152a.jpg","null","","","","","","test","TR",""
"","html-keyboard-response","293","444442","0.0-243.0-2.0","""event"",""trial"",""time""
""fullscreenenter"",""0"",""1264""
","
","
","""event"",""trial"",""time""
""fullscreenenter"",""0"",""1264""
","
","null","<p></p>","null","","","","","","","",""
"","image","294","445866","0.0-244.0-0.0","""event"",""trial"",""time""
""fullscreenenter"",""0"",""1264""
","
","
","""event"",""trial"",""time""
""fullscreenenter"",""0"",""1264""
","
","1422.6000000089407","run_exp/static/images/Set 6_rs/010a.jpg","78","","","","","","test","TR","5"
"","show_choice","295","446369","0.0-244.0-1.0","""event"",""trial"",""time""
""fullscreenenter"",""0"",""1264""
","
","
","""event"",""trial"",""time""
""fullscreenenter"",""0"",""1264""
","
","null","run_exp/static/images/Set 6_rs/010a.jpg","null","","","","","","test","TR",""
"","html-keyboard-response","296","446873","0.0-244.0-2.0","""event"",""trial"",""time""
""fullscreenenter"",""0"",""1264""
","
","
","""event"",""trial"",""time""
""fullscreenenter"",""0"",""1264""
","
","null","<p></p>","null","","","","","","","",""
"","image","297","448368","0.0-245.0-0.0","""event"",""trial"",""time""
""fullscreenenter"",""0"",""1264""
","
","
","""event"",""trial"",""time""
""fullscreenenter"",""0"",""1264""
","
","1493.7999999970198","run_exp/static/images/Set 6_rs/171a.jpg","78","","","","","","test","TF","1"
"","show_choice","298","448870","0.0-245.0-1.0","""event"",""trial"",""time""
""fullscreenenter"",""0"",""1264""
","
","
","""event"",""trial"",""time""
""fullscreenenter"",""0"",""1264""
","
","null","run_exp/static/images/Set 6_rs/171a.jpg","null","","","","","","test","TF",""
"","html-keyboard-response","299","449375","0.0-245.0-2.0","""event"",""trial"",""time""
""fullscreenenter"",""0"",""1264""
","
","
","""event"",""trial"",""time""
""fullscreenenter"",""0"",""1264""
","
","null","<p></p>","null","","","","","","","",""
"","image","300","450483","0.0-246.0-0.0","""event"",""trial"",""time""
""fullscreenenter"",""0"",""1264""
","
","
","""event"",""trial"",""time""
""fullscreenenter"",""0"",""1264""
","
","1106.5","run_exp/static/images/Set 6_rs/141a.jpg","86","","","","","","test","TR","2"
"","show_choice","301","450985","0.0-246.0-1.0","""event"",""trial"",""time""
""fullscreenenter"",""0"",""1264""
","
","
","""event"",""trial"",""time""
""fullscreenenter"",""0"",""1264""
","
","null","run_exp/static/images/Set 6_rs/141a.jpg","null","","","","","","test","TR",""
"","html-keyboard-response","302","451488","0.0-246.0-2.0","""event"",""trial"",""time""
""fullscreenenter"",""0"",""1264""
","
","
","""event"",""trial"",""time""
""fullscreenenter"",""0"",""1264""
","
","null","<p></p>","null","","","","","","","",""
"","image","303","452407","0.0-247.0-0.0","""event"",""trial"",""time""
""fullscreenenter"",""0"",""1264""
","
","
","""event"",""trial"",""time""
""fullscreenenter"",""0"",""1264""
","
","917.5999999940395","run_exp/static/images/Set 6_rs/186a.jpg","86","","","","","","test","TR","5"
"","show_choice","304","452910","0.0-247.0-1.0","""event"",""trial"",""time""
""fullscreenenter"",""0"",""1264""
","
","
","""event"",""trial"",""time""
""fullscreenenter"",""0"",""1264""
","
","null","run_exp/static/images/Set 6_rs/186a.jpg","null","","","","","","test","TR",""
"","html-keyboard-response","305","453415","0.0-247.0-2.0","""event"",""trial"",""time""
""fullscreenenter"",""0"",""1264""
","
","
","""event"",""trial"",""time""
""fullscreenenter"",""0"",""1264""
","
","null","<p></p>","null","","","","","","","",""
"","image","306","454365","0.0-248.0-0.0","""event"",""trial"",""time""
""fullscreenenter"",""0"",""1264""
","
","
","""event"",""trial"",""time""
""fullscreenenter"",""0"",""1264""
","
","948.2000000029802","run_exp/static/images/Set 6_rs/178a.jpg","66","","","","","","test","TR","3"
"","show_choice","307","454868","0.0-248.0-1.0","""event"",""trial"",""time""
""fullscreenenter"",""0"",""1264""
","
","
","""event"",""trial"",""time""
""fullscreenenter"",""0"",""1264""
","
","null","run_exp/static/images/Set 6_rs/178a.jpg","null","","","","","","test","TR",""
"","html-keyboard-response","308","455372","0.0-248.0-2.0","""event"",""trial"",""time""
""fullscreenenter"",""0"",""1264""
","
","
","""event"",""trial"",""time""
""fullscreenenter"",""0"",""1264""
","
","null","<p></p>","null","","","","","","","",""
"","image","309","456521","0.0-249.0-0.0","""event"",""trial"",""time""
""fullscreenenter"",""0"",""1264""
","
","
","""event"",""trial"",""time""
""fullscreenenter"",""0"",""1264""
","
","1148.0999999940395","run_exp/static/images/Set 6_rs/076a.jpg","86","","","","","","test","TR","4"
"","show_choice","310","457023","0.0-249.0-1.0","""event"",""trial"",""time""
""fullscreenenter"",""0"",""1264""
","
","
","""event"",""trial"",""time""
""fullscreenenter"",""0"",""1264""
","
","null","run_exp/static/images/Set 6_rs/076a.jpg","null","","","","","","test","TR",""
"","html-keyboard-response","311","457525","0.0-249.0-2.0","""event"",""trial"",""time""
""fullscreenenter"",""0"",""1264""
","
","
","""event"",""trial"",""time""
""fullscreenenter"",""0"",""1264""
","
","null","<p></p>","null","","","","","","","",""
"","image","312","458366","0.0-250.0-0.0","""event"",""trial"",""time""
""fullscreenenter"",""0"",""1264""
","
","
","""event"",""trial"",""time""
""fullscreenenter"",""0"",""1264""
","
","839.3999999910593","run_exp/static/images/Set 6_rs/005a.jpg","78","","","","","","test","TF","5"
"","show_choice","313","458869","0.0-250.0-1.0","""event"",""trial"",""time""
""fullscreenenter"",""0"",""1264""
","
","
","""event"",""trial"",""time""
""fullscreenenter"",""0"",""1264""
","
","null","run_exp/static/images/Set 6_rs/005a.jpg","null","","","","","","test","TF",""
"","html-keyboard-response","314","459372","0.0-250.0-2.0","""event"",""trial"",""time""
""fullscreenenter"",""0"",""1264""
","
","
","""event"",""trial"",""time""
""fullscreenenter"",""0"",""1264""
","
","null","<p></p>","null","","","","","","","",""
"","image","315","460417","0.0-251.0-0.0","""event"",""trial"",""time""
""fullscreenenter"",""0"",""1264""
","
","
","""event"",""trial"",""time""
""fullscreenenter"",""0"",""1264""
","
","1043.5999999940395","run_exp/static/images/Set 6_rs/012a.jpg","86","","","","","","test","TR","1"
"","show_choice","316","460922","0.0-251.0-1.0","""event"",""trial"",""time""
""fullscreenenter"",""0"",""1264""
","
","
","""event"",""trial"",""time""
""fullscreenenter"",""0"",""1264""
","
","null","run_exp/static/images/Set 6_rs/012a.jpg","null","","","","","","test","TR",""
"","html-keyboard-response","317","461423","0.0-251.0-2.0","""event"",""trial"",""time""
""fullscreenenter"",""0"",""1264""
","
","
","""event"",""trial"",""time""
""fullscreenenter"",""0"",""1264""
","
","null","<p></p>","null","","","","","","","",""
"","image","318","462455","0.0-252.0-0.0","""event"",""trial"",""time""
""fullscreenenter"",""0"",""1264""
","
","
","""event"",""trial"",""time""
""fullscreenenter"",""0"",""1264""
","
","1030.300000011921","run_exp/static/images/Set 6_rs/177a.jpg","86","","","","","","test","TR","5"
"","show_choice","319","462960","0.0-252.0-1.0","""event"",""trial"",""time""
""fullscreenenter"",""0"",""1264""
","
","
","""event"",""trial"",""time""
""fullscreenenter"",""0"",""1264""
","
","null","run_exp/static/images/Set 6_rs/177a.jpg","null","","","","","","test","TR",""
"","html-keyboard-response","320","463464","0.0-252.0-2.0","""event"",""trial"",""time""
""fullscreenenter"",""0"",""1264""
","
","
","""event"",""trial"",""time""
""fullscreenenter"",""0"",""1264""
","
","null","<p></p>","null","","","","","","","",""
"","image","321","464891","0.0-253.0-0.0","""event"",""trial"",""time""
""fullscreenenter"",""0"",""1264""
","
","
","""event"",""trial"",""time""
""fullscreenenter"",""0"",""1264""
","
","1425.2000000029802","run_exp/static/images/Set 6_rs/057b.jpg","66","","","","","","test","TL","1"
"","show_choice","322","465396","0.0-253.0-1.0","""event"",""trial"",""time""
""fullscreenenter"",""0"",""1264""
","
","
","""event"",""trial"",""time""
""fullscreenenter"",""0"",""1264""
","
","null","run_exp/static/images/Set 6_rs/057b.jpg","null","","","","","","test","TL",""
"","html-keyboard-response","323","465900","0.0-253.0-2.0","""event"",""trial"",""time""
""fullscreenenter"",""0"",""1264""
","
","
","""event"",""trial"",""time""
""fullscreenenter"",""0"",""1264""
","
","null","<p></p>","null","","","","","","","",""
"","image","324","467159","0.0-254.0-0.0","""event"",""trial"",""time""
""fullscreenenter"",""0"",""1264""
","
","
","""event"",""trial"",""time""
""fullscreenenter"",""0"",""1264""
","
","1257.5","run_exp/static/images/Set 6_rs/133a.jpg","78","","","","","","test","TF","4"
"","show_choice","325","467664","0.0-254.0-1.0","""event"",""trial"",""time""
""fullscreenenter"",""0"",""1264""
","
","
","""event"",""trial"",""time""
""fullscreenenter"",""0"",""1264""
","
","null","run_exp/static/images/Set 6_rs/133a.jpg","null","","","","","","test","TF",""
"","html-keyboard-response","326","468166","0.0-254.0-2.0","""event"",""trial"",""time""
""fullscreenenter"",""0"",""1264""
","
","
","""event"",""trial"",""time""
""fullscreenenter"",""0"",""1264""
","
","null","<p></p>","null","","","","","","","",""
"","image","327","469326","0.0-255.0-0.0","""event"",""trial"",""time""
""fullscreenenter"",""0"",""1264""
","
","
","""event"",""trial"",""time""
""fullscreenenter"",""0"",""1264""
","
","1158.0999999940395","run_exp/static/images/Set 6_rs/149a.jpg","78","","","","","","test","TF","1"
"","show_choice","328","469827","0.0-255.0-1.0","""event"",""trial"",""time""
""fullscreenenter"",""0"",""1264""
","
","
","""event"",""trial"",""time""
""fullscreenenter"",""0"",""1264""
","
","null","run_exp/static/images/Set 6_rs/149a.jpg","null","","","","","","test","TF",""
"","html-keyboard-response","329","470333","0.0-255.0-2.0","""event"",""trial"",""time""
""fullscreenenter"",""0"",""1264""
","
","
","""event"",""trial"",""time""
""fullscreenenter"",""0"",""1264""
","
","null","<p></p>","null","","","","","","","",""
"","image","330","471213","0.0-256.0-0.0","""event"",""trial"",""time""
""fullscreenenter"",""0"",""1264""
","
","
","""event"",""trial"",""time""
""fullscreenenter"",""0"",""1264""
","
","879.0999999940395","run_exp/static/images/Set 6_rs/169a.jpg","86","","","","","","test","TR","4"
"","show_choice","331","471715","0.0-256.0-1.0","""event"",""trial"",""time""
""fullscreenenter"",""0"",""1264""
","
","
","""event"",""trial"",""time""
""fullscreenenter"",""0"",""1264""
","
","null","run_exp/static/images/Set 6_rs/169a.jpg","null","","","","","","test","TR",""
"","html-keyboard-response","332","472219","0.0-256.0-2.0","""event"",""trial"",""time""
""fullscreenenter"",""0"",""1264""
","
","
","""event"",""trial"",""time""
""fullscreenenter"",""0"",""1264""
","
","null","<p></p>","null","","","","","","","",""
"","image","333","473580","0.0-257.0-0.0","""event"",""trial"",""time""
""fullscreenenter"",""0"",""1264""
","
","
","""event"",""trial"",""time""
""fullscreenenter"",""0"",""1264""
","
","1359","run_exp/static/images/Set 6_rs/091b.jpg","78","","","","","","test","TL","3"
"","show_choice","334","474081","0.0-257.0-1.0","""event"",""trial"",""time""
""fullscreenenter"",""0"",""1264""
","
","
","""event"",""trial"",""time""
""fullscreenenter"",""0"",""1264""
","
","null","run_exp/static/images/Set 6_rs/091b.jpg","null","","","","","","test","TL",""
"","html-keyboard-response","335","474586","0.0-257.0-2.0","""event"",""trial"",""time""
""fullscreenenter"",""0"",""1264""
","
","
","""event"",""trial"",""time""
""fullscreenenter"",""0"",""1264""
","
","null","<p></p>","null","","","","","","","",""
"","image","336","476063","0.0-258.0-0.0","""event"",""trial"",""time""
""fullscreenenter"",""0"",""1264""
","
","
","""event"",""trial"",""time""
""fullscreenenter"",""0"",""1264""
","
","1475.1000000089407","run_exp/static/images/Set 6_rs/023a.jpg","86","","","","","","test","TR","3"
"","show_choice","337","476568","0.0-258.0-1.0","""event"",""trial"",""time""
""fullscreenenter"",""0"",""1264""
","
","
","""event"",""trial"",""time""
""fullscreenenter"",""0"",""1264""
","
","null","run_exp/static/images/Set 6_rs/023a.jpg","null","","","","","","test","TR",""
"","html-keyboard-response","338","477071","0.0-258.0-2.0","""event"",""trial"",""time""
""fullscreenenter"",""0"",""1264""
","
","
","""event"",""trial"",""time""
""fullscreenenter"",""0"",""1264""
","
","null","<p></p>","null","","","","","","","",""
"","image","339","478016","0.0-259.0-0.0","""event"",""trial"",""time""
""fullscreenenter"",""0"",""1264""
","
","
","""event"",""trial"",""time""
""fullscreenenter"",""0"",""1264""
","
","943","run_exp/static/images/Set 6_rs/155a.jpg","78","","","","","","test","TF","4"
"","show_choice","340","478522","0.0-259.0-1.0","""event"",""trial"",""time""
""fullscreenenter"",""0"",""1264""
","
","
","""event"",""trial"",""time""
""fullscreenenter"",""0"",""1264""
","
","null","run_exp/static/images/Set 6_rs/155a.jpg","null","","","","","","test","TF",""
