"success","trial_type","trial_index","time_elapsed","internal_node_id","interactions","blur_events","focus_events","fullscreenenter_events","fullscreenexit_events","rt","stimulus","key_press","subject_id","participant_id","age","gender","prompt","phase","condition","lure_bin"
"true","fullscreen","0","5040","0.0-0.0","""event"",""trial"",""time""
""fullscreenenter"",""0"",""4060""
","
","
","""event"",""trial"",""time""
""fullscreenenter"",""0"",""4060""
","
","","","","","","","","","","",""
"","pavlovia","1","5043","0.0-1.0","""event"",""trial"",""time""
""fullscreenenter"",""0"",""4060""
","
","
","""event"",""trial"",""time""
""fullscreenenter"",""0"",""4060""
","
","","","","","","","","","","",""
"","welcome","2","39876","0.0-2.0","""event"",""trial"",""time""
""fullscreenenter"",""0"",""4060""
","
","
","""event"",""trial"",""time""
""fullscreenenter"",""0"",""4060""
","
","null","run_exp/static/audio/clip_1_welcome.m4a","null","531","332","9","Male","<div class='center'><p>Welcome to the third part of the study! First, you'll be shown pictures of items one at a time. For each picture, you have to decide if the item is typically found indoors or outdoors.</p><p>If you think it's usually found indoors, then press <b>v</b> key on your keyboard. If you think it's usually found outdoors, then press the <b>n</b> key.There will be reminders on the screen to help you remember which keys to press. </p><p>If you're not sure whether the item is an indoor item or an outdoor item, go ahead and take a guess but try your best not to skip that choice. </p></div>","","",""
"","html-keyboard-response","3","40338","0.0-3.0","""event"",""trial"",""time""
""fullscreenenter"",""0"",""4060""
","
","
","""event"",""trial"",""time""
""fullscreenenter"",""0"",""4060""
","
","460.29999999701977","<div class='center'><p>Welcome to the third part of the study! First, you'll be shown pictures of items one at a time. For each picture, you have to decide if the item is typically found indoors or outdoors.</p><p>If you think it's usually found indoors, then press <b>v</b> key on your keyboard. If you think it's usually found outdoors, then press the <b>n</b> key.There will be reminders on the screen to help you remember which keys to press. </p><p>If you're not sure whether the item is an indoor item or an outdoor item, go ahead and take a guess but try your best not to skip that choice. </p><div><p><b>[Press the space bar to continue]</b></p></div>","32","","","","","","","",""
"","image","4","42347","0.0-4.0","""event"",""trial"",""time""
""fullscreenenter"",""0"",""4060""
","
","
","""event"",""trial"",""time""
""fullscreenenter"",""0"",""4060""
","
","null","run_exp/static/images/Set 6_rs/091a.jpg","null","","","","","","learn","SL",""
"","show_choice","5","44353","0.0-5.0","""event"",""trial"",""time""
""fullscreenenter"",""0"",""4060""
","
","
","""event"",""trial"",""time""
""fullscreenenter"",""0"",""4060""
","
","null","run_exp/static/images/blank.png","null","","","","","","learn","SL",""
"","html-keyboard-response","6","44867","0.0-6.0","""event"",""trial"",""time""
""fullscreenenter"",""0"",""4060""
","
","
","""event"",""trial"",""time""
""fullscreenenter"",""0"",""4060""
","
","null","<p></p>","null","","","","","","","",""
"","image","7","46239","0.0-7.0","""event"",""trial"",""time""
""fullscreenenter"",""0"",""4060""
","
","
","""event"",""trial"",""time""
""fullscreenenter"",""0"",""4060""
","
","1371.3999999910593","run_exp/static/images/Set 6_rs/178a.jpg","78","","","","","","learn","SR",""
"","show_choice","8","46872","0.0-8.0","""event"",""trial"",""time""
""fullscreenenter"",""0"",""4060""
","
","
","""event"",""trial"",""time""
""fullscreenenter"",""0"",""4060""
","
","null","run_exp/static/images/Set 6_rs/178a.jpg","null","","","","","","learn","SR",""
"","html-keyboard-response","9","47385","0.0-9.0","""event"",""trial"",""time""
""fullscreenenter"",""0"",""4060""
","
","
","""event"",""trial"",""time""
""fullscreenenter"",""0"",""4060""
","
","null","<p></p>","null","","","","","","","",""
"","image","10","48279","0.0-10.0","""event"",""trial"",""time""
""fullscreenenter"",""0"",""4060""
","
","
","""event"",""trial"",""time""
""fullscreenenter"",""0"",""4060""
","
","893","run_exp/static/images/Set 6_rs/062a.jpg","86","","","","","","learn","SL",""
"","show_choice","11","49393","0.0-11.0","""event"",""trial"",""time""
""fullscreenenter"",""0"",""4060""
","
","
","""event"",""trial"",""time""
""fullscreenenter"",""0"",""4060""
","
","null","run_exp/static/images/Set 6_rs/062a.jpg","null","","","","","","learn","SL",""
"","html-keyboard-response","12","49909","0.0-12.0","""event"",""trial"",""time""
""fullscreenenter"",""0"",""4060""
","
","
","""event"",""trial"",""time""
""fullscreenenter"",""0"",""4060""
","
","null","<p></p>","null","","","","","","","",""
"","image","13","50744","0.0-13.0","""event"",""trial"",""time""
""fullscreenenter"",""0"",""4060""
","
","
","""event"",""trial"",""time""
""fullscreenenter"",""0"",""4060""
","
","834.2000000029802","run_exp/static/images/Set 6_rs/008a.jpg","86","","","","","","learn","SL",""
"","show_choice","14","51918","0.0-14.0","""event"",""trial"",""time""
""fullscreenenter"",""0"",""4060""
","
","
","""event"",""trial"",""time""
""fullscreenenter"",""0"",""4060""
","
","null","run_exp/static/images/Set 6_rs/008a.jpg","null","","","","","","learn","SL",""
"","html-keyboard-response","15","52433","0.0-15.0","""event"",""trial"",""time""
""fullscreenenter"",""0"",""4060""
","
","
","""event"",""trial"",""time""
""fullscreenenter"",""0"",""4060""
","
","null","<p></p>","null","","","","","","","",""
"","image","16","53208","0.0-16.0","""event"",""trial"",""time""
""fullscreenenter"",""0"",""4060""
","
","
","""event"",""trial"",""time""
""fullscreenenter"",""0"",""4060""
","
","774.2000000029802","run_exp/static/images/Set 6_rs/057a.jpg","86","","","","","","learn","SL",""
"","show_choice","17","54437","0.0-17.0","""event"",""trial"",""time""
""fullscreenenter"",""0"",""4060""
","
","
","""event"",""trial"",""time""
""fullscreenenter"",""0"",""4060""
","
","null","run_exp/static/images/Set 6_rs/057a.jpg","null","","","","","","learn","SL",""
"","html-keyboard-response","18","54941","0.0-18.0","""event"",""trial"",""time""
""fullscreenenter"",""0"",""4060""
","
","
","""event"",""trial"",""time""
""fullscreenenter"",""0"",""4060""
","
","null","<p></p>","null","","","","","","","",""
"","image","19","55456","0.0-19.0","""event"",""trial"",""time""
""fullscreenenter"",""0"",""4060""
","
","
","""event"",""trial"",""time""
""fullscreenenter"",""0"",""4060""
","
","513.6000000089407","run_exp/static/images/Set 6_rs/070a.jpg","86","","","","","","learn","SR",""
"","show_choice","20","56946","0.0-20.0","""event"",""trial"",""time""
""fullscreenenter"",""0"",""4060""
","
","
","""event"",""trial"",""time""
""fullscreenenter"",""0"",""4060""
","
","null","run_exp/static/images/Set 6_rs/070a.jpg","null","","","","","","learn","SR",""
"","html-keyboard-response","21","57452","0.0-21.0","""event"",""trial"",""time""
""fullscreenenter"",""0"",""4060""
","
","
","""event"",""trial"",""time""
""fullscreenenter"",""0"",""4060""
","
","null","<p></p>","null","","","","","","","",""
"","image","22","58128","0.0-22.0","""event"",""trial"",""time""
""fullscreenenter"",""0"",""4060""
","
","
","""event"",""trial"",""time""
""fullscreenenter"",""0"",""4060""
","
","674.6000000089407","run_exp/static/images/Set 6_rs/012a.jpg","86","","","","","","learn","SR",""
"","show_choice","23","59463","0.0-23.0","""event"",""trial"",""time""
""fullscreenenter"",""0"",""4060""
","
","
","""event"",""trial"",""time""
""fullscreenenter"",""0"",""4060""
","
","null","run_exp/static/images/Set 6_rs/012a.jpg","null","","","","","","learn","SR",""
"","html-keyboard-response","24","59965","0.0-24.0","""event"",""trial"",""time""
""fullscreenenter"",""0"",""4060""
","
","
","""event"",""trial"",""time""
""fullscreenenter"",""0"",""4060""
","
","null","<p></p>","null","","","","","","","",""
"","image","25","60928","0.0-25.0","""event"",""trial"",""time""
""fullscreenenter"",""0"",""4060""
","
","
","""event"",""trial"",""time""
""fullscreenenter"",""0"",""4060""
","
","961.7000000029802","run_exp/static/images/Set 6_rs/076a.jpg","78","","","","","","learn","SR",""
"","show_choice","26","61981","0.0-26.0","""event"",""trial"",""time""
""fullscreenenter"",""0"",""4060""
","
","
","""event"",""trial"",""time""
""fullscreenenter"",""0"",""4060""
","
","null","run_exp/static/images/Set 6_rs/076a.jpg","null","","","","","","learn","SR",""
"","html-keyboard-response","27","62493","0.0-27.0","""event"",""trial"",""time""
""fullscreenenter"",""0"",""4060""
","
","
","""event"",""trial"",""time""
""fullscreenenter"",""0"",""4060""
","
","null","<p></p>","null","","","","","","","",""
"","image","28","63168","0.0-28.0","""event"",""trial"",""time""
""fullscreenenter"",""0"",""4060""
","
","
","""event"",""trial"",""time""
""fullscreenenter"",""0"",""4060""
","
","673.5","run_exp/static/images/Set 6_rs/045a.jpg","86","","","","","","learn","SR",""
"","show_choice","29","64508","0.0-29.0","""event"",""trial"",""time""
""fullscreenenter"",""0"",""4060""
","
","
","""event"",""trial"",""time""
""fullscreenenter"",""0"",""4060""
","
","null","run_exp/static/images/Set 6_rs/045a.jpg","null","","","","","","learn","SR",""
"","html-keyboard-response","30","65022","0.0-30.0","""event"",""trial"",""time""
""fullscreenenter"",""0"",""4060""
","
","
","""event"",""trial"",""time""
""fullscreenenter"",""0"",""4060""
","
","null","<p></p>","null","","","","","","","",""
"","image","31","65584","0.0-31.0","""event"",""trial"",""time""
""fullscreenenter"",""0"",""4060""
","
","
","""event"",""trial"",""time""
""fullscreenenter"",""0"",""4060""
","
","560.6000000089407","run_exp/static/images/Set 6_rs/134a.jpg","86","","","","","","learn","SR",""
"","show_choice","32","67033","0.0-32.0","""event"",""trial"",""time""
""fullscreenenter"",""0"",""4060""
","
","
","""event"",""trial"",""time""
""fullscreenenter"",""0"",""4060""
","
","null","run_exp/static/images/Set 6_rs/134a.jpg","null","","","","","","learn","SR",""
"","html-keyboard-response","33","67547","0.0-33.0","""event"",""trial"",""time""
""fullscreenenter"",""0"",""4060""
","
","
","""event"",""trial"",""time""
""fullscreenenter"",""0"",""4060""
","
","null","<p></p>","null","","","","","","","",""
"","image","34","68568","0.0-34.0","""event"",""trial"",""time""
""fullscreenenter"",""0"",""4060""
","
","
","""event"",""trial"",""time""
""fullscreenenter"",""0"",""4060""
","
","1019.7000000029802","run_exp/static/images/Set 6_rs/116a.jpg","86","","","","","","learn","SL",""
"","show_choice","35","69560","0.0-35.0","""event"",""trial"",""time""
""fullscreenenter"",""0"",""4060""
","
","
","""event"",""trial"",""time""
""fullscreenenter"",""0"",""4060""
","
","null","run_exp/static/images/Set 6_rs/116a.jpg","null","","","","","","learn","SL",""
"","html-keyboard-response","36","70073","0.0-36.0","""event"",""trial"",""time""
""fullscreenenter"",""0"",""4060""
","
","
","""event"",""trial"",""time""
""fullscreenenter"",""0"",""4060""
","
","null","<p></p>","null","","","","","","","",""
"","image","37","70776","0.0-37.0","""event"",""trial"",""time""
""fullscreenenter"",""0"",""4060""
","
","
","""event"",""trial"",""time""
""fullscreenenter"",""0"",""4060""
","
","701.6000000089407","run_exp/static/images/Set 6_rs/007a.jpg","86","","","","","","learn","SR",""
"","show_choice","38","72085","0.0-38.0","""event"",""trial"",""time""
""fullscreenenter"",""0"",""4060""
","
","
","""event"",""trial"",""time""
""fullscreenenter"",""0"",""4060""
","
","null","run_exp/static/images/Set 6_rs/007a.jpg","null","","","","","","learn","SR",""
"","html-keyboard-response","39","72587","0.0-39.0","""event"",""trial"",""time""
""fullscreenenter"",""0"",""4060""
","
","
","""event"",""trial"",""time""
""fullscreenenter"",""0"",""4060""
","
","null","<p></p>","null","","","","","","","",""
"","image","40","73752","0.0-40.0","""event"",""trial"",""time""
""fullscreenenter"",""0"",""4060""
","
","
","""event"",""trial"",""time""
""fullscreenenter"",""0"",""4060""
","
","1163.5","run_exp/static/images/Set 6_rs/085a.jpg","86","","","","","","learn","SL",""
"","show_choice","41","74599","0.0-41.0","""event"",""trial"",""time""
""fullscreenenter"",""0"",""4060""
","
","
","""event"",""trial"",""time""
""fullscreenenter"",""0"",""4060""
","
","null","run_exp/static/images/Set 6_rs/085a.jpg","null","","","","","","learn","SL",""
"","html-keyboard-response","42","75113","0.0-42.0","""event"",""trial"",""time""
""fullscreenenter"",""0"",""4060""
","
","
","""event"",""trial"",""time""
""fullscreenenter"",""0"",""4060""
","
","null","<p></p>","null","","","","","","","",""
"","image","43","75728","0.0-43.0","""event"",""trial"",""time""
""fullscreenenter"",""0"",""4060""
","
","
","""event"",""trial"",""time""
""fullscreenenter"",""0"",""4060""
","
","614","run_exp/static/images/Set 6_rs/129a.jpg","86","","","","","","learn","SL",""
"","show_choice","44","77123","0.0-44.0","""event"",""trial"",""time""
""fullscreenenter"",""0"",""4060""
","
","
","""event"",""trial"",""time""
""fullscreenenter"",""0"",""4060""
","
","null","run_exp/static/images/Set 6_rs/129a.jpg","null","","","","","","learn","SL",""
"","html-keyboard-response","45","77638","0.0-45.0","""event"",""trial"",""time""
""fullscreenenter"",""0"",""4060""
","
","
","""event"",""trial"",""time""
""fullscreenenter"",""0"",""4060""
","
","null","<p></p>","null","","","","","","","",""
"","image","46","78239","0.0-46.0","""event"",""trial"",""time""
""fullscreenenter"",""0"",""4060""
","
","
","""event"",""trial"",""time""
""fullscreenenter"",""0"",""4060""
","
","600.5","run_exp/static/images/Set 6_rs/131a.jpg","86","","","","","","learn","SR",""
"","show_choice","47","79647","0.0-47.0","""event"",""trial"",""time""
""fullscreenenter"",""0"",""4060""
","
","
","""event"",""trial"",""time""
""fullscreenenter"",""0"",""4060""
","
","null","run_exp/static/images/Set 6_rs/131a.jpg","null","","","","","","learn","SR",""
"","html-keyboard-response","48","80160","0.0-48.0","""event"",""trial"",""time""
""fullscreenenter"",""0"",""4060""
","
","
","""event"",""trial"",""time""
""fullscreenenter"",""0"",""4060""
","
","null","<p></p>","null","","","","","","","",""
"","image","49","81000","0.0-49.0","""event"",""trial"",""time""
""fullscreenenter"",""0"",""4060""
","
","
","""event"",""trial"",""time""
""fullscreenenter"",""0"",""4060""
","
","839.2999999970198","run_exp/static/images/Set 6_rs/016a.jpg","86","","","","","","learn","SL",""
"","show_choice","50","82173","0.0-50.0","""event"",""trial"",""time""
""fullscreenenter"",""0"",""4060""
","
","
","""event"",""trial"",""time""
""fullscreenenter"",""0"",""4060""
","
","null","run_exp/static/images/Set 6_rs/016a.jpg","null","","","","","","learn","SL",""
"","html-keyboard-response","51","82687","0.0-51.0","""event"",""trial"",""time""
""fullscreenenter"",""0"",""4060""
","
","
","""event"",""trial"",""time""
""fullscreenenter"",""0"",""4060""
","
","null","<p></p>","null","","","","","","","",""
"","image","52","84080","0.0-52.0","""event"",""trial"",""time""
""fullscreenenter"",""0"",""4060""
","
","
","""event"",""trial"",""time""
""fullscreenenter"",""0"",""4060""
","
","1391.7999999970198","run_exp/static/images/Set 6_rs/177a.jpg","78","","","","","","learn","SR",""
"","show_choice","53","84698","0.0-53.0","""event"",""trial"",""time""
""fullscreenenter"",""0"",""4060""
","
","
","""event"",""trial"",""time""
""fullscreenenter"",""0"",""4060""
","
","null","run_exp/static/images/Set 6_rs/177a.jpg","null","","","","","","learn","SR",""
"","html-keyboard-response","54","85214","0.0-54.0","""event"",""trial"",""time""
""fullscreenenter"",""0"",""4060""
","
","
","""event"",""trial"",""time""
""fullscreenenter"",""0"",""4060""
","
","null","<p></p>","null","","","","","","","",""
"","image","55","85703","0.0-55.0","""event"",""trial"",""time""
""fullscreenenter"",""0"",""4060""
","
","
","""event"",""trial"",""time""
""fullscreenenter"",""0"",""4060""
","
","489.09999999403954","run_exp/static/images/Set 6_rs/095a.jpg","86","","","","","","learn","SL",""
"","show_choice","56","87224","0.0-56.0","""event"",""trial"",""time""
""fullscreenenter"",""0"",""4060""
","
","
","""event"",""trial"",""time""
""fullscreenenter"",""0"",""4060""
","
","null","run_exp/static/images/Set 6_rs/095a.jpg","null","","","","","","learn","SL",""
"","html-keyboard-response","57","87739","0.0-57.0","""event"",""trial"",""time""
""fullscreenenter"",""0"",""4060""
","
","
","""event"",""trial"",""time""
""fullscreenenter"",""0"",""4060""
","
","null","<p></p>","null","","","","","","","",""
"","image","58","88439","0.0-58.0","""event"",""trial"",""time""
""fullscreenenter"",""0"",""4060""
","
","
","""event"",""trial"",""time""
""fullscreenenter"",""0"",""4060""
","
","699.0999999940395","run_exp/static/images/Set 6_rs/117a.jpg","86","","","","","","learn","SL",""
"","show_choice","59","89743","0.0-59.0","""event"",""trial"",""time""
""fullscreenenter"",""0"",""4060""
","
","
","""event"",""trial"",""time""
""fullscreenenter"",""0"",""4060""
","
","null","run_exp/static/images/Set 6_rs/117a.jpg","null","","","","","","learn","SL",""
"","html-keyboard-response","60","90255","0.0-60.0","""event"",""trial"",""time""
""fullscreenenter"",""0"",""4060""
","
","
","""event"",""trial"",""time""
""fullscreenenter"",""0"",""4060""
","
","null","<p></p>","null","","","","","","","",""
"","image","61","90720","0.0-61.0","""event"",""trial"",""time""
""fullscreenenter"",""0"",""4060""
","
","
","""event"",""trial"",""time""
""fullscreenenter"",""0"",""4060""
","
","463.69999998807907","run_exp/static/images/Set 6_rs/073a.jpg","86","","","","","","learn","SL",""
"","show_choice","62","92263","0.0-62.0","""event"",""trial"",""time""
""fullscreenenter"",""0"",""4060""
","
","
","""event"",""trial"",""time""
""fullscreenenter"",""0"",""4060""
","
","null","run_exp/static/images/Set 6_rs/073a.jpg","null","","","","","","learn","SL",""
"","html-keyboard-response","63","92780","0.0-63.0","""event"",""trial"",""time""
""fullscreenenter"",""0"",""4060""
","
","
","""event"",""trial"",""time""
""fullscreenenter"",""0"",""4060""
","
","null","<p></p>","null","","","","","","","",""
"","image","64","94720","0.0-64.0","""event"",""trial"",""time""
""fullscreenenter"",""0"",""4060""
","
","
","""event"",""trial"",""time""
""fullscreenenter"",""0"",""4060""
","
","1938.7000000029802","run_exp/static/images/Set 6_rs/017a.jpg","86","","","","","","learn","SL",""
"","show_choice","65","94791","0.0-65.0","""event"",""trial"",""time""
""fullscreenenter"",""0"",""4060""
","
","
","""event"",""trial"",""time""
""fullscreenenter"",""0"",""4060""
","
","null","run_exp/static/images/Set 6_rs/017a.jpg","null","","","","","","learn","SL",""
"","html-keyboard-response","66","95306","0.0-66.0","""event"",""trial"",""time""
""fullscreenenter"",""0"",""4060""
","
","
","""event"",""trial"",""time""
""fullscreenenter"",""0"",""4060""
","
","null","<p></p>","null","","","","","","","",""
"","image","67","96279","0.0-67.0","""event"",""trial"",""time""
""fullscreenenter"",""0"",""4060""
","
","
","""event"",""trial"",""time""
""fullscreenenter"",""0"",""4060""
","
","972.7999999970198","run_exp/static/images/Set 6_rs/169a.jpg","78","","","","","","learn","SR",""
"","show_choice","68","97322","0.0-68.0","""event"",""trial"",""time""
""fullscreenenter"",""0"",""4060""
","
","
","""event"",""trial"",""time""
""fullscreenenter"",""0"",""4060""
","
","null","run_exp/static/images/Set 6_rs/169a.jpg","null","","","","","","learn","SR",""
"","html-keyboard-response","69","97823","0.0-69.0","""event"",""trial"",""time""
""fullscreenenter"",""0"",""4060""
","
","
","""event"",""trial"",""time""
""fullscreenenter"",""0"",""4060""
","
","null","<p></p>","null","","","","","","","",""
"","image","70","98504","0.0-70.0","""event"",""trial"",""time""
""fullscreenenter"",""0"",""4060""
","
","
","""event"",""trial"",""time""
""fullscreenenter"",""0"",""4060""
","
","680","run_exp/static/images/Set 6_rs/075a.jpg","86","","","","","","learn","SR",""
"","show_choice","71","99832","0.0-71.0","""event"",""trial"",""time""
""fullscreenenter"",""0"",""4060""
","
","
","""event"",""trial"",""time""
""fullscreenenter"",""0"",""4060""
","
","null","run_exp/static/images/Set 6_rs/075a.jpg","null","","","","","","learn","SR",""
"","html-keyboard-response","72","100347","0.0-72.0","""event"",""trial"",""time""
""fullscreenenter"",""0"",""4060""
","
","
","""event"",""trial"",""time""
""fullscreenenter"",""0"",""4060""
","
","null","<p></p>","null","","","","","","","",""
"","image","73","101151","0.0-73.0","""event"",""trial"",""time""
""fullscreenenter"",""0"",""4060""
","
","
","""event"",""trial"",""time""
""fullscreenenter"",""0"",""4060""
","
","803.5","run_exp/static/images/Set 6_rs/166a.jpg","86","","","","","","learn","SR",""
"","show_choice","74","102354","0.0-74.0","""event"",""trial"",""time""
""fullscreenenter"",""0"",""4060""
","
","
","""event"",""trial"",""time""
""fullscreenenter"",""0"",""4060""
","
","null","run_exp/static/images/Set 6_rs/166a.jpg","null","","","","","","learn","SR",""
"","html-keyboard-response","75","102869","0.0-75.0","""event"",""trial"",""time""
""fullscreenenter"",""0"",""4060""
","
","
","""event"",""trial"",""time""
""fullscreenenter"",""0"",""4060""
","
","null","<p></p>","null","","","","","","","",""
"","image","76","104599","0.0-76.0","""event"",""trial"",""time""
""fullscreenenter"",""0"",""4060""
","
","
","""event"",""trial"",""time""
""fullscreenenter"",""0"",""4060""
","
","1728.5","run_exp/static/images/Set 6_rs/138a.jpg","78","","","","","","learn","SL",""
"","show_choice","77","104877","0.0-77.0","""event"",""trial"",""time""
""fullscreenenter"",""0"",""4060""
","
","
","""event"",""trial"",""time""
""fullscreenenter"",""0"",""4060""
","
","null","run_exp/static/images/Set 6_rs/138a.jpg","null","","","","","","learn","SL",""
"","html-keyboard-response","78","105392","0.0-78.0","""event"",""trial"",""time""
""fullscreenenter"",""0"",""4060""
","
","
","""event"",""trial"",""time""
""fullscreenenter"",""0"",""4060""
","
","null","<p></p>","null","","","","","","","",""
"","image","79","105904","0.0-79.0","""event"",""trial"",""time""
""fullscreenenter"",""0"",""4060""
","
","
","""event"",""trial"",""time""
""fullscreenenter"",""0"",""4060""
","
","510.90000000596046","run_exp/static/images/Set 6_rs/024a.jpg","86","","","","","","learn","SR",""
"","show_choice","80","107401","0.0-80.0","""event"",""trial"",""time""
""fullscreenenter"",""0"",""4060""
","
","
","""event"",""trial"",""time""
""fullscreenenter"",""0"",""4060""
","
","null","run_exp/static/images/Set 6_rs/024a.jpg","null","","","","","","learn","SR",""
"","html-keyboard-response","81","107914","0.0-81.0","""event"",""trial"",""time""
""fullscreenenter"",""0"",""4060""
","
","
","""event"",""trial"",""time""
""fullscreenenter"",""0"",""4060""
","
","null","<p></p>","null","","","","","","","",""
"","image","82","109915","0.0-82.0","""event"",""trial"",""time""
""fullscreenenter"",""0"",""4060""
","
","
","""event"",""trial"",""time""
""fullscreenenter"",""0"",""4060""
","
","null","run_exp/static/images/Set 6_rs/191a.jpg","null","","","","","","learn","SL",""
"","show_choice","83","111922","0.0-83.0","""event"",""trial"",""time""
""fullscreenenter"",""0"",""4060""
","
","
","""event"",""trial"",""time""
""fullscreenenter"",""0"",""4060""
","
","null","run_exp/static/images/blank.png","null","","","","","","learn","SL",""
"","html-keyboard-response","84","112435","0.0-84.0","""event"",""trial"",""time""
""fullscreenenter"",""0"",""4060""
","
","
","""event"",""trial"",""time""
""fullscreenenter"",""0"",""4060""
","
","null","<p></p>","null","","","","","","","",""
"","image","85","112487","0.0-85.0","""event"",""trial"",""time""
""fullscreenenter"",""0"",""4060""
","
","
","""event"",""trial"",""time""
""fullscreenenter"",""0"",""4060""
","
","51.29999999701977","run_exp/static/images/Set 6_rs/154a.jpg","78","","","","","","learn","SR",""
"","show_choice","86","114442","0.0-86.0","""event"",""trial"",""time""
""fullscreenenter"",""0"",""4060""
","
","
","""event"",""trial"",""time""
""fullscreenenter"",""0"",""4060""
","
","null","run_exp/static/images/Set 6_rs/154a.jpg","null","","","","","","learn","SR",""
"","html-keyboard-response","87","114956","0.0-87.0","""event"",""trial"",""time""
""fullscreenenter"",""0"",""4060""
","
","
","""event"",""trial"",""time""
""fullscreenenter"",""0"",""4060""
","
","null","<p></p>","null","","","","","","","",""
"","image","88","115601","0.0-88.0","""event"",""trial"",""time""
""fullscreenenter"",""0"",""4060""
","
","
","""event"",""trial"",""time""
""fullscreenenter"",""0"",""4060""
","
","643.9000000059605","run_exp/static/images/Set 6_rs/144a.jpg","86","","","","","","learn","SL",""
"","show_choice","89","116965","0.0-89.0","""event"",""trial"",""time""
""fullscreenenter"",""0"",""4060""
","
","
","""event"",""trial"",""time""
""fullscreenenter"",""0"",""4060""
","
","null","run_exp/static/images/Set 6_rs/144a.jpg","null","","","","","","learn","SL",""
"","html-keyboard-response","90","117479","0.0-90.0","""event"",""trial"",""time""
""fullscreenenter"",""0"",""4060""
","
","
","""event"",""trial"",""time""
""fullscreenenter"",""0"",""4060""
","
","null","<p></p>","null","","","","","","","",""
"","image","91","118505","0.0-91.0","""event"",""trial"",""time""
""fullscreenenter"",""0"",""4060""
","
","
","""event"",""trial"",""time""
""fullscreenenter"",""0"",""4060""
","
","1024.7999999970198","run_exp/static/images/Set 6_rs/126a.jpg","78","","","","","","learn","SR",""
"","show_choice","92","119491","0.0-92.0","""event"",""trial"",""time""
""fullscreenenter"",""0"",""4060""
","
","
","""event"",""trial"",""time""
""fullscreenenter"",""0"",""4060""
","
","null","run_exp/static/images/Set 6_rs/126a.jpg","null","","","","","","learn","SR",""
"","html-keyboard-response","93","120004","0.0-93.0","""event"",""trial"",""time""
""fullscreenenter"",""0"",""4060""
","
","
","""event"",""trial"",""time""
""fullscreenenter"",""0"",""4060""
","
","null","<p></p>","null","","","","","","","",""
"","image","94","121120","0.0-94.0","""event"",""trial"",""time""
""fullscreenenter"",""0"",""4060""
","
","
","""event"",""trial"",""time""
""fullscreenenter"",""0"",""4060""
","
","1114.1000000089407","run_exp/static/images/Set 6_rs/061a.jpg","78","","","","","","learn","SR",""
"","show_choice","95","122019","0.0-95.0","""event"",""trial"",""time""
""fullscreenenter"",""0"",""4060""
","
","
","""event"",""trial"",""time""
""fullscreenenter"",""0"",""4060""
","
","null","run_exp/static/images/Set 6_rs/061a.jpg","null","","","","","","learn","SR",""
"","html-keyboard-response","96","122531","0.0-96.0","""event"",""trial"",""time""
""fullscreenenter"",""0"",""4060""
","
","
","""event"",""trial"",""time""
""fullscreenenter"",""0"",""4060""
","
","null","<p></p>","null","","","","","","","",""
"","image","97","123249","0.0-97.0","""event"",""trial"",""time""
""fullscreenenter"",""0"",""4060""
","
","
","""event"",""trial"",""time""
""fullscreenenter"",""0"",""4060""
","
","716.2999999970198","run_exp/static/images/Set 6_rs/167a.jpg","86","","","","","","learn","SL",""
"","show_choice","98","124546","0.0-98.0","""event"",""trial"",""time""
""fullscreenenter"",""0"",""4060""
","
","
","""event"",""trial"",""time""
""fullscreenenter"",""0"",""4060""
","
","null","run_exp/static/images/Set 6_rs/167a.jpg","null","","","","","","learn","SL",""
"","html-keyboard-response","99","125060","0.0-99.0","""event"",""trial"",""time""
""fullscreenenter"",""0"",""4060""
","
","
","""event"",""trial"",""time""
""fullscreenenter"",""0"",""4060""
","
","null","<p></p>","null","","","","","","","",""
"","image","100","126528","0.0-100.0","""event"",""trial"",""time""
""fullscreenenter"",""0"",""4060""
","
","
","""event"",""trial"",""time""
""fullscreenenter"",""0"",""4060""
","
","1467.2999999970198","run_exp/static/images/Set 6_rs/108a.jpg","86","","","","","","learn","SR",""
"","show_choice","101","127070","0.0-101.0","""event"",""trial"",""time""
""fullscreenenter"",""0"",""4060""
","
","
","""event"",""trial"",""time""
""fullscreenenter"",""0"",""4060""
","
","null","run_exp/static/images/Set 6_rs/108a.jpg","null","","","","","","learn","SR",""
"","html-keyboard-response","102","127572","0.0-102.0","""event"",""trial"",""time""
""fullscreenenter"",""0"",""4060""
","
","
","""event"",""trial"",""time""
""fullscreenenter"",""0"",""4060""
","
","null","<p></p>","null","","","","","","","",""
"","image","103","128480","0.0-103.0","""event"",""trial"",""time""
""fullscreenenter"",""0"",""4060""
","
","
","""event"",""trial"",""time""
""fullscreenenter"",""0"",""4060""
","
","907.3000000119209","run_exp/static/images/Set 6_rs/089a.jpg","86","","","","","","learn","SL",""
"","show_choice","104","129581","0.0-104.0","""event"",""trial"",""time""
""fullscreenenter"",""0"",""4060""
","
","
","""event"",""trial"",""time""
""fullscreenenter"",""0"",""4060""
","
","null","run_exp/static/images/Set 6_rs/089a.jpg","null","","","","","","learn","SL",""
"","html-keyboard-response","105","130094","0.0-105.0","""event"",""trial"",""time""
""fullscreenenter"",""0"",""4060""
","
","
","""event"",""trial"",""time""
""fullscreenenter"",""0"",""4060""
","
","null","<p></p>","null","","","","","","","",""
"","image","106","130569","0.0-106.0","""event"",""trial"",""time""
""fullscreenenter"",""0"",""4060""
","
","
","""event"",""trial"",""time""
""fullscreenenter"",""0"",""4060""
","
","474","run_exp/static/images/Set 6_rs/064a.jpg","86","","","","","","learn","SR",""
"","show_choice","107","132105","0.0-107.0","""event"",""trial"",""time""
""fullscreenenter"",""0"",""4060""
","
","
","""event"",""trial"",""time""
""fullscreenenter"",""0"",""4060""
","
","null","run_exp/static/images/Set 6_rs/064a.jpg","null","","","","","","learn","SR",""
"","html-keyboard-response","108","132622","0.0-108.0","""event"",""trial"",""time""
""fullscreenenter"",""0"",""4060""
","
","
","""event"",""trial"",""time""
""fullscreenenter"",""0"",""4060""
","
","null","<p></p>","null","","","","","","","",""
"","image","109","133305","0.0-109.0","""event"",""trial"",""time""
""fullscreenenter"",""0"",""4060""
","
","
","""event"",""trial"",""time""
""fullscreenenter"",""0"",""4060""
","
","681.5999999940395","run_exp/static/images/Set 6_rs/088a.jpg","86","","","","","","learn","SR",""
"","show_choice","110","134636","0.0-110.0","""event"",""trial"",""time""
""fullscreenenter"",""0"",""4060""
","
","
","""event"",""trial"",""time""
""fullscreenenter"",""0"",""4060""
","
","null","run_exp/static/images/Set 6_rs/088a.jpg","null","","","","","","learn","SR",""
"","html-keyboard-response","111","135149","0.0-111.0","""event"",""trial"",""time""
""fullscreenenter"",""0"",""4060""
","
","
","""event"",""trial"",""time""
""fullscreenenter"",""0"",""4060""
","
","null","<p></p>","null","","","","","","","",""
"","image","112","135760","0.0-112.0","""event"",""trial"",""time""
""fullscreenenter"",""0"",""4060""
","
","
","""event"",""trial"",""time""
""fullscreenenter"",""0"",""4060""
","
","610.9000000059605","run_exp/static/images/Set 6_rs/006a.jpg","86","","","","","","learn","SL",""
"","show_choice","113","137162","0.0-113.0","""event"",""trial"",""time""
""fullscreenenter"",""0"",""4060""
","
","
","""event"",""trial"",""time""
""fullscreenenter"",""0"",""4060""
","
","null","run_exp/static/images/Set 6_rs/006a.jpg","null","","","","","","learn","SL",""
"","html-keyboard-response","114","137675","0.0-114.0","""event"",""trial"",""time""
""fullscreenenter"",""0"",""4060""
","
","
","""event"",""trial"",""time""
""fullscreenenter"",""0"",""4060""
","
","null","<p></p>","null","","","","","","","",""
"","image","115","138192","0.0-115.0","""event"",""trial"",""time""
""fullscreenenter"",""0"",""4060""
","
","
","""event"",""trial"",""time""
""fullscreenenter"",""0"",""4060""
","
","517","run_exp/static/images/Set 6_rs/186a.jpg","86","","","","","","learn","SR",""
"","show_choice","116","139682","0.0-116.0","""event"",""trial"",""time""
""fullscreenenter"",""0"",""4060""
","
","
","""event"",""trial"",""time""
""fullscreenenter"",""0"",""4060""
","
","null","run_exp/static/images/Set 6_rs/186a.jpg","null","","","","","","learn","SR",""
"","html-keyboard-response","117","140188","0.0-117.0","""event"",""trial"",""time""
""fullscreenenter"",""0"",""4060""
","
","
","""event"",""trial"",""time""
""fullscreenenter"",""0"",""4060""
","
","null","<p></p>","null","","","","","","","",""
"","image","118","140857","0.0-118.0","""event"",""trial"",""time""
""fullscreenenter"",""0"",""4060""
","
","
","""event"",""trial"",""time""
""fullscreenenter"",""0"",""4060""
","
","667.6000000089407","run_exp/static/images/Set 6_rs/036a.jpg","86","","","","","","learn","SL",""
"","show_choice","119","142197","0.0-119.0","""event"",""trial"",""time""
""fullscreenenter"",""0"",""4060""
","
","
","""event"",""trial"",""time""
""fullscreenenter"",""0"",""4060""
","
","null","run_exp/static/images/Set 6_rs/036a.jpg","null","","","","","","learn","SL",""
"","html-keyboard-response","120","142710","0.0-120.0","""event"",""trial"",""time""
""fullscreenenter"",""0"",""4060""
","
","
","""event"",""trial"",""time""
""fullscreenenter"",""0"",""4060""
","
","null","<p></p>","null","","","","","","","",""
"","image","121","143281","0.0-121.0","""event"",""trial"",""time""
""fullscreenenter"",""0"",""4060""
","
","
","""event"",""trial"",""time""
""fullscreenenter"",""0"",""4060""
","
","569.2000000029802","run_exp/static/images/Set 6_rs/055a.jpg","86","","","","","","learn","SL",""
"","show_choice","122","144722","0.0-122.0","""event"",""trial"",""time""
""fullscreenenter"",""0"",""4060""
","
","
","""event"",""trial"",""time""
""fullscreenenter"",""0"",""4060""
","
","null","run_exp/static/images/Set 6_rs/055a.jpg","null","","","","","","learn","SL",""
"","html-keyboard-response","123","145232","0.0-123.0","""event"",""trial"",""time""
""fullscreenenter"",""0"",""4060""
","
","
","""event"",""trial"",""time""
""fullscreenenter"",""0"",""4060""
","
","null","<p></p>","null","","","","","","","",""
"","image","124","147216","0.0-124.0","""event"",""trial"",""time""
""fullscreenenter"",""0"",""4060""
","
","
","""event"",""trial"",""time""
""fullscreenenter"",""0"",""4060""
","
","1983.4000000059605","run_exp/static/images/Set 6_rs/066a.jpg","78","","","","","","learn","SL",""
"","show_choice","125","147233","0.0-125.0","""event"",""trial"",""time""
""fullscreenenter"",""0"",""4060""
","
","
","""event"",""trial"",""time""
""fullscreenenter"",""0"",""4060""
","
","null","run_exp/static/images/Set 6_rs/066a.jpg","null","","","","","","learn","SL",""
"","html-keyboard-response","126","147742","0.0-126.0","""event"",""trial"",""time""
""fullscreenenter"",""0"",""4060""
","
","
","""event"",""trial"",""time""
""fullscreenenter"",""0"",""4060""
","
","null","<p></p>","null","","","","","","","",""
"","image","127","148504","0.0-127.0","""event"",""trial"",""time""
""fullscreenenter"",""0"",""4060""
","
","
","""event"",""trial"",""time""
""fullscreenenter"",""0"",""4060""
","
","761.8000000119209","run_exp/static/images/Set 6_rs/122a.jpg","86","","","","","","learn","SR",""
"","show_choice","128","149757","0.0-128.0","""event"",""trial"",""time""
""fullscreenenter"",""0"",""4060""
","
","
","""event"",""trial"",""time""
""fullscreenenter"",""0"",""4060""
","
","null","run_exp/static/images/Set 6_rs/122a.jpg","null","","","","","","learn","SR",""
"","html-keyboard-response","129","150274","0.0-129.0","""event"",""trial"",""time""
""fullscreenenter"",""0"",""4060""
","
","
","""event"",""trial"",""time""
""fullscreenenter"",""0"",""4060""
","
","null","<p></p>","null","","","","","","","",""
"","image","130","151113","0.0-130.0","""event"",""trial"",""time""
""fullscreenenter"",""0"",""4060""
","
","
","""event"",""trial"",""time""
""fullscreenenter"",""0"",""4060""
","
","837.7000000029802","run_exp/static/images/Set 6_rs/141a.jpg","78","","","","","","learn","SR",""
"","show_choice","131","152286","0.0-131.0","""event"",""trial"",""time""
""fullscreenenter"",""0"",""4060""
","
","
","""event"",""trial"",""time""
""fullscreenenter"",""0"",""4060""
","
","null","run_exp/static/images/Set 6_rs/141a.jpg","null","","","","","","learn","SR",""
"","html-keyboard-response","132","152801","0.0-132.0","""event"",""trial"",""time""
""fullscreenenter"",""0"",""4060""
","
","
","""event"",""trial"",""time""
""fullscreenenter"",""0"",""4060""
","
","null","<p></p>","null","","","","","","","",""
"","image","133","153376","0.0-133.0","""event"",""trial"",""time""
""fullscreenenter"",""0"",""4060""
","
","
","""event"",""trial"",""time""
""fullscreenenter"",""0"",""4060""
","
","574","run_exp/static/images/Set 6_rs/111a.jpg","86","","","","","","learn","SL",""
"","show_choice","134","154811","0.0-134.0","""event"",""trial"",""time""
""fullscreenenter"",""0"",""4060""
","
","
","""event"",""trial"",""time""
""fullscreenenter"",""0"",""4060""
","
","null","run_exp/static/images/Set 6_rs/111a.jpg","null","","","","","","learn","SL",""
"","html-keyboard-response","135","155325","0.0-135.0","""event"",""trial"",""time""
""fullscreenenter"",""0"",""4060""
","
","
","""event"",""trial"",""time""
""fullscreenenter"",""0"",""4060""
","
","null","<p></p>","null","","","","","","","",""
"","image","136","155993","0.0-136.0","""event"",""trial"",""time""
""fullscreenenter"",""0"",""4060""
","
","
","""event"",""trial"",""time""
""fullscreenenter"",""0"",""4060""
","
","666.7999999970198","run_exp/static/images/Set 6_rs/019a.jpg","86","","","","","","learn","SL",""
"","show_choice","137","157338","0.0-137.0","""event"",""trial"",""time""
""fullscreenenter"",""0"",""4060""
","
","
","""event"",""trial"",""time""
""fullscreenenter"",""0"",""4060""
","
","null","run_exp/static/images/Set 6_rs/019a.jpg","null","","","","","","learn","SL",""
"","html-keyboard-response","138","157851","0.0-138.0","""event"",""trial"",""time""
""fullscreenenter"",""0"",""4060""
","
","
","""event"",""trial"",""time""
""fullscreenenter"",""0"",""4060""
","
","null","<p></p>","null","","","","","","","",""
"","image","139","158656","0.0-139.0","""event"",""trial"",""time""
""fullscreenenter"",""0"",""4060""
","
","
","""event"",""trial"",""time""
""fullscreenenter"",""0"",""4060""
","
","803.5999999940395","run_exp/static/images/Set 6_rs/172a.jpg","78","","","","","","learn","SR",""
"","show_choice","140","159863","0.0-140.0","""event"",""trial"",""time""
""fullscreenenter"",""0"",""4060""
","
","
","""event"",""trial"",""time""
""fullscreenenter"",""0"",""4060""
","
","null","run_exp/static/images/Set 6_rs/172a.jpg","null","","","","","","learn","SR",""
"","html-keyboard-response","141","160379","0.0-141.0","""event"",""trial"",""time""
""fullscreenenter"",""0"",""4060""
","
","
","""event"",""trial"",""time""
""fullscreenenter"",""0"",""4060""
","
","null","<p></p>","null","","","","","","","",""
"","image","142","160968","0.0-142.0","""event"",""trial"",""time""
""fullscreenenter"",""0"",""4060""
","
","
","""event"",""trial"",""time""
""fullscreenenter"",""0"",""4060""
","
","588","run_exp/static/images/Set 6_rs/071a.jpg","86","","","","","","learn","SL",""
"","show_choice","143","162390","0.0-143.0","""event"",""trial"",""time""
""fullscreenenter"",""0"",""4060""
","
","
","""event"",""trial"",""time""
""fullscreenenter"",""0"",""4060""
","
","null","run_exp/static/images/Set 6_rs/071a.jpg","null","","","","","","learn","SL",""
"","html-keyboard-response","144","162903","0.0-144.0","""event"",""trial"",""time""
""fullscreenenter"",""0"",""4060""
","
","
","""event"",""trial"",""time""
""fullscreenenter"",""0"",""4060""
","
","null","<p></p>","null","","","","","","","",""
"","image","145","163625","0.0-145.0","""event"",""trial"",""time""
""fullscreenenter"",""0"",""4060""
","
","
","""event"",""trial"",""time""
""fullscreenenter"",""0"",""4060""
","
","720.9000000059605","run_exp/static/images/Set 6_rs/168a.jpg","86","","","","","","learn","SL",""
"","show_choice","146","164910","0.0-146.0","""event"",""trial"",""time""
""fullscreenenter"",""0"",""4060""
","
","
","""event"",""trial"",""time""
""fullscreenenter"",""0"",""4060""
","
","null","run_exp/static/images/Set 6_rs/168a.jpg","null","","","","","","learn","SL",""
"","html-keyboard-response","147","165423","0.0-147.0","""event"",""trial"",""time""
""fullscreenenter"",""0"",""4060""
","
","
","""event"",""trial"",""time""
""fullscreenenter"",""0"",""4060""
","
","null","<p></p>","null","","","","","","","",""
"","image","148","165960","0.0-148.0","""event"",""trial"",""time""
""fullscreenenter"",""0"",""4060""
","
","
","""event"",""trial"",""time""
""fullscreenenter"",""0"",""4060""
","
","536.2999999970198","run_exp/static/images/Set 6_rs/023a.jpg","86","","","","","","learn","SR",""
"","show_choice","149","167435","0.0-149.0","""event"",""trial"",""time""
""fullscreenenter"",""0"",""4060""
","
","
","""event"",""trial"",""time""
""fullscreenenter"",""0"",""4060""
","
","null","run_exp/static/images/Set 6_rs/023a.jpg","null","","","","","","learn","SR",""
"","html-keyboard-response","150","167936","0.0-150.0","""event"",""trial"",""time""
""fullscreenenter"",""0"",""4060""
","
","
","""event"",""trial"",""time""
""fullscreenenter"",""0"",""4060""
","
","null","<p></p>","null","","","","","","","",""
"","image","151","168793","0.0-151.0","""event"",""trial"",""time""
""fullscreenenter"",""0"",""4060""
","
","
","""event"",""trial"",""time""
""fullscreenenter"",""0"",""4060""
","
","855.2999999970198","run_exp/static/images/Set 6_rs/121a.jpg","86","","","","","","learn","SR",""
"","show_choice","152","169947","0.0-152.0","""event"",""trial"",""time""
""fullscreenenter"",""0"",""4060""
","
","
","""event"",""trial"",""time""
""fullscreenenter"",""0"",""4060""
","
","null","run_exp/static/images/Set 6_rs/121a.jpg","null","","","","","","learn","SR",""
"","html-keyboard-response","153","170461","0.0-153.0","""event"",""trial"",""time""
""fullscreenenter"",""0"",""4060""
","
","
","""event"",""trial"",""time""
""fullscreenenter"",""0"",""4060""
","
","null","<p></p>","null","","","","","","","",""
"","image","154","171256","0.0-154.0","""event"",""trial"",""time""
""fullscreenenter"",""0"",""4060""
","
","
","""event"",""trial"",""time""
""fullscreenenter"",""0"",""4060""
","
","793.5999999940395","run_exp/static/images/Set 6_rs/150a.jpg","86","","","","","","learn","SR",""
"","show_choice","155","172472","0.0-155.0","""event"",""trial"",""time""
""fullscreenenter"",""0"",""4060""
","
","
","""event"",""trial"",""time""
""fullscreenenter"",""0"",""4060""
","
","null","run_exp/static/images/Set 6_rs/150a.jpg","null","","","","","","learn","SR",""
"","html-keyboard-response","156","172988","0.0-156.0","""event"",""trial"",""time""
""fullscreenenter"",""0"",""4060""
","
","
","""event"",""trial"",""time""
""fullscreenenter"",""0"",""4060""
","
","null","<p></p>","null","","","","","","","",""
"","image","157","174008","0.0-157.0","""event"",""trial"",""time""
""fullscreenenter"",""0"",""4060""
","
","
","""event"",""trial"",""time""
""fullscreenenter"",""0"",""4060""
","
","1019.7000000029802","run_exp/static/images/Set 6_rs/025a.jpg","78","","","","","","learn","SL",""
"","show_choice","158","175003","0.0-158.0","""event"",""trial"",""time""
""fullscreenenter"",""0"",""4060""
","
","
","""event"",""trial"",""time""
""fullscreenenter"",""0"",""4060""
","
","null","run_exp/static/images/Set 6_rs/025a.jpg","null","","","","","","learn","SL",""
"","html-keyboard-response","159","175504","0.0-159.0","""event"",""trial"",""time""
""fullscreenenter"",""0"",""4060""
","
","
","""event"",""trial"",""time""
""fullscreenenter"",""0"",""4060""
","
","null","<p></p>","null","","","","","","","",""
"","image","160","176113","0.0-160.0","""event"",""trial"",""time""
""fullscreenenter"",""0"",""4060""
","
","
","""event"",""trial"",""time""
""fullscreenenter"",""0"",""4060""
","
","607.6000000089407","run_exp/static/images/Set 6_rs/063a.jpg","86","","","","","","learn","SR",""
"","show_choice","161","177515","0.0-161.0","""event"",""trial"",""time""
""fullscreenenter"",""0"",""4060""
","
","
","""event"",""trial"",""time""
""fullscreenenter"",""0"",""4060""
","
","null","run_exp/static/images/Set 6_rs/063a.jpg","null","","","","","","learn","SR",""
"","html-keyboard-response","162","178017","0.0-162.0","""event"",""trial"",""time""
""fullscreenenter"",""0"",""4060""
","
","
","""event"",""trial"",""time""
""fullscreenenter"",""0"",""4060""
","
","null","<p></p>","null","","","","","","","",""
"","image","163","179217","0.0-163.0","""event"",""trial"",""time""
""fullscreenenter"",""0"",""4060""
","
","
","""event"",""trial"",""time""
""fullscreenenter"",""0"",""4060""
","
","1199.4000000059605","run_exp/static/images/Set 6_rs/152a.jpg","86","","","","","","learn","SR",""
"","show_choice","164","180021","0.0-164.0","""event"",""trial"",""time""
""fullscreenenter"",""0"",""4060""
","
","
","""event"",""trial"",""time""
""fullscreenenter"",""0"",""4060""
","
","null","run_exp/static/images/Set 6_rs/152a.jpg","null","","","","","","learn","SR",""
"","html-keyboard-response","165","180536","0.0-165.0","""event"",""trial"",""time""
""fullscreenenter"",""0"",""4060""
","
","
","""event"",""trial"",""time""
""fullscreenenter"",""0"",""4060""
","
","null","<p></p>","null","","","","","","","",""
"","image","166","181745","0.0-166.0","""event"",""trial"",""time""
""fullscreenenter"",""0"",""4060""
","
","
","""event"",""trial"",""time""
""fullscreenenter"",""0"",""4060""
","
","1206.7999999970198","run_exp/static/images/Set 6_rs/123a.jpg","86","","","","","","learn","SL",""
"","show_choice","167","182553","0.0-167.0","""event"",""trial"",""time""
""fullscreenenter"",""0"",""4060""
","
","
","""event"",""trial"",""time""
""fullscreenenter"",""0"",""4060""
","
","null","run_exp/static/images/Set 6_rs/123a.jpg","null","","","","","","learn","SL",""
"","html-keyboard-response","168","183056","0.0-168.0","""event"",""trial"",""time""
""fullscreenenter"",""0"",""4060""
","
","
","""event"",""trial"",""time""
""fullscreenenter"",""0"",""4060""
","
","null","<p></p>","null","","","","","","","",""
"","image","169","183585","0.0-169.0","""event"",""trial"",""time""
""fullscreenenter"",""0"",""4060""
","
","
","""event"",""trial"",""time""
""fullscreenenter"",""0"",""4060""
","
","528","run_exp/static/images/Set 6_rs/014a.jpg","86","","","","","","learn","SL",""
"","show_choice","170","185060","0.0-170.0","""event"",""trial"",""time""
""fullscreenenter"",""0"",""4060""
","
","
","""event"",""trial"",""time""
""fullscreenenter"",""0"",""4060""
","
","null","run_exp/static/images/Set 6_rs/014a.jpg","null","","","","","","learn","SL",""
"","html-keyboard-response","171","185567","0.0-171.0","""event"",""trial"",""time""
""fullscreenenter"",""0"",""4060""
","
","
","""event"",""trial"",""time""
""fullscreenenter"",""0"",""4060""
","
","null","<p></p>","null","","","","","","","",""
"","image","172","186121","0.0-172.0","""event"",""trial"",""time""
""fullscreenenter"",""0"",""4060""
","
","
","""event"",""trial"",""time""
""fullscreenenter"",""0"",""4060""
","
","553.2000000029802","run_exp/static/images/Set 6_rs/112a.jpg","86","","","","","","learn","SR",""
"","show_choice","173","187580","0.0-173.0","""event"",""trial"",""time""
""fullscreenenter"",""0"",""4060""
","
","
","""event"",""trial"",""time""
""fullscreenenter"",""0"",""4060""
","
","null","run_exp/static/images/Set 6_rs/112a.jpg","null","","","","","","learn","SR",""
"","html-keyboard-response","174","188096","0.0-174.0","""event"",""trial"",""time""
""fullscreenenter"",""0"",""4060""
","
","
","""event"",""trial"",""time""
""fullscreenenter"",""0"",""4060""
","
","null","<p></p>","null","","","","","","","",""
"","image","175","190110","0.0-175.0","""event"",""trial"",""time""
""fullscreenenter"",""0"",""4060""
","
","
","""event"",""trial"",""time""
""fullscreenenter"",""0"",""4060""
","
","null","run_exp/static/images/Set 6_rs/132a.jpg","null","","","","","","learn","SR",""
"","show_choice","176","192118","0.0-176.0","""event"",""trial"",""time""
""fullscreenenter"",""0"",""4060""
","
","
","""event"",""trial"",""time""
""fullscreenenter"",""0"",""4060""
","
","null","run_exp/static/images/blank.png","null","","","","","","learn","SR",""
"","html-keyboard-response","177","192631","0.0-177.0","""event"",""trial"",""time""
""fullscreenenter"",""0"",""4060""
","
","
","""event"",""trial"",""time""
""fullscreenenter"",""0"",""4060""
","
","null","<p></p>","null","","","","","","","",""
"","image","178","193361","0.0-178.0","""event"",""trial"",""time""
""fullscreenenter"",""0"",""4060""
","
","
","""event"",""trial"",""time""
""fullscreenenter"",""0"",""4060""
","
","727.2000000029802","run_exp/static/images/Set 6_rs/079a.jpg","86","","","","","","learn","SL",""
"","show_choice","179","194638","0.0-179.0","""event"",""trial"",""time""
""fullscreenenter"",""0"",""4060""
","
","
","""event"",""trial"",""time""
""fullscreenenter"",""0"",""4060""
","
","null","run_exp/static/images/Set 6_rs/079a.jpg","null","","","","","","learn","SL",""
"","html-keyboard-response","180","195151","0.0-180.0","""event"",""trial"",""time""
""fullscreenenter"",""0"",""4060""
","
","
","""event"",""trial"",""time""
""fullscreenenter"",""0"",""4060""
","
","null","<p></p>","null","","","","","","","",""
"","image","181","195969","0.0-181.0","""event"",""trial"",""time""
""fullscreenenter"",""0"",""4060""
","
","
","""event"",""trial"",""time""
""fullscreenenter"",""0"",""4060""
","
","816.8999999910593","run_exp/static/images/Set 6_rs/181a.jpg","78","","","","","","learn","SL",""
"","show_choice","182","197163","0.0-182.0","""event"",""trial"",""time""
""fullscreenenter"",""0"",""4060""
","
","
","""event"",""trial"",""time""
""fullscreenenter"",""0"",""4060""
","
","null","run_exp/static/images/Set 6_rs/181a.jpg","null","","","","","","learn","SL",""
"","html-keyboard-response","183","197675","0.0-183.0","""event"",""trial"",""time""
""fullscreenenter"",""0"",""4060""
","
","
","""event"",""trial"",""time""
""fullscreenenter"",""0"",""4060""
","
","null","<p></p>","null","","","","","","","",""
"","image","184","198929","0.0-184.0","""event"",""trial"",""time""
""fullscreenenter"",""0"",""4060""
","
","
","""event"",""trial"",""time""
""fullscreenenter"",""0"",""4060""
","
","1253","run_exp/static/images/Set 6_rs/074a.jpg","78","","","","","","learn","SL",""
"","show_choice","185","199681","0.0-185.0","""event"",""trial"",""time""
""fullscreenenter"",""0"",""4060""
","
","
","""event"",""trial"",""time""
""fullscreenenter"",""0"",""4060""
","
","null","run_exp/static/images/Set 6_rs/074a.jpg","null","","","","","","learn","SL",""
"","html-keyboard-response","186","200185","0.0-186.0","""event"",""trial"",""time""
""fullscreenenter"",""0"",""4060""
","
","
","""event"",""trial"",""time""
""fullscreenenter"",""0"",""4060""
","
","null","<p></p>","null","","","","","","","",""
"","image","187","200713","0.0-187.0","""event"",""trial"",""time""
""fullscreenenter"",""0"",""4060""
","
","
","""event"",""trial"",""time""
""fullscreenenter"",""0"",""4060""
","
","526.7000000029802","run_exp/static/images/Set 6_rs/010a.jpg","86","","","","","","learn","SR",""
"","show_choice","188","202197","0.0-188.0","""event"",""trial"",""time""
""fullscreenenter"",""0"",""4060""
","
","
","""event"",""trial"",""time""
""fullscreenenter"",""0"",""4060""
","
","null","run_exp/static/images/Set 6_rs/010a.jpg","null","","","","","","learn","SR",""
"","html-keyboard-response","189","202711","0.0-189.0","""event"",""trial"",""time""
""fullscreenenter"",""0"",""4060""
","
","
","""event"",""trial"",""time""
""fullscreenenter"",""0"",""4060""
","
","null","<p></p>","null","","","","","","","",""
"","image","190","203281","0.0-190.0","""event"",""trial"",""time""
""fullscreenenter"",""0"",""4060""
","
","
","""event"",""trial"",""time""
""fullscreenenter"",""0"",""4060""
","
","568.5999999940395","run_exp/static/images/Set 6_rs/050a.jpg","86","","","","","","learn","SL",""
"","show_choice","191","204715","0.0-191.0","""event"",""trial"",""time""
""fullscreenenter"",""0"",""4060""
","
","
","""event"",""trial"",""time""
""fullscreenenter"",""0"",""4060""
","
","null","run_exp/static/images/Set 6_rs/050a.jpg","null","","","","","","learn","SL",""
"","html-keyboard-response","192","205230","0.0-192.0","""event"",""trial"",""time""
""fullscreenenter"",""0"",""4060""
","
","
","""event"",""trial"",""time""
""fullscreenenter"",""0"",""4060""
","
","null","<p></p>","null","","","","","","","",""
"","image","193","205601","0.0-193.0","""event"",""trial"",""time""
""fullscreenenter"",""0"",""4060""
","
","
","""event"",""trial"",""time""
""fullscreenenter"",""0"",""4060""
","
","369.5","run_exp/static/images/Set 6_rs/187a.jpg","86","","","","","","learn","SR",""
"","show_choice","194","207242","0.0-194.0","""event"",""trial"",""time""
""fullscreenenter"",""0"",""4060""
","
","
","""event"",""trial"",""time""
""fullscreenenter"",""0"",""4060""
","
","null","run_exp/static/images/Set 6_rs/187a.jpg","null","","","","","","learn","SR",""
"","html-keyboard-response","195","207753","0.0-195.0","""event"",""trial"",""time""
""fullscreenenter"",""0"",""4060""
","
","
","""event"",""trial"",""time""
""fullscreenenter"",""0"",""4060""
","
","null","<p></p>","null","","","","","","","",""
"","test_intro","196","244606","0.0-196.0","""event"",""trial"",""time""
""fullscreenenter"",""0"",""4060""
","
","
","""event"",""trial"",""time""
""fullscreenenter"",""0"",""4060""
","
","null","run_exp/static/audio/clip_2_memory.m4a","null","","","","","<div class='center'><p>Now, lets see how much you remember about the items you just saw.  For each item, you need to indicate if it was <b>old</b> by pressing the <b>v</b> key, <b>similar</b> by pressing the <b>b</b> key, or <b>new</b> by pressing the <b>n</b> key.</p><p>Old refers to an item that you saw before in the indoor/outdoor game that you just played, new refers to an item you have <b>not</b> seen before within the indoor/outdoor game, and similar refers to an item that is similar to an item youve seen before but is not exactly the same. </p><p>Before we begin, lets go over some brief demonstrations to make sure you understand.</p></div>","","",""
"","html-keyboard-response","197","246065","0.0-197.0","""event"",""trial"",""time""
""fullscreenenter"",""0"",""4060""
","
","
","""event"",""trial"",""time""
""fullscreenenter"",""0"",""4060""
","
","1457.7999999970198","<div class='center'><p>Now, lets see how much you remember about the items you just saw.  For each item, you need to indicate if it was <b>old</b> by pressing the <b>v</b> key, <b>similar</b> by pressing the <b>b</b> key, or <b>new</b> by pressing the <b>n</b> key.</p><p>Old refers to an item that you saw before in the indoor/outdoor game that you just played, new refers to an item you have <b>not</b> seen before within the indoor/outdoor game, and similar refers to an item that is similar to an item youve seen before but is not exactly the same. </p><p>Before we begin, lets go over some brief demonstrations to make sure you understand.</p><div><p><b>[Press the space bar to continue]</b></p></div>","32","","","","","","","",""
"","items","198","253578","0.0-198.0","""event"",""trial"",""time""
""fullscreenenter"",""0"",""4060""
","
","
","""event"",""trial"",""time""
""fullscreenenter"",""0"",""4060""
","
","null","run_exp/static/audio/clip_3_items.m4a","null","","","","","","","",""
"","mop","199","258086","0.0-199.0","""event"",""trial"",""time""
""fullscreenenter"",""0"",""4060""
","
","
","""event"",""trial"",""time""
""fullscreenenter"",""0"",""4060""
","
","null","run_exp/static/audio/clip_4_mop.m4a","null","","","","","","","",""
"","baseball","200","261600","0.0-200.0","""event"",""trial"",""time""
""fullscreenenter"",""0"",""4060""
","
","
","""event"",""trial"",""time""
""fullscreenenter"",""0"",""4060""
","
","null","run_exp/static/audio/clip_5_baseball.m4a","null","","","","","","","",""
"","trumpet","201","265105","0.0-201.0","""event"",""trial"",""time""
""fullscreenenter"",""0"",""4060""
","
","
","""event"",""trial"",""time""
""fullscreenenter"",""0"",""4060""
","
","null","run_exp/static/audio/clip_6_trumpet.m4a","null","","","","","","","",""
"","gummies","202","268610","0.0-202.0","""event"",""trial"",""time""
""fullscreenenter"",""0"",""4060""
","
","
","""event"",""trial"",""time""
""fullscreenenter"",""0"",""4060""
","
","null","run_exp/static/audio/clip_7_gummies.m4a","null","","","","","","","",""
"","osn","203","273118","0.0-203.0","""event"",""trial"",""time""
""fullscreenenter"",""0"",""4060""
","
","
","""event"",""trial"",""time""
""fullscreenenter"",""0"",""4060""
","
","null","run_exp/static/audio/clip_8_osn.m4a","null","","","","","","","",""
"","old_1","204","279634","0.0-204.0","""event"",""trial"",""time""
""fullscreenenter"",""0"",""4060""
","
","
","""event"",""trial"",""time""
""fullscreenenter"",""0"",""4060""
","
","null","run_exp/static/audio/clip_9_old_trumpet.m4a","null","","","","","","","",""
"","new_1","205","287149","0.0-205.0","""event"",""trial"",""time""
""fullscreenenter"",""0"",""4060""
","
","
","""event"",""trial"",""time""
""fullscreenenter"",""0"",""4060""
","
","null","run_exp/static/audio/clip_10_new_balloon.m4a","null","","","","","","","",""
"","similar_1a","206","291666","0.0-206.0","""event"",""trial"",""time""
""fullscreenenter"",""0"",""4060""
","
","
","""event"",""trial"",""time""
""fullscreenenter"",""0"",""4060""
","
","null","run_exp/static/audio/clip_11a_similar_mop.m4a","null","","","","","","","",""
"","similar_1b","207","298175","0.0-207.0","""event"",""trial"",""time""
""fullscreenenter"",""0"",""4060""
","
","
","""event"",""trial"",""time""
""fullscreenenter"",""0"",""4060""
","
","null","run_exp/static/audio/clip_11b_similar_mop.m4a","null","","","","","","","",""
"","new_2","208","301691","0.0-208.0","""event"",""trial"",""time""
""fullscreenenter"",""0"",""4060""
","
","
","""event"",""trial"",""time""
""fullscreenenter"",""0"",""4060""
","
","null","run_exp/static/audio/clip_12_new_stoplight.m4a","null","","","","","","","",""
"","old_2","209","305201","0.0-209.0","""event"",""trial"",""time""
""fullscreenenter"",""0"",""4060""
","
","
","""event"",""trial"",""time""
""fullscreenenter"",""0"",""4060""
","
","null","run_exp/static/audio/clip_13_old_baseball.m4a","null","","","","","","","",""
"","similar_2a","210","308718","0.0-210.0","""event"",""trial"",""time""
""fullscreenenter"",""0"",""4060""
","
","
","""event"",""trial"",""time""
""fullscreenenter"",""0"",""4060""
","
","null","run_exp/static/audio/clip_14a_similar_gummies.m4a","null","","","","","","","",""
"","similar_2b","211","316228","0.0-211.0","""event"",""trial"",""time""
""fullscreenenter"",""0"",""4060""
","
","
","""event"",""trial"",""time""
""fullscreenenter"",""0"",""4060""
","
","null","run_exp/static/audio/clip_14b_similar_gummies.m4a","null","","","","","","","",""
"","practice","212","358306","0.0-212.0","""event"",""trial"",""time""
""fullscreenenter"",""0"",""4060""
","
","
","""event"",""trial"",""time""
""fullscreenenter"",""0"",""4060""
","
","null","run_exp/static/audio/clip_15_practice.m4a","null","","","","","<div class='center'><p>Lets practice a little to make sure you understand the difference between new, similar, and old. Lets say you saw these three items in the indoor/outdoor game.</p><p> Try your best to remember these images because youll soon be tested on them in a practice game. In the practice game, youll be shown images and youll have to say if they are old (one of the three images belows), similar (similar to one of the images below but not exactly the same), or new (are not one of the images below nor similar to them).</p><p>Once you press the space bar youll be shown these images again but one at time. Then youll begin the practice game.</p><p><img src='run_exp/static/images/tutorial/test/three_indoor_outdoor.png' height='300'></p></div>","","",""
"","html-keyboard-response","213","358730","0.0-213.0","""event"",""trial"",""time""
""fullscreenenter"",""0"",""4060""
","
","
","""event"",""trial"",""time""
""fullscreenenter"",""0"",""4060""
","
","422.5","<div class='center'><p>Lets practice a little to make sure you understand the difference between new, similar, and old. Lets say you saw these three items in the indoor/outdoor game.</p><p> Try your best to remember these images because youll soon be tested on them in a practice game. In the practice game, youll be shown images and youll have to say if they are old (one of the three images belows), similar (similar to one of the images below but not exactly the same), or new (are not one of the images below nor similar to them).</p><p>Once you press the space bar youll be shown these images again but one at time. Then youll begin the practice game.</p><p><img src='run_exp/static/images/tutorial/test/three_indoor_outdoor.png' height='300'></p><div><p><b>[Press the space bar to continue]</b></p></div>","32","","","","","","","",""
"","planet","214","360739","0.0-214.0","""event"",""trial"",""time""
""fullscreenenter"",""0"",""4060""
","
","
","""event"",""trial"",""time""
""fullscreenenter"",""0"",""4060""
","
","null","run_exp/static/images/tutorial/test/008a.jpg","null","","","","","","","",""
"","boot","215","362749","0.0-215.0","""event"",""trial"",""time""
""fullscreenenter"",""0"",""4060""
","
","
","""event"",""trial"",""time""
""fullscreenenter"",""0"",""4060""
","
","null","run_exp/static/images/tutorial/test/011a.jpg","null","","","","","","","",""
"","lemon","216","364760","0.0-216.0","""event"",""trial"",""time""
""fullscreenenter"",""0"",""4060""
","
","
","""event"",""trial"",""time""
""fullscreenenter"",""0"",""4060""
","
","null","run_exp/static/images/tutorial/test/018a.jpg","null","","","","","","","",""
"","practice_q1","217","368450","0.0-217.0","""event"",""trial"",""time""
""fullscreenenter"",""0"",""4060""
","
","
","""event"",""trial"",""time""
""fullscreenenter"",""0"",""4060""
","
","3687.8999999910593","run_exp/static/audio/clip_16_practice_question.m4a","78","","","","","","","",""
"","correct","218","370327","0.0-218.0-0.0","""event"",""trial"",""time""
""fullscreenenter"",""0"",""4060""
","
","
","""event"",""trial"",""time""
""fullscreenenter"",""0"",""4060""
","
","null","run_exp/static/audio/clip_17_correct.m4a","null","","","","","<div class='center'><p>That's correct!</p></div>","","",""
"","html-keyboard-response","219","371010","0.0-218.0-1.0","""event"",""trial"",""time""
""fullscreenenter"",""0"",""4060""
","
","
","""event"",""trial"",""time""
""fullscreenenter"",""0"",""4060""
","
","681.2999999970198","<div class='center'><p>That's correct!</p><div><p><b>[Press the space bar to continue]</b></p></div>","32","","","","","","","",""
"","practice_q2","220","374090","0.0-218.0-2.0","""event"",""trial"",""time""
""fullscreenenter"",""0"",""4060""
","
","
","""event"",""trial"",""time""
""fullscreenenter"",""0"",""4060""
","
","3077.7000000029802","run_exp/static/audio/clip_16_practice_question.m4a","86","","","","","","","",""
"","correct","221","375967","0.0-219.0-0.0","""event"",""trial"",""time""
""fullscreenenter"",""0"",""4060""
","
","
","""event"",""trial"",""time""
""fullscreenenter"",""0"",""4060""
","
","null","run_exp/static/audio/clip_17_correct.m4a","null","","","","","<div class='center'><p>That's correct!</p></div>","","",""
"","html-keyboard-response","222","376594","0.0-219.0-1.0","""event"",""trial"",""time""
""fullscreenenter"",""0"",""4060""
","
","
","""event"",""trial"",""time""
""fullscreenenter"",""0"",""4060""
","
","626.5999999940395","<div class='center'><p>That's correct!</p><div><p><b>[Press the space bar to continue]</b></p></div>","32","","","","","","","",""
"","practice_q3","223","380090","0.0-219.0-2.0","""event"",""trial"",""time""
""fullscreenenter"",""0"",""4060""
","
","
","""event"",""trial"",""time""
""fullscreenenter"",""0"",""4060""
","
","3494.7000000029802","run_exp/static/audio/clip_16_practice_question.m4a","86","","","","","","","",""
"","incorrect_q3","224","382787","0.0-220.0-0.0","""event"",""trial"",""time""
""fullscreenenter"",""0"",""4060""
","
","
","""event"",""trial"",""time""
""fullscreenenter"",""0"",""4060""
","
","null","run_exp/static/audio/clip_20_incorrect_similar.m4a","null","","","","","<div class='center'><p>Thats incorrect. Its similar.</p><p><img src='run_exp/static/images/tutorial/test/boot_comparison.png' height='300'></p></div>","","",""
"","html-keyboard-response","225","383705","0.0-220.0-1.0","""event"",""trial"",""time""
""fullscreenenter"",""0"",""4060""
","
","
","""event"",""trial"",""time""
""fullscreenenter"",""0"",""4060""
","
","917.5999999940395","<div class='center'><p>Thats incorrect. Its similar.</p><p><img src='run_exp/static/images/tutorial/test/boot_comparison.png' height='300'></p><div><p><b>[Press the space bar to continue]</b></p></div>","32","","","","","","","",""
"","repeat","226","388427","0.0-221.0-0.0","""event"",""trial"",""time""
""fullscreenenter"",""0"",""4060""
","
","
","""event"",""trial"",""time""
""fullscreenenter"",""0"",""4060""
","
","null","run_exp/static/audio/clip_21_practice_again.m4a","null","","","","","<div class='center'><p>Oops. you missed at least one of these questions. Let's try practicing again. </p></div>","","",""
"","html-keyboard-response","227","388985","0.0-221.0-1.0","""event"",""trial"",""time""
""fullscreenenter"",""0"",""4060""
","
","
","""event"",""trial"",""time""
""fullscreenenter"",""0"",""4060""
","
","557.4000000059605","<div class='center'><p>Oops. you missed at least one of these questions. Let's try practicing again. </p><div><p><b>[Press the space bar to continue]</b></p></div>","32","","","","","","","",""
"","practice_q1","228","392586","0.0-221.0-2.0","""event"",""trial"",""time""
""fullscreenenter"",""0"",""4060""
","
","
","""event"",""trial"",""time""
""fullscreenenter"",""0"",""4060""
","
","3599.699999988079","run_exp/static/audio/clip_16_practice_question.m4a","86","","","","","","","",""
"","incorrect_q1","229","395407","0.0-222.0-0.0","""event"",""trial"",""time""
""fullscreenenter"",""0"",""4060""
","
","
","""event"",""trial"",""time""
""fullscreenenter"",""0"",""4060""
","
","null","run_exp/static/audio/clip_18_incorrect_new.m4a","null","","","","","<div class='center'><p>Thats incorrect. Its new.</p></div>","","",""
"","html-keyboard-response","230","396050","0.0-222.0-1.0","""event"",""trial"",""time""
""fullscreenenter"",""0"",""4060""
","
","
","""event"",""trial"",""time""
""fullscreenenter"",""0"",""4060""
","
","642","<div class='center'><p>Thats incorrect. Its new.</p><div><p><b>[Press the space bar to continue]</b></p></div>","32","","","","","","","",""
"","practice_q2","231","397674","0.0-222.0-2.0","""event"",""trial"",""time""
""fullscreenenter"",""0"",""4060""
","
","
","""event"",""trial"",""time""
""fullscreenenter"",""0"",""4060""
","
","1623.0999999940395","run_exp/static/audio/clip_16_practice_question.m4a","86","","","","","","","",""
"","correct","232","399548","0.0-223.0-0.0","""event"",""trial"",""time""
""fullscreenenter"",""0"",""4060""
","
","
","""event"",""trial"",""time""
""fullscreenenter"",""0"",""4060""
","
","null","run_exp/static/audio/clip_17_correct.m4a","null","","","","","<div class='center'><p>That's correct!</p></div>","","",""
"","html-keyboard-response","233","400474","0.0-223.0-1.0","""event"",""trial"",""time""
""fullscreenenter"",""0"",""4060""
","
","
","""event"",""trial"",""time""
""fullscreenenter"",""0"",""4060""
","
","924.9000000059605","<div class='center'><p>That's correct!</p><div><p><b>[Press the space bar to continue]</b></p></div>","32","","","","","","","",""
"","practice_q3","234","402410","0.0-223.0-2.0","""event"",""trial"",""time""
""fullscreenenter"",""0"",""4060""
","
","
","""event"",""trial"",""time""
""fullscreenenter"",""0"",""4060""
","
","1935.1000000089407","run_exp/static/audio/clip_16_practice_question.m4a","66","","","","","","","",""
"","correct","235","404287","0.0-224.0-0.0","""event"",""trial"",""time""
""fullscreenenter"",""0"",""4060""
","
","
","""event"",""trial"",""time""
""fullscreenenter"",""0"",""4060""
","
","null","run_exp/static/audio/clip_17_correct.m4a","null","","","","","<div class='center'><p>That's correct!</p></div>","","",""
"","html-keyboard-response","236","404882","0.0-224.0-1.0","""event"",""trial"",""time""
""fullscreenenter"",""0"",""4060""
","
","
","""event"",""trial"",""time""
""fullscreenenter"",""0"",""4060""
","
","594.2000000029802","<div class='center'><p>That's correct!</p><div><p><b>[Press the space bar to continue]</b></p></div>","32","","","","","","","",""
"","repeat","237","409607","0.0-225.0-0.0","""event"",""trial"",""time""
""fullscreenenter"",""0"",""4060""
","
","
","""event"",""trial"",""time""
""fullscreenenter"",""0"",""4060""
","
","null","run_exp/static/audio/clip_21_practice_again.m4a","null","","","","","<div class='center'><p>Oops. you missed at least one of these questions. Let's try practicing again. </p></div>","","",""
"","html-keyboard-response","238","410138","0.0-225.0-1.0","""event"",""trial"",""time""
""fullscreenenter"",""0"",""4060""
","
","
","""event"",""trial"",""time""
""fullscreenenter"",""0"",""4060""
","
","530.1000000089407","<div class='center'><p>Oops. you missed at least one of these questions. Let's try practicing again. </p><div><p><b>[Press the space bar to continue]</b></p></div>","32","","","","","","","",""
"","practice_q1","239","411506","0.0-225.0-2.0","""event"",""trial"",""time""
""fullscreenenter"",""0"",""4060""
","
","
","""event"",""trial"",""time""
""fullscreenenter"",""0"",""4060""
","
","1366.4000000059605","run_exp/static/audio/clip_16_practice_question.m4a","78","","","","","","","",""
"","correct","240","413387","0.0-226.0-0.0","""event"",""trial"",""time""
""fullscreenenter"",""0"",""4060""
","
","
","""event"",""trial"",""time""
""fullscreenenter"",""0"",""4060""
","
","null","run_exp/static/audio/clip_17_correct.m4a","null","","","","","<div class='center'><p>That's correct!</p></div>","","",""
"","html-keyboard-response","241","413945","0.0-226.0-1.0","""event"",""trial"",""time""
""fullscreenenter"",""0"",""4060""
","
","
","""event"",""trial"",""time""
""fullscreenenter"",""0"",""4060""
","
","557.9000000059605","<div class='center'><p>That's correct!</p><div><p><b>[Press the space bar to continue]</b></p></div>","32","","","","","","","",""
"","practice_q2","242","415555","0.0-226.0-2.0","""event"",""trial"",""time""
""fullscreenenter"",""0"",""4060""
","
","
","""event"",""trial"",""time""
""fullscreenenter"",""0"",""4060""
","
","1608","run_exp/static/audio/clip_16_practice_question.m4a","86","","","","","","","",""
"","correct","243","417426","0.0-227.0-0.0","""event"",""trial"",""time""
""fullscreenenter"",""0"",""4060""
","
","
","""event"",""trial"",""time""
""fullscreenenter"",""0"",""4060""
","
","null","run_exp/static/audio/clip_17_correct.m4a","null","","","","","<div class='center'><p>That's correct!</p></div>","","",""
"","html-keyboard-response","244","417986","0.0-227.0-1.0","""event"",""trial"",""time""
""fullscreenenter"",""0"",""4060""
","
","
","""event"",""trial"",""time""
""fullscreenenter"",""0"",""4060""
","
","558.5","<div class='center'><p>That's correct!</p><div><p><b>[Press the space bar to continue]</b></p></div>","32","","","","","","","",""
"","practice_q3","245","419034","0.0-227.0-2.0","""event"",""trial"",""time""
""fullscreenenter"",""0"",""4060""
","
","
","""event"",""trial"",""time""
""fullscreenenter"",""0"",""4060""
","
","1047.2000000029802","run_exp/static/audio/clip_16_practice_question.m4a","66","","","","","","","",""
"","correct","246","421047","0.0-228.0-0.0","""event"",""trial"",""time""
""fullscreenenter"",""0"",""4060""
","
","
","""event"",""trial"",""time""
""fullscreenenter"",""0"",""4060""
","
","null","run_exp/static/audio/clip_17_correct.m4a","null","","","","","<div class='center'><p>That's correct!</p></div>","","",""
"","html-keyboard-response","247","421650","0.0-228.0-1.0","""event"",""trial"",""time""
""fullscreenenter"",""0"",""4060""
","
","
","""event"",""trial"",""time""
""fullscreenenter"",""0"",""4060""
","
","602.1000000089407","<div class='center'><p>That's correct!</p><div><p><b>[Press the space bar to continue]</b></p></div>","32","","","","","","","",""
"","begin_text","248","440107","0.0-229.0-0.0","""event"",""trial"",""time""
""fullscreenenter"",""0"",""4060""
","
","
","""event"",""trial"",""time""
""fullscreenenter"",""0"",""4060""
","
","null","run_exp/static/audio/clip_22_begin_test.m4a","null","","","","","<div class='center'><p>On to the real game where well test your memory of items from the indoor/outdoor game. For each item, you need to indicate if the item is <b>old</b> by pressing the <b>v</b> key, <b>similar</b> by pressing the <b>b</b> key, or <b>new</b> by pressing the <b>n</b> key. </p></div>","","",""
"","html-keyboard-response","249","440610","0.0-229.0-1.0","""event"",""trial"",""time""
""fullscreenenter"",""0"",""4060""
","
","
","""event"",""trial"",""time""
""fullscreenenter"",""0"",""4060""
","
","501.20000000298023","<div class='center'><p>On to the real game where well test your memory of items from the indoor/outdoor game. For each item, you need to indicate if the item is <b>old</b> by pressing the <b>v</b> key, <b>similar</b> by pressing the <b>b</b> key, or <b>new</b> by pressing the <b>n</b> key. </p><div><p><b>[Press the space bar to continue]</b></p></div>","32","","","","","","","",""
"","image","250","442810","0.0-230.0-0.0","""event"",""trial"",""time""
""fullscreenenter"",""0"",""4060""
","
","
","""event"",""trial"",""time""
""fullscreenenter"",""0"",""4060""
","
","2199","run_exp/static/images/Set 6_rs/144b.jpg","66","","","","","","test","TL","4"
"","show_choice","251","443322","0.0-230.0-1.0","""event"",""trial"",""time""
""fullscreenenter"",""0"",""4060""
","
","
","""event"",""trial"",""time""
""fullscreenenter"",""0"",""4060""
","
","null","run_exp/static/images/Set 6_rs/144b.jpg","null","","","","","","test","TL",""
"","html-keyboard-response","252","443838","0.0-230.0-2.0","""event"",""trial"",""time""
""fullscreenenter"",""0"",""4060""
","
","
","""event"",""trial"",""time""
""fullscreenenter"",""0"",""4060""
","
","null","<p></p>","null","","","","","","","",""
"","image","253","445298","0.0-231.0-0.0","""event"",""trial"",""time""
""fullscreenenter"",""0"",""4060""
","
","
","""event"",""trial"",""time""
""fullscreenenter"",""0"",""4060""
","
","1458","run_exp/static/images/Set 6_rs/035a.jpg","78","","","","","","test","TF","4"
"","show_choice","254","445813","0.0-231.0-1.0","""event"",""trial"",""time""
""fullscreenenter"",""0"",""4060""
","
","
","""event"",""trial"",""time""
""fullscreenenter"",""0"",""4060""
","
","null","run_exp/static/images/Set 6_rs/035a.jpg","null","","","","","","test","TF",""
"","html-keyboard-response","255","446328","0.0-231.0-2.0","""event"",""trial"",""time""
""fullscreenenter"",""0"",""4060""
","
","
","""event"",""trial"",""time""
""fullscreenenter"",""0"",""4060""
","
","null","<p></p>","null","","","","","","","",""
"","image","256","447970","0.0-232.0-0.0","""event"",""trial"",""time""
""fullscreenenter"",""0"",""4060""
","
","
","""event"",""trial"",""time""
""fullscreenenter"",""0"",""4060""
","
","1640.7000000029802","run_exp/static/images/Set 6_rs/154a.jpg","86","","","","","","test","TR","3"
"","show_choice","257","448485","0.0-232.0-1.0","""event"",""trial"",""time""
""fullscreenenter"",""0"",""4060""
","
","
","""event"",""trial"",""time""
""fullscreenenter"",""0"",""4060""
","
","null","run_exp/static/images/Set 6_rs/154a.jpg","null","","","","","","test","TR",""
"","html-keyboard-response","258","449000","0.0-232.0-2.0","""event"",""trial"",""time""
""fullscreenenter"",""0"",""4060""
","
","
","""event"",""trial"",""time""
""fullscreenenter"",""0"",""4060""
","
","null","<p></p>","null","","","","","","","",""
"","image","259","450250","0.0-233.0-0.0","""event"",""trial"",""time""
""fullscreenenter"",""0"",""4060""
","
","
","""event"",""trial"",""time""
""fullscreenenter"",""0"",""4060""
","
","1248.800000011921","run_exp/static/images/Set 6_rs/025b.jpg","66","","","","","","test","TL","5"
"","show_choice","260","450762","0.0-233.0-1.0","""event"",""trial"",""time""
""fullscreenenter"",""0"",""4060""
","
","
","""event"",""trial"",""time""
""fullscreenenter"",""0"",""4060""
","
","null","run_exp/static/images/Set 6_rs/025b.jpg","null","","","","","","test","TL",""
"","html-keyboard-response","261","451273","0.0-233.0-2.0","""event"",""trial"",""time""
""fullscreenenter"",""0"",""4060""
","
","
","""event"",""trial"",""time""
""fullscreenenter"",""0"",""4060""
","
","null","<p></p>","null","","","","","","","",""
"","image","262","452490","0.0-234.0-0.0","""event"",""trial"",""time""
""fullscreenenter"",""0"",""4060""
","
","
","""event"",""trial"",""time""
""fullscreenenter"",""0"",""4060""
","
","1215.7000000029802","run_exp/static/images/Set 6_rs/089b.jpg","86","","","","","","test","TL","4"
"","show_choice","263","452992","0.0-234.0-1.0","""event"",""trial"",""time""
""fullscreenenter"",""0"",""4060""
","
","
","""event"",""trial"",""time""
""fullscreenenter"",""0"",""4060""
","
","null","run_exp/static/images/Set 6_rs/089b.jpg","null","","","","","","test","TL",""
"","html-keyboard-response","264","453504","0.0-234.0-2.0","""event"",""trial"",""time""
""fullscreenenter"",""0"",""4060""
","
","
","""event"",""trial"",""time""
""fullscreenenter"",""0"",""4060""
","
","null","<p></p>","null","","","","","","","",""
"","image","265","454482","0.0-235.0-0.0","""event"",""trial"",""time""
""fullscreenenter"",""0"",""4060""
","
","
","""event"",""trial"",""time""
""fullscreenenter"",""0"",""4060""
","
","977.1000000089407","run_exp/static/images/Set 6_rs/123b.jpg","86","","","","","","test","TL","2"
"","show_choice","266","454985","0.0-235.0-1.0","""event"",""trial"",""time""
""fullscreenenter"",""0"",""4060""
","
","
","""event"",""trial"",""time""
""fullscreenenter"",""0"",""4060""
","
","null","run_exp/static/images/Set 6_rs/123b.jpg","null","","","","","","test","TL",""
"","html-keyboard-response","267","455500","0.0-235.0-2.0","""event"",""trial"",""time""
""fullscreenenter"",""0"",""4060""
","
","
","""event"",""trial"",""time""
""fullscreenenter"",""0"",""4060""
","
","null","<p></p>","null","","","","","","","",""
"","image","268","456626","0.0-236.0-0.0","""event"",""trial"",""time""
""fullscreenenter"",""0"",""4060""
","
","
","""event"",""trial"",""time""
""fullscreenenter"",""0"",""4060""
","
","1124.4000000059605","run_exp/static/images/Set 6_rs/105a.jpg","78","","","","","","test","TF","5"
"","show_choice","269","457139","0.0-236.0-1.0","""event"",""trial"",""time""
""fullscreenenter"",""0"",""4060""
","
","
","""event"",""trial"",""time""
""fullscreenenter"",""0"",""4060""
","
","null","run_exp/static/images/Set 6_rs/105a.jpg","null","","","","","","test","TF",""
"","html-keyboard-response","270","457653","0.0-236.0-2.0","""event"",""trial"",""time""
""fullscreenenter"",""0"",""4060""
","
","
","""event"",""trial"",""time""
""fullscreenenter"",""0"",""4060""
","
","null","<p></p>","null","","","","","","","",""
"","image","271","458554","0.0-237.0-0.0","""event"",""trial"",""time""
""fullscreenenter"",""0"",""4060""
","
","
","""event"",""trial"",""time""
""fullscreenenter"",""0"",""4060""
","
","899.7999999970198","run_exp/static/images/Set 6_rs/133a.jpg","78","","","","","","test","TF","4"
"","show_choice","272","459070","0.0-237.0-1.0","""event"",""trial"",""time""
""fullscreenenter"",""0"",""4060""
","
","
","""event"",""trial"",""time""
""fullscreenenter"",""0"",""4060""
","
","null","run_exp/static/images/Set 6_rs/133a.jpg","null","","","","","","test","TF",""
"","html-keyboard-response","273","459584","0.0-237.0-2.0","""event"",""trial"",""time""
""fullscreenenter"",""0"",""4060""
","
","
","""event"",""trial"",""time""
""fullscreenenter"",""0"",""4060""
","
","null","<p></p>","null","","","","","","","",""
"","image","274","460410","0.0-238.0-0.0","""event"",""trial"",""time""
""fullscreenenter"",""0"",""4060""
","
","
","""event"",""trial"",""time""
""fullscreenenter"",""0"",""4060""
","
","825","run_exp/static/images/Set 6_rs/071b.jpg","78","","","","","","test","TL","4"
"","show_choice","275","460926","0.0-238.0-1.0","""event"",""trial"",""time""
""fullscreenenter"",""0"",""4060""
","
","
","""event"",""trial"",""time""
""fullscreenenter"",""0"",""4060""
","
","null","run_exp/static/images/Set 6_rs/071b.jpg","null","","","","","","test","TL",""
"","html-keyboard-response","276","461440","0.0-238.0-2.0","""event"",""trial"",""time""
""fullscreenenter"",""0"",""4060""
","
","
","""event"",""trial"",""time""
""fullscreenenter"",""0"",""4060""
","
","null","<p></p>","null","","","","","","","",""
"","image","277","463730","0.0-239.0-0.0","""event"",""trial"",""time""
""fullscreenenter"",""0"",""4060""
","
","
","""event"",""trial"",""time""
""fullscreenenter"",""0"",""4060""
","
","2289.2999999970198","run_exp/static/images/Set 6_rs/169a.jpg","66","","","","","","test","TR","4"
"","show_choice","278","464236","0.0-239.0-1.0","""event"",""trial"",""time""
""fullscreenenter"",""0"",""4060""
","
","
","""event"",""trial"",""time""
""fullscreenenter"",""0"",""4060""
","
","null","run_exp/static/images/Set 6_rs/169a.jpg","null","","","","","","test","TR",""
"","html-keyboard-response","279","464750","0.0-239.0-2.0","""event"",""trial"",""time""
""fullscreenenter"",""0"",""4060""
","
","
","""event"",""trial"",""time""
""fullscreenenter"",""0"",""4060""
","
","null","<p></p>","null","","","","","","","",""
"","image","280","465882","0.0-240.0-0.0","""event"",""trial"",""time""
""fullscreenenter"",""0"",""4060""
","
","
","""event"",""trial"",""time""
""fullscreenenter"",""0"",""4060""
","
","1131.2000000029802","run_exp/static/images/Set 6_rs/052a.jpg","78","","","","","","test","TF","1"
"","show_choice","281","466388","0.0-240.0-1.0","""event"",""trial"",""time""
""fullscreenenter"",""0"",""4060""
","
","
","""event"",""trial"",""time""
""fullscreenenter"",""0"",""4060""
","
","null","run_exp/static/images/Set 6_rs/052a.jpg","null","","","","","","test","TF",""
"","html-keyboard-response","282","466893","0.0-240.0-2.0","""event"",""trial"",""time""
""fullscreenenter"",""0"",""4060""
","
","
","""event"",""trial"",""time""
""fullscreenenter"",""0"",""4060""
","
","null","<p></p>","null","","","","","","","",""
"","image","283","468338","0.0-241.0-0.0","""event"",""trial"",""time""
""fullscreenenter"",""0"",""4060""
","
","
","""event"",""trial"",""time""
""fullscreenenter"",""0"",""4060""
","
","1444.5999999940395","run_exp/static/images/Set 6_rs/132a.jpg","86","","","","","","test","TR","5"
"","show_choice","284","468854","0.0-241.0-1.0","""event"",""trial"",""time""
""fullscreenenter"",""0"",""4060""
","
","
","""event"",""trial"",""time""
""fullscreenenter"",""0"",""4060""
","
","null","run_exp/static/images/Set 6_rs/132a.jpg","null","","","","","","test","TR",""
"","html-keyboard-response","285","469367","0.0-241.0-2.0","""event"",""trial"",""time""
""fullscreenenter"",""0"",""4060""
","
","
","""event"",""trial"",""time""
""fullscreenenter"",""0"",""4060""
","
","null","<p></p>","null","","","","","","","",""
"","image","286","470794","0.0-242.0-0.0","""event"",""trial"",""time""
""fullscreenenter"",""0"",""4060""
","
","
","""event"",""trial"",""time""
""fullscreenenter"",""0"",""4060""
","
","1426.2999999970198","run_exp/static/images/Set 6_rs/095b.jpg","66","","","","","","test","TL","5"
"","show_choice","287","471300","0.0-242.0-1.0","""event"",""trial"",""time""
""fullscreenenter"",""0"",""4060""
","
","
","""event"",""trial"",""time""
""fullscreenenter"",""0"",""4060""
","
","null","run_exp/static/images/Set 6_rs/095b.jpg","null","","","","","","test","TL",""
"","html-keyboard-response","288","471816","0.0-242.0-2.0","""event"",""trial"",""time""
""fullscreenenter"",""0"",""4060""
","
","
","""event"",""trial"",""time""
""fullscreenenter"",""0"",""4060""
","
","null","<p></p>","null","","","","","","","",""
"","image","289","473050","0.0-243.0-0.0","""event"",""trial"",""time""
""fullscreenenter"",""0"",""4060""
","
","
","""event"",""trial"",""time""
""fullscreenenter"",""0"",""4060""
","
","1232.8999999910593","run_exp/static/images/Set 6_rs/170a.jpg","78","","","","","","test","TF","2"
"","show_choice","290","473561","0.0-243.0-1.0","""event"",""trial"",""time""
""fullscreenenter"",""0"",""4060""
","
","
","""event"",""trial"",""time""
""fullscreenenter"",""0"",""4060""
","
","null","run_exp/static/images/Set 6_rs/170a.jpg","null","","","","","","test","TF",""
"","html-keyboard-response","291","474075","0.0-243.0-2.0","""event"",""trial"",""time""
""fullscreenenter"",""0"",""4060""
","
","
","""event"",""trial"",""time""
""fullscreenenter"",""0"",""4060""
","
","null","<p></p>","null","","","","","","","",""
"","image","292","475674","0.0-244.0-0.0","""event"",""trial"",""time""
""fullscreenenter"",""0"",""4060""
","
","
","""event"",""trial"",""time""
""fullscreenenter"",""0"",""4060""
","
","1597.3999999910593","run_exp/static/images/Set 6_rs/186a.jpg","86","","","","","","test","TR","5"
"","show_choice","293","476176","0.0-244.0-1.0","""event"",""trial"",""time""
""fullscreenenter"",""0"",""4060""
","
","
","""event"",""trial"",""time""
""fullscreenenter"",""0"",""4060""
","
","null","run_exp/static/images/Set 6_rs/186a.jpg","null","","","","","","test","TR",""
"","html-keyboard-response","294","476684","0.0-244.0-2.0","""event"",""trial"",""time""
""fullscreenenter"",""0"",""4060""
","
","
","""event"",""trial"",""time""
""fullscreenenter"",""0"",""4060""
","
","null","<p></p>","null","","","","","","","",""
"","image","295","477642","0.0-245.0-0.0","""event"",""trial"",""time""
""fullscreenenter"",""0"",""4060""
","
","
","""event"",""trial"",""time""
""fullscreenenter"",""0"",""4060""
","
","956","run_exp/static/images/Set 6_rs/126a.jpg","86","","","","","","test","TR","2"
"","show_choice","296","478151","0.0-245.0-1.0","""event"",""trial"",""time""
""fullscreenenter"",""0"",""4060""
","
","
","""event"",""trial"",""time""
""fullscreenenter"",""0"",""4060""
","
","null","run_exp/static/images/Set 6_rs/126a.jpg","null","","","","","","test","TR",""
"","html-keyboard-response","297","478661","0.0-245.0-2.0","""event"",""trial"",""time""
""fullscreenenter"",""0"",""4060""
","
","
","""event"",""trial"",""time""
""fullscreenenter"",""0"",""4060""
","
","null","<p></p>","null","","","","","","","",""
"","image","298","479642","0.0-246.0-0.0","""event"",""trial"",""time""
""fullscreenenter"",""0"",""4060""
","
","
","""event"",""trial"",""time""
""fullscreenenter"",""0"",""4060""
","
","979.8000000119209","run_exp/static/images/Set 6_rs/129b.jpg","86","","","","","","test","TL","1"
"","show_choice","299","480154","0.0-246.0-1.0","""event"",""trial"",""time""
""fullscreenenter"",""0"",""4060""
","
","
","""event"",""trial"",""time""
""fullscreenenter"",""0"",""4060""
","
","null","run_exp/static/images/Set 6_rs/129b.jpg","null","","","","","","test","TL",""
"","html-keyboard-response","300","480670","0.0-246.0-2.0","""event"",""trial"",""time""
""fullscreenenter"",""0"",""4060""
","
","
","""event"",""trial"",""time""
""fullscreenenter"",""0"",""4060""
","
","null","<p></p>","null","","","","","","","",""
"","image","301","481753","0.0-247.0-0.0","""event"",""trial"",""time""
""fullscreenenter"",""0"",""4060""
","
","
","""event"",""trial"",""time""
""fullscreenenter"",""0"",""4060""
","
","1082.2999999970198","run_exp/static/images/Set 6_rs/005a.jpg","78","","","","","","test","TF","5"
"","show_choice","302","482259","0.0-247.0-1.0","""event"",""trial"",""time""
""fullscreenenter"",""0"",""4060""
","
","
","""event"",""trial"",""time""
""fullscreenenter"",""0"",""4060""
","
","null","run_exp/static/images/Set 6_rs/005a.jpg","null","","","","","","test","TF",""
"","html-keyboard-response","303","482774","0.0-247.0-2.0","""event"",""trial"",""time""
""fullscreenenter"",""0"",""4060""
","
","
","""event"",""trial"",""time""
""fullscreenenter"",""0"",""4060""
","
","null","<p></p>","null","","","","","","","",""
"","image","304","483866","0.0-248.0-0.0","""event"",""trial"",""time""
""fullscreenenter"",""0"",""4060""
","
","
","""event"",""trial"",""time""
""fullscreenenter"",""0"",""4060""
","
","1090.5999999940395","run_exp/static/images/Set 6_rs/062b.jpg","78","","","","","","test","TL","1"
"","show_choice","305","484379","0.0-248.0-1.0","""event"",""trial"",""time""
""fullscreenenter"",""0"",""4060""
","
","
","""event"",""trial"",""time""
""fullscreenenter"",""0"",""4060""
","
","null","run_exp/static/images/Set 6_rs/062b.jpg","null","","","","","","test","TL",""
"","html-keyboard-response","306","484892","0.0-248.0-2.0","""event"",""trial"",""time""
""fullscreenenter"",""0"",""4060""
","
","
","""event"",""trial"",""time""
""fullscreenenter"",""0"",""4060""
","
","null","<p></p>","null","","","","","","","",""
"","image","307","486698","0.0-249.0-0.0","""event"",""trial"",""time""
""fullscreenenter"",""0"",""4060""
","
","
","""event"",""trial"",""time""
""fullscreenenter"",""0"",""4060""
","
","1805.0999999940395","run_exp/static/images/Set 6_rs/063a.jpg","86","","","","","","test","TR","2"
"","show_choice","308","487213","0.0-249.0-1.0","""event"",""trial"",""time""
""fullscreenenter"",""0"",""4060""
","
","
","""event"",""trial"",""time""
""fullscreenenter"",""0"",""4060""
","
","null","run_exp/static/images/Set 6_rs/063a.jpg","null","","","","","","test","TR",""
"","html-keyboard-response","309","487726","0.0-249.0-2.0","""event"",""trial"",""time""
""fullscreenenter"",""0"",""4060""
","
","
","""event"",""trial"",""time""
""fullscreenenter"",""0"",""4060""
","
","null","<p></p>","null","","","","","","","",""
"","image","310","488714","0.0-250.0-0.0","""event"",""trial"",""time""
""fullscreenenter"",""0"",""4060""
","
","
","""event"",""trial"",""time""
""fullscreenenter"",""0"",""4060""
","
","986.2999999970198","run_exp/static/images/Set 6_rs/097a.jpg","78","","","","","","test","TF","5"
"","show_choice","311","489229","0.0-250.0-1.0","""event"",""trial"",""time""
""fullscreenenter"",""0"",""4060""
","
","
","""event"",""trial"",""time""
""fullscreenenter"",""0"",""4060""
","
","null","run_exp/static/images/Set 6_rs/097a.jpg","null","","","","","","test","TF",""
"","html-keyboard-response","312","489743","0.0-250.0-2.0","""event"",""trial"",""time""
""fullscreenenter"",""0"",""4060""
","
","
","""event"",""trial"",""time""
""fullscreenenter"",""0"",""4060""
","
","null","<p></p>","null","","","","","","","",""
"","image","313","490898","0.0-251.0-0.0","""event"",""trial"",""time""
""fullscreenenter"",""0"",""4060""
","
","
","""event"",""trial"",""time""
""fullscreenenter"",""0"",""4060""
","
","1153.3999999910593","run_exp/static/images/Set 6_rs/088a.jpg","86","","","","","","test","TR","2"
"","show_choice","314","491412","0.0-251.0-1.0","""event"",""trial"",""time""
""fullscreenenter"",""0"",""4060""
","
","
","""event"",""trial"",""time""
""fullscreenenter"",""0"",""4060""
","
","null","run_exp/static/images/Set 6_rs/088a.jpg","null","","","","","","test","TR",""
"","html-keyboard-response","315","491927","0.0-251.0-2.0","""event"",""trial"",""time""
""fullscreenenter"",""0"",""4060""
","
","
","""event"",""trial"",""time""
""fullscreenenter"",""0"",""4060""
","
","null","<p></p>","null","","","","","","","",""
"","image","316","492898","0.0-252.0-0.0","""event"",""trial"",""time""
""fullscreenenter"",""0"",""4060""
","
","
","""event"",""trial"",""time""
""fullscreenenter"",""0"",""4060""
","
","969.8999999910593","run_exp/static/images/Set 6_rs/141a.jpg","86","","","","","","test","TR","2"
"","show_choice","317","493411","0.0-252.0-1.0","""event"",""trial"",""time""
""fullscreenenter"",""0"",""4060""
","
","
","""event"",""trial"",""time""
""fullscreenenter"",""0"",""4060""
","
","null","run_exp/static/images/Set 6_rs/141a.jpg","null","","","","","","test","TR",""
"","html-keyboard-response","318","493923","0.0-252.0-2.0","""event"",""trial"",""time""
""fullscreenenter"",""0"",""4060""
","
","
","""event"",""trial"",""time""
""fullscreenenter"",""0"",""4060""
","
","null","<p></p>","null","","","","","","","",""
"","image","319","495074","0.0-253.0-0.0","""event"",""trial"",""time""
""fullscreenenter"",""0"",""4060""
","
","
","""event"",""trial"",""time""
""fullscreenenter"",""0"",""4060""
","
","1149.7999999970198","run_exp/static/images/Set 6_rs/078a.jpg","78","","","","","","test","TF","1"
"","show_choice","320","495576","0.0-253.0-1.0","""event"",""trial"",""time""
""fullscreenenter"",""0"",""4060""
","
","
","""event"",""trial"",""time""
""fullscreenenter"",""0"",""4060""
","
","null","run_exp/static/images/Set 6_rs/078a.jpg","null","","","","","","test","TF",""
"","html-keyboard-response","321","496089","0.0-253.0-2.0","""event"",""trial"",""time""
""fullscreenenter"",""0"",""4060""
","
","
","""event"",""trial"",""time""
""fullscreenenter"",""0"",""4060""
","
","null","<p></p>","null","","","","","","","",""
"","image","322","496938","0.0-254.0-0.0","""event"",""trial"",""time""
""fullscreenenter"",""0"",""4060""
","
","
","""event"",""trial"",""time""
""fullscreenenter"",""0"",""4060""
","
","847.2000000029802","run_exp/static/images/Set 6_rs/155a.jpg","78","","","","","","test","TF","4"
"","show_choice","323","497443","0.0-254.0-1.0","""event"",""trial"",""time""
""fullscreenenter"",""0"",""4060""
","
","
","""event"",""trial"",""time""
""fullscreenenter"",""0"",""4060""
","
","null","run_exp/static/images/Set 6_rs/155a.jpg","null","","","","","","test","TF",""
"","html-keyboard-response","324","497959","0.0-254.0-2.0","""event"",""trial"",""time""
""fullscreenenter"",""0"",""4060""
","
","
","""event"",""trial"",""time""
""fullscreenenter"",""0"",""4060""
","
","null","<p></p>","null","","","","","","","",""
"","image","325","498650","0.0-255.0-0.0","""event"",""trial"",""time""
""fullscreenenter"",""0"",""4060""
","
","
","""event"",""trial"",""time""
""fullscreenenter"",""0"",""4060""
","
","689.3999999910593","run_exp/static/images/Set 6_rs/109a.jpg","78","","","","","","test","TF","5"
"","show_choice","326","499158","0.0-255.0-1.0","""event"",""trial"",""time""
""fullscreenenter"",""0"",""4060""
","
","
","""event"",""trial"",""time""
""fullscreenenter"",""0"",""4060""
","
","null","run_exp/static/images/Set 6_rs/109a.jpg","null","","","","","","test","TF",""
"","html-keyboard-response","327","499673","0.0-255.0-2.0","""event"",""trial"",""time""
""fullscreenenter"",""0"",""4060""
","
","
","""event"",""trial"",""time""
""fullscreenenter"",""0"",""4060""
","
","null","<p></p>","null","","","","","","","",""
"","image","328","500666","0.0-256.0-0.0","""event"",""trial"",""time""
""fullscreenenter"",""0"",""4060""
","
","
","""event"",""trial"",""time""
""fullscreenenter"",""0"",""4060""
","
","992.1999999880791","run_exp/static/images/Set 6_rs/019b.jpg","86","","","","","","test","TL","2"
"","show_choice","329","501169","0.0-256.0-1.0","""event"",""trial"",""time""
""fullscreenenter"",""0"",""4060""
","
","
","""event"",""trial"",""time""
""fullscreenenter"",""0"",""4060""
","
","null","run_exp/static/images/Set 6_rs/019b.jpg","null","","","","","","test","TL",""
"","html-keyboard-response","330","501683","0.0-256.0-2.0","""event"",""trial"",""time""
""fullscreenenter"",""0"",""4060""
","
","
","""event"",""trial"",""time""
""fullscreenenter"",""0"",""4060""
","
","null","<p></p>","null","","","","","","","",""
"","image","331","503002","0.0-257.0-0.0","""event"",""trial"",""time""
""fullscreenenter"",""0"",""4060""
","
","
","""event"",""trial"",""time""
""fullscreenenter"",""0"",""4060""
","
","1318.2999999970198","run_exp/static/images/Set 6_rs/138b.jpg","86","","","","","","test","TL","1"
"","show_choice","332","503512","0.0-257.0-1.0","""event"",""trial"",""time""
""fullscreenenter"",""0"",""4060""
","
","
","""event"",""trial"",""time""
""fullscreenenter"",""0"",""4060""
","
","null","run_exp/static/images/Set 6_rs/138b.jpg","null","","","","","","test","TL",""
"","html-keyboard-response","333","504025","0.0-257.0-2.0","""event"",""trial"",""time""
""fullscreenenter"",""0"",""4060""
","
","
","""event"",""trial"",""time""
""fullscreenenter"",""0"",""4060""
","
","null","<p></p>","null","","","","","","","",""
"","image","334","505282","0.0-258.0-0.0","""event"",""trial"",""time""
""fullscreenenter"",""0"",""4060""
","
","
","""event"",""trial"",""time""
""fullscreenenter"",""0"",""4060""
","
","1255.699999988079","run_exp/static/images/Set 6_rs/074b.jpg","66","","","","","","test","TL","4"
"","show_choice","335","505785","0.0-258.0-1.0","""event"",""trial"",""time""
""fullscreenenter"",""0"",""4060""
","
","
