"success","trial_type","trial_index","time_elapsed","internal_node_id","rt","stimulus","key_press","subject_id","participant_id","age","gender","prompt","phase","condition","lure_bin"
"true","fullscreen","0","7713","0.0-0.0","","","","","","","","","","",""
"","pavlovia","1","7716","0.0-1.0","","","","","","","","","","",""
"","welcome","2","43457","0.0-2.0","null","run_exp/static/audio/clip_1_welcome.m4a","null","142","227","12","Male","<div class='center'><p>This is your last game of the experiment! First, you'll be shown pictures of items one at a time. For each picture, you have to decide if the item is typically found indoors or outdoors.</p><p>If you think it's usually found indoors, then press <b>v</b> key on your keyboard. If you think it's usually found outdoors, then press the <b>n</b> key.There will be reminders on the screen to help you remember which keys to press. </p><p>If you're not sure whether the item is an indoor item or outdoor item, go ahead and take a guess but try your best not to skip that choice. </p></div>","","",""
"","html-keyboard-response","3","44880","0.0-3.0","1421.7999999998137","<div class='center'><p>This is your last game of the experiment! First, you'll be shown pictures of items one at a time. For each picture, you have to decide if the item is typically found indoors or outdoors.</p><p>If you think it's usually found indoors, then press <b>v</b> key on your keyboard. If you think it's usually found outdoors, then press the <b>n</b> key.There will be reminders on the screen to help you remember which keys to press. </p><p>If you're not sure whether the item is an indoor item or outdoor item, go ahead and take a guess but try your best not to skip that choice. </p><div><p><b>[Press the space bar to continue]</b></p></div>","32","","","","","","","",""
"","image","4","46786","0.0-4.0","1903.6999999999534","run_exp/static/images/Set 6_rs/181a.jpg","78","","","","","","learn","SL",""
"","show_choice","5","46890","0.0-5.0","null","run_exp/static/images/Set 6_rs/181a.jpg","null","","","","","","learn","SL",""
"","html-keyboard-response","6","47395","0.0-6.0","null","<p></p>","null","","","","","","","",""
"","image","7","48759","0.0-7.0","1362.4000000001397","run_exp/static/images/Set 6_rs/131a.jpg","86","","","","","","learn","SR",""
"","show_choice","8","49405","0.0-8.0","null","run_exp/static/images/Set 6_rs/131a.jpg","null","","","","","","learn","SR",""
"","html-keyboard-response","9","49925","0.0-9.0","null","<p></p>","null","","","","","","","",""
"","image","10","50859","0.0-10.0","932.2999999998137","run_exp/static/images/Set 6_rs/057a.jpg","86","","","","","","learn","SL",""
"","show_choice","11","51945","0.0-11.0","null","run_exp/static/images/Set 6_rs/057a.jpg","null","","","","","","learn","SL",""
"","html-keyboard-response","12","52465","0.0-12.0","null","<p></p>","null","","","","","","","",""
"","image","13","53667","0.0-13.0","1200.3000000000466","run_exp/static/images/Set 6_rs/036a.jpg","86","","","","","","learn","SL",""
"","show_choice","14","54472","0.0-14.0","null","run_exp/static/images/Set 6_rs/036a.jpg","null","","","","","","learn","SL",""
"","html-keyboard-response","15","54975","0.0-15.0","null","<p></p>","null","","","","","","","",""
"","image","16","55990","0.0-16.0","1014.1999999999534","run_exp/static/images/Set 6_rs/073a.jpg","86","","","","","","learn","SL",""
"","show_choice","17","56984","0.0-17.0","null","run_exp/static/images/Set 6_rs/073a.jpg","null","","","","","","learn","SL",""
"","html-keyboard-response","18","57486","0.0-18.0","null","<p></p>","null","","","","","","","",""
"","image","19","58287","0.0-19.0","799.3000000000466","run_exp/static/images/Set 6_rs/024a.jpg","86","","","","","","learn","SR",""
"","show_choice","20","59494","0.0-20.0","null","run_exp/static/images/Set 6_rs/024a.jpg","null","","","","","","learn","SR",""
"","html-keyboard-response","21","59995","0.0-21.0","null","<p></p>","null","","","","","","","",""
"","image","22","61526","0.0-22.0","1530.3999999999069","run_exp/static/images/Set 6_rs/187a.jpg","86","","","","","","learn","SR",""
"","show_choice","23","62005","0.0-23.0","null","run_exp/static/images/Set 6_rs/187a.jpg","null","","","","","","learn","SR",""
"","html-keyboard-response","24","62507","0.0-24.0","null","<p></p>","null","","","","","","","",""
"","image","25","63564","0.0-25.0","1055.5","run_exp/static/images/Set 6_rs/132a.jpg","86","","","","","","learn","SR",""
"","show_choice","26","64519","0.0-26.0","null","run_exp/static/images/Set 6_rs/132a.jpg","null","","","","","","learn","SR",""
"","html-keyboard-response","27","65021","0.0-27.0","null","<p></p>","null","","","","","","","",""
"","image","28","66223","0.0-28.0","1200.1000000000931","run_exp/static/images/Set 6_rs/095a.jpg","86","","","","","","learn","SL",""
"","show_choice","29","67029","0.0-29.0","null","run_exp/static/images/Set 6_rs/095a.jpg","null","","","","","","learn","SL",""
"","html-keyboard-response","30","67533","0.0-30.0","null","<p></p>","null","","","","","","","",""
"","image","31","68888","0.0-31.0","1354.5","run_exp/static/images/Set 6_rs/141a.jpg","86","","","","","","learn","SR",""
"","show_choice","32","69543","0.0-32.0","null","run_exp/static/images/Set 6_rs/141a.jpg","null","","","","","","learn","SR",""
"","html-keyboard-response","33","70046","0.0-33.0","null","<p></p>","null","","","","","","","",""
"","image","34","71671","0.0-34.0","1623.5","run_exp/static/images/Set 6_rs/134a.jpg","86","","","","","","learn","SR",""
"","show_choice","35","72057","0.0-35.0","null","run_exp/static/images/Set 6_rs/134a.jpg","null","","","","","","learn","SR",""
"","html-keyboard-response","36","72560","0.0-36.0","null","<p></p>","null","","","","","","","",""
"","image","37","73266","0.0-37.0","704.4000000001397","run_exp/static/images/Set 6_rs/045a.jpg","86","","","","","","learn","SR",""
"","show_choice","38","74579","0.0-38.0","null","run_exp/static/images/Set 6_rs/045a.jpg","null","","","","","","learn","SR",""
"","html-keyboard-response","39","75089","0.0-39.0","null","<p></p>","null","","","","","","","",""
"","image","40","76596","0.0-40.0","1505.6999999999534","run_exp/static/images/Set 6_rs/075a.jpg","78","","","","","","learn","SR",""
"","show_choice","41","77099","0.0-41.0","null","run_exp/static/images/Set 6_rs/075a.jpg","null","","","","","","learn","SR",""
"","html-keyboard-response","42","77601","0.0-42.0","null","<p></p>","null","","","","","","","",""
"","image","43","78969","0.0-43.0","1366.6999999999534","run_exp/static/images/Set 6_rs/117a.jpg","78","","","","","","learn","SL",""
"","show_choice","44","79611","0.0-44.0","null","run_exp/static/images/Set 6_rs/117a.jpg","null","","","","","","learn","SL",""
"","html-keyboard-response","45","80114","0.0-45.0","null","<p></p>","null","","","","","","","",""
"","image","46","81396","0.0-46.0","1281.1999999999534","run_exp/static/images/Set 6_rs/074a.jpg","78","","","","","","learn","SL",""
"","show_choice","47","82124","0.0-47.0","null","run_exp/static/images/Set 6_rs/074a.jpg","null","","","","","","learn","SL",""
"","html-keyboard-response","48","82634","0.0-48.0","null","<p></p>","null","","","","","","","",""
"","image","49","83987","0.0-49.0","1352.5","run_exp/static/images/Set 6_rs/129a.jpg","78","","","","","","learn","SL",""
"","show_choice","50","84644","0.0-50.0","null","run_exp/static/images/Set 6_rs/129a.jpg","null","","","","","","learn","SL",""
"","html-keyboard-response","51","85146","0.0-51.0","null","<p></p>","null","","","","","","","",""
"","image","52","86192","0.0-52.0","1044.6999999999534","run_exp/static/images/Set 6_rs/071a.jpg","78","","","","","","learn","SL",""
"","show_choice","53","87157","0.0-53.0","null","run_exp/static/images/Set 6_rs/071a.jpg","null","","","","","","learn","SL",""
"","html-keyboard-response","54","87658","0.0-54.0","null","<p></p>","null","","","","","","","",""
"","image","55","88557","0.0-55.0","897.8999999999069","run_exp/static/images/Set 6_rs/067a.jpg","86","","","","","","learn","SL",""
"","show_choice","56","89662","0.0-56.0","null","run_exp/static/images/Set 6_rs/067a.jpg","null","","","","","","learn","SL",""
"","html-keyboard-response","57","90186","0.0-57.0","null","<p></p>","null","","","","","","","",""
"","image","58","91050","0.0-58.0","862.6000000000931","run_exp/static/images/Set 6_rs/025a.jpg","78","","","","","","learn","SL",""
"","show_choice","59","92194","0.0-59.0","null","run_exp/static/images/Set 6_rs/025a.jpg","null","","","","","","learn","SL",""
"","html-keyboard-response","60","92696","0.0-60.0","null","<p></p>","null","","","","","","","",""
"","image","61","93890","0.0-61.0","1192.6999999999534","run_exp/static/images/Set 6_rs/186a.jpg","86","","","","","","learn","SR",""
"","show_choice","62","94705","0.0-62.0","null","run_exp/static/images/Set 6_rs/186a.jpg","null","","","","","","learn","SR",""
"","html-keyboard-response","63","95206","0.0-63.0","null","<p></p>","null","","","","","","","",""
"","image","64","97204","0.0-64.0","1997.1000000000931","run_exp/static/images/Set 6_rs/008a.jpg","86","","","","","","learn","SL",""
"","show_choice","65","97207","0.0-65.0","null","run_exp/static/images/Set 6_rs/008a.jpg","null","","","","","","learn","SL",""
"","html-keyboard-response","66","97715","0.0-66.0","null","<p></p>","null","","","","","","","",""
"","image","67","98771","0.0-67.0","1054.6999999999534","run_exp/static/images/Set 6_rs/177a.jpg","78","","","","","","learn","SR",""
"","show_choice","68","99723","0.0-68.0","null","run_exp/static/images/Set 6_rs/177a.jpg","null","","","","","","learn","SR",""
"","html-keyboard-response","69","100226","0.0-69.0","null","<p></p>","null","","","","","","","",""
"","image","70","101895","0.0-70.0","1668.1000000000931","run_exp/static/images/Set 6_rs/108a.jpg","86","","","","","","learn","SR",""
"","show_choice","71","102231","0.0-71.0","null","run_exp/static/images/Set 6_rs/108a.jpg","null","","","","","","learn","SR",""
"","html-keyboard-response","72","102733","0.0-72.0","null","<p></p>","null","","","","","","","",""
"","image","73","104090","0.0-73.0","1356.9000000001397","run_exp/static/images/Set 6_rs/012a.jpg","78","","","","","","learn","SR",""
"","show_choice","74","104739","0.0-74.0","null","run_exp/static/images/Set 6_rs/012a.jpg","null","","","","","","learn","SR",""
"","html-keyboard-response","75","105256","0.0-75.0","null","<p></p>","null","","","","","","","",""
"","image","76","106590","0.0-76.0","1333.5","run_exp/static/images/Set 6_rs/063a.jpg","86","","","","","","learn","SR",""
"","show_choice","77","107263","0.0-77.0","null","run_exp/static/images/Set 6_rs/063a.jpg","null","","","","","","learn","SR",""
"","html-keyboard-response","78","107766","0.0-78.0","null","<p></p>","null","","","","","","","",""
"","image","79","108959","0.0-79.0","1192.0999999998603","run_exp/static/images/Set 6_rs/091a.jpg","86","","","","","","learn","SL",""
"","show_choice","80","109776","0.0-80.0","null","run_exp/static/images/Set 6_rs/091a.jpg","null","","","","","","learn","SL",""
"","html-keyboard-response","81","110279","0.0-81.0","null","<p></p>","null","","","","","","","",""
"","image","82","111144","0.0-82.0","863.5","run_exp/static/images/Set 6_rs/010a.jpg","86","","","","","","learn","SR",""
"","show_choice","83","112288","0.0-83.0","null","run_exp/static/images/Set 6_rs/010a.jpg","null","","","","","","learn","SR",""
"","html-keyboard-response","84","112790","0.0-84.0","null","<p></p>","null","","","","","","","",""
"","image","85","114635","0.0-85.0","1843.3999999999069","run_exp/static/images/Set 6_rs/144a.jpg","86","","","","","","learn","SL",""
"","show_choice","86","114798","0.0-86.0","null","run_exp/static/images/Set 6_rs/144a.jpg","null","","","","","","learn","SL",""
"","html-keyboard-response","87","115301","0.0-87.0","null","<p></p>","null","","","","","","","",""
"","image","88","116142","0.0-88.0","839.9000000001397","run_exp/static/images/Set 6_rs/023a.jpg","86","","","","","","learn","SR",""
"","show_choice","89","117313","0.0-89.0","null","run_exp/static/images/Set 6_rs/023a.jpg","null","","","","","","learn","SR",""
"","html-keyboard-response","90","117815","0.0-90.0","null","<p></p>","null","","","","","","","",""
"","image","91","119169","0.0-91.0","1352.6999999999534","run_exp/static/images/Set 6_rs/126a.jpg","78","","","","","","learn","SR",""
"","show_choice","92","119823","0.0-92.0","null","run_exp/static/images/Set 6_rs/126a.jpg","null","","","","","","learn","SR",""
"","html-keyboard-response","93","120324","0.0-93.0","null","<p></p>","null","","","","","","","",""
"","image","94","122333","0.0-94.0","null","run_exp/static/images/Set 6_rs/007a.jpg","null","","","","","","learn","SR",""
"","show_choice","95","124341","0.0-95.0","null","run_exp/static/images/blank.png","null","","","","","","learn","SR",""
"","html-keyboard-response","96","124844","0.0-96.0","null","<p></p>","null","","","","","","","",""
"","image","97","126039","0.0-97.0","1194.8999999999069","run_exp/static/images/Set 6_rs/061a.jpg","78","","","","","","learn","SR",""
"","show_choice","98","126855","0.0-98.0","null","run_exp/static/images/Set 6_rs/061a.jpg","null","","","","","","learn","SR",""
"","html-keyboard-response","99","127358","0.0-99.0","null","<p></p>","null","","","","","","","",""
"","image","100","128290","0.0-100.0","930.3000000000466","run_exp/static/images/Set 6_rs/152a.jpg","78","","","","","","learn","SR",""
"","show_choice","101","129367","0.0-101.0","null","run_exp/static/images/Set 6_rs/152a.jpg","null","","","","","","learn","SR",""
"","html-keyboard-response","102","129869","0.0-102.0","null","<p></p>","null","","","","","","","",""
"","image","103","130557","0.0-103.0","687.0999999998603","run_exp/static/images/Set 6_rs/116a.jpg","78","","","","","","learn","SL",""
"","show_choice","104","131878","0.0-104.0","null","run_exp/static/images/Set 6_rs/116a.jpg","null","","","","","","learn","SL",""
"","html-keyboard-response","105","132380","0.0-105.0","null","<p></p>","null","","","","","","","",""
"","image","106","133167","0.0-106.0","785.5","run_exp/static/images/Set 6_rs/148a.jpg","78","","","","","","learn","SR",""
"","show_choice","107","134389","0.0-107.0","null","run_exp/static/images/Set 6_rs/148a.jpg","null","","","","","","learn","SR",""
"","html-keyboard-response","108","134891","0.0-108.0","null","<p></p>","null","","","","","","","",""
"","image","109","135960","0.0-109.0","1068.2999999998137","run_exp/static/images/Set 6_rs/085a.jpg","78","","","","","","learn","SL",""
"","show_choice","110","136901","0.0-110.0","null","run_exp/static/images/Set 6_rs/085a.jpg","null","","","","","","learn","SL",""
"","html-keyboard-response","111","137403","0.0-111.0","null","<p></p>","null","","","","","","","",""
"","image","112","138576","0.0-112.0","1171.7999999998137","run_exp/static/images/Set 6_rs/079a.jpg","86","","","","","","learn","SL",""
"","show_choice","113","139415","0.0-113.0","null","run_exp/static/images/Set 6_rs/079a.jpg","null","","","","","","learn","SL",""
"","html-keyboard-response","114","139919","0.0-114.0","null","<p></p>","null","","","","","","","",""
"","image","115","141066","0.0-115.0","1146.2000000001863","run_exp/static/images/Set 6_rs/066a.jpg","86","","","","","","learn","SL",""
"","show_choice","116","141930","0.0-116.0","null","run_exp/static/images/Set 6_rs/066a.jpg","null","","","","","","learn","SL",""
"","html-keyboard-response","117","142433","0.0-117.0","null","<p></p>","null","","","","","","","",""
"","image","118","143327","0.0-118.0","892.4000000001397","run_exp/static/images/Set 6_rs/122a.jpg","78","","","","","","learn","SR",""
"","show_choice","119","144444","0.0-119.0","null","run_exp/static/images/Set 6_rs/122a.jpg","null","","","","","","learn","SR",""
"","html-keyboard-response","120","144946","0.0-120.0","null","<p></p>","null","","","","","","","",""
"","image","121","145665","0.0-121.0","718","run_exp/static/images/Set 6_rs/172a.jpg","78","","","","","","learn","SR",""
"","show_choice","122","146957","0.0-122.0","null","run_exp/static/images/Set 6_rs/172a.jpg","null","","","","","","learn","SR",""
"","html-keyboard-response","123","147460","0.0-123.0","null","<p></p>","null","","","","","","","",""
"","image","124","148274","0.0-124.0","813.1999999999534","run_exp/static/images/Set 6_rs/123a.jpg","78","","","","","","learn","SL",""
"","show_choice","125","149467","0.0-125.0","null","run_exp/static/images/Set 6_rs/123a.jpg","null","","","","","","learn","SL",""
"","html-keyboard-response","126","149970","0.0-126.0","null","<p></p>","null","","","","","","","",""
"","image","127","150720","0.0-127.0","749","run_exp/static/images/Set 6_rs/111a.jpg","78","","","","","","learn","SL",""
"","show_choice","128","151977","0.0-128.0","null","run_exp/static/images/Set 6_rs/111a.jpg","null","","","","","","learn","SL",""
"","html-keyboard-response","129","152478","0.0-129.0","null","<p></p>","null","","","","","","","",""
"","image","130","154058","0.0-130.0","1578","run_exp/static/images/Set 6_rs/167a.jpg","78","","","","","","learn","SL",""
"","show_choice","131","154486","0.0-131.0","null","run_exp/static/images/Set 6_rs/167a.jpg","null","","","","","","learn","SL",""
"","html-keyboard-response","132","154989","0.0-132.0","null","<p></p>","null","","","","","","","",""
"","image","133","156026","0.0-133.0","1036.1000000000931","run_exp/static/images/Set 6_rs/178a.jpg","78","","","","","","learn","SR",""
"","show_choice","134","156998","0.0-134.0","null","run_exp/static/images/Set 6_rs/178a.jpg","null","","","","","","learn","SR",""
"","html-keyboard-response","135","157516","0.0-135.0","null","<p></p>","null","","","","","","","",""
"","image","136","158531","0.0-136.0","1014.5","run_exp/static/images/Set 6_rs/138a.jpg","78","","","","","","learn","SL",""
"","show_choice","137","159525","0.0-137.0","null","run_exp/static/images/Set 6_rs/138a.jpg","null","","","","","","learn","SL",""
"","html-keyboard-response","138","160026","0.0-138.0","null","<p></p>","null","","","","","","","",""
"","image","139","161082","0.0-139.0","1054.6999999999534","run_exp/static/images/Set 6_rs/006a.jpg","86","","","","","","learn","SL",""
"","show_choice","140","162033","0.0-140.0","null","run_exp/static/images/Set 6_rs/006a.jpg","null","","","","","","learn","SL",""
"","html-keyboard-response","141","162536","0.0-141.0","null","<p></p>","null","","","","","","","",""
"","image","142","163757","0.0-142.0","1220.4000000001397","run_exp/static/images/Set 6_rs/017a.jpg","86","","","","","","learn","SL",""
"","show_choice","143","164546","0.0-143.0","null","run_exp/static/images/Set 6_rs/017a.jpg","null","","","","","","learn","SL",""
"","html-keyboard-response","144","165062","0.0-144.0","null","<p></p>","null","","","","","","","",""
"","image","145","165923","0.0-145.0","859","run_exp/static/images/Set 6_rs/076a.jpg","78","","","","","","learn","SR",""
"","show_choice","146","167071","0.0-146.0","null","run_exp/static/images/Set 6_rs/076a.jpg","null","","","","","","learn","SR",""
"","html-keyboard-response","147","167588","0.0-147.0","null","<p></p>","null","","","","","","","",""
"","image","148","168562","0.0-148.0","973.3999999999069","run_exp/static/images/Set 6_rs/191a.jpg","78","","","","","","learn","SL",""
"","show_choice","149","169596","0.0-149.0","null","run_exp/static/images/Set 6_rs/191a.jpg","null","","","","","","learn","SL",""
"","html-keyboard-response","150","170112","0.0-150.0","null","<p></p>","null","","","","","","","",""
"","image","151","170895","0.0-151.0","782.2999999998137","run_exp/static/images/Set 6_rs/154a.jpg","78","","","","","","learn","SR",""
"","show_choice","152","172121","0.0-152.0","null","run_exp/static/images/Set 6_rs/154a.jpg","null","","","","","","learn","SR",""
"","html-keyboard-response","153","172645","0.0-153.0","null","<p></p>","null","","","","","","","",""
"","image","154","173611","0.0-154.0","965.3999999999069","run_exp/static/images/Set 6_rs/166a.jpg","86","","","","","","learn","SR",""
"","show_choice","155","174652","0.0-155.0","null","run_exp/static/images/Set 6_rs/166a.jpg","null","","","","","","learn","SR",""
"","html-keyboard-response","156","175153","0.0-156.0","null","<p></p>","null","","","","","","","",""
"","image","157","176067","0.0-157.0","912.6000000000931","run_exp/static/images/Set 6_rs/150a.jpg","86","","","","","","learn","SR",""
"","show_choice","158","177167","0.0-158.0","null","run_exp/static/images/Set 6_rs/150a.jpg","null","","","","","","learn","SR",""
"","html-keyboard-response","159","177671","0.0-159.0","null","<p></p>","null","","","","","","","",""
"","image","160","178858","0.0-160.0","1186.6000000000931","run_exp/static/images/Set 6_rs/169a.jpg","78","","","","","","learn","SR",""
"","show_choice","161","179682","0.0-161.0","null","run_exp/static/images/Set 6_rs/169a.jpg","null","","","","","","learn","SR",""
"","html-keyboard-response","162","180184","0.0-162.0","null","<p></p>","null","","","","","","","",""
"","image","163","181732","0.0-163.0","1546.4000000001397","run_exp/static/images/Set 6_rs/088a.jpg","86","","","","","","learn","SR",""
"","show_choice","164","182194","0.0-164.0","null","run_exp/static/images/Set 6_rs/088a.jpg","null","","","","","","learn","SR",""
"","html-keyboard-response","165","182698","0.0-165.0","null","<p></p>","null","","","","","","","",""
"","image","166","183553","0.0-166.0","854.5","run_exp/static/images/Set 6_rs/016a.jpg","86","","","","","","learn","SL",""
"","show_choice","167","184708","0.0-167.0","null","run_exp/static/images/Set 6_rs/016a.jpg","null","","","","","","learn","SL",""
"","html-keyboard-response","168","185211","0.0-168.0","null","<p></p>","null","","","","","","","",""
"","image","169","186640","0.0-169.0","1427.6999999999534","run_exp/static/images/Set 6_rs/168a.jpg","78","","","","","","learn","SL",""
"","show_choice","170","187221","0.0-170.0","null","run_exp/static/images/Set 6_rs/168a.jpg","null","","","","","","learn","SL",""
"","html-keyboard-response","171","187724","0.0-171.0","null","<p></p>","null","","","","","","","",""
"","image","172","187758","0.0-172.0","32.9000000001397","run_exp/static/images/Set 6_rs/121a.jpg","78","","","","","","learn","SR",""
"","show_choice","173","189735","0.0-173.0","null","run_exp/static/images/Set 6_rs/121a.jpg","null","","","","","","learn","SR",""
"","html-keyboard-response","174","190238","0.0-174.0","null","<p></p>","null","","","","","","","",""
"","image","175","191258","0.0-175.0","1019.2999999998137","run_exp/static/images/Set 6_rs/062a.jpg","86","","","","","","learn","SL",""
"","show_choice","176","192245","0.0-176.0","null","run_exp/static/images/Set 6_rs/062a.jpg","null","","","","","","learn","SL",""
"","html-keyboard-response","177","192749","0.0-177.0","null","<p></p>","null","","","","","","","",""
"","image","178","193868","0.0-178.0","1118.3000000000466","run_exp/static/images/Set 6_rs/089a.jpg","86","","","","","","learn","SL",""
"","show_choice","179","194756","0.0-179.0","null","run_exp/static/images/Set 6_rs/089a.jpg","null","","","","","","learn","SL",""
"","html-keyboard-response","180","195257","0.0-180.0","null","<p></p>","null","","","","","","","",""
"","image","181","196737","0.0-181.0","1478.8999999999069","run_exp/static/images/Set 6_rs/019a.jpg","86","","","","","","learn","SL",""
"","show_choice","182","197267","0.0-182.0","null","run_exp/static/images/Set 6_rs/019a.jpg","null","","","","","","learn","SL",""
"","html-keyboard-response","183","197768","0.0-183.0","null","<p></p>","null","","","","","","","",""
"","image","184","198392","0.0-184.0","623","run_exp/static/images/Set 6_rs/112a.jpg","86","","","","","","learn","SR",""
"","show_choice","185","199775","0.0-185.0","null","run_exp/static/images/Set 6_rs/112a.jpg","null","","","","","","learn","SR",""
"","html-keyboard-response","186","200277","0.0-186.0","null","<p></p>","null","","","","","","","",""
"","image","187","201024","0.0-187.0","746.5","run_exp/static/images/Set 6_rs/055a.jpg","86","","","","","","learn","SL",""
"","show_choice","188","202285","0.0-188.0","null","run_exp/static/images/Set 6_rs/055a.jpg","null","","","","","","learn","SL",""
"","html-keyboard-response","189","202786","0.0-189.0","null","<p></p>","null","","","","","","","",""
"","image","190","203821","0.0-190.0","1034.2000000001863","run_exp/static/images/Set 6_rs/060a.jpg","86","","","","","","learn","SL",""
"","show_choice","191","204797","0.0-191.0","null","run_exp/static/images/Set 6_rs/060a.jpg","null","","","","","","learn","SL",""
"","html-keyboard-response","192","205299","0.0-192.0","null","<p></p>","null","","","","","","","",""
"","image","193","206608","0.0-193.0","1308","run_exp/static/images/Set 6_rs/064a.jpg","78","","","","","","learn","SR",""
"","show_choice","194","207309","0.0-194.0","null","run_exp/static/images/Set 6_rs/064a.jpg","null","","","","","","learn","SR",""
"","html-keyboard-response","195","207809","0.0-195.0","null","<p></p>","null","","","","","","","",""
"","test_intro","196","249507","0.0-196.0","null","run_exp/static/audio/clip_2_memory.m4a","null","","","","","<div class='center'><p>Now, let’s see how much you remember about the items you just saw.  For each item, you need to indicate if it was <b>old</b> by pressing the <b>v</b> key, <b>similar</b> by pressing the <b>b</b> key, or <b>new</b> by pressing the <b>n</b> key.</p><p>Old refers to an item that you saw before in the indoor/outdoor game that you just played, new refers to an item you have <b>not</b> seen before within the indoor/outdoor game, and similar refers to an item that is similar to an item you’ve seen before but is not exactly the same. </p><p>Before we begin, let’s go over some brief demonstrations to make sure you understand.</p></div>","","",""
"","html-keyboard-response","197","249686","0.0-197.0","177.89999999990687","<div class='center'><p>Now, let’s see how much you remember about the items you just saw.  For each item, you need to indicate if it was <b>old</b> by pressing the <b>v</b> key, <b>similar</b> by pressing the <b>b</b> key, or <b>new</b> by pressing the <b>n</b> key.</p><p>Old refers to an item that you saw before in the indoor/outdoor game that you just played, new refers to an item you have <b>not</b> seen before within the indoor/outdoor game, and similar refers to an item that is similar to an item you’ve seen before but is not exactly the same. </p><p>Before we begin, let’s go over some brief demonstrations to make sure you understand.</p><div><p><b>[Press the space bar to continue]</b></p></div>","32","","","","","","","",""
"","items","198","257206","0.0-198.0","null","run_exp/static/audio/clip_3_items.m4a","null","","","","","","","",""
"","mop","199","261716","0.0-199.0","null","run_exp/static/audio/clip_4_mop.m4a","null","","","","","","","",""
"","baseball","200","265236","0.0-200.0","null","run_exp/static/audio/clip_5_baseball.m4a","null","","","","","","","",""
"","trumpet","201","268756","0.0-201.0","null","run_exp/static/audio/clip_6_trumpet.m4a","null","","","","","","","",""
"","gummies","202","272276","0.0-202.0","null","run_exp/static/audio/clip_7_gummies.m4a","null","","","","","","","",""
"","osn","203","276796","0.0-203.0","null","run_exp/static/audio/clip_8_osn.m4a","null","","","","","","","",""
"","old_1","204","283316","0.0-204.0","null","run_exp/static/audio/clip_9_old_trumpet.m4a","null","","","","","","","",""
"","new_1","205","290824","0.0-205.0","null","run_exp/static/audio/clip_10_new_balloon.m4a","null","","","","","","","",""
"","similar_1a","206","295346","0.0-206.0","null","run_exp/static/audio/clip_11a_similar_mop.m4a","null","","","","","","","",""
"","similar_1b","207","301865","0.0-207.0","null","run_exp/static/audio/clip_11b_similar_mop.m4a","null","","","","","","","",""
"","new_2","208","305376","0.0-208.0","null","run_exp/static/audio/clip_12_new_stoplight.m4a","null","","","","","","","",""
"","old_2","209","308895","0.0-209.0","null","run_exp/static/audio/clip_13_old_baseball.m4a","null","","","","","","","",""
"","similar_2a","210","312407","0.0-210.0","null","run_exp/static/audio/clip_14a_similar_gummies.m4a","null","","","","","","","",""
"","similar_2b","211","319926","0.0-211.0","null","run_exp/static/audio/clip_14b_similar_gummies.m4a","null","","","","","","","",""
"","practice","212","335668","0.0-212.0","null","run_exp/static/audio/clip_15_practice.m4a","null","","","","","<div class='center'><p>Ok, let’s practice a little to make sure you understand the difference between new, similar, and old. Let’s say you saw these three items in the indoor/outdoor game. Study these because you’ll be tested on them soon in this practice game. </p><p><img src='run_exp/static/images/tutorial/test/three_indoor_outdoor.png' height='300'></p></div>","","",""
"","html-keyboard-response","213","337690","0.0-213.0","2020.5","<div class='center'><p>Ok, let’s practice a little to make sure you understand the difference between new, similar, and old. Let’s say you saw these three items in the indoor/outdoor game. Study these because you’ll be tested on them soon in this practice game. </p><p><img src='run_exp/static/images/tutorial/test/three_indoor_outdoor.png' height='300'></p><div><p><b>[Press the space bar to continue]</b></p></div>","32","","","","","","","",""
"","practice_q1","214","342078","0.0-214.0","4387.199999999953","run_exp/static/audio/clip_16_practice_question.m4a","78","","","","","","","",""
"","correct","215","343988","0.0-215.0-0.0","null","run_exp/static/audio/clip_17_correct.m4a","null","","","","","<div class='center'><p>That's correct!</p></div>","","",""
"","html-keyboard-response","216","353208","0.0-215.0-1.0","9219.40000000014","<div class='center'><p>That's correct!</p><div><p><b>[Press the space bar to continue]</b></p></div>","32","","","","","","","",""
"","practice_q2","217","359132","0.0-215.0-2.0","5923","run_exp/static/audio/clip_16_practice_question.m4a","86","","","","","","","",""
"","correct","218","361028","0.0-216.0-0.0","null","run_exp/static/audio/clip_17_correct.m4a","null","","","","","<div class='center'><p>That's correct!</p></div>","","",""
"","html-keyboard-response","219","361989","0.0-216.0-1.0","960","<div class='center'><p>That's correct!</p><div><p><b>[Press the space bar to continue]</b></p></div>","32","","","","","","","",""
"","practice_q3","220","364515","0.0-216.0-2.0","2524.6999999999534","run_exp/static/audio/clip_16_practice_question.m4a","66","","","","","","","",""
"","correct","221","366528","0.0-217.0-0.0","null","run_exp/static/audio/clip_17_correct.m4a","null","","","","","<div class='center'><p>That's correct!</p></div>","","",""
"","html-keyboard-response","222","367266","0.0-217.0-1.0","737.3000000000466","<div class='center'><p>That's correct!</p><div><p><b>[Press the space bar to continue]</b></p></div>","32","","","","","","","",""
"","begin_text","223","382329","0.0-218.0-0.0","null","run_exp/static/audio/clip_22_begin_test.m4a","null","","","","","<div class='center'><p>Now it’s your turn. For each item, you need to indicate if the item is <b>old</b> by pressing the <b>v</b> key, <b>similar</b> by pressing the <b>b</b> key, or <b>new</b> by pressing the <b>n</b> key. </p></div>","","",""
"","html-keyboard-response","224","383819","0.0-218.0-1.0","1489","<div class='center'><p>Now it’s your turn. For each item, you need to indicate if the item is <b>old</b> by pressing the <b>v</b> key, <b>similar</b> by pressing the <b>b</b> key, or <b>new</b> by pressing the <b>n</b> key. </p><div><p><b>[Press the space bar to continue]</b></p></div>","32","","","","","","","",""
"","image","225","386282","0.0-219.0-0.0","2462","run_exp/static/images/Set 6_rs/074b.jpg","86","","","","","","test","TL","4"
"","show_choice","226","386788","0.0-219.0-1.0","null","run_exp/static/images/Set 6_rs/074b.jpg","null","","","","","","test","TL",""
"","html-keyboard-response","227","387308","0.0-219.0-2.0","null","<p></p>","null","","","","","","","",""
"","image","228","389619","0.0-220.0-0.0","2309.8000000000466","run_exp/static/images/Set 6_rs/191b.jpg","66","","","","","","test","TL","2"
"","show_choice","229","390138","0.0-220.0-1.0","null","run_exp/static/images/Set 6_rs/191b.jpg","null","","","","","","test","TL",""
"","html-keyboard-response","230","390657","0.0-220.0-2.0","null","<p></p>","null","","","","","","","",""
"","image","231","391834","0.0-221.0-0.0","1174.9000000001397","run_exp/static/images/Set 6_rs/155a.jpg","78","","","","","","test","TF","4"
"","show_choice","232","392337","0.0-221.0-1.0","null","run_exp/static/images/Set 6_rs/155a.jpg","null","","","","","","test","TF",""
"","html-keyboard-response","233","392852","0.0-221.0-2.0","null","<p></p>","null","","","","","","","",""
"","image","234","394085","0.0-222.0-0.0","1232.3000000000466","run_exp/static/images/Set 6_rs/108a.jpg","86","","","","","","test","TR","5"
"","show_choice","235","394592","0.0-222.0-1.0","null","run_exp/static/images/Set 6_rs/108a.jpg","null","","","","","","test","TR",""
"","html-keyboard-response","236","395094","0.0-222.0-2.0","null","<p></p>","null","","","","","","","",""
"","image","237","396296","0.0-223.0-0.0","1200.8000000000466","run_exp/static/images/Set 6_rs/011a.jpg","86","","","","","","test","TF","3"
"","show_choice","238","396809","0.0-223.0-1.0","null","run_exp/static/images/Set 6_rs/011a.jpg","null","","","","","","test","TF",""
"","html-keyboard-response","239","397316","0.0-223.0-2.0","null","<p></p>","null","","","","","","","",""
"","image","240","398241","0.0-224.0-0.0","923","run_exp/static/images/Set 6_rs/134a.jpg","86","","","","","","test","TR","3"
"","show_choice","241","398745","0.0-224.0-1.0","null","run_exp/static/images/Set 6_rs/134a.jpg","null","","","","","","test","TR",""
"","html-keyboard-response","242","399248","0.0-224.0-2.0","null","<p></p>","null","","","","","","","",""
"","image","243","400415","0.0-225.0-0.0","1166","run_exp/static/images/Set 6_rs/126a.jpg","86","","","","","","test","TR","2"
"","show_choice","244","400917","0.0-225.0-1.0","null","run_exp/static/images/Set 6_rs/126a.jpg","null","","","","","","test","TR",""
"","html-keyboard-response","245","401434","0.0-225.0-2.0","null","<p></p>","null","","","","","","","",""
"","image","246","402130","0.0-226.0-0.0","695.8000000000466","run_exp/static/images/Set 6_rs/141a.jpg","86","","","","","","test","TR","2"
"","show_choice","247","402638","0.0-226.0-1.0","null","run_exp/static/images/Set 6_rs/141a.jpg","null","","","","","","test","TR",""
"","html-keyboard-response","248","403139","0.0-226.0-2.0","null","<p></p>","null","","","","","","","",""
"","image","249","404893","0.0-227.0-0.0","1752.7999999998137","run_exp/static/images/Set 6_rs/066b.jpg","66","","","","","","test","TL","5"
"","show_choice","250","405406","0.0-227.0-1.0","null","run_exp/static/images/Set 6_rs/066b.jpg","null","","","","","","test","TL",""
"","html-keyboard-response","251","405907","0.0-227.0-2.0","null","<p></p>","null","","","","","","","",""
"","image","252","407334","0.0-228.0-0.0","1425.6000000000931","run_exp/static/images/Set 6_rs/149a.jpg","86","","","","","","test","TF","1"
"","show_choice","253","407849","0.0-228.0-1.0","null","run_exp/static/images/Set 6_rs/149a.jpg","null","","","","","","test","TF",""
"","html-keyboard-response","254","408351","0.0-228.0-2.0","null","<p></p>","null","","","","","","","",""
"","image","255","409328","0.0-229.0-0.0","975.2999999998137","run_exp/static/images/Set 6_rs/035a.jpg","78","","","","","","test","TF","4"
"","show_choice","256","409829","0.0-229.0-1.0","null","run_exp/static/images/Set 6_rs/035a.jpg","null","","","","","","test","TF",""
"","html-keyboard-response","257","410331","0.0-229.0-2.0","null","<p></p>","null","","","","","","","",""
"","image","258","411225","0.0-230.0-0.0","893.0999999998603","run_exp/static/images/Set 6_rs/078a.jpg","78","","","","","","test","TF","1"
"","show_choice","259","411736","0.0-230.0-1.0","null","run_exp/static/images/Set 6_rs/078a.jpg","null","","","","","","test","TF",""
"","html-keyboard-response","260","412239","0.0-230.0-2.0","null","<p></p>","null","","","","","","","",""
"","image","261","413586","0.0-231.0-0.0","1345.3999999999069","run_exp/static/images/Set 6_rs/064a.jpg","86","","","","","","test","TR","5"
"","show_choice","262","414095","0.0-231.0-1.0","null","run_exp/static/images/Set 6_rs/064a.jpg","null","","","","","","test","TR",""
"","html-keyboard-response","263","414598","0.0-231.0-2.0","null","<p></p>","null","","","","","","","",""
"","image","264","415442","0.0-232.0-0.0","842.6000000000931","run_exp/static/images/Set 6_rs/063a.jpg","86","","","","","","test","TR","2"
"","show_choice","265","415959","0.0-232.0-1.0","null","run_exp/static/images/Set 6_rs/063a.jpg","null","","","","","","test","TR",""
"","html-keyboard-response","266","416462","0.0-232.0-2.0","null","<p></p>","null","","","","","","","",""
"","image","267","417794","0.0-233.0-0.0","1330","run_exp/static/images/Set 6_rs/079b.jpg","78","","","","","","test","TL","5"
"","show_choice","268","418305","0.0-233.0-1.0","null","run_exp/static/images/Set 6_rs/079b.jpg","null","","","","","","test","TL",""
"","html-keyboard-response","269","418809","0.0-233.0-2.0","null","<p></p>","null","","","","","","","",""
"","image","270","421194","0.0-234.0-0.0","2383.2000000001863","run_exp/static/images/Set 6_rs/062b.jpg","78","","","","","","test","TL","1"
"","show_choice","271","421710","0.0-234.0-1.0","null","run_exp/static/images/Set 6_rs/062b.jpg","null","","","","","","test","TL",""
"","html-keyboard-response","272","422213","0.0-234.0-2.0","null","<p></p>","null","","","","","","","",""
"","image","273","424490","0.0-235.0-0.0","2275.600000000093","run_exp/static/images/Set 6_rs/154a.jpg","66","","","","","","test","TR","3"
"","show_choice","274","425008","0.0-235.0-1.0","null","run_exp/static/images/Set 6_rs/154a.jpg","null","","","","","","test","TR",""
"","html-keyboard-response","275","425511","0.0-235.0-2.0","null","<p></p>","null","","","","","","","",""
"","image","276","426328","0.0-236.0-0.0","815.6000000000931","run_exp/static/images/Set 6_rs/187a.jpg","86","","","","","","test","TR","3"
"","show_choice","277","426832","0.0-236.0-1.0","null","run_exp/static/images/Set 6_rs/187a.jpg","null","","","","","","test","TR",""
"","html-keyboard-response","278","427335","0.0-236.0-2.0","null","<p></p>","null","","","","","","","",""
"","image","279","428283","0.0-237.0-0.0","946","run_exp/static/images/Set 6_rs/169a.jpg","86","","","","","","test","TR","4"
"","show_choice","280","428788","0.0-237.0-1.0","null","run_exp/static/images/Set 6_rs/169a.jpg","null","","","","","","test","TR",""
"","html-keyboard-response","281","429291","0.0-237.0-2.0","null","<p></p>","null","","","","","","","",""
"","image","282","430241","0.0-238.0-0.0","949.1000000000931","run_exp/static/images/Set 6_rs/088a.jpg","86","","","","","","test","TR","2"
"","show_choice","283","430751","0.0-238.0-1.0","null","run_exp/static/images/Set 6_rs/088a.jpg","null","","","","","","test","TR",""
"","html-keyboard-response","284","431254","0.0-238.0-2.0","null","<p></p>","null","","","","","","","",""
"","image","285","432693","0.0-239.0-0.0","1436.7999999998137","run_exp/static/images/Set 6_rs/019b.jpg","66","","","","","","test","TL","2"
"","show_choice","286","433202","0.0-239.0-1.0","null","run_exp/static/images/Set 6_rs/019b.jpg","null","","","","","","test","TL",""
"","html-keyboard-response","287","433712","0.0-239.0-2.0","null","<p></p>","null","","","","","","","",""
"","image","288","434601","0.0-240.0-0.0","887.3000000000466","run_exp/static/images/Set 6_rs/109a.jpg","66","","","","","","test","TF","5"
"","show_choice","289","435103","0.0-240.0-1.0","null","run_exp/static/images/Set 6_rs/109a.jpg","null","","","","","","test","TF",""
"","html-keyboard-response","290","435605","0.0-240.0-2.0","null","<p></p>","null","","","","","","","",""
"","image","291","436757","0.0-241.0-0.0","1150.3000000000466","run_exp/static/images/Set 6_rs/140a.jpg","78","","","","","","test","TF","1"
"","show_choice","292","437268","0.0-241.0-1.0","null","run_exp/static/images/Set 6_rs/140a.jpg","null","","","","","","test","TF",""
"","html-keyboard-response","293","437770","0.0-241.0-2.0","null","<p></p>","null","","","","","","","",""
"","image","294","439135","0.0-242.0-0.0","1364.1000000000931","run_exp/static/images/Set 6_rs/190a.jpg","78","","","","","","test","TF","3"
"","show_choice","295","439641","0.0-242.0-1.0","null","run_exp/static/images/Set 6_rs/190a.jpg","null","","","","","","test","TF",""
"","html-keyboard-response","296","440158","0.0-242.0-2.0","null","<p></p>","null","","","","","","","",""
"","image","297","441352","0.0-243.0-0.0","1193.5","run_exp/static/images/Set 6_rs/168b.jpg","78","","","","","","test","TL","3"
"","show_choice","298","441868","0.0-243.0-1.0","null","run_exp/static/images/Set 6_rs/168b.jpg","null","","","","","","test","TL",""
"","html-keyboard-response","299","442370","0.0-243.0-2.0","null","<p></p>","null","","","","","","","",""
"","image","300","443668","0.0-244.0-0.0","1296.5","run_exp/static/images/Set 6_rs/122a.jpg","86","","","","","","test","TR","5"
"","show_choice","301","444177","0.0-244.0-1.0","null","run_exp/static/images/Set 6_rs/122a.jpg","null","","","","","","test","TR",""
"","html-keyboard-response","302","444700","0.0-244.0-2.0","null","<p></p>","null","","","","","","","",""
"","image","303","446741","0.0-245.0-0.0","2039.9000000001397","run_exp/static/images/Set 6_rs/055b.jpg","86","","","","","","test","TL","4"
"","show_choice","304","447254","0.0-245.0-1.0","null","run_exp/static/images/Set 6_rs/055b.jpg","null","","","","","","test","TL",""
"","html-keyboard-response","305","447771","0.0-245.0-2.0","null","<p></p>","null","","","","","","","",""
"","image","306","448919","0.0-246.0-0.0","1146.5999999998603","run_exp/static/images/Set 6_rs/131a.jpg","86","","","","","","test","TR","5"
"","show_choice","307","449428","0.0-246.0-1.0","null","run_exp/static/images/Set 6_rs/131a.jpg","null","","","","","","test","TR",""
"","html-keyboard-response","308","449931","0.0-246.0-2.0","null","<p></p>","null","","","","","","","",""
"","image","309","451205","0.0-247.0-0.0","1272.8000000000466","run_exp/static/images/Set 6_rs/076a.jpg","86","","","","","","test","TR","4"
"","show_choice","310","451721","0.0-247.0-1.0","null","run_exp/static/images/Set 6_rs/076a.jpg","null","","","","","","test","TR",""
"","html-keyboard-response","311","452223","0.0-247.0-2.0","null","<p></p>","null","","","","","","","",""
"","image","312","453849","0.0-248.0-0.0","1624.5","run_exp/static/images/Set 6_rs/097a.jpg","78","","","","","","test","TF","5"
"","show_choice","313","454350","0.0-248.0-1.0","null","run_exp/static/images/Set 6_rs/097a.jpg","null","","","","","","test","TF",""
"","html-keyboard-response","314","454853","0.0-248.0-2.0","null","<p></p>","null","","","","","","","",""
"","image","315","455662","0.0-249.0-0.0","807.8999999999069","run_exp/static/images/Set 6_rs/172a.jpg","86","","","","","","test","TR","1"
"","show_choice","316","456174","0.0-249.0-1.0","null","run_exp/static/images/Set 6_rs/172a.jpg","null","","","","","","test","TR",""
"","html-keyboard-response","317","456691","0.0-249.0-2.0","null","<p></p>","null","","","","","","","",""
"","image","318","458227","0.0-250.0-0.0","1533.7000000001863","run_exp/static/images/Set 6_rs/067b.jpg","66","","","","","","test","TL","5"
"","show_choice","319","458731","0.0-250.0-1.0","null","run_exp/static/images/Set 6_rs/067b.jpg","null","","","","","","test","TL",""
"","html-keyboard-response","320","459234","0.0-250.0-2.0","null","<p></p>","null","","","","","","","",""
"","image","321","460290","0.0-251.0-0.0","1055.3999999999069","run_exp/static/images/Set 6_rs/181b.jpg","86","","","","","","test","TL","1"
"","show_choice","322","460793","0.0-251.0-1.0","null","run_exp/static/images/Set 6_rs/181b.jpg","null","","","","","","test","TL",""
"","html-keyboard-response","323","461296","0.0-251.0-2.0","null","<p></p>","null","","","","","","","",""
"","image","324","462906","0.0-252.0-0.0","1608.5999999998603","run_exp/static/images/Set 6_rs/152a.jpg","86","","","","","","test","TR","2"
"","show_choice","325","463408","0.0-252.0-1.0","null","run_exp/static/images/Set 6_rs/152a.jpg","null","","","","","","test","TR",""
"","html-keyboard-response","326","463911","0.0-252.0-2.0","null","<p></p>","null","","","","","","","",""
"","image","327","465511","0.0-253.0-0.0","1598.5","run_exp/static/images/Set 6_rs/176a.jpg","78","","","","","","test","TF","4"
"","show_choice","328","466022","0.0-253.0-1.0","null","run_exp/static/images/Set 6_rs/176a.jpg","null","","","","","","test","TF",""
"","html-keyboard-response","329","466524","0.0-253.0-2.0","null","<p></p>","null","","","","","","","",""
"","image","330","467454","0.0-254.0-0.0","929","run_exp/static/images/Set 6_rs/057b.jpg","86","","","","","","test","TL","1"
"","show_choice","331","467959","0.0-254.0-1.0","null","run_exp/static/images/Set 6_rs/057b.jpg","null","","","","","","test","TL",""
"","html-keyboard-response","332","468460","0.0-254.0-2.0","null","<p></p>","null","","","","","","","",""
"","image","333","469986","0.0-255.0-0.0","1525.0999999998603","run_exp/static/images/Set 6_rs/022a.jpg","66","","","","","","test","TF","4"
"","show_choice","334","470508","0.0-255.0-1.0","null","run_exp/static/images/Set 6_rs/022a.jpg","null","","","","","","test","TF",""
"","html-keyboard-response","335","471011","0.0-255.0-2.0","null","<p></p>","null","","","","","","","",""
"","image","336","472603","0.0-256.0-0.0","1591","run_exp/static/images/Set 6_rs/085b.jpg","86","","","","","","test","TL","1"
"","show_choice","337","473123","0.0-256.0-1.0","null","run_exp/static/images/Set 6_rs/085b.jpg","null","","","","","","test","TL",""
"","html-keyboard-response","338","473640","0.0-256.0-2.0","null","<p></p>","null","","","","","","","",""
"","image","339","474577","0.0-257.0-0.0","935.8999999999069","run_exp/static/images/Set 6_rs/167b.jpg","86","","","","","","test","TL","2"
"","show_choice","340","475093","0.0-257.0-1.0","null","run_exp/static/images/Set 6_rs/167b.jpg","null","","","","","","test","TL",""
"","html-keyboard-response","341","475595","0.0-257.0-2.0","null","<p></p>","null","","","","","","","",""
"","image","342","477550","0.0-258.0-0.0","1954.5","run_exp/static/images/Set 6_rs/186a.jpg","86","","","","","","test","TR","5"
"","show_choice","343","478062","0.0-258.0-1.0","null","run_exp/static/images/Set 6_rs/186a.jpg","null","","","","","","test","TR",""
"","html-keyboard-response","344","478565","0.0-258.0-2.0","null","<p></p>","null","","","","","","","",""
"","image","345","479657","0.0-259.0-0.0","1090.3000000000466","run_exp/static/images/Set 6_rs/048a.jpg","78","","","","","","test","TF","4"
"","show_choice","346","480159","0.0-259.0-1.0","null","run_exp/static/images/Set 6_rs/048a.jpg","null","","","","","","test","TF",""
"","html-keyboard-response","347","480661","0.0-259.0-2.0","null","<p></p>","null","","","","","","","",""
"","image","348","482198","0.0-260.0-0.0","1535.1999999999534","run_exp/static/images/Set 6_rs/017b.jpg","66","","","","","","test","TL","3"
"","show_choice","349","482702","0.0-260.0-1.0","null","run_exp/static/images/Set 6_rs/017b.jpg","null","","","","","","test","TL",""
"","html-keyboard-response","350","483204","0.0-260.0-2.0","null","<p></p>","null","","","","","","","",""
"","image","351","484323","0.0-261.0-0.0","1117.6999999999534","run_exp/static/images/Set 6_rs/052a.jpg","78","","","","","","test","TF","1"
"","show_choice","352","484826","0.0-261.0-1.0","null","run_exp/static/images/Set 6_rs/052a.jpg","null","","","","","","test","TF",""
"","html-keyboard-response","353","485328","0.0-261.0-2.0","null","<p></p>","null","","","","","","","",""
"","image","354","486283","0.0-262.0-0.0","953.5","run_exp/static/images/Set 6_rs/045a.jpg","86","","","","","","test","TR","2"
"","show_choice","355","486788","0.0-262.0-1.0","null","run_exp/static/images/Set 6_rs/045a.jpg","null","","","","","","test","TR",""
"","html-keyboard-response","356","487291","0.0-262.0-2.0","null","<p></p>","null","","","","","","","",""
"","image","357","489094","0.0-263.0-0.0","1800.8999999999069","run_exp/static/images/Set 6_rs/089b.jpg","66","","","","","","test","TL","4"
"","show_choice","358","489605","0.0-263.0-1.0","null","run_exp/static/images/Set 6_rs/089b.jpg","null","","","","","","test","TL",""
"","html-keyboard-response","359","490108","0.0-263.0-2.0","null","<p></p>","null","","","","","","","",""
"","image","360","492193","0.0-264.0-0.0","2084.2999999998137","run_exp/static/images/Set 6_rs/060b.jpg","78","","","","","","test","TL","3"
"","show_choice","361","492703","0.0-264.0-1.0","null","run_exp/static/images/Set 6_rs/060b.jpg","null","","","","","","test","TL",""
"","html-keyboard-response","362","493226","0.0-264.0-2.0","null","<p></p>","null","","","","","","","",""
"","image","363","494230","0.0-265.0-0.0","1002.6000000000931","run_exp/static/images/Set 6_rs/021a.jpg","86","","","","","","test","TF","2"
"","show_choice","364","494734","0.0-265.0-1.0","null","run_exp/static/images/Set 6_rs/021a.jpg","null","","","","","","test","TF",""
"","html-keyboard-response","365","495238","0.0-265.0-2.0","null","<p></p>","null","","","","","","","",""
"","image","366","496647","0.0-266.0-0.0","1408","run_exp/static/images/Set 6_rs/023a.jpg","86","","","","","","test","TR","3"
"","show_choice","367","497149","0.0-266.0-1.0","null","run_exp/static/images/Set 6_rs/023a.jpg","null","","","","","","test","TR",""
"","html-keyboard-response","368","497651","0.0-266.0-2.0","null","<p></p>","null","","","","","","","",""
"","image","369","498726","0.0-267.0-0.0","1074.1000000000931","run_exp/static/images/Set 6_rs/028a.jpg","78","","","","","","test","TF","1"
"","show_choice","370","499237","0.0-267.0-1.0","null","run_exp/static/images/Set 6_rs/028a.jpg","null","","","","","","test","TF",""
"","html-keyboard-response","371","499740","0.0-267.0-2.0","null","<p></p>","null","","","","","","","",""
"","image","372","501044","0.0-268.0-0.0","1302.5999999998603","run_exp/static/images/Set 6_rs/121a.jpg","66","","","","","","test","TR","4"
"","show_choice","373","501547","0.0-268.0-1.0","null","run_exp/static/images/Set 6_rs/121a.jpg","null","","","","","","test","TR",""
"","html-keyboard-response","374","502049","0.0-268.0-2.0","null","<p></p>","null","","","","","","","",""
"","image","375","503638","0.0-269.0-0.0","1586.7999999998137","run_exp/static/images/Set 6_rs/129b.jpg","66","","","","","","test","TL","1"
"","show_choice","376","504147","0.0-269.0-1.0","null","run_exp/static/images/Set 6_rs/129b.jpg","null","","","","","","test","TL",""
"","html-keyboard-response","377","504650","0.0-269.0-2.0","null","<p></p>","null","","","","","","","",""
"","image","378","506921","0.0-270.0-0.0","2269.0999999998603","run_exp/static/images/Set 6_rs/090a.jpg","78","","","","","","test","TF","5"
"","show_choice","379","507436","0.0-270.0-1.0","null","run_exp/static/images/Set 6_rs/090a.jpg","null","","","","","","test","TF",""
"","html-keyboard-response","380","507939","0.0-270.0-2.0","null","<p></p>","null","","","","","","","",""
"","image","381","509045","0.0-271.0-0.0","1104.5","run_exp/static/images/Set 6_rs/189a.jpg","78","","","","","","test","TF","5"
"","show_choice","382","509548","0.0-271.0-1.0","null","run_exp/static/images/Set 6_rs/189a.jpg","null","","","","","","test","TF",""
"","html-keyboard-response","383","510050","0.0-271.0-2.0","null","<p></p>","null","","","","","","","",""
"","image","384","511068","0.0-272.0-0.0","1016.6999999999534","run_exp/static/images/Set 6_rs/012a.jpg","86","","","","","","test","TR","1"
"","show_choice","385","511571","0.0-272.0-1.0","null","run_exp/static/images/Set 6_rs/012a.jpg","null","","","","","","test","TR",""
"","html-keyboard-response","386","512074","0.0-272.0-2.0","null","<p></p>","null","","","","","","","",""
"","image","387","513263","0.0-273.0-0.0","1187.3000000000466","run_exp/static/images/Set 6_rs/047a.jpg","78","","","","","","test","TF","3"
"","show_choice","388","513767","0.0-273.0-1.0","null","run_exp/static/images/Set 6_rs/047a.jpg","null","","","","","","test","TF",""
"","html-keyboard-response","389","514270","0.0-273.0-2.0","null","<p></p>","null","","","","","","","",""
"","image","390","515587","0.0-274.0-0.0","1314.5999999998603","run_exp/static/images/Set 6_rs/171a.jpg","66","","","","","","test","TF","1"
"","show_choice","391","516097","0.0-274.0-1.0","null","run_exp/static/images/Set 6_rs/171a.jpg","null","","","","","","test","TF",""
"","html-keyboard-response","392","516599","0.0-274.0-2.0","null","<p></p>","null","","","","","","","",""
"","image","393","517595","0.0-275.0-0.0","994.6999999999534","run_exp/static/images/Set 6_rs/166a.jpg","86","","","","","","test","TR","1"
"","show_choice","394","518108","0.0-275.0-1.0","null","run_exp/static/images/Set 6_rs/166a.jpg","null","","","","","","test","TR",""
"","html-keyboard-response","395","518610","0.0-275.0-2.0","null","<p></p>","null","","","","","","","",""
"","image","396","520254","0.0-276.0-0.0","1642.3000000000466","run_exp/static/images/Set 6_rs/170a.jpg","78","","","","","","test","TF","2"
"","show_choice","397","520776","0.0-276.0-1.0","null","run_exp/static/images/Set 6_rs/170a.jpg","null","","","","","","test","TF",""
"","html-keyboard-response","398","521279","0.0-276.0-2.0","null","<p></p>","null","","","","","","","",""
"","image","399","523440","0.0-277.0-0.0","2160.1999999999534","run_exp/static/images/Set 6_rs/024a.jpg","78","","","","","","test","TR","5"
"","show_choice","400","523955","0.0-277.0-1.0","null","run_exp/static/images/Set 6_rs/024a.jpg","null","","","","","","test","TR",""
"","html-keyboard-response","401","524458","0.0-277.0-2.0","null","<p></p>","null","","","","","","","",""
"","image","402","526091","0.0-278.0-0.0","1632","run_exp/static/images/Set 6_rs/144b.jpg","86","","","","","","test","TL","4"
"","show_choice","403","526609","0.0-278.0-1.0","null","run_exp/static/images/Set 6_rs/144b.jpg","null","","","","","","test","TL",""
"","html-keyboard-response","404","527112","0.0-278.0-2.0","null","<p></p>","null","","","","","","","",""
"","image","405","527853","0.0-279.0-0.0","739.0999999998603","run_exp/static/images/Set 6_rs/133a.jpg","86","","","","","","test","TF","4"
"","show_choice","406","528366","0.0-279.0-1.0","null","run_exp/static/images/Set 6_rs/133a.jpg","null","","","","","","test","TF",""
"","html-keyboard-response","407","528869","0.0-279.0-2.0","null","<p></p>","null","","","","","","","",""
"","image","408","530740","0.0-280.0-0.0","1869","run_exp/static/images/Set 6_rs/117b.jpg","86","","","","","","test","TL","5"
"","show_choice","409","531252","0.0-280.0-1.0","null","run_exp/static/images/Set 6_rs/117b.jpg","null","","","","","","test","TL",""
"","html-keyboard-response","410","531755","0.0-280.0-2.0","null","<p></p>","null","","","","","","","",""
"","image","411","533300","0.0-281.0-0.0","1543.2000000001863","run_exp/static/images/Set 6_rs/150a.jpg","86","","","","","","test","TR","1"
"","show_choice","412","533814","0.0-281.0-1.0","null","run_exp/static/images/Set 6_rs/150a.jpg","null","","","","","","test","TR",""
"","html-keyboard-response","413","534316","0.0-281.0-2.0","null","<p></p>","null","","","","","","","",""
"","image","414","535384","0.0-282.0-0.0","1066.3999999999069","run_exp/static/images/Set 6_rs/073b.jpg","66","","","","","","test","TL","3"
"","show_choice","415","535895","0.0-282.0-1.0","null","run_exp/static/images/Set 6_rs/073b.jpg","null","","","","","","test","TL",""
"","html-keyboard-response","416","536397","0.0-282.0-2.0","null","<p></p>","null","","","","","","","",""
"","image","417","537644","0.0-283.0-0.0","1245","run_exp/static/images/Set 6_rs/008b.jpg","86","","","","","","test","TL","2"
"","show_choice","418","538155","0.0-283.0-1.0","null","run_exp/static/images/Set 6_rs/008b.jpg","null","","","","","","test","TL",""
"","html-keyboard-response","419","538656","0.0-283.0-2.0","null","<p></p>","null","","","","","","","",""
"","image","420","539722","0.0-284.0-0.0","1063.6999999999534","run_exp/static/images/Set 6_rs/105a.jpg","78","","","","","","test","TF","5"
"","show_choice","421","540234","0.0-284.0-1.0","null","run_exp/static/images/Set 6_rs/105a.jpg","null","","","","","","test","TF",""
"","html-keyboard-response","422","540737","0.0-284.0-2.0","null","<p></p>","null","","","","","","","",""
"","image","423","540967","0.0-285.0-0.0","227.69999999995343","run_exp/static/images/Set 6_rs/095b.jpg","86","","","","","","test","TL","5"
"","show_choice","424","541471","0.0-285.0-1.0","null","run_exp/static/images/Set 6_rs/095b.jpg","null","","","","","","test","TL",""
"","html-keyboard-response","425","541974","0.0-285.0-2.0","null","<p></p>","null","","","","","","","",""
"","image","426","542814","0.0-286.0-0.0","838.6999999999534","run_exp/static/images/Set 6_rs/132a.jpg","86","","","","","","test","TR","5"
"","show_choice","427","543320","0.0-286.0-1.0","null","run_exp/static/images/Set 6_rs/132a.jpg","null","","","","","","test","TR",""
"","html-keyboard-response","428","543822","0.0-286.0-2.0","null","<p></p>","null","","","","","","","",""
"","image","429","545028","0.0-287.0-0.0","1204.4000000001397","run_exp/static/images/Set 6_rs/071b.jpg","66","","","","","","test","TL","4"
"","show_choice","430","545532","0.0-287.0-1.0","null","run_exp/static/images/Set 6_rs/071b.jpg","null","","","","","","test","TL",""
"","html-keyboard-response","431","546035","0.0-287.0-2.0","null","<p></p>","null","","","","","","","",""
"","image","432","546676","0.0-288.0-0.0","639.1999999999534","run_exp/static/images/Set 6_rs/188a.jpg","86","","","","","","test","TF","3"
"","show_choice","433","547187","0.0-288.0-1.0","null","run_exp/static/images/Set 6_rs/188a.jpg","null","","","","","","test","TF",""
"","html-keyboard-response","434","547690","0.0-288.0-2.0","null","<p></p>","null","","","","","","","",""
"","image","435","548548","0.0-289.0-0.0","856.5999999998603","run_exp/static/images/Set 6_rs/178a.jpg","86","","","","","","test","TR","3"
"","show_choice","436","549050","0.0-289.0-1.0","null","run_exp/static/images/Set 6_rs/178a.jpg","null","","","","","","test","TR",""
"","html-keyboard-response","437","549552","0.0-289.0-2.0","null","<p></p>","null","","","","","","","",""
"","image","438","551072","0.0-290.0-0.0","1518.3000000000466","run_exp/static/images/Set 6_rs/118a.jpg","78","","","","","","test","TF","5"
"","show_choice","439","551578","0.0-290.0-1.0","null","run_exp/static/images/Set 6_rs/118a.jpg","null","","","","","","test","TF",""
"","html-keyboard-response","440","552094","0.0-290.0-2.0","null","<p></p>","null","","","","","","","",""
"","image","441","553827","0.0-291.0-0.0","1731.3000000000466","run_exp/static/images/Set 6_rs/138b.jpg","86","","","","","","test","TL","1"
"","show_choice","442","554334","0.0-291.0-1.0","null","run_exp/static/images/Set 6_rs/138b.jpg","null","","","","","","test","TL",""
"","html-keyboard-response","443","554836","0.0-291.0-2.0","null","<p></p>","null","","","","","","","",""
"","image","444","556265","0.0-292.0-0.0","1427.6999999999534","run_exp/static/images/Set 6_rs/077a.jpg","66","","","","","","test","TF","3"
"","show_choice","445","556771","0.0-292.0-1.0","null","run_exp/static/images/Set 6_rs/077a.jpg","null","","","","","","test","TF",""
"","html-keyboard-response","446","557288","0.0-292.0-2.0","null","<p></p>","null","","","","","","","",""
"","image","447","558487","0.0-293.0-0.0","1197.6000000000931","run_exp/static/images/Set 6_rs/148a.jpg","86","","","","","","test","TR","2"
"","show_choice","448","558997","0.0-293.0-1.0","null","run_exp/static/images/Set 6_rs/148a.jpg","null","","","","","","test","TR",""
"","html-keyboard-response","449","559499","0.0-293.0-2.0","null","<p></p>","null","","","","","","","",""
"","image","450","560415","0.0-294.0-0.0","913.8000000000466","run_exp/static/images/Set 6_rs/112a.jpg","86","","","","","","test","TR","5"
"","show_choice","451","560930","0.0-294.0-1.0","null","run_exp/static/images/Set 6_rs/112a.jpg","null","","","","","","test","TR",""
"","html-keyboard-response","452","561433","0.0-294.0-2.0","null","<p></p>","null","","","","","","","",""
"","image","453","562178","0.0-295.0-0.0","744","run_exp/static/images/Set 6_rs/123b.jpg","86","","","","","","test","TL","2"
"","show_choice","454","562686","0.0-295.0-1.0","null","run_exp/static/images/Set 6_rs/123b.jpg","null","","","","","","test","TL",""
"","html-keyboard-response","455","563203","0.0-295.0-2.0","null","<p></p>","null","","","","","","","",""
"","image","456","564718","0.0-296.0-0.0","1512.5","run_exp/static/images/Set 6_rs/116b.jpg","66","","","","","","test","TL","2"
"","show_choice","457","565228","0.0-296.0-1.0","null","run_exp/static/images/Set 6_rs/116b.jpg","null","","","","","","test","TL",""
"","html-keyboard-response","458","565731","0.0-296.0-2.0","null","<p></p>","null","","","","","","","",""
"","image","459","567241","0.0-297.0-0.0","1508.3000000000466","run_exp/static/images/Set 6_rs/015a.jpg","86","","","","","","test","TF","4"
"","show_choice","460","567742","0.0-297.0-1.0","null","run_exp/static/images/Set 6_rs/015a.jpg","null","","","","","","test","TF",""
"","html-keyboard-response","461","568244","0.0-297.0-2.0","null","<p></p>","null","","","","","","","",""
"","image","462","569785","0.0-298.0-0.0","1538.9000000001397","run_exp/static/images/Set 6_rs/065a.jpg","78","","","","","","test","TF","3"
"","show_choice","463","570291","0.0-298.0-1.0","null","run_exp/static/images/Set 6_rs/065a.jpg","null","","","","","","test","TF",""
"","html-keyboard-response","464","570793","0.0-298.0-2.0","null","<p></p>","null","","","","","","","",""
"","image","465","571713","0.0-299.0-0.0","918.8999999999069","run_exp/static/images/Set 6_rs/036b.jpg","78","","","","","","test","TL","4"
"","show_choice","466","572215","0.0-299.0-1.0","null","run_exp/static/images/Set 6_rs/036b.jpg","null","","","","","","test","TL",""
"","html-keyboard-response","467","572718","0.0-299.0-2.0","null","<p></p>","null","","","","","","","",""
"","image","468","574396","0.0-300.0-0.0","1676.6999999999534","run_exp/static/images/Set 6_rs/016b.jpg","66","","","","","","test","TL","1"
"","show_choice","469","574899","0.0-300.0-1.0","null","run_exp/static/images/Set 6_rs/016b.jpg","null","","","","","","test","TL",""
"","html-keyboard-response","470","575402","0.0-300.0-2.0","null","<p></p>","null","","","","","","","",""
"","image","471","576516","0.0-301.0-0.0","1112.0999999998603","run_exp/static/images/Set 6_rs/061a.jpg","86","","","","","","test","TR","5"
"","show_choice","472","577027","0.0-301.0-1.0","null","run_exp/static/images/Set 6_rs/061a.jpg","null","","","","","","test","TR",""
"","html-keyboard-response","473","577530","0.0-301.0-2.0","null","<p></p>","null","","","","","","","",""
"","image","474","578197","0.0-302.0-0.0","664.6999999999534","run_exp/static/images/Set 6_rs/007a.jpg","86","","","","","","test","TR","3"
"","show_choice","475","578699","0.0-302.0-1.0","null","run_exp/static/images/Set 6_rs/007a.jpg","null","","","","","","test","TR",""
"","html-keyboard-response","476","579201","0.0-302.0-2.0","null","<p></p>","null","","","","","","","",""
"","image","477","580703","0.0-303.0-0.0","1499.9000000001397","run_exp/static/images/Set 6_rs/056a.jpg","78","","","","","","test","TF","3"
"","show_choice","478","581215","0.0-303.0-1.0","null","run_exp/static/images/Set 6_rs/056a.jpg","null","","","","","","test","TF",""
"","html-keyboard-response","479","581718","0.0-303.0-2.0","null","<p></p>","null","","","","","","","",""
"","image","480","583334","0.0-304.0-0.0","1614.8999999999069","run_exp/static/images/Set 6_rs/006b.jpg","86","","","","","","test","TL","2"
"","show_choice","481","583853","0.0-304.0-1.0","null","run_exp/static/images/Set 6_rs/006b.jpg","null","","","","","","test","TL",""
"","html-keyboard-response","482","584355","0.0-304.0-2.0","null","<p></p>","null","","","","","","","",""
"","image","483","586124","0.0-305.0-0.0","1767.1999999999534","run_exp/static/images/Set 6_rs/111b.jpg","86","","","","","","test","TL","3"
"","show_choice","484","586630","0.0-305.0-1.0","null","run_exp/static/images/Set 6_rs/111b.jpg","null","","","","","","test","TL",""
"","html-keyboard-response","485","587134","0.0-305.0-2.0","null","<p></p>","null","","","","","","","",""
"","image","486","587828","0.0-306.0-0.0","692.6000000000931","run_exp/static/images/Set 6_rs/001a.jpg","78","","","","","","test","TF","1"
"","show_choice","487","588340","0.0-306.0-1.0","null","run_exp/static/images/Set 6_rs/001a.jpg","null","","","","","","test","TF",""
"","html-keyboard-response","488","588843","0.0-306.0-2.0","null","<p></p>","null","","","","","","","",""
"","image","489","589416","0.0-307.0-0.0","571.5","run_exp/static/images/Set 6_rs/086a.jpg","78","","","","","","test","TF","1"
"","show_choice","490","589918","0.0-307.0-1.0","null","run_exp/static/images/Set 6_rs/086a.jpg","null","","","","","","test","TF",""
"","html-keyboard-response","491","590421","0.0-307.0-2.0","null","<p></p>","null","","","","","","","",""
"","image","492","591717","0.0-308.0-0.0","1294.1999999999534","run_exp/static/images/Set 6_rs/025b.jpg","66","","","","","","test","TL","5"
"","show_choice","493","592232","0.0-308.0-1.0","null","run_exp/static/images/Set 6_rs/025b.jpg","null","","","","","","test","TL",""
"","html-keyboard-response","494","592735","0.0-308.0-2.0","null","<p></p>","null","","","","","","","",""
"","image","495","593808","0.0-309.0-0.0","1071.3000000000466","run_exp/static/images/Set 6_rs/075a.jpg","86","","","","","","test","TR","1"
"","show_choice","496","594313","0.0-309.0-1.0","null","run_exp/static/images/Set 6_rs/075a.jpg","null","","","","","","test","TR",""
"","html-keyboard-response","497","594815","0.0-309.0-2.0","null","<p></p>","null","","","","","","","",""
"","image","498","596306","0.0-310.0-0.0","1489.2999999998137","run_exp/static/images/Set 6_rs/091b.jpg","86","","","","","","test","TL","3"
"","show_choice","499","596825","0.0-310.0-1.0","null","run_exp/static/images/Set 6_rs/091b.jpg","null","","","","","","test","TL",""
"","html-keyboard-response","500","597328","0.0-310.0-2.0","null","<p></p>","null","","","","","","","",""
"","image","501","598134","0.0-311.0-0.0","805.1999999999534","run_exp/static/images/Set 6_rs/010a.jpg","86","","","","","","test","TR","5"
"","show_choice","502","598651","0.0-311.0-1.0","null","run_exp/static/images/Set 6_rs/010a.jpg","null","","","","","","test","TR",""
"","html-keyboard-response","503","599154","0.0-311.0-2.0","null","<p></p>","null","","","","","","","",""
"","image","504","599925","0.0-312.0-0.0","769.4000000001397","run_exp/static/images/Set 6_rs/177a.jpg","86","","","","","","test","TR","5"
"","show_choice","505","600447","0.0-312.0-1.0","null","run_exp/static/images/Set 6_rs/177a.jpg","null","","","","","","test","TR",""
"","html-keyboard-response","506","600948","0.0-312.0-2.0","null","<p></p>","null","","","","","","","",""
"","image","507","602247","0.0-313.0-0.0","1297.5","run_exp/static/images/Set 6_rs/136a.jpg","78","","","","","","test","TF","4"
"","show_choice","508","602757","0.0-313.0-1.0","null","run_exp/static/images/Set 6_rs/136a.jpg","null","","","","","","test","TF",""
"","html-keyboard-response","509","603260","0.0-313.0-2.0","null","<p></p>","null","","","","","","","",""
"","image","510","605210","0.0-314.0-0.0","1948.8999999999069","run_exp/static/images/Set 6_rs/100a.jpg","78","","","","","","test","TF","2"
"","show_choice","511","605721","0.0-314.0-1.0","null","run_exp/static/images/Set 6_rs/100a.jpg","null","","","","","","test","TF",""
"","html-keyboard-response","512","606223","0.0-314.0-2.0","null","<p></p>","null","","","","","","","",""
"","all_done","513","613519","0.0-315.0-0.0","null","run_exp/static/audio/clip_23_all_done.m4a","null","","","","","<div class='center'><p>You are finished with all three parts of the experiment! You can press the space bar to end the game now. </p></div>","","",""
"","html-keyboard-response","514","614551","0.0-315.0-1.0","1030.6999999999534","<div class='center'><p>You are finished with all three parts of the experiment! You can press the space bar to end the game now. </p><div><p><b>[Press the space bar to continue]</b></p></div>","32","","","","","","","",""
