"success","trial_type","trial_index","time_elapsed","internal_node_id","rt","stimulus","key_press","subject_id","participant_id","age","gender","prompt","phase","condition","lure_bin"
"true","fullscreen","0","3681","0.0-0.0","","","","","","","","","","",""
"","pavlovia","1","3689","0.0-1.0","","","","","","","","","","",""
"","welcome","2","39401","0.0-2.0","null","run_exp/static/audio/clip_1_welcome.m4a","null","128","148","9","Male","<div class='center'><p>This is your last game of the experiment! First, you'll be shown pictures of items one at a time. For each picture, you have to decide if the item is typically found indoors or outdoors.</p><p>If you think it's usually found indoors, then press <b>v</b> key on your keyboard. If you think it's usually found outdoors, then press the <b>n</b> key.There will be reminders on the screen to help you remember which keys to press. </p><p>If you're not sure whether the item is an indoor item or outdoor item, go ahead and take a guess but try your best not to skip that choice. </p></div>","","",""
"","html-keyboard-response","3","39738","0.0-3.0","330.20000000298023","<div class='center'><p>This is your last game of the experiment! First, you'll be shown pictures of items one at a time. For each picture, you have to decide if the item is typically found indoors or outdoors.</p><p>If you think it's usually found indoors, then press <b>v</b> key on your keyboard. If you think it's usually found outdoors, then press the <b>n</b> key.There will be reminders on the screen to help you remember which keys to press. </p><p>If you're not sure whether the item is an indoor item or outdoor item, go ahead and take a guess but try your best not to skip that choice. </p><div><p><b>[Press the space bar to continue]</b></p></div>","32","","","","","","","",""
"","image","4","41056","0.0-4.0","1315.5","run_exp/static/images/Set 6_rs/122a.jpg","86","","","","","","learn","SR",""
"","show_choice","5","41743","0.0-5.0","null","run_exp/static/images/Set 6_rs/122a.jpg","null","","","","","","learn","SR",""
"","html-keyboard-response","6","42250","0.0-6.0","null","<p></p>","null","","","","","","","",""
"","image","7","42965","0.0-7.0","714.2000000029802","run_exp/static/images/Set 6_rs/010a.jpg","86","","","","","","learn","SR",""
"","show_choice","8","44253","0.0-8.0","null","run_exp/static/images/Set 6_rs/010a.jpg","null","","","","","","learn","SR",""
"","html-keyboard-response","9","44755","0.0-9.0","null","<p></p>","null","","","","","","","",""
"","image","10","45380","0.0-10.0","623.5999999940395","run_exp/static/images/Set 6_rs/111a.jpg","78","","","","","","learn","SL",""
"","show_choice","11","46762","0.0-11.0","null","run_exp/static/images/Set 6_rs/111a.jpg","null","","","","","","learn","SL",""
"","html-keyboard-response","12","47268","0.0-12.0","null","<p></p>","null","","","","","","","",""
"","image","13","47778","0.0-13.0","507","run_exp/static/images/Set 6_rs/023a.jpg","86","","","","","","learn","SR",""
"","show_choice","14","49273","0.0-14.0","null","run_exp/static/images/Set 6_rs/023a.jpg","null","","","","","","learn","SR",""
"","html-keyboard-response","15","49774","0.0-15.0","null","<p></p>","null","","","","","","","",""
"","image","16","50845","0.0-16.0","1070.1000000089407","run_exp/static/images/Set 6_rs/116a.jpg","86","","","","","","learn","SL",""
"","show_choice","17","51780","0.0-17.0","null","run_exp/static/images/Set 6_rs/116a.jpg","null","","","","","","learn","SL",""
"","html-keyboard-response","18","52284","0.0-18.0","null","<p></p>","null","","","","","","","",""
"","image","19","53292","0.0-19.0","1006.9000000059605","run_exp/static/images/Set 6_rs/064a.jpg","78","","","","","","learn","SR",""
"","show_choice","20","54286","0.0-20.0","null","run_exp/static/images/Set 6_rs/064a.jpg","null","","","","","","learn","SR",""
"","html-keyboard-response","21","54789","0.0-21.0","null","<p></p>","null","","","","","","","",""
"","image","22","55993","0.0-22.0","1202.8999999910593","run_exp/static/images/Set 6_rs/148a.jpg","86","","","","","","learn","SR",""
"","show_choice","23","56793","0.0-23.0","null","run_exp/static/images/Set 6_rs/148a.jpg","null","","","","","","learn","SR",""
"","html-keyboard-response","24","57297","0.0-24.0","null","<p></p>","null","","","","","","","",""
"","image","25","58385","0.0-25.0","1087.300000011921","run_exp/static/images/Set 6_rs/036a.jpg","78","","","","","","learn","SL",""
"","show_choice","26","59303","0.0-26.0","null","run_exp/static/images/Set 6_rs/036a.jpg","null","","","","","","learn","SL",""
"","html-keyboard-response","27","59805","0.0-27.0","null","<p></p>","null","","","","","","","",""
"","image","28","60921","0.0-28.0","1114.2000000029802","run_exp/static/images/Set 6_rs/177a.jpg","78","","","","","","learn","SR",""
"","show_choice","29","61812","0.0-29.0","null","run_exp/static/images/Set 6_rs/177a.jpg","null","","","","","","learn","SR",""
"","html-keyboard-response","30","62318","0.0-30.0","null","<p></p>","null","","","","","","","",""
"","image","31","63367","0.0-31.0","1047","run_exp/static/images/Set 6_rs/057a.jpg","86","","","","","","learn","SL",""
"","show_choice","32","64325","0.0-32.0","null","run_exp/static/images/Set 6_rs/057a.jpg","null","","","","","","learn","SL",""
"","html-keyboard-response","33","64826","0.0-33.0","null","<p></p>","null","","","","","","","",""
"","image","34","65949","0.0-34.0","1121.7999999970198","run_exp/static/images/Set 6_rs/075a.jpg","86","","","","","","learn","SR",""
"","show_choice","35","66829","0.0-35.0","null","run_exp/static/images/Set 6_rs/075a.jpg","null","","","","","","learn","SR",""
"","html-keyboard-response","36","67333","0.0-36.0","null","<p></p>","null","","","","","","","",""
"","image","37","68625","0.0-37.0","1290.5","run_exp/static/images/Set 6_rs/150a.jpg","86","","","","","","learn","SR",""
"","show_choice","38","69336","0.0-38.0","null","run_exp/static/images/Set 6_rs/150a.jpg","null","","","","","","learn","SR",""
"","html-keyboard-response","39","69837","0.0-39.0","null","<p></p>","null","","","","","","","",""
"","image","40","71016","0.0-40.0","1178.1000000089407","run_exp/static/images/Set 6_rs/062a.jpg","86","","","","","","learn","SL",""
"","show_choice","41","71841","0.0-41.0","null","run_exp/static/images/Set 6_rs/062a.jpg","null","","","","","","learn","SL",""
"","html-keyboard-response","42","72342","0.0-42.0","null","<p></p>","null","","","","","","","",""
"","image","43","73465","0.0-43.0","1121.8999999910593","run_exp/static/images/Set 6_rs/134a.jpg","86","","","","","","learn","SR",""
"","show_choice","44","74348","0.0-44.0","null","run_exp/static/images/Set 6_rs/134a.jpg","null","","","","","","learn","SR",""
"","html-keyboard-response","45","74852","0.0-45.0","null","<p></p>","null","","","","","","","",""
"","image","46","75918","0.0-46.0","1064.0999999940395","run_exp/static/images/Set 6_rs/144a.jpg","86","","","","","","learn","SL",""
"","show_choice","47","76857","0.0-47.0","null","run_exp/static/images/Set 6_rs/144a.jpg","null","","","","","","learn","SL",""
"","html-keyboard-response","48","77363","0.0-48.0","null","<p></p>","null","","","","","","","",""
"","image","49","78540","0.0-49.0","1175.6000000089407","run_exp/static/images/Set 6_rs/016a.jpg","86","","","","","","learn","SL",""
"","show_choice","50","79369","0.0-50.0","null","run_exp/static/images/Set 6_rs/016a.jpg","null","","","","","","learn","SL",""
"","html-keyboard-response","51","79874","0.0-51.0","null","<p></p>","null","","","","","","","",""
"","image","52","80947","0.0-52.0","1071","run_exp/static/images/Set 6_rs/066a.jpg","86","","","","","","learn","SL",""
"","show_choice","53","81881","0.0-53.0","null","run_exp/static/images/Set 6_rs/066a.jpg","null","","","","","","learn","SL",""
"","html-keyboard-response","54","82387","0.0-54.0","null","<p></p>","null","","","","","","","",""
"","image","55","83498","0.0-55.0","1109.2000000029802","run_exp/static/images/Set 6_rs/152a.jpg","86","","","","","","learn","SR",""
"","show_choice","56","84390","0.0-56.0","null","run_exp/static/images/Set 6_rs/152a.jpg","null","","","","","","learn","SR",""
"","html-keyboard-response","57","84895","0.0-57.0","null","<p></p>","null","","","","","","","",""
"","image","58","86346","0.0-58.0","1449.7000000029802","run_exp/static/images/Set 6_rs/126a.jpg","78","","","","","","learn","SR",""
"","show_choice","59","86902","0.0-59.0","null","run_exp/static/images/Set 6_rs/126a.jpg","null","","","","","","learn","SR",""
"","html-keyboard-response","60","87408","0.0-60.0","null","<p></p>","null","","","","","","","",""
"","image","61","89154","0.0-61.0","1744.5","run_exp/static/images/Set 6_rs/117a.jpg","78","","","","","","learn","SL",""
"","show_choice","62","89414","0.0-62.0","null","run_exp/static/images/Set 6_rs/117a.jpg","null","","","","","","learn","SL",""
"","html-keyboard-response","63","89920","0.0-63.0","null","<p></p>","null","","","","","","","",""
"","image","64","91207","0.0-64.0","1284.8999999910593","run_exp/static/images/Set 6_rs/019a.jpg","86","","","","","","learn","SL",""
"","show_choice","65","91924","0.0-65.0","null","run_exp/static/images/Set 6_rs/019a.jpg","null","","","","","","learn","SL",""
"","html-keyboard-response","66","92430","0.0-66.0","null","<p></p>","null","","","","","","","",""
"","image","67","93806","0.0-67.0","1374.4000000059605","run_exp/static/images/Set 6_rs/067a.jpg","78","","","","","","learn","SL",""
"","show_choice","68","94433","0.0-68.0","null","run_exp/static/images/Set 6_rs/067a.jpg","null","","","","","","learn","SL",""
"","html-keyboard-response","69","94939","0.0-69.0","null","<p></p>","null","","","","","","","",""
"","image","70","95924","0.0-70.0","983.3999999910593","run_exp/static/images/Set 6_rs/085a.jpg","86","","","","","","learn","SL",""
"","show_choice","71","96942","0.0-71.0","null","run_exp/static/images/Set 6_rs/085a.jpg","null","","","","","","learn","SL",""
"","html-keyboard-response","72","97447","0.0-72.0","null","<p></p>","null","","","","","","","",""
"","image","73","98617","0.0-73.0","1168.2999999970198","run_exp/static/images/Set 6_rs/172a.jpg","86","","","","","","learn","SR",""
"","show_choice","74","99451","0.0-74.0","null","run_exp/static/images/Set 6_rs/172a.jpg","null","","","","","","learn","SR",""
"","html-keyboard-response","75","99954","0.0-75.0","null","<p></p>","null","","","","","","","",""
"","image","76","100981","0.0-76.0","1024.7999999970198","run_exp/static/images/Set 6_rs/060a.jpg","78","","","","","","learn","SL",""
"","show_choice","77","101957","0.0-77.0","null","run_exp/static/images/Set 6_rs/060a.jpg","null","","","","","","learn","SL",""
"","html-keyboard-response","78","102464","0.0-78.0","null","<p></p>","null","","","","","","","",""
"","image","79","103280","0.0-79.0","814.9000000059605","run_exp/static/images/Set 6_rs/108a.jpg","78","","","","","","learn","SR",""
"","show_choice","80","104467","0.0-80.0","null","run_exp/static/images/Set 6_rs/108a.jpg","null","","","","","","learn","SR",""
"","html-keyboard-response","81","104972","0.0-81.0","null","<p></p>","null","","","","","","","",""
"","image","82","106217","0.0-82.0","1243.9000000059605","run_exp/static/images/Set 6_rs/008a.jpg","78","","","","","","learn","SL",""
"","show_choice","83","106977","0.0-83.0","null","run_exp/static/images/Set 6_rs/008a.jpg","null","","","","","","learn","SL",""
"","html-keyboard-response","84","107481","0.0-84.0","null","<p></p>","null","","","","","","","",""
"","image","85","108773","0.0-85.0","1289.9000000059605","run_exp/static/images/Set 6_rs/167a.jpg","86","","","","","","learn","SL",""
"","show_choice","86","109488","0.0-86.0","null","run_exp/static/images/Set 6_rs/167a.jpg","null","","","","","","learn","SL",""
"","html-keyboard-response","87","109989","0.0-87.0","null","<p></p>","null","","","","","","","",""
"","image","88","111071","0.0-88.0","1080.199999988079","run_exp/static/images/Set 6_rs/063a.jpg","86","","","","","","learn","SR",""
"","show_choice","89","111995","0.0-89.0","null","run_exp/static/images/Set 6_rs/063a.jpg","null","","","","","","learn","SR",""
"","html-keyboard-response","90","112500","0.0-90.0","null","<p></p>","null","","","","","","","",""
"","image","91","113925","0.0-91.0","1423.7999999970198","run_exp/static/images/Set 6_rs/024a.jpg","86","","","","","","learn","SR",""
"","show_choice","92","114507","0.0-92.0","null","run_exp/static/images/Set 6_rs/024a.jpg","null","","","","","","learn","SR",""
"","html-keyboard-response","93","115010","0.0-93.0","null","<p></p>","null","","","","","","","",""
"","image","94","116656","0.0-94.0","1643.300000011921","run_exp/static/images/Set 6_rs/055a.jpg","86","","","","","","learn","SL",""
"","show_choice","95","117013","0.0-95.0","null","run_exp/static/images/Set 6_rs/055a.jpg","null","","","","","","learn","SL",""
"","html-keyboard-response","96","117519","0.0-96.0","null","<p></p>","null","","","","","","","",""
"","image","97","118749","0.0-97.0","1228.5999999940395","run_exp/static/images/Set 6_rs/089a.jpg","78","","","","","","learn","SL",""
"","show_choice","98","119522","0.0-98.0","null","run_exp/static/images/Set 6_rs/089a.jpg","null","","","","","","learn","SL",""
"","html-keyboard-response","99","120024","0.0-99.0","null","<p></p>","null","","","","","","","",""
"","image","100","121040","0.0-100.0","1014.7999999970198","run_exp/static/images/Set 6_rs/123a.jpg","78","","","","","","learn","SL",""
"","show_choice","101","122027","0.0-101.0","null","run_exp/static/images/Set 6_rs/123a.jpg","null","","","","","","learn","SL",""
"","html-keyboard-response","102","122533","0.0-102.0","null","<p></p>","null","","","","","","","",""
"","image","103","122934","0.0-103.0","400.40000000596046","run_exp/static/images/Set 6_rs/017a.jpg","78","","","","","","learn","SL",""
"","show_choice","104","124538","0.0-104.0","null","run_exp/static/images/Set 6_rs/017a.jpg","null","","","","","","learn","SL",""
"","html-keyboard-response","105","125040","0.0-105.0","null","<p></p>","null","","","","","","","",""
"","image","106","125680","0.0-106.0","637.8999999910593","run_exp/static/images/Set 6_rs/138a.jpg","86","","","","","","learn","SL",""
"","show_choice","107","127047","0.0-107.0","null","run_exp/static/images/Set 6_rs/138a.jpg","null","","","","","","learn","SL",""
"","html-keyboard-response","108","127549","0.0-108.0","null","<p></p>","null","","","","","","","",""
"","image","109","128764","0.0-109.0","1214.0999999940395","run_exp/static/images/Set 6_rs/061a.jpg","78","","","","","","learn","SR",""
"","show_choice","110","129556","0.0-110.0","null","run_exp/static/images/Set 6_rs/061a.jpg","null","","","","","","learn","SR",""
"","html-keyboard-response","111","130060","0.0-111.0","null","<p></p>","null","","","","","","","",""
"","image","112","131241","0.0-112.0","1178.7000000029802","run_exp/static/images/Set 6_rs/095a.jpg","78","","","","","","learn","SL",""
"","show_choice","113","132064","0.0-113.0","null","run_exp/static/images/Set 6_rs/095a.jpg","null","","","","","","learn","SL",""
"","html-keyboard-response","114","132566","0.0-114.0","null","<p></p>","null","","","","","","","",""
"","image","115","133578","0.0-115.0","1010.5","run_exp/static/images/Set 6_rs/129a.jpg","86","","","","","","learn","SL",""
"","show_choice","116","134569","0.0-116.0","null","run_exp/static/images/Set 6_rs/129a.jpg","null","","","","","","learn","SL",""
"","html-keyboard-response","117","135075","0.0-117.0","null","<p></p>","null","","","","","","","",""
"","image","118","136219","0.0-118.0","1142.5999999940395","run_exp/static/images/Set 6_rs/025a.jpg","86","","","","","","learn","SL",""
"","show_choice","119","137082","0.0-119.0","null","run_exp/static/images/Set 6_rs/025a.jpg","null","","","","","","learn","SL",""
"","html-keyboard-response","120","137586","0.0-120.0","null","<p></p>","null","","","","","","","",""
"","image","121","138318","0.0-121.0","730.1000000089407","run_exp/static/images/Set 6_rs/091a.jpg","86","","","","","","learn","SL",""
"","show_choice","122","139593","0.0-122.0","null","run_exp/static/images/Set 6_rs/091a.jpg","null","","","","","","learn","SL",""
"","html-keyboard-response","123","140099","0.0-123.0","null","<p></p>","null","","","","","","","",""
"","image","124","141793","0.0-124.0","1692.7999999970198","run_exp/static/images/Set 6_rs/074a.jpg","78","","","","","","learn","SL",""
"","show_choice","125","142102","0.0-125.0","null","run_exp/static/images/Set 6_rs/074a.jpg","null","","","","","","learn","SL",""
"","html-keyboard-response","126","142608","0.0-126.0","null","<p></p>","null","","","","","","","",""
"","image","127","144615","0.0-127.0","null","run_exp/static/images/Set 6_rs/181a.jpg","null","","","","","","learn","SL",""
"","show_choice","128","146621","0.0-128.0","null","run_exp/static/images/blank.png","null","","","","","","learn","SL",""
"","html-keyboard-response","129","147126","0.0-129.0","null","<p></p>","null","","","","","","","",""
"","image","130","148403","0.0-130.0","1275.0999999940395","run_exp/static/images/Set 6_rs/166a.jpg","86","","","","","","learn","SR",""
"","show_choice","131","149130","0.0-131.0","null","run_exp/static/images/Set 6_rs/166a.jpg","null","","","","","","learn","SR",""
"","html-keyboard-response","132","149636","0.0-132.0","null","<p></p>","null","","","","","","","",""
"","image","133","150640","0.0-133.0","1002.4000000059605","run_exp/static/images/Set 6_rs/071a.jpg","86","","","","","","learn","SL",""
"","show_choice","134","151641","0.0-134.0","null","run_exp/static/images/Set 6_rs/071a.jpg","null","","","","","","learn","SL",""
"","html-keyboard-response","135","152147","0.0-135.0","null","<p></p>","null","","","","","","","",""
"","image","136","152980","0.0-136.0","831.7999999970198","run_exp/static/images/Set 6_rs/007a.jpg","86","","","","","","learn","SR",""
"","show_choice","137","154153","0.0-137.0","null","run_exp/static/images/Set 6_rs/007a.jpg","null","","","","","","learn","SR",""
"","html-keyboard-response","138","154659","0.0-138.0","null","<p></p>","null","","","","","","","",""
"","image","139","155701","0.0-139.0","1040.1000000089407","run_exp/static/images/Set 6_rs/132a.jpg","78","","","","","","learn","SR",""
"","show_choice","140","156666","0.0-140.0","null","run_exp/static/images/Set 6_rs/132a.jpg","null","","","","","","learn","SR",""
"","html-keyboard-response","141","157168","0.0-141.0","null","<p></p>","null","","","","","","","",""
"","image","142","158355","0.0-142.0","1186","run_exp/static/images/Set 6_rs/121a.jpg","78","","","","","","learn","SR",""
"","show_choice","143","159172","0.0-143.0","null","run_exp/static/images/Set 6_rs/121a.jpg","null","","","","","","learn","SR",""
"","html-keyboard-response","144","159677","0.0-144.0","null","<p></p>","null","","","","","","","",""
"","image","145","160516","0.0-145.0","836.3999999910593","run_exp/static/images/Set 6_rs/076a.jpg","78","","","","","","learn","SR",""
"","show_choice","146","161685","0.0-146.0","null","run_exp/static/images/Set 6_rs/076a.jpg","null","","","","","","learn","SR",""
"","html-keyboard-response","147","162192","0.0-147.0","null","<p></p>","null","","","","","","","",""
"","image","148","163255","0.0-148.0","1060.2000000029802","run_exp/static/images/Set 6_rs/154a.jpg","86","","","","","","learn","SR",""
"","show_choice","149","164200","0.0-149.0","null","run_exp/static/images/Set 6_rs/154a.jpg","null","","","","","","learn","SR",""
"","html-keyboard-response","150","164702","0.0-150.0","null","<p></p>","null","","","","","","","",""
"","image","151","166054","0.0-151.0","1349.5","run_exp/static/images/Set 6_rs/045a.jpg","86","","","","","","learn","SR",""
"","show_choice","152","166708","0.0-152.0","null","run_exp/static/images/Set 6_rs/045a.jpg","null","","","","","","learn","SR",""
"","html-keyboard-response","153","167213","0.0-153.0","null","<p></p>","null","","","","","","","",""
"","image","154","168663","0.0-154.0","1447.4000000059605","run_exp/static/images/Set 6_rs/073a.jpg","86","","","","","","learn","SL",""
"","show_choice","155","169217","0.0-155.0","null","run_exp/static/images/Set 6_rs/073a.jpg","null","","","","","","learn","SL",""
"","html-keyboard-response","156","169723","0.0-156.0","null","<p></p>","null","","","","","","","",""
"","image","157","170379","0.0-157.0","653.5","run_exp/static/images/Set 6_rs/112a.jpg","78","","","","","","learn","SR",""
"","show_choice","158","171729","0.0-158.0","null","run_exp/static/images/Set 6_rs/112a.jpg","null","","","","","","learn","SR",""
"","html-keyboard-response","159","172233","0.0-159.0","null","<p></p>","null","","","","","","","",""
"","image","160","172550","0.0-160.0","315","run_exp/static/images/Set 6_rs/131a.jpg","86","","","","","","learn","SR",""
"","show_choice","161","174241","0.0-161.0","null","run_exp/static/images/Set 6_rs/131a.jpg","null","","","","","","learn","SR",""
"","html-keyboard-response","162","174748","0.0-162.0","null","<p></p>","null","","","","","","","",""
"","image","163","175799","0.0-163.0","1049.2999999970198","run_exp/static/images/Set 6_rs/169a.jpg","78","","","","","","learn","SR",""
"","show_choice","164","176755","0.0-164.0","null","run_exp/static/images/Set 6_rs/169a.jpg","null","","","","","","learn","SR",""
"","html-keyboard-response","165","177260","0.0-165.0","null","<p></p>","null","","","","","","","",""
"","image","166","177965","0.0-166.0","703","run_exp/static/images/Set 6_rs/187a.jpg","86","","","","","","learn","SR",""
"","show_choice","167","179266","0.0-167.0","null","run_exp/static/images/Set 6_rs/187a.jpg","null","","","","","","learn","SR",""
"","html-keyboard-response","168","179768","0.0-168.0","null","<p></p>","null","","","","","","","",""
"","image","169","180606","0.0-169.0","836.1999999880791","run_exp/static/images/Set 6_rs/006a.jpg","86","","","","","","learn","SL",""
"","show_choice","170","181775","0.0-170.0","null","run_exp/static/images/Set 6_rs/006a.jpg","null","","","","","","learn","SL",""
"","html-keyboard-response","171","182281","0.0-171.0","null","<p></p>","null","","","","","","","",""
"","image","172","182888","0.0-172.0","605.3000000119209","run_exp/static/images/Set 6_rs/178a.jpg","78","","","","","","learn","SR",""
"","show_choice","173","184285","0.0-173.0","null","run_exp/static/images/Set 6_rs/178a.jpg","null","","","","","","learn","SR",""
"","html-keyboard-response","174","184791","0.0-174.0","null","<p></p>","null","","","","","","","",""
"","image","175","185586","0.0-175.0","793.2000000029802","run_exp/static/images/Set 6_rs/088a.jpg","78","","","","","","learn","SR",""
"","show_choice","176","186794","0.0-176.0","null","run_exp/static/images/Set 6_rs/088a.jpg","null","","","","","","learn","SR",""
"","html-keyboard-response","177","187298","0.0-177.0","null","<p></p>","null","","","","","","","",""
"","image","178","187635","0.0-178.0","335.40000000596046","run_exp/static/images/Set 6_rs/141a.jpg","86","","","","","","learn","SR",""
"","show_choice","179","189301","0.0-179.0","null","run_exp/static/images/Set 6_rs/141a.jpg","null","","","","","","learn","SR",""
"","html-keyboard-response","180","189807","0.0-180.0","null","<p></p>","null","","","","","","","",""
"","image","181","190738","0.0-181.0","929.5","run_exp/static/images/Set 6_rs/168a.jpg","86","","","","","","learn","SL",""
"","show_choice","182","191814","0.0-182.0","null","run_exp/static/images/Set 6_rs/168a.jpg","null","","","","","","learn","SL",""
"","html-keyboard-response","183","192318","0.0-183.0","null","<p></p>","null","","","","","","","",""
"","image","184","192882","0.0-184.0","562","run_exp/static/images/Set 6_rs/079a.jpg","78","","","","","","learn","SL",""
"","show_choice","185","194322","0.0-185.0","null","run_exp/static/images/Set 6_rs/079a.jpg","null","","","","","","learn","SL",""
"","html-keyboard-response","186","194828","0.0-186.0","null","<p></p>","null","","","","","","","",""
"","image","187","195750","0.0-187.0","920.5999999940395","run_exp/static/images/Set 6_rs/191a.jpg","86","","","","","","learn","SL",""
"","show_choice","188","196831","0.0-188.0","null","run_exp/static/images/Set 6_rs/191a.jpg","null","","","","","","learn","SL",""
"","html-keyboard-response","189","197337","0.0-189.0","null","<p></p>","null","","","","","","","",""
"","image","190","198127","0.0-190.0","787.8999999910593","run_exp/static/images/Set 6_rs/186a.jpg","86","","","","","","learn","SR",""
"","show_choice","191","199341","0.0-191.0","null","run_exp/static/images/Set 6_rs/186a.jpg","null","","","","","","learn","SR",""
"","html-keyboard-response","192","199845","0.0-192.0","null","<p></p>","null","","","","","","","",""
"","image","193","200604","0.0-193.0","757.0999999940395","run_exp/static/images/Set 6_rs/012a.jpg","86","","","","","","learn","SR",""
"","show_choice","194","201852","0.0-194.0","null","run_exp/static/images/Set 6_rs/012a.jpg","null","","","","","","learn","SR",""
"","html-keyboard-response","195","202354","0.0-195.0","null","<p></p>","null","","","","","","","",""
"","test_intro","196","243750","0.0-196.0","null","run_exp/static/audio/clip_2_memory.m4a","null","","","","","<div class='center'><p>Now, let’s see how much you remember about the items you just saw.  For each item, you need to indicate if it was <b>old</b> by pressing the <b>v</b> key, <b>similar</b> by pressing the <b>b</b> key, or <b>new</b> by pressing the <b>n</b> key.</p><p>Old refers to an item that you saw before in the indoor/outdoor game that you just played, new refers to an item you have <b>not</b> seen before within the indoor/outdoor game, and similar refers to an item that is similar to an item you’ve seen before but is not exactly the same. </p><p>Before we begin, let’s go over some brief demonstrations to make sure you understand.</p></div>","","",""
"","html-keyboard-response","197","244400","0.0-197.0","647.8999999910593","<div class='center'><p>Now, let’s see how much you remember about the items you just saw.  For each item, you need to indicate if it was <b>old</b> by pressing the <b>v</b> key, <b>similar</b> by pressing the <b>b</b> key, or <b>new</b> by pressing the <b>n</b> key.</p><p>Old refers to an item that you saw before in the indoor/outdoor game that you just played, new refers to an item you have <b>not</b> seen before within the indoor/outdoor game, and similar refers to an item that is similar to an item you’ve seen before but is not exactly the same. </p><p>Before we begin, let’s go over some brief demonstrations to make sure you understand.</p><div><p><b>[Press the space bar to continue]</b></p></div>","32","","","","","","","",""
"","items","198","251907","0.0-198.0","null","run_exp/static/audio/clip_3_items.m4a","null","","","","","","","",""
"","mop","199","256414","0.0-199.0","null","run_exp/static/audio/clip_4_mop.m4a","null","","","","","","","",""
"","baseball","200","259920","0.0-200.0","null","run_exp/static/audio/clip_5_baseball.m4a","null","","","","","","","",""
"","trumpet","201","263423","0.0-201.0","null","run_exp/static/audio/clip_6_trumpet.m4a","null","","","","","","","",""
"","gummies","202","266928","0.0-202.0","null","run_exp/static/audio/clip_7_gummies.m4a","null","","","","","","","",""
"","osn","203","271435","0.0-203.0","null","run_exp/static/audio/clip_8_osn.m4a","null","","","","","","","",""
"","old_1","204","277943","0.0-204.0","null","run_exp/static/audio/clip_9_old_trumpet.m4a","null","","","","","","","",""
"","new_1","205","285446","0.0-205.0","null","run_exp/static/audio/clip_10_new_balloon.m4a","null","","","","","","","",""
"","similar_1a","206","289953","0.0-206.0","null","run_exp/static/audio/clip_11a_similar_mop.m4a","null","","","","","","","",""
"","similar_1b","207","296458","0.0-207.0","null","run_exp/static/audio/clip_11b_similar_mop.m4a","null","","","","","","","",""
"","new_2","208","299966","0.0-208.0","null","run_exp/static/audio/clip_12_new_stoplight.m4a","null","","","","","","","",""
"","old_2","209","303471","0.0-209.0","null","run_exp/static/audio/clip_13_old_baseball.m4a","null","","","","","","","",""
"","similar_2a","210","306975","0.0-210.0","null","run_exp/static/audio/clip_14a_similar_gummies.m4a","null","","","","","","","",""
"","similar_2b","211","314480","0.0-211.0","null","run_exp/static/audio/clip_14b_similar_gummies.m4a","null","","","","","","","",""
"","practice","212","330201","0.0-212.0","null","run_exp/static/audio/clip_15_practice.m4a","null","","","","","<div class='center'><p>Ok, let’s practice a little to make sure you understand the difference between new, similar, and old. Let’s say you saw these three items in the indoor/outdoor game. Study these because you’ll be tested on them soon in this practice game. </p><p><img src='run_exp/static/images/tutorial/test/three_indoor_outdoor.png' height='300'></p></div>","","",""
"","html-keyboard-response","213","331943","0.0-213.0","1740.5","<div class='center'><p>Ok, let’s practice a little to make sure you understand the difference between new, similar, and old. Let’s say you saw these three items in the indoor/outdoor game. Study these because you’ll be tested on them soon in this practice game. </p><p><img src='run_exp/static/images/tutorial/test/three_indoor_outdoor.png' height='300'></p><div><p><b>[Press the space bar to continue]</b></p></div>","32","","","","","","","",""
"","practice_q1","214","336610","0.0-214.0","4663.79999999702","run_exp/static/audio/clip_16_practice_question.m4a","78","","","","","","","",""
"","correct","215","338490","0.0-215.0-0.0","null","run_exp/static/audio/clip_17_correct.m4a","null","","","","","<div class='center'><p>That's correct!</p></div>","","",""
"","html-keyboard-response","216","339909","0.0-215.0-1.0","1417.8999999910593","<div class='center'><p>That's correct!</p><div><p><b>[Press the space bar to continue]</b></p></div>","32","","","","","","","",""
"","practice_q2","217","342584","0.0-215.0-2.0","2672.3999999910593","run_exp/static/audio/clip_16_practice_question.m4a","78","","","","","","","",""
"","incorrect_q2","218","345596","0.0-216.0-0.0","null","run_exp/static/audio/clip_19_incorrect_old.m4a","null","","","","","<div class='center'><p>That’s incorrect. It’s old.</p></div>","","",""
"","html-keyboard-response","219","346454","0.0-216.0-1.0","856.7999999970198","<div class='center'><p>That’s incorrect. It’s old.</p><div><p><b>[Press the space bar to continue]</b></p></div>","32","","","","","","","",""
"","practice_q3","220","348686","0.0-216.0-2.0","2229.2999999970198","run_exp/static/audio/clip_16_practice_question.m4a","86","","","","","","","",""
"","incorrect_q3","221","351401","0.0-217.0-0.0","null","run_exp/static/audio/clip_20_incorrect_similar.m4a","null","","","","","<div class='center'><p>That’s incorrect. It’s similar.</p><p><img src='run_exp/static/images/tutorial/test/boot_comparison.png' height='300'></p></div>","","",""
"","html-keyboard-response","222","351996","0.0-217.0-1.0","593.2999999970198","<div class='center'><p>That’s incorrect. It’s similar.</p><p><img src='run_exp/static/images/tutorial/test/boot_comparison.png' height='300'></p><div><p><b>[Press the space bar to continue]</b></p></div>","32","","","","","","","",""
"","repeat","223","356719","0.0-218.0-0.0","null","run_exp/static/audio/clip_21_practice_again.m4a","null","","","","","<div class='center'><p>Oops. you missed at least one of these questions. Let's try practiceing again. </p></div>","","",""
"","html-keyboard-response","224","357306","0.0-218.0-1.0","585.7999999970198","<div class='center'><p>Oops. you missed at least one of these questions. Let's try practiceing again. </p><div><p><b>[Press the space bar to continue]</b></p></div>","32","","","","","","","",""
"","practice_q1","225","359109","0.0-218.0-2.0","1800.5","run_exp/static/audio/clip_16_practice_question.m4a","78","","","","","","","",""
"","correct","226","360991","0.0-219.0-0.0","null","run_exp/static/audio/clip_17_correct.m4a","null","","","","","<div class='center'><p>That's correct!</p></div>","","",""
"","html-keyboard-response","227","361900","0.0-219.0-1.0","907.5","<div class='center'><p>That's correct!</p><div><p><b>[Press the space bar to continue]</b></p></div>","32","","","","","","","",""
"","practice_q2","228","362296","0.0-219.0-2.0","393.40000000596046","run_exp/static/audio/clip_16_practice_question.m4a","86","","","","","","","",""
"","correct","229","364172","0.0-220.0-0.0","null","run_exp/static/audio/clip_17_correct.m4a","null","","","","","<div class='center'><p>That's correct!</p></div>","","",""
"","html-keyboard-response","230","364661","0.0-220.0-1.0","487","<div class='center'><p>That's correct!</p><div><p><b>[Press the space bar to continue]</b></p></div>","32","","","","","","","",""
"","practice_q3","231","364842","0.0-220.0-2.0","178.09999999403954","run_exp/static/audio/clip_16_practice_question.m4a","66","","","","","","","",""
"","correct","232","366866","0.0-221.0-0.0","null","run_exp/static/audio/clip_17_correct.m4a","null","","","","","<div class='center'><p>That's correct!</p></div>","","",""
"","html-keyboard-response","233","368861","0.0-221.0-1.0","1993.7000000029802","<div class='center'><p>That's correct!</p><div><p><b>[Press the space bar to continue]</b></p></div>","32","","","","","","","",""
"","begin_text","234","383910","0.0-222.0-0.0","null","run_exp/static/audio/clip_22_begin_test.m4a","null","","","","","<div class='center'><p>Now it’s your turn. For each item, you need to indicate if the item is <b>old</b> by pressing the <b>v</b> key, <b>similar</b> by pressing the <b>b</b> key, or <b>new</b> by pressing the <b>n</b> key. </p></div>","","",""
"","html-keyboard-response","235","384164","0.0-222.0-1.0","252.5","<div class='center'><p>Now it’s your turn. For each item, you need to indicate if the item is <b>old</b> by pressing the <b>v</b> key, <b>similar</b> by pressing the <b>b</b> key, or <b>new</b> by pressing the <b>n</b> key. </p><div><p><b>[Press the space bar to continue]</b></p></div>","32","","","","","","","",""
"","image","236","386280","0.0-223.0-0.0","2114.3999999910593","run_exp/static/images/Set 6_rs/089b.jpg","86","","","","","","test","TL","4"
"","show_choice","237","386782","0.0-223.0-1.0","null","run_exp/static/images/Set 6_rs/089b.jpg","null","","","","","","test","TL",""
"","html-keyboard-response","238","387284","0.0-223.0-2.0","null","<p></p>","null","","","","","","","",""
"","image","239","388568","0.0-224.0-0.0","1282.2000000029802","run_exp/static/images/Set 6_rs/140a.jpg","86","","","","","","test","TF","1"
"","show_choice","240","389070","0.0-224.0-1.0","null","run_exp/static/images/Set 6_rs/140a.jpg","null","","","","","","test","TF",""
"","html-keyboard-response","241","389572","0.0-224.0-2.0","null","<p></p>","null","","","","","","","",""
"","image","242","390706","0.0-225.0-0.0","1132.2000000029802","run_exp/static/images/Set 6_rs/063a.jpg","78","","","","","","test","TR","2"
"","show_choice","243","391208","0.0-225.0-1.0","null","run_exp/static/images/Set 6_rs/063a.jpg","null","","","","","","test","TR",""
"","html-keyboard-response","244","391710","0.0-225.0-2.0","null","<p></p>","null","","","","","","","",""
"","image","245","392933","0.0-226.0-0.0","1221.199999988079","run_exp/static/images/Set 6_rs/166a.jpg","86","","","","","","test","TR","1"
"","show_choice","246","393435","0.0-226.0-1.0","null","run_exp/static/images/Set 6_rs/166a.jpg","null","","","","","","test","TR",""
"","html-keyboard-response","247","393936","0.0-226.0-2.0","null","<p></p>","null","","","","","","","",""
"","image","248","394814","0.0-227.0-0.0","876.1000000089407","run_exp/static/images/Set 6_rs/075a.jpg","86","","","","","","test","TR","1"
"","show_choice","249","395316","0.0-227.0-1.0","null","run_exp/static/images/Set 6_rs/075a.jpg","null","","","","","","test","TR",""
"","html-keyboard-response","250","395818","0.0-227.0-2.0","null","<p></p>","null","","","","","","","",""
"","image","251","396573","0.0-228.0-0.0","752.5","run_exp/static/images/Set 6_rs/176a.jpg","78","","","","","","test","TF","4"
"","show_choice","252","397078","0.0-228.0-1.0","null","run_exp/static/images/Set 6_rs/176a.jpg","null","","","","","","test","TF",""
"","html-keyboard-response","253","397584","0.0-228.0-2.0","null","<p></p>","null","","","","","","","",""
"","image","254","398524","0.0-229.0-0.0","938.2999999970198","run_exp/static/images/Set 6_rs/187a.jpg","86","","","","","","test","TR","3"
"","show_choice","255","399029","0.0-229.0-1.0","null","run_exp/static/images/Set 6_rs/187a.jpg","null","","","","","","test","TR",""
"","html-keyboard-response","256","399530","0.0-229.0-2.0","null","<p></p>","null","","","","","","","",""
"","image","257","400222","0.0-230.0-0.0","690.8999999910593","run_exp/static/images/Set 6_rs/121a.jpg","86","","","","","","test","TR","4"
"","show_choice","258","400724","0.0-230.0-1.0","null","run_exp/static/images/Set 6_rs/121a.jpg","null","","","","","","test","TR",""
"","html-keyboard-response","259","401226","0.0-230.0-2.0","null","<p></p>","null","","","","","","","",""
"","image","260","401865","0.0-231.0-0.0","636.6000000089407","run_exp/static/images/Set 6_rs/116b.jpg","86","","","","","","test","TL","2"
"","show_choice","261","402367","0.0-231.0-1.0","null","run_exp/static/images/Set 6_rs/116b.jpg","null","","","","","","test","TL",""
"","html-keyboard-response","262","402871","0.0-231.0-2.0","null","<p></p>","null","","","","","","","",""
"","image","263","403465","0.0-232.0-0.0","592.5","run_exp/static/images/Set 6_rs/006b.jpg","86","","","","","","test","TL","2"
"","show_choice","264","403970","0.0-232.0-1.0","null","run_exp/static/images/Set 6_rs/006b.jpg","null","","","","","","test","TL",""
"","html-keyboard-response","265","404473","0.0-232.0-2.0","null","<p></p>","null","","","","","","","",""
"","image","266","405267","0.0-233.0-0.0","791.5","run_exp/static/images/Set 6_rs/188a.jpg","86","","","","","","test","TF","3"
"","show_choice","267","405770","0.0-233.0-1.0","null","run_exp/static/images/Set 6_rs/188a.jpg","null","","","","","","test","TF",""
"","html-keyboard-response","268","406276","0.0-233.0-2.0","null","<p></p>","null","","","","","","","",""
"","image","269","407213","0.0-234.0-0.0","934.8999999910593","run_exp/static/images/Set 6_rs/169a.jpg","86","","","","","","test","TR","4"
"","show_choice","270","407718","0.0-234.0-1.0","null","run_exp/static/images/Set 6_rs/169a.jpg","null","","","","","","test","TR",""
"","html-keyboard-response","271","408224","0.0-234.0-2.0","null","<p></p>","null","","","","","","","",""
"","image","272","409193","0.0-235.0-0.0","966.8000000119209","run_exp/static/images/Set 6_rs/129b.jpg","86","","","","","","test","TL","1"
"","show_choice","273","409695","0.0-235.0-1.0","null","run_exp/static/images/Set 6_rs/129b.jpg","null","","","","","","test","TL",""
"","html-keyboard-response","274","410198","0.0-235.0-2.0","null","<p></p>","null","","","","","","","",""
"","image","275","411061","0.0-236.0-0.0","861.2999999970198","run_exp/static/images/Set 6_rs/019b.jpg","66","","","","","","test","TL","2"
"","show_choice","276","411563","0.0-236.0-1.0","null","run_exp/static/images/Set 6_rs/019b.jpg","null","","","","","","test","TL",""
"","html-keyboard-response","277","412064","0.0-236.0-2.0","null","<p></p>","null","","","","","","","",""
"","image","278","413195","0.0-237.0-0.0","1129.6000000089407","run_exp/static/images/Set 6_rs/007a.jpg","86","","","","","","test","TR","3"
"","show_choice","279","413700","0.0-237.0-1.0","null","run_exp/static/images/Set 6_rs/007a.jpg","null","","","","","","test","TR",""
"","html-keyboard-response","280","414203","0.0-237.0-2.0","null","<p></p>","null","","","","","","","",""
"","image","281","415140","0.0-238.0-0.0","934.5","run_exp/static/images/Set 6_rs/012a.jpg","86","","","","","","test","TR","1"
"","show_choice","282","415642","0.0-238.0-1.0","null","run_exp/static/images/Set 6_rs/012a.jpg","null","","","","","","test","TR",""
"","html-keyboard-response","283","416144","0.0-238.0-2.0","null","<p></p>","null","","","","","","","",""
"","image","284","417007","0.0-239.0-0.0","862.0999999940395","run_exp/static/images/Set 6_rs/076a.jpg","86","","","","","","test","TR","4"
"","show_choice","285","417509","0.0-239.0-1.0","null","run_exp/static/images/Set 6_rs/076a.jpg","null","","","","","","test","TR",""
"","html-keyboard-response","286","418011","0.0-239.0-2.0","null","<p></p>","null","","","","","","","",""
"","image","287","418855","0.0-240.0-0.0","842.3999999910593","run_exp/static/images/Set 6_rs/168b.jpg","86","","","","","","test","TL","3"
"","show_choice","288","419357","0.0-240.0-1.0","null","run_exp/static/images/Set 6_rs/168b.jpg","null","","","","","","test","TL",""
"","html-keyboard-response","289","419861","0.0-240.0-2.0","null","<p></p>","null","","","","","","","",""
"","image","290","420986","0.0-241.0-0.0","1123.4000000059605","run_exp/static/images/Set 6_rs/079b.jpg","66","","","","","","test","TL","5"
"","show_choice","291","421488","0.0-241.0-1.0","null","run_exp/static/images/Set 6_rs/079b.jpg","null","","","","","","test","TL",""
"","html-keyboard-response","292","421990","0.0-241.0-2.0","null","<p></p>","null","","","","","","","",""
"","image","293","422611","0.0-242.0-0.0","619.5","run_exp/static/images/Set 6_rs/097a.jpg","86","","","","","","test","TF","5"
"","show_choice","294","423113","0.0-242.0-1.0","null","run_exp/static/images/Set 6_rs/097a.jpg","null","","","","","","test","TF",""
"","html-keyboard-response","295","423615","0.0-242.0-2.0","null","<p></p>","null","","","","","","","",""
"","image","296","424383","0.0-243.0-0.0","766","run_exp/static/images/Set 6_rs/088a.jpg","66","","","","","","test","TR","2"
"","show_choice","297","424886","0.0-243.0-1.0","null","run_exp/static/images/Set 6_rs/088a.jpg","null","","","","","","test","TR",""
"","html-keyboard-response","298","425388","0.0-243.0-2.0","null","<p></p>","null","","","","","","","",""
"","image","299","425883","0.0-244.0-0.0","493","run_exp/static/images/Set 6_rs/134a.jpg","86","","","","","","test","TR","3"
"","show_choice","300","426385","0.0-244.0-1.0","null","run_exp/static/images/Set 6_rs/134a.jpg","null","","","","","","test","TR",""
"","html-keyboard-response","301","426886","0.0-244.0-2.0","null","<p></p>","null","","","","","","","",""
"","image","302","427429","0.0-245.0-0.0","541.9000000059605","run_exp/static/images/Set 6_rs/062b.jpg","86","","","","","","test","TL","1"
"","show_choice","303","427933","0.0-245.0-1.0","null","run_exp/static/images/Set 6_rs/062b.jpg","null","","","","","","test","TL",""
"","html-keyboard-response","304","428434","0.0-245.0-2.0","null","<p></p>","null","","","","","","","",""
"","image","305","428913","0.0-246.0-0.0","476.5","run_exp/static/images/Set 6_rs/178a.jpg","86","","","","","","test","TR","3"
"","show_choice","306","429417","0.0-246.0-1.0","null","run_exp/static/images/Set 6_rs/178a.jpg","null","","","","","","test","TR",""
"","html-keyboard-response","307","429919","0.0-246.0-2.0","null","<p></p>","null","","","","","","","",""
"","image","308","430437","0.0-247.0-0.0","516.1999999880791","run_exp/static/images/Set 6_rs/132a.jpg","86","","","","","","test","TR","5"
"","show_choice","309","430941","0.0-247.0-1.0","null","run_exp/static/images/Set 6_rs/132a.jpg","null","","","","","","test","TR",""
"","html-keyboard-response","310","431444","0.0-247.0-2.0","null","<p></p>","null","","","","","","","",""
"","image","311","432366","0.0-248.0-0.0","921","run_exp/static/images/Set 6_rs/111b.jpg","86","","","","","","test","TL","3"
"","show_choice","312","432873","0.0-248.0-1.0","null","run_exp/static/images/Set 6_rs/111b.jpg","null","","","","","","test","TL",""
"","html-keyboard-response","313","433374","0.0-248.0-2.0","null","<p></p>","null","","","","","","","",""
"","image","314","433868","0.0-249.0-0.0","492.5","run_exp/static/images/Set 6_rs/066b.jpg","86","","","","","","test","TL","5"
"","show_choice","315","434371","0.0-249.0-1.0","null","run_exp/static/images/Set 6_rs/066b.jpg","null","","","","","","test","TL",""
"","html-keyboard-response","316","434872","0.0-249.0-2.0","null","<p></p>","null","","","","","","","",""
"","image","317","435974","0.0-250.0-0.0","1099.7999999970198","run_exp/static/images/Set 6_rs/186a.jpg","86","","","","","","test","TR","5"
"","show_choice","318","436476","0.0-250.0-1.0","null","run_exp/static/images/Set 6_rs/186a.jpg","null","","","","","","test","TR",""
"","html-keyboard-response","319","436977","0.0-250.0-2.0","null","<p></p>","null","","","","","","","",""
"","image","320","437679","0.0-251.0-0.0","700.1000000089407","run_exp/static/images/Set 6_rs/149a.jpg","66","","","","","","test","TF","1"
"","show_choice","321","438181","0.0-251.0-1.0","null","run_exp/static/images/Set 6_rs/149a.jpg","null","","","","","","test","TF",""
"","html-keyboard-response","322","438683","0.0-251.0-2.0","null","<p></p>","null","","","","","","","",""
"","image","323","439739","0.0-252.0-0.0","1054","run_exp/static/images/Set 6_rs/141a.jpg","86","","","","","","test","TR","2"
"","show_choice","324","440243","0.0-252.0-1.0","null","run_exp/static/images/Set 6_rs/141a.jpg","null","","","","","","test","TR",""
"","html-keyboard-response","325","440745","0.0-252.0-2.0","null","<p></p>","null","","","","","","","",""
"","image","326","441424","0.0-253.0-0.0","676.9000000059605","run_exp/static/images/Set 6_rs/077a.jpg","78","","","","","","test","TF","3"
"","show_choice","327","441925","0.0-253.0-1.0","null","run_exp/static/images/Set 6_rs/077a.jpg","null","","","","","","test","TF",""
"","html-keyboard-response","328","442427","0.0-253.0-2.0","null","<p></p>","null","","","","","","","",""
"","image","329","443439","0.0-254.0-0.0","1010.5999999940395","run_exp/static/images/Set 6_rs/015a.jpg","78","","","","","","test","TF","4"
"","show_choice","330","443942","0.0-254.0-1.0","null","run_exp/static/images/Set 6_rs/015a.jpg","null","","","","","","test","TF",""
"","html-keyboard-response","331","444443","0.0-254.0-2.0","null","<p></p>","null","","","","","","","",""
"","image","332","445573","0.0-255.0-0.0","1127.9000000059605","run_exp/static/images/Set 6_rs/090a.jpg","78","","","","","","test","TF","5"
"","show_choice","333","446075","0.0-255.0-1.0","null","run_exp/static/images/Set 6_rs/090a.jpg","null","","","","","","test","TF",""
"","html-keyboard-response","334","446577","0.0-255.0-2.0","null","<p></p>","null","","","","","","","",""
"","image","335","447105","0.0-256.0-0.0","525.4000000059605","run_exp/static/images/Set 6_rs/060b.jpg","86","","","","","","test","TL","3"
"","show_choice","336","447609","0.0-256.0-1.0","null","run_exp/static/images/Set 6_rs/060b.jpg","null","","","","","","test","TL",""
"","html-keyboard-response","337","448110","0.0-256.0-2.0","null","<p></p>","null","","","","","","","",""
"","image","338","448461","0.0-257.0-0.0","348.70000000298023","run_exp/static/images/Set 6_rs/171a.jpg","66","","","","","","test","TF","1"
"","show_choice","339","448965","0.0-257.0-1.0","null","run_exp/static/images/Set 6_rs/171a.jpg","null","","","","","","test","TF",""
"","html-keyboard-response","340","449467","0.0-257.0-2.0","null","<p></p>","null","","","","","","","",""
"","image","341","450058","0.0-258.0-0.0","589.2999999970198","run_exp/static/images/Set 6_rs/074b.jpg","86","","","","","","test","TL","4"
"","show_choice","342","450560","0.0-258.0-1.0","null","run_exp/static/images/Set 6_rs/074b.jpg","null","","","","","","test","TL",""
"","html-keyboard-response","343","451061","0.0-258.0-2.0","null","<p></p>","null","","","","","","","",""
"","image","344","451245","0.0-259.0-0.0","182.09999999403954","run_exp/static/images/Set 6_rs/190a.jpg","78","","","","","","test","TF","3"
"","show_choice","345","451747","0.0-259.0-1.0","null","run_exp/static/images/Set 6_rs/190a.jpg","null","","","","","","test","TF",""
"","html-keyboard-response","346","452249","0.0-259.0-2.0","null","<p></p>","null","","","","","","","",""
"","image","347","452369","0.0-260.0-0.0","117.79999999701977","run_exp/static/images/Set 6_rs/172a.jpg","86","","","","","","test","TR","1"
"","show_choice","348","452871","0.0-260.0-1.0","null","run_exp/static/images/Set 6_rs/172a.jpg","null","","","","","","test","TR",""
"","html-keyboard-response","349","453376","0.0-260.0-2.0","null","<p></p>","null","","","","","","","",""
"","image","350","454374","0.0-261.0-0.0","996.5","run_exp/static/images/Set 6_rs/024a.jpg","86","","","","","","test","TR","5"
"","show_choice","351","454876","0.0-261.0-1.0","null","run_exp/static/images/Set 6_rs/024a.jpg","null","","","","","","test","TR",""
"","html-keyboard-response","352","455377","0.0-261.0-2.0","null","<p></p>","null","","","","","","","",""
"","image","353","455506","0.0-262.0-0.0","127","run_exp/static/images/Set 6_rs/122a.jpg","78","","","","","","test","TR","5"
"","show_choice","354","456008","0.0-262.0-1.0","null","run_exp/static/images/Set 6_rs/122a.jpg","null","","","","","","test","TR",""
"","html-keyboard-response","355","456510","0.0-262.0-2.0","null","<p></p>","null","","","","","","","",""
"","image","356","456650","0.0-263.0-0.0","138.1000000089407","run_exp/static/images/Set 6_rs/035a.jpg","86","","","","","","test","TF","4"
"","show_choice","357","457152","0.0-263.0-1.0","null","run_exp/static/images/Set 6_rs/035a.jpg","null","","","","","","test","TF",""
"","html-keyboard-response","358","457653","0.0-263.0-2.0","null","<p></p>","null","","","","","","","",""
"","image","359","458482","0.0-264.0-0.0","826.6999999880791","run_exp/static/images/Set 6_rs/126a.jpg","86","","","","","","test","TR","2"
"","show_choice","360","458985","0.0-264.0-1.0","null","run_exp/static/images/Set 6_rs/126a.jpg","null","","","","","","test","TR",""
"","html-keyboard-response","361","459487","0.0-264.0-2.0","null","<p></p>","null","","","","","","","",""
"","image","362","460590","0.0-265.0-0.0","1101.1000000089407","run_exp/static/images/Set 6_rs/095b.jpg","78","","","","","","test","TL","5"
"","show_choice","363","461091","0.0-265.0-1.0","null","run_exp/static/images/Set 6_rs/095b.jpg","null","","","","","","test","TL",""
"","html-keyboard-response","364","461593","0.0-265.0-2.0","null","<p></p>","null","","","","","","","",""
"","image","365","463006","0.0-266.0-0.0","1410.7000000029802","run_exp/static/images/Set 6_rs/078a.jpg","66","","","","","","test","TF","1"
"","show_choice","366","463507","0.0-266.0-1.0","null","run_exp/static/images/Set 6_rs/078a.jpg","null","","","","","","test","TF",""
"","html-keyboard-response","367","464009","0.0-266.0-2.0","null","<p></p>","null","","","","","","","",""
"","image","368","464274","0.0-267.0-0.0","262.79999999701977","run_exp/static/images/Set 6_rs/148a.jpg","86","","","","","","test","TR","2"
"","show_choice","369","464775","0.0-267.0-1.0","null","run_exp/static/images/Set 6_rs/148a.jpg","null","","","","","","test","TR",""
"","html-keyboard-response","370","465277","0.0-267.0-2.0","null","<p></p>","null","","","","","","","",""
"","image","371","465731","0.0-268.0-0.0","452.90000000596046","run_exp/static/images/Set 6_rs/052a.jpg","86","","","","","","test","TF","1"
"","show_choice","372","466233","0.0-268.0-1.0","null","run_exp/static/images/Set 6_rs/052a.jpg","null","","","","","","test","TF",""
"","html-keyboard-response","373","466735","0.0-268.0-2.0","null","<p></p>","null","","","","","","","",""
"","image","374","467320","0.0-269.0-0.0","582.3999999910593","run_exp/static/images/Set 6_rs/154a.jpg","78","","","","","","test","TR","3"
"","show_choice","375","467823","0.0-269.0-1.0","null","run_exp/static/images/Set 6_rs/154a.jpg","null","","","","","","test","TR",""
"","html-keyboard-response","376","468327","0.0-269.0-2.0","null","<p></p>","null","","","","","","","",""
"","image","377","468736","0.0-270.0-0.0","407.20000000298023","run_exp/static/images/Set 6_rs/017b.jpg","86","","","","","","test","TL","3"
"","show_choice","378","469240","0.0-270.0-1.0","null","run_exp/static/images/Set 6_rs/017b.jpg","null","","","","","","test","TL",""
"","html-keyboard-response","379","469743","0.0-270.0-2.0","null","<p></p>","null","","","","","","","",""
"","image","380","470397","0.0-271.0-0.0","653.0999999940395","run_exp/static/images/Set 6_rs/112a.jpg","86","","","","","","test","TR","5"
"","show_choice","381","470899","0.0-271.0-1.0","null","run_exp/static/images/Set 6_rs/112a.jpg","null","","","","","","test","TR",""
"","html-keyboard-response","382","471403","0.0-271.0-2.0","null","<p></p>","null","","","","","","","",""
"","image","383","472398","0.0-272.0-0.0","993","run_exp/static/images/Set 6_rs/065a.jpg","66","","","","","","test","TF","3"
"","show_choice","384","472900","0.0-272.0-1.0","null","run_exp/static/images/Set 6_rs/065a.jpg","null","","","","","","test","TF",""
"","html-keyboard-response","385","473401","0.0-272.0-2.0","null","<p></p>","null","","","","","","","",""
"","image","386","474372","0.0-273.0-0.0","969.3000000119209","run_exp/static/images/Set 6_rs/144b.jpg","86","","","","","","test","TL","4"
"","show_choice","387","474874","0.0-273.0-1.0","null","run_exp/static/images/Set 6_rs/144b.jpg","null","","","","","","test","TL",""
"","html-keyboard-response","388","475376","0.0-273.0-2.0","null","<p></p>","null","","","","","","","",""
"","image","389","476293","0.0-274.0-0.0","914.7000000029802","run_exp/static/images/Set 6_rs/109a.jpg","66","","","","","","test","TF","5"
"","show_choice","390","476795","0.0-274.0-1.0","null","run_exp/static/images/Set 6_rs/109a.jpg","null","","","","","","test","TF",""
"","html-keyboard-response","391","477297","0.0-274.0-2.0","null","<p></p>","null","","","","","","","",""
"","image","392","477630","0.0-275.0-0.0","331.40000000596046","run_exp/static/images/Set 6_rs/085b.jpg","86","","","","","","test","TL","1"
"","show_choice","393","478132","0.0-275.0-1.0","null","run_exp/static/images/Set 6_rs/085b.jpg","null","","","","","","test","TL",""
"","html-keyboard-response","394","478635","0.0-275.0-2.0","null","<p></p>","null","","","","","","","",""
"","image","395","479134","0.0-276.0-0.0","497.30000001192093","run_exp/static/images/Set 6_rs/152a.jpg","86","","","","","","test","TR","2"
"","show_choice","396","479636","0.0-276.0-1.0","null","run_exp/static/images/Set 6_rs/152a.jpg","null","","","","","","test","TR",""
"","html-keyboard-response","397","480138","0.0-276.0-2.0","null","<p></p>","null","","","","","","","",""
"","image","398","480723","0.0-277.0-0.0","583","run_exp/static/images/Set 6_rs/105a.jpg","86","","","","","","test","TF","5"
"","show_choice","399","481227","0.0-277.0-1.0","null","run_exp/static/images/Set 6_rs/105a.jpg","null","","","","","","test","TF",""
"","html-keyboard-response","400","481729","0.0-277.0-2.0","null","<p></p>","null","","","","","","","",""
"","image","401","482782","0.0-278.0-0.0","1050.4000000059605","run_exp/static/images/Set 6_rs/011a.jpg","66","","","","","","test","TF","3"
"","show_choice","402","483284","0.0-278.0-1.0","null","run_exp/static/images/Set 6_rs/011a.jpg","null","","","","","","test","TF",""
"","html-keyboard-response","403","483787","0.0-278.0-2.0","null","<p></p>","null","","","","","","","",""
"","image","404","484492","0.0-279.0-0.0","702","run_exp/static/images/Set 6_rs/086a.jpg","86","","","","","","test","TF","1"
"","show_choice","405","484996","0.0-279.0-1.0","null","run_exp/static/images/Set 6_rs/086a.jpg","null","","","","","","test","TF",""
"","html-keyboard-response","406","485502","0.0-279.0-2.0","null","<p></p>","null","","","","","","","",""
"","image","407","486450","0.0-280.0-0.0","946","run_exp/static/images/Set 6_rs/138b.jpg","86","","","","","","test","TL","1"
"","show_choice","408","486952","0.0-280.0-1.0","null","run_exp/static/images/Set 6_rs/138b.jpg","null","","","","","","test","TL",""
"","html-keyboard-response","409","487458","0.0-280.0-2.0","null","<p></p>","null","","","","","","","",""
"","image","410","488188","0.0-281.0-0.0","728","run_exp/static/images/Set 6_rs/136a.jpg","86","","","","","","test","TF","4"
"","show_choice","411","488690","0.0-281.0-1.0","null","run_exp/static/images/Set 6_rs/136a.jpg","null","","","","","","test","TF",""
"","html-keyboard-response","412","489192","0.0-281.0-2.0","null","<p></p>","null","","","","","","","",""
"","image","413","489589","0.0-282.0-0.0","395.19999998807907","run_exp/static/images/Set 6_rs/177a.jpg","66","","","","","","test","TR","5"
"","show_choice","414","490091","0.0-282.0-1.0","null","run_exp/static/images/Set 6_rs/177a.jpg","null","","","","","","test","TR",""
"","html-keyboard-response","415","490592","0.0-282.0-2.0","null","<p></p>","null","","","","","","","",""
"","image","416","490780","0.0-283.0-0.0","185.90000000596046","run_exp/static/images/Set 6_rs/057b.jpg","86","","","","","","test","TL","1"
"","show_choice","417","491282","0.0-283.0-1.0","null","run_exp/static/images/Set 6_rs/057b.jpg","null","","","","","","test","TL",""
"","html-keyboard-response","418","491785","0.0-283.0-2.0","null","<p></p>","null","","","","","","","",""
"","image","419","491903","0.0-284.0-0.0","112.5","run_exp/static/images/Set 6_rs/189a.jpg","66","","","","","","test","TF","5"
"","show_choice","420","492404","0.0-284.0-1.0","null","run_exp/static/images/Set 6_rs/189a.jpg","null","","","","","","test","TF",""
"","html-keyboard-response","421","492906","0.0-284.0-2.0","null","<p></p>","null","","","","","","","",""
"","image","422","493149","0.0-285.0-0.0","240.8999999910593","run_exp/static/images/Set 6_rs/073b.jpg","86","","","","","","test","TL","3"
"","show_choice","423","493650","0.0-285.0-1.0","null","run_exp/static/images/Set 6_rs/073b.jpg","null","","","","","","test","TL",""
"","html-keyboard-response","424","494152","0.0-285.0-2.0","null","<p></p>","null","","","","","","","",""
"","image","425","494957","0.0-286.0-0.0","803","run_exp/static/images/Set 6_rs/045a.jpg","86","","","","","","test","TR","2"
"","show_choice","426","495459","0.0-286.0-1.0","null","run_exp/static/images/Set 6_rs/045a.jpg","null","","","","","","test","TR",""
"","html-keyboard-response","427","495960","0.0-286.0-2.0","null","<p></p>","null","","","","","","","",""
"","image","428","496438","0.0-287.0-0.0","476.1000000089407","run_exp/static/images/Set 6_rs/016b.jpg","86","","","","","","test","TL","1"
"","show_choice","429","496943","0.0-287.0-1.0","null","run_exp/static/images/Set 6_rs/016b.jpg","null","","","","","","test","TL",""
"","html-keyboard-response","430","497449","0.0-287.0-2.0","null","<p></p>","null","","","","","","","",""
"","image","431","498219","0.0-288.0-0.0","768.4000000059605","run_exp/static/images/Set 6_rs/091b.jpg","66","","","","","","test","TL","3"
"","show_choice","432","498722","0.0-288.0-1.0","null","run_exp/static/images/Set 6_rs/091b.jpg","null","","","","","","test","TL",""
"","html-keyboard-response","433","499223","0.0-288.0-2.0","null","<p></p>","null","","","","","","","",""
"","image","434","499575","0.0-289.0-0.0","350.09999999403954","run_exp/static/images/Set 6_rs/028a.jpg","66","","","","","","test","TF","1"
"","show_choice","435","500080","0.0-289.0-1.0","null","run_exp/static/images/Set 6_rs/028a.jpg","null","","","","","","test","TF",""
"","html-keyboard-response","436","500581","0.0-289.0-2.0","null","<p></p>","null","","","","","","","",""
"","image","437","500956","0.0-290.0-0.0","372.90000000596046","run_exp/static/images/Set 6_rs/008b.jpg","86","","","","","","test","TL","2"
"","show_choice","438","501458","0.0-290.0-1.0","null","run_exp/static/images/Set 6_rs/008b.jpg","null","","","","","","test","TL",""
"","html-keyboard-response","439","501960","0.0-290.0-2.0","null","<p></p>","null","","","","","","","",""
"","image","440","502258","0.0-291.0-0.0","296.70000000298023","run_exp/static/images/Set 6_rs/061a.jpg","86","","","","","","test","TR","5"
"","show_choice","441","502760","0.0-291.0-1.0","null","run_exp/static/images/Set 6_rs/061a.jpg","null","","","","","","test","TR",""
"","html-keyboard-response","442","503262","0.0-291.0-2.0","null","<p></p>","null","","","","","","","",""
"","image","443","503962","0.0-292.0-0.0","698.5","run_exp/static/images/Set 6_rs/067b.jpg","66","","","","","","test","TL","5"
"","show_choice","444","504466","0.0-292.0-1.0","null","run_exp/static/images/Set 6_rs/067b.jpg","null","","","","","","test","TL",""
"","html-keyboard-response","445","504968","0.0-292.0-2.0","null","<p></p>","null","","","","","","","",""
"","image","446","505299","0.0-293.0-0.0","329.5","run_exp/static/images/Set 6_rs/117b.jpg","86","","","","","","test","TL","5"
"","show_choice","447","505803","0.0-293.0-1.0","null","run_exp/static/images/Set 6_rs/117b.jpg","null","","","","","","test","TL",""
"","html-keyboard-response","448","506304","0.0-293.0-2.0","null","<p></p>","null","","","","","","","",""
"","image","449","506729","0.0-294.0-0.0","423.40000000596046","run_exp/static/images/Set 6_rs/100a.jpg","66","","","","","","test","TF","2"
"","show_choice","450","507231","0.0-294.0-1.0","null","run_exp/static/images/Set 6_rs/100a.jpg","null","","","","","","test","TF",""
"","html-keyboard-response","451","507733","0.0-294.0-2.0","null","<p></p>","null","","","","","","","",""
"","image","452","507959","0.0-295.0-0.0","224.90000000596046","run_exp/static/images/Set 6_rs/056a.jpg","66","","","","","","test","TF","3"
"","show_choice","453","508464","0.0-295.0-1.0","null","run_exp/static/images/Set 6_rs/056a.jpg","null","","","","","","test","TF",""
"","html-keyboard-response","454","508969","0.0-295.0-2.0","null","<p></p>","null","","","","","","","",""
"","image","455","509255","0.0-296.0-0.0","284.70000000298023","run_exp/static/images/Set 6_rs/021a.jpg","86","","","","","","test","TF","2"
"","show_choice","456","509757","0.0-296.0-1.0","null","run_exp/static/images/Set 6_rs/021a.jpg","null","","","","","","test","TF",""
"","html-keyboard-response","457","510258","0.0-296.0-2.0","null","<p></p>","null","","","","","","","",""
"","image","458","510430","0.0-297.0-0.0","169.59999999403954","run_exp/static/images/Set 6_rs/191b.jpg","86","","","","","","test","TL","2"
"","show_choice","459","510931","0.0-297.0-1.0","null","run_exp/static/images/Set 6_rs/191b.jpg","null","","","","","","test","TL",""
"","html-keyboard-response","460","511433","0.0-297.0-2.0","null","<p></p>","null","","","","","","","",""
"","image","461","511903","0.0-298.0-0.0","468.79999999701977","run_exp/static/images/Set 6_rs/025b.jpg","66","","","","","","test","TL","5"
"","show_choice","462","512408","0.0-298.0-1.0","null","run_exp/static/images/Set 6_rs/025b.jpg","null","","","","","","test","TL",""
"","html-keyboard-response","463","512910","0.0-298.0-2.0","null","<p></p>","null","","","","","","","",""
"","image","464","513273","0.0-299.0-0.0","362","run_exp/static/images/Set 6_rs/181b.jpg","86","","","","","","test","TL","1"
"","show_choice","465","513775","0.0-299.0-1.0","null","run_exp/static/images/Set 6_rs/181b.jpg","null","","","","","","test","TL",""
"","html-keyboard-response","466","514279","0.0-299.0-2.0","null","<p></p>","null","","","","","","","",""
"","image","467","514907","0.0-300.0-0.0","626","run_exp/static/images/Set 6_rs/155a.jpg","86","","","","","","test","TF","4"
"","show_choice","468","515410","0.0-300.0-1.0","null","run_exp/static/images/Set 6_rs/155a.jpg","null","","","","","","test","TF",""
"","html-keyboard-response","469","515911","0.0-300.0-2.0","null","<p></p>","null","","","","","","","",""
"","image","470","516596","0.0-301.0-0.0","682.8999999910593","run_exp/static/images/Set 6_rs/036b.jpg","86","","","","","","test","TL","4"
"","show_choice","471","517097","0.0-301.0-1.0","null","run_exp/static/images/Set 6_rs/036b.jpg","null","","","","","","test","TL",""
"","html-keyboard-response","472","517599","0.0-301.0-2.0","null","<p></p>","null","","","","","","","",""
"","image","473","518527","0.0-302.0-0.0","925.5999999940395","run_exp/static/images/Set 6_rs/022a.jpg","66","","","","","","test","TF","4"
"","show_choice","474","519029","0.0-302.0-1.0","null","run_exp/static/images/Set 6_rs/022a.jpg","null","","","","","","test","TF",""
"","html-keyboard-response","475","519530","0.0-302.0-2.0","null","<p></p>","null","","","","","","","",""
"","image","476","519763","0.0-303.0-0.0","231.09999999403954","run_exp/static/images/Set 6_rs/118a.jpg","86","","","","","","test","TF","5"
"","show_choice","477","520265","0.0-303.0-1.0","null","run_exp/static/images/Set 6_rs/118a.jpg","null","","","","","","test","TF",""
"","html-keyboard-response","478","520772","0.0-303.0-2.0","null","<p></p>","null","","","","","","","",""
"","image","479","521002","0.0-304.0-0.0","229","run_exp/static/images/Set 6_rs/071b.jpg","66","","","","","","test","TL","4"
"","show_choice","480","521505","0.0-304.0-1.0","null","run_exp/static/images/Set 6_rs/071b.jpg","null","","","","","","test","TL",""
"","html-keyboard-response","481","522007","0.0-304.0-2.0","null","<p></p>","null","","","","","","","",""
"","image","482","522159","0.0-305.0-0.0","150.40000000596046","run_exp/static/images/Set 6_rs/001a.jpg","78","","","","","","test","TF","1"
"","show_choice","483","522661","0.0-305.0-1.0","null","run_exp/static/images/Set 6_rs/001a.jpg","null","","","","","","test","TF",""
"","html-keyboard-response","484","523163","0.0-305.0-2.0","null","<p></p>","null","","","","","","","",""
"","image","485","523419","0.0-306.0-0.0","253.90000000596046","run_exp/static/images/Set 6_rs/123b.jpg","86","","","","","","test","TL","2"
"","show_choice","486","523921","0.0-306.0-1.0","null","run_exp/static/images/Set 6_rs/123b.jpg","null","","","","","","test","TL",""
"","html-keyboard-response","487","524423","0.0-306.0-2.0","null","<p></p>","null","","","","","","","",""
"","image","488","524609","0.0-307.0-0.0","184.40000000596046","run_exp/static/images/Set 6_rs/047a.jpg","66","","","","","","test","TF","3"
"","show_choice","489","525111","0.0-307.0-1.0","null","run_exp/static/images/Set 6_rs/047a.jpg","null","","","","","","test","TF",""
"","html-keyboard-response","490","525612","0.0-307.0-2.0","null","<p></p>","null","","","","","","","",""
"","image","491","525748","0.0-308.0-0.0","134.5","run_exp/static/images/Set 6_rs/133a.jpg","78","","","","","","test","TF","4"
"","show_choice","492","526250","0.0-308.0-1.0","null","run_exp/static/images/Set 6_rs/133a.jpg","null","","","","","","test","TF",""
"","html-keyboard-response","493","526751","0.0-308.0-2.0","null","<p></p>","null","","","","","","","",""
"","image","494","526830","0.0-309.0-0.0","76.70000000298023","run_exp/static/images/Set 6_rs/170a.jpg","86","","","","","","test","TF","2"
"","show_choice","495","527333","0.0-309.0-1.0","null","run_exp/static/images/Set 6_rs/170a.jpg","null","","","","","","test","TF",""
"","html-keyboard-response","496","527837","0.0-309.0-2.0","null","<p></p>","null","","","","","","","",""
"","image","497","527896","0.0-310.0-0.0","57","run_exp/static/images/Set 6_rs/010a.jpg","66","","","","","","test","TR","5"
"","show_choice","498","528397","0.0-310.0-1.0","null","run_exp/static/images/Set 6_rs/010a.jpg","null","","","","","","test","TR",""
"","html-keyboard-response","499","528900","0.0-310.0-2.0","null","<p></p>","null","","","","","","","",""
"","image","500","529053","0.0-311.0-0.0","151.09999999403954","run_exp/static/images/Set 6_rs/108a.jpg","78","","","","","","test","TR","5"
"","show_choice","501","529554","0.0-311.0-1.0","null","run_exp/static/images/Set 6_rs/108a.jpg","null","","","","","","test","TR",""
"","html-keyboard-response","502","530055","0.0-311.0-2.0","null","<p></p>","null","","","","","","","",""
"","image","503","530141","0.0-312.0-0.0","84.29999999701977","run_exp/static/images/Set 6_rs/064a.jpg","86","","","","","","test","TR","5"
"","show_choice","504","530642","0.0-312.0-1.0","null","run_exp/static/images/Set 6_rs/064a.jpg","null","","","","","","test","TR",""
"","html-keyboard-response","505","531143","0.0-312.0-2.0","null","<p></p>","null","","","","","","","",""
"","image","506","531300","0.0-313.0-0.0","156","run_exp/static/images/Set 6_rs/055b.jpg","86","","","","","","test","TL","4"
"","show_choice","507","531802","0.0-313.0-1.0","null","run_exp/static/images/Set 6_rs/055b.jpg","null","","","","","","test","TL",""
"","html-keyboard-response","508","532306","0.0-313.0-2.0","null","<p></p>","null","","","","","","","",""
"","image","509","532456","0.0-314.0-0.0","148.20000000298023","run_exp/static/images/Set 6_rs/150a.jpg","86","","","","","","test","TR","1"
"","show_choice","510","532958","0.0-314.0-1.0","null","run_exp/static/images/Set 6_rs/150a.jpg","null","","","","","","test","TR",""
"","html-keyboard-response","511","533461","0.0-314.0-2.0","null","<p></p>","null","","","","","","","",""
"","image","512","533672","0.0-315.0-0.0","210.09999999403954","run_exp/static/images/Set 6_rs/167b.jpg","86","","","","","","test","TL","2"
"","show_choice","513","534174","0.0-315.0-1.0","null","run_exp/static/images/Set 6_rs/167b.jpg","null","","","","","","test","TL",""
"","html-keyboard-response","514","534676","0.0-315.0-2.0","null","<p></p>","null","","","","","","","",""
"","image","515","534933","0.0-316.0-0.0","255.59999999403954","run_exp/static/images/Set 6_rs/023a.jpg","86","","","","","","test","TR","3"
"","show_choice","516","535438","0.0-316.0-1.0","null","run_exp/static/images/Set 6_rs/023a.jpg","null","","","","","","test","TR",""
"","html-keyboard-response","517","535944","0.0-316.0-2.0","null","<p></p>","null","","","","","","","",""
"","image","518","536105","0.0-317.0-0.0","159.5","run_exp/static/images/Set 6_rs/048a.jpg","86","","","","","","test","TF","4"
"","show_choice","519","536607","0.0-317.0-1.0","null","run_exp/static/images/Set 6_rs/048a.jpg","null","","","","","","test","TF",""
"","html-keyboard-response","520","537110","0.0-317.0-2.0","null","<p></p>","null","","","","","","","",""
"","image","521","537222","0.0-318.0-0.0","110.5","run_exp/static/images/Set 6_rs/131a.jpg","66","","","","","","test","TR","5"
"","show_choice","522","537723","0.0-318.0-1.0","null","run_exp/static/images/Set 6_rs/131a.jpg","null","","","","","","test","TR",""
"","html-keyboard-response","523","538225","0.0-318.0-2.0","null","<p></p>","null","","","","","","","",""
"","all_done","524","545204","0.0-319.0-0.0","null","run_exp/static/audio/clip_23_all_done.m4a","null","","","","","<div class='center'><p>You are finished with all three parts of the experiment! You can press the space bar to end the game now. </p></div>","","",""
"","html-keyboard-response","525","545436","0.0-319.0-1.0","230.5","<div class='center'><p>You are finished with all three parts of the experiment! You can press the space bar to end the game now. </p><div><p><b>[Press the space bar to continue]</b></p></div>","32","","","","","","","",""
