"success","trial_type","trial_index","time_elapsed","internal_node_id","interactions","blur_events","focus_events","fullscreenenter_events","fullscreenexit_events","rt","stimulus","key_press","subject_id","participant_id","age","gender","prompt","phase","condition","lure_bin"
"true","fullscreen","0","4313","0.0-0.0","""event"",""trial"",""time""
""fullscreenenter"",""0"",""3361""
","
","
","""event"",""trial"",""time""
""fullscreenenter"",""0"",""3361""
","
","","","","","","","","","","",""
"","pavlovia","1","4322","0.0-1.0","""event"",""trial"",""time""
""fullscreenenter"",""0"",""3361""
","
","
","""event"",""trial"",""time""
""fullscreenenter"",""0"",""3361""
","
","","","","","","","","","","",""
"","welcome","2","39187","0.0-2.0","""event"",""trial"",""time""
""fullscreenenter"",""0"",""3361""
","
","
","""event"",""trial"",""time""
""fullscreenenter"",""0"",""3361""
","
","null","run_exp/static/audio/clip_1_welcome.m4a","null","663","957","14","Male","<div class='center'><p>Welcome to the third part of the study! First, you'll be shown pictures of items one at a time. For each picture, you have to decide if the item is typically found indoors or outdoors.</p><p>If you think it's usually found indoors, then press <b>v</b> key on your keyboard. If you think it's usually found outdoors, then press the <b>n</b> key.There will be reminders on the screen to help you remember which keys to press. </p><p>If you're not sure whether the item is an indoor item or an outdoor item, go ahead and take a guess but try your best not to skip that choice. </p></div>","","",""
"","html-keyboard-response","3","39996","0.0-3.0","""event"",""trial"",""time""
""fullscreenenter"",""0"",""3361""
","
","
","""event"",""trial"",""time""
""fullscreenenter"",""0"",""3361""
","
","791","<div class='center'><p>Welcome to the third part of the study! First, you'll be shown pictures of items one at a time. For each picture, you have to decide if the item is typically found indoors or outdoors.</p><p>If you think it's usually found indoors, then press <b>v</b> key on your keyboard. If you think it's usually found outdoors, then press the <b>n</b> key.There will be reminders on the screen to help you remember which keys to press. </p><p>If you're not sure whether the item is an indoor item or an outdoor item, go ahead and take a guess but try your best not to skip that choice. </p><div><p><b>[Press the space bar to continue]</b></p></div>","32","","","","","","","",""
"","image","4","41520","0.0-4.0","""event"",""trial"",""time""
""fullscreenenter"",""0"",""3361""
","
","
","""event"",""trial"",""time""
""fullscreenenter"",""0"",""3361""
","
","1521.4000000059605","run_exp/static/images/Set 6_rs/131a.jpg","78","","","","","","learn","SR",""
"","show_choice","5","42003","0.0-5.0","""event"",""trial"",""time""
""fullscreenenter"",""0"",""3361""
","
","
","""event"",""trial"",""time""
""fullscreenenter"",""0"",""3361""
","
","null","run_exp/static/images/Set 6_rs/131a.jpg","null","","","","","","learn","SR",""
"","html-keyboard-response","6","42509","0.0-6.0","""event"",""trial"",""time""
""fullscreenenter"",""0"",""3361""
","
","
","""event"",""trial"",""time""
""fullscreenenter"",""0"",""3361""
","
","null","<p></p>","null","","","","","","","",""
"","image","7","44373","0.0-7.0","""event"",""trial"",""time""
""fullscreenenter"",""0"",""3361""
","
","
","""event"",""trial"",""time""
""fullscreenenter"",""0"",""3361""
","
","1862.7999999970198","run_exp/static/images/Set 6_rs/167a.jpg","86","","","","","","learn","SL",""
"","show_choice","8","44516","0.0-8.0","""event"",""trial"",""time""
""fullscreenenter"",""0"",""3361""
","
","
","""event"",""trial"",""time""
""fullscreenenter"",""0"",""3361""
","
","null","run_exp/static/images/Set 6_rs/167a.jpg","null","","","","","","learn","SL",""
"","html-keyboard-response","9","45022","0.0-9.0","""event"",""trial"",""time""
""fullscreenenter"",""0"",""3361""
","
","
","""event"",""trial"",""time""
""fullscreenenter"",""0"",""3361""
","
","null","<p></p>","null","","","","","","","",""
"","image","10","46259","0.0-10.0","""event"",""trial"",""time""
""fullscreenenter"",""0"",""3361""
","
","
","""event"",""trial"",""time""
""fullscreenenter"",""0"",""3361""
","
","1235.4000000059605","run_exp/static/images/Set 6_rs/057a.jpg","86","","","","","","learn","SL",""
"","show_choice","11","47029","0.0-11.0","""event"",""trial"",""time""
""fullscreenenter"",""0"",""3361""
","
","
","""event"",""trial"",""time""
""fullscreenenter"",""0"",""3361""
","
","null","run_exp/static/images/Set 6_rs/057a.jpg","null","","","","","","learn","SL",""
"","html-keyboard-response","12","47535","0.0-12.0","""event"",""trial"",""time""
""fullscreenenter"",""0"",""3361""
","
","
","""event"",""trial"",""time""
""fullscreenenter"",""0"",""3361""
","
","null","<p></p>","null","","","","","","","",""
"","image","13","49296","0.0-13.0","""event"",""trial"",""time""
""fullscreenenter"",""0"",""3361""
","
","
","""event"",""trial"",""time""
""fullscreenenter"",""0"",""3361""
","
","1758","run_exp/static/images/Set 6_rs/121a.jpg","86","","","","","","learn","SR",""
"","show_choice","14","49539","0.0-14.0","""event"",""trial"",""time""
""fullscreenenter"",""0"",""3361""
","
","
","""event"",""trial"",""time""
""fullscreenenter"",""0"",""3361""
","
","null","run_exp/static/images/Set 6_rs/121a.jpg","null","","","","","","learn","SR",""
"","html-keyboard-response","15","50045","0.0-15.0","""event"",""trial"",""time""
""fullscreenenter"",""0"",""3361""
","
","
","""event"",""trial"",""time""
""fullscreenenter"",""0"",""3361""
","
","null","<p></p>","null","","","","","","","",""
"","image","16","51614","0.0-16.0","""event"",""trial"",""time""
""fullscreenenter"",""0"",""3361""
","
","
","""event"",""trial"",""time""
""fullscreenenter"",""0"",""3361""
","
","1567.5","run_exp/static/images/Set 6_rs/152a.jpg","86","","","","","","learn","SR",""
"","show_choice","17","52052","0.0-17.0","""event"",""trial"",""time""
""fullscreenenter"",""0"",""3361""
","
","
","""event"",""trial"",""time""
""fullscreenenter"",""0"",""3361""
","
","null","run_exp/static/images/Set 6_rs/152a.jpg","null","","","","","","learn","SR",""
"","html-keyboard-response","18","52558","0.0-18.0","""event"",""trial"",""time""
""fullscreenenter"",""0"",""3361""
","
","
","""event"",""trial"",""time""
""fullscreenenter"",""0"",""3361""
","
","null","<p></p>","null","","","","","","","",""
"","image","19","53960","0.0-19.0","""event"",""trial"",""time""
""fullscreenenter"",""0"",""3361""
","
","
","""event"",""trial"",""time""
""fullscreenenter"",""0"",""3361""
","
","1400.2000000029802","run_exp/static/images/Set 6_rs/024a.jpg","86","","","","","","learn","SR",""
"","show_choice","20","54565","0.0-20.0","""event"",""trial"",""time""
""fullscreenenter"",""0"",""3361""
","
","
","""event"",""trial"",""time""
""fullscreenenter"",""0"",""3361""
","
","null","run_exp/static/images/Set 6_rs/024a.jpg","null","","","","","","learn","SR",""
"","html-keyboard-response","21","55071","0.0-21.0","""event"",""trial"",""time""
""fullscreenenter"",""0"",""3361""
","
","
","""event"",""trial"",""time""
""fullscreenenter"",""0"",""3361""
","
","null","<p></p>","null","","","","","","","",""
"","image","22","56281","0.0-22.0","""event"",""trial"",""time""
""fullscreenenter"",""0"",""3361""
","
","
","""event"",""trial"",""time""
""fullscreenenter"",""0"",""3361""
","
","1208.7999999970198","run_exp/static/images/Set 6_rs/066a.jpg","86","","","","","","learn","SL",""
"","show_choice","23","57077","0.0-23.0","""event"",""trial"",""time""
""fullscreenenter"",""0"",""3361""
","
","
","""event"",""trial"",""time""
""fullscreenenter"",""0"",""3361""
","
","null","run_exp/static/images/Set 6_rs/066a.jpg","null","","","","","","learn","SL",""
"","html-keyboard-response","24","57583","0.0-24.0","""event"",""trial"",""time""
""fullscreenenter"",""0"",""3361""
","
","
","""event"",""trial"",""time""
""fullscreenenter"",""0"",""3361""
","
","null","<p></p>","null","","","","","","","",""
"","image","25","58526","0.0-25.0","""event"",""trial"",""time""
""fullscreenenter"",""0"",""3361""
","
","
","""event"",""trial"",""time""
""fullscreenenter"",""0"",""3361""
","
","942.2999999970198","run_exp/static/images/Set 6_rs/055a.jpg","86","","","","","","learn","SL",""
"","show_choice","26","59589","0.0-26.0","""event"",""trial"",""time""
""fullscreenenter"",""0"",""3361""
","
","
","""event"",""trial"",""time""
""fullscreenenter"",""0"",""3361""
","
","null","run_exp/static/images/Set 6_rs/055a.jpg","null","","","","","","learn","SL",""
"","html-keyboard-response","27","60095","0.0-27.0","""event"",""trial"",""time""
""fullscreenenter"",""0"",""3361""
","
","
","""event"",""trial"",""time""
""fullscreenenter"",""0"",""3361""
","
","null","<p></p>","null","","","","","","","",""
"","image","28","61200","0.0-28.0","""event"",""trial"",""time""
""fullscreenenter"",""0"",""3361""
","
","
","""event"",""trial"",""time""
""fullscreenenter"",""0"",""3361""
","
","1103.2999999970198","run_exp/static/images/Set 6_rs/070a.jpg","86","","","","","","learn","SR",""
"","show_choice","29","62097","0.0-29.0","""event"",""trial"",""time""
""fullscreenenter"",""0"",""3361""
","
","
","""event"",""trial"",""time""
""fullscreenenter"",""0"",""3361""
","
","null","run_exp/static/images/Set 6_rs/070a.jpg","null","","","","","","learn","SR",""
"","html-keyboard-response","30","62604","0.0-30.0","""event"",""trial"",""time""
""fullscreenenter"",""0"",""3361""
","
","
","""event"",""trial"",""time""
""fullscreenenter"",""0"",""3361""
","
","null","<p></p>","null","","","","","","","",""
"","image","31","63631","0.0-31.0","""event"",""trial"",""time""
""fullscreenenter"",""0"",""3361""
","
","
","""event"",""trial"",""time""
""fullscreenenter"",""0"",""3361""
","
","1025.0999999940395","run_exp/static/images/Set 6_rs/012a.jpg","86","","","","","","learn","SR",""
"","show_choice","32","64608","0.0-32.0","""event"",""trial"",""time""
""fullscreenenter"",""0"",""3361""
","
","
","""event"",""trial"",""time""
""fullscreenenter"",""0"",""3361""
","
","null","run_exp/static/images/Set 6_rs/012a.jpg","null","","","","","","learn","SR",""
"","html-keyboard-response","33","65111","0.0-33.0","""event"",""trial"",""time""
""fullscreenenter"",""0"",""3361""
","
","
","""event"",""trial"",""time""
""fullscreenenter"",""0"",""3361""
","
","null","<p></p>","null","","","","","","","",""
"","image","34","66073","0.0-34.0","""event"",""trial"",""time""
""fullscreenenter"",""0"",""3361""
","
","
","""event"",""trial"",""time""
""fullscreenenter"",""0"",""3361""
","
","959.5999999940395","run_exp/static/images/Set 6_rs/062a.jpg","86","","","","","","learn","SL",""
"","show_choice","35","67114","0.0-35.0","""event"",""trial"",""time""
""fullscreenenter"",""0"",""3361""
","
","
","""event"",""trial"",""time""
""fullscreenenter"",""0"",""3361""
","
","null","run_exp/static/images/Set 6_rs/062a.jpg","null","","","","","","learn","SL",""
"","html-keyboard-response","36","67616","0.0-36.0","""event"",""trial"",""time""
""fullscreenenter"",""0"",""3361""
","
","
","""event"",""trial"",""time""
""fullscreenenter"",""0"",""3361""
","
","null","<p></p>","null","","","","","","","",""
"","image","37","68809","0.0-37.0","""event"",""trial"",""time""
""fullscreenenter"",""0"",""3361""
","
","
","""event"",""trial"",""time""
""fullscreenenter"",""0"",""3361""
","
","1191.8999999910593","run_exp/static/images/Set 6_rs/074a.jpg","78","","","","","","learn","SL",""
"","show_choice","38","69619","0.0-38.0","""event"",""trial"",""time""
""fullscreenenter"",""0"",""3361""
","
","
","""event"",""trial"",""time""
""fullscreenenter"",""0"",""3361""
","
","null","run_exp/static/images/Set 6_rs/074a.jpg","null","","","","","","learn","SL",""
"","html-keyboard-response","39","70123","0.0-39.0","""event"",""trial"",""time""
""fullscreenenter"",""0"",""3361""
","
","
","""event"",""trial"",""time""
""fullscreenenter"",""0"",""3361""
","
","null","<p></p>","null","","","","","","","",""
"","image","40","71445","0.0-40.0","""event"",""trial"",""time""
""fullscreenenter"",""0"",""3361""
","
","
","""event"",""trial"",""time""
""fullscreenenter"",""0"",""3361""
","
","1319.699999988079","run_exp/static/images/Set 6_rs/023a.jpg","86","","","","","","learn","SR",""
"","show_choice","41","72127","0.0-41.0","""event"",""trial"",""time""
""fullscreenenter"",""0"",""3361""
","
","
","""event"",""trial"",""time""
""fullscreenenter"",""0"",""3361""
","
","null","run_exp/static/images/Set 6_rs/023a.jpg","null","","","","","","learn","SR",""
"","html-keyboard-response","42","72630","0.0-42.0","""event"",""trial"",""time""
""fullscreenenter"",""0"",""3361""
","
","
","""event"",""trial"",""time""
""fullscreenenter"",""0"",""3361""
","
","null","<p></p>","null","","","","","","","",""
"","image","43","74449","0.0-43.0","""event"",""trial"",""time""
""fullscreenenter"",""0"",""3361""
","
","
","""event"",""trial"",""time""
""fullscreenenter"",""0"",""3361""
","
","1816.5","run_exp/static/images/Set 6_rs/017a.jpg","78","","","","","","learn","SL",""
"","show_choice","44","74633","0.0-44.0","""event"",""trial"",""time""
""fullscreenenter"",""0"",""3361""
","
","
","""event"",""trial"",""time""
""fullscreenenter"",""0"",""3361""
","
","null","run_exp/static/images/Set 6_rs/017a.jpg","null","","","","","","learn","SL",""
"","html-keyboard-response","45","75138","0.0-45.0","""event"",""trial"",""time""
""fullscreenenter"",""0"",""3361""
","
","
","""event"",""trial"",""time""
""fullscreenenter"",""0"",""3361""
","
","null","<p></p>","null","","","","","","","",""
"","image","46","76405","0.0-46.0","""event"",""trial"",""time""
""fullscreenenter"",""0"",""3361""
","
","
","""event"",""trial"",""time""
""fullscreenenter"",""0"",""3361""
","
","1264.5999999940395","run_exp/static/images/Set 6_rs/169a.jpg","78","","","","","","learn","SR",""
"","show_choice","47","77141","0.0-47.0","""event"",""trial"",""time""
""fullscreenenter"",""0"",""3361""
","
","
","""event"",""trial"",""time""
""fullscreenenter"",""0"",""3361""
","
","null","run_exp/static/images/Set 6_rs/169a.jpg","null","","","","","","learn","SR",""
"","html-keyboard-response","48","77647","0.0-48.0","""event"",""trial"",""time""
""fullscreenenter"",""0"",""3361""
","
","
","""event"",""trial"",""time""
""fullscreenenter"",""0"",""3361""
","
","null","<p></p>","null","","","","","","","",""
"","image","49","78557","0.0-49.0","""event"",""trial"",""time""
""fullscreenenter"",""0"",""3361""
","
","
","""event"",""trial"",""time""
""fullscreenenter"",""0"",""3361""
","
","908.3999999910593","run_exp/static/images/Set 6_rs/172a.jpg","78","","","","","","learn","SR",""
"","show_choice","50","79650","0.0-50.0","""event"",""trial"",""time""
""fullscreenenter"",""0"",""3361""
","
","
","""event"",""trial"",""time""
""fullscreenenter"",""0"",""3361""
","
","null","run_exp/static/images/Set 6_rs/172a.jpg","null","","","","","","learn","SR",""
"","html-keyboard-response","51","80156","0.0-51.0","""event"",""trial"",""time""
""fullscreenenter"",""0"",""3361""
","
","
","""event"",""trial"",""time""
""fullscreenenter"",""0"",""3361""
","
","null","<p></p>","null","","","","","","","",""
"","image","52","81213","0.0-52.0","""event"",""trial"",""time""
""fullscreenenter"",""0"",""3361""
","
","
","""event"",""trial"",""time""
""fullscreenenter"",""0"",""3361""
","
","1055.3999999910593","run_exp/static/images/Set 6_rs/154a.jpg","86","","","","","","learn","SR",""
"","show_choice","53","82163","0.0-53.0","""event"",""trial"",""time""
""fullscreenenter"",""0"",""3361""
","
","
","""event"",""trial"",""time""
""fullscreenenter"",""0"",""3361""
","
","null","run_exp/static/images/Set 6_rs/154a.jpg","null","","","","","","learn","SR",""
"","html-keyboard-response","54","82669","0.0-54.0","""event"",""trial"",""time""
""fullscreenenter"",""0"",""3361""
","
","
","""event"",""trial"",""time""
""fullscreenenter"",""0"",""3361""
","
","null","<p></p>","null","","","","","","","",""
"","image","55","84496","0.0-55.0","""event"",""trial"",""time""
""fullscreenenter"",""0"",""3361""
","
","
","""event"",""trial"",""time""
""fullscreenenter"",""0"",""3361""
","
","1825.2000000029802","run_exp/static/images/Set 6_rs/122a.jpg","86","","","","","","learn","SR",""
"","show_choice","56","84671","0.0-56.0","""event"",""trial"",""time""
""fullscreenenter"",""0"",""3361""
","
","
","""event"",""trial"",""time""
""fullscreenenter"",""0"",""3361""
","
","null","run_exp/static/images/Set 6_rs/122a.jpg","null","","","","","","learn","SR",""
"","html-keyboard-response","57","85175","0.0-57.0","""event"",""trial"",""time""
""fullscreenenter"",""0"",""3361""
","
","
","""event"",""trial"",""time""
""fullscreenenter"",""0"",""3361""
","
","null","<p></p>","null","","","","","","","",""
"","image","58","86089","0.0-58.0","""event"",""trial"",""time""
""fullscreenenter"",""0"",""3361""
","
","
","""event"",""trial"",""time""
""fullscreenenter"",""0"",""3361""
","
","912.5999999940395","run_exp/static/images/Set 6_rs/088a.jpg","86","","","","","","learn","SR",""
"","show_choice","59","87180","0.0-59.0","""event"",""trial"",""time""
""fullscreenenter"",""0"",""3361""
","
","
","""event"",""trial"",""time""
""fullscreenenter"",""0"",""3361""
","
","null","run_exp/static/images/Set 6_rs/088a.jpg","null","","","","","","learn","SR",""
"","html-keyboard-response","60","87685","0.0-60.0","""event"",""trial"",""time""
""fullscreenenter"",""0"",""3361""
","
","
","""event"",""trial"",""time""
""fullscreenenter"",""0"",""3361""
","
","null","<p></p>","null","","","","","","","",""
"","image","61","88719","0.0-61.0","""event"",""trial"",""time""
""fullscreenenter"",""0"",""3361""
","
","
","""event"",""trial"",""time""
""fullscreenenter"",""0"",""3361""
","
","1031.7999999970198","run_exp/static/images/Set 6_rs/085a.jpg","78","","","","","","learn","SL",""
"","show_choice","62","89688","0.0-62.0","""event"",""trial"",""time""
""fullscreenenter"",""0"",""3361""
","
","
","""event"",""trial"",""time""
""fullscreenenter"",""0"",""3361""
","
","null","run_exp/static/images/Set 6_rs/085a.jpg","null","","","","","","learn","SL",""
"","html-keyboard-response","63","90195","0.0-63.0","""event"",""trial"",""time""
""fullscreenenter"",""0"",""3361""
","
","
","""event"",""trial"",""time""
""fullscreenenter"",""0"",""3361""
","
","null","<p></p>","null","","","","","","","",""
"","image","64","91238","0.0-64.0","""event"",""trial"",""time""
""fullscreenenter"",""0"",""3361""
","
","
","""event"",""trial"",""time""
""fullscreenenter"",""0"",""3361""
","
","1041.5","run_exp/static/images/Set 6_rs/036a.jpg","86","","","","","","learn","SL",""
"","show_choice","65","92200","0.0-65.0","""event"",""trial"",""time""
""fullscreenenter"",""0"",""3361""
","
","
","""event"",""trial"",""time""
""fullscreenenter"",""0"",""3361""
","
","null","run_exp/static/images/Set 6_rs/036a.jpg","null","","","","","","learn","SL",""
"","html-keyboard-response","66","92702","0.0-66.0","""event"",""trial"",""time""
""fullscreenenter"",""0"",""3361""
","
","
","""event"",""trial"",""time""
""fullscreenenter"",""0"",""3361""
","
","null","<p></p>","null","","","","","","","",""
"","image","67","93670","0.0-67.0","""event"",""trial"",""time""
""fullscreenenter"",""0"",""3361""
","
","
","""event"",""trial"",""time""
""fullscreenenter"",""0"",""3361""
","
","967.1000000089407","run_exp/static/images/Set 6_rs/076a.jpg","78","","","","","","learn","SR",""
"","show_choice","68","94708","0.0-68.0","""event"",""trial"",""time""
""fullscreenenter"",""0"",""3361""
","
","
","""event"",""trial"",""time""
""fullscreenenter"",""0"",""3361""
","
","null","run_exp/static/images/Set 6_rs/076a.jpg","null","","","","","","learn","SR",""
"","html-keyboard-response","69","95211","0.0-69.0","""event"",""trial"",""time""
""fullscreenenter"",""0"",""3361""
","
","
","""event"",""trial"",""time""
""fullscreenenter"",""0"",""3361""
","
","null","<p></p>","null","","","","","","","",""
"","image","70","96400","0.0-70.0","""event"",""trial"",""time""
""fullscreenenter"",""0"",""3361""
","
","
","""event"",""trial"",""time""
""fullscreenenter"",""0"",""3361""
","
","1187.699999988079","run_exp/static/images/Set 6_rs/050a.jpg","86","","","","","","learn","SL",""
"","show_choice","71","97216","0.0-71.0","""event"",""trial"",""time""
""fullscreenenter"",""0"",""3361""
","
","
","""event"",""trial"",""time""
""fullscreenenter"",""0"",""3361""
","
","null","run_exp/static/images/Set 6_rs/050a.jpg","null","","","","","","learn","SL",""
"","html-keyboard-response","72","97718","0.0-72.0","""event"",""trial"",""time""
""fullscreenenter"",""0"",""3361""
","
","
","""event"",""trial"",""time""
""fullscreenenter"",""0"",""3361""
","
","null","<p></p>","null","","","","","","","",""
"","image","73","99720","0.0-73.0","""event"",""trial"",""time""
""fullscreenenter"",""0"",""3361""
","
","
","""event"",""trial"",""time""
""fullscreenenter"",""0"",""3361""
","
","null","run_exp/static/images/Set 6_rs/177a.jpg","null","","","","","","learn","SR",""
"","show_choice","74","101724","0.0-74.0","""event"",""trial"",""time""
""fullscreenenter"",""0"",""3361""
","
","
","""event"",""trial"",""time""
""fullscreenenter"",""0"",""3361""
","
","null","run_exp/static/images/blank.png","null","","","","","","learn","SR",""
"","html-keyboard-response","75","102230","0.0-75.0","""event"",""trial"",""time""
""fullscreenenter"",""0"",""3361""
","
","
","""event"",""trial"",""time""
""fullscreenenter"",""0"",""3361""
","
","null","<p></p>","null","","","","","","","",""
"","image","76","103633","0.0-76.0","""event"",""trial"",""time""
""fullscreenenter"",""0"",""3361""
","
","
","""event"",""trial"",""time""
""fullscreenenter"",""0"",""3361""
","
","1401.5","run_exp/static/images/Set 6_rs/075a.jpg","78","","","","","","learn","SR",""
"","show_choice","77","104237","0.0-77.0","""event"",""trial"",""time""
""fullscreenenter"",""0"",""3361""
","
","
","""event"",""trial"",""time""
""fullscreenenter"",""0"",""3361""
","
","null","run_exp/static/images/Set 6_rs/075a.jpg","null","","","","","","learn","SR",""
"","html-keyboard-response","78","104743","0.0-78.0","""event"",""trial"",""time""
""fullscreenenter"",""0"",""3361""
","
","
","""event"",""trial"",""time""
""fullscreenenter"",""0"",""3361""
","
","null","<p></p>","null","","","","","","","",""
"","image","79","105881","0.0-79.0","""event"",""trial"",""time""
""fullscreenenter"",""0"",""3361""
","
","
","""event"",""trial"",""time""
""fullscreenenter"",""0"",""3361""
","
","1136.1000000089407","run_exp/static/images/Set 6_rs/129a.jpg","78","","","","","","learn","SL",""
"","show_choice","80","106745","0.0-80.0","""event"",""trial"",""time""
""fullscreenenter"",""0"",""3361""
","
","
","""event"",""trial"",""time""
""fullscreenenter"",""0"",""3361""
","
","null","run_exp/static/images/Set 6_rs/129a.jpg","null","","","","","","learn","SL",""
"","html-keyboard-response","81","107246","0.0-81.0","""event"",""trial"",""time""
""fullscreenenter"",""0"",""3361""
","
","
","""event"",""trial"",""time""
""fullscreenenter"",""0"",""3361""
","
","null","<p></p>","null","","","","","","","",""
"","image","82","108180","0.0-82.0","""event"",""trial"",""time""
""fullscreenenter"",""0"",""3361""
","
","
","""event"",""trial"",""time""
""fullscreenenter"",""0"",""3361""
","
","932.1000000089407","run_exp/static/images/Set 6_rs/014a.jpg","86","","","","","","learn","SL",""
"","show_choice","83","109253","0.0-83.0","""event"",""trial"",""time""
""fullscreenenter"",""0"",""3361""
","
","
","""event"",""trial"",""time""
""fullscreenenter"",""0"",""3361""
","
","null","run_exp/static/images/Set 6_rs/014a.jpg","null","","","","","","learn","SL",""
"","html-keyboard-response","84","109757","0.0-84.0","""event"",""trial"",""time""
""fullscreenenter"",""0"",""3361""
","
","
","""event"",""trial"",""time""
""fullscreenenter"",""0"",""3361""
","
","null","<p></p>","null","","","","","","","",""
"","image","85","111137","0.0-85.0","""event"",""trial"",""time""
""fullscreenenter"",""0"",""3361""
","
","
","""event"",""trial"",""time""
""fullscreenenter"",""0"",""3361""
","
","1379.2000000029802","run_exp/static/images/Set 6_rs/089a.jpg","86","","","","","","learn","SL",""
"","show_choice","86","111760","0.0-86.0","""event"",""trial"",""time""
""fullscreenenter"",""0"",""3361""
","
","
","""event"",""trial"",""time""
""fullscreenenter"",""0"",""3361""
","
","null","run_exp/static/images/Set 6_rs/089a.jpg","null","","","","","","learn","SL",""
"","html-keyboard-response","87","112265","0.0-87.0","""event"",""trial"",""time""
""fullscreenenter"",""0"",""3361""
","
","
","""event"",""trial"",""time""
""fullscreenenter"",""0"",""3361""
","
","null","<p></p>","null","","","","","","","",""
"","image","88","113482","0.0-88.0","""event"",""trial"",""time""
""fullscreenenter"",""0"",""3361""
","
","
","""event"",""trial"",""time""
""fullscreenenter"",""0"",""3361""
","
","1215.7999999970198","run_exp/static/images/Set 6_rs/112a.jpg","86","","","","","","learn","SR",""
"","show_choice","89","114268","0.0-89.0","""event"",""trial"",""time""
""fullscreenenter"",""0"",""3361""
","
","
","""event"",""trial"",""time""
""fullscreenenter"",""0"",""3361""
","
","null","run_exp/static/images/Set 6_rs/112a.jpg","null","","","","","","learn","SR",""
"","html-keyboard-response","90","114774","0.0-90.0","""event"",""trial"",""time""
""fullscreenenter"",""0"",""3361""
","
","
","""event"",""trial"",""time""
""fullscreenenter"",""0"",""3361""
","
","null","<p></p>","null","","","","","","","",""
"","image","91","115985","0.0-91.0","""event"",""trial"",""time""
""fullscreenenter"",""0"",""3361""
","
","
","""event"",""trial"",""time""
""fullscreenenter"",""0"",""3361""
","
","1209.4000000059605","run_exp/static/images/Set 6_rs/116a.jpg","86","","","","","","learn","SL",""
"","show_choice","92","116782","0.0-92.0","""event"",""trial"",""time""
""fullscreenenter"",""0"",""3361""
","
","
","""event"",""trial"",""time""
""fullscreenenter"",""0"",""3361""
","
","null","run_exp/static/images/Set 6_rs/116a.jpg","null","","","","","","learn","SL",""
"","html-keyboard-response","93","117286","0.0-93.0","""event"",""trial"",""time""
""fullscreenenter"",""0"",""3361""
","
","
","""event"",""trial"",""time""
""fullscreenenter"",""0"",""3361""
","
","null","<p></p>","null","","","","","","","",""
"","image","94","118534","0.0-94.0","""event"",""trial"",""time""
""fullscreenenter"",""0"",""3361""
","
","
","""event"",""trial"",""time""
""fullscreenenter"",""0"",""3361""
","
","1246.5","run_exp/static/images/Set 6_rs/006a.jpg","78","","","","","","learn","SL",""
"","show_choice","95","119288","0.0-95.0","""event"",""trial"",""time""
""fullscreenenter"",""0"",""3361""
","
","
","""event"",""trial"",""time""
""fullscreenenter"",""0"",""3361""
","
","null","run_exp/static/images/Set 6_rs/006a.jpg","null","","","","","","learn","SL",""
"","html-keyboard-response","96","119793","0.0-96.0","""event"",""trial"",""time""
""fullscreenenter"",""0"",""3361""
","
","
","""event"",""trial"",""time""
""fullscreenenter"",""0"",""3361""
","
","null","<p></p>","null","","","","","","","",""
"","image","97","120804","0.0-97.0","""event"",""trial"",""time""
""fullscreenenter"",""0"",""3361""
","
","
","""event"",""trial"",""time""
""fullscreenenter"",""0"",""3361""
","
","1009.0999999940395","run_exp/static/images/Set 6_rs/150a.jpg","86","","","","","","learn","SR",""
"","show_choice","98","121798","0.0-98.0","""event"",""trial"",""time""
""fullscreenenter"",""0"",""3361""
","
","
","""event"",""trial"",""time""
""fullscreenenter"",""0"",""3361""
","
","null","run_exp/static/images/Set 6_rs/150a.jpg","null","","","","","","learn","SR",""
"","html-keyboard-response","99","122303","0.0-99.0","""event"",""trial"",""time""
""fullscreenenter"",""0"",""3361""
","
","
","""event"",""trial"",""time""
""fullscreenenter"",""0"",""3361""
","
","null","<p></p>","null","","","","","","","",""
"","image","100","123241","0.0-100.0","""event"",""trial"",""time""
""fullscreenenter"",""0"",""3361""
","
","
","""event"",""trial"",""time""
""fullscreenenter"",""0"",""3361""
","
","936.3000000119209","run_exp/static/images/Set 6_rs/063a.jpg","86","","","","","","learn","SR",""
"","show_choice","101","124307","0.0-101.0","""event"",""trial"",""time""
""fullscreenenter"",""0"",""3361""
","
","
","""event"",""trial"",""time""
""fullscreenenter"",""0"",""3361""
","
","null","run_exp/static/images/Set 6_rs/063a.jpg","null","","","","","","learn","SR",""
"","html-keyboard-response","102","124814","0.0-102.0","""event"",""trial"",""time""
""fullscreenenter"",""0"",""3361""
","
","
","""event"",""trial"",""time""
""fullscreenenter"",""0"",""3361""
","
","null","<p></p>","null","","","","","","","",""
"","image","103","125664","0.0-103.0","""event"",""trial"",""time""
""fullscreenenter"",""0"",""3361""
","
","
","""event"",""trial"",""time""
""fullscreenenter"",""0"",""3361""
","
","848.7000000029802","run_exp/static/images/Set 6_rs/168a.jpg","86","","","","","","learn","SL",""
"","show_choice","104","126817","0.0-104.0","""event"",""trial"",""time""
""fullscreenenter"",""0"",""3361""
","
","
","""event"",""trial"",""time""
""fullscreenenter"",""0"",""3361""
","
","null","run_exp/static/images/Set 6_rs/168a.jpg","null","","","","","","learn","SL",""
"","html-keyboard-response","105","127319","0.0-105.0","""event"",""trial"",""time""
""fullscreenenter"",""0"",""3361""
","
","
","""event"",""trial"",""time""
""fullscreenenter"",""0"",""3361""
","
","null","<p></p>","null","","","","","","","",""
"","image","106","128483","0.0-106.0","""event"",""trial"",""time""
""fullscreenenter"",""0"",""3361""
","
","
","""event"",""trial"",""time""
""fullscreenenter"",""0"",""3361""
","
","1163.2000000029802","run_exp/static/images/Set 6_rs/061a.jpg","78","","","","","","learn","SR",""
"","show_choice","107","129323","0.0-107.0","""event"",""trial"",""time""
""fullscreenenter"",""0"",""3361""
","
","
","""event"",""trial"",""time""
""fullscreenenter"",""0"",""3361""
","
","null","run_exp/static/images/Set 6_rs/061a.jpg","null","","","","","","learn","SR",""
"","html-keyboard-response","108","129824","0.0-108.0","""event"",""trial"",""time""
""fullscreenenter"",""0"",""3361""
","
","
","""event"",""trial"",""time""
""fullscreenenter"",""0"",""3361""
","
","null","<p></p>","null","","","","","","","",""
"","image","109","130892","0.0-109.0","""event"",""trial"",""time""
""fullscreenenter"",""0"",""3361""
","
","
","""event"",""trial"",""time""
""fullscreenenter"",""0"",""3361""
","
","1066.2999999970198","run_exp/static/images/Set 6_rs/016a.jpg","86","","","","","","learn","SL",""
"","show_choice","110","131830","0.0-110.0","""event"",""trial"",""time""
""fullscreenenter"",""0"",""3361""
","
","
","""event"",""trial"",""time""
""fullscreenenter"",""0"",""3361""
","
","null","run_exp/static/images/Set 6_rs/016a.jpg","null","","","","","","learn","SL",""
"","html-keyboard-response","111","132333","0.0-111.0","""event"",""trial"",""time""
""fullscreenenter"",""0"",""3361""
","
","
","""event"",""trial"",""time""
""fullscreenenter"",""0"",""3361""
","
","null","<p></p>","null","","","","","","","",""
"","image","112","134225","0.0-112.0","""event"",""trial"",""time""
""fullscreenenter"",""0"",""3361""
","
","
","""event"",""trial"",""time""
""fullscreenenter"",""0"",""3361""
","
","1890.0999999940395","run_exp/static/images/Set 6_rs/117a.jpg","78","","","","","","learn","SL",""
"","show_choice","113","134335","0.0-113.0","""event"",""trial"",""time""
""fullscreenenter"",""0"",""3361""
","
","
","""event"",""trial"",""time""
""fullscreenenter"",""0"",""3361""
","
","null","run_exp/static/images/Set 6_rs/117a.jpg","null","","","","","","learn","SL",""
"","html-keyboard-response","114","134840","0.0-114.0","""event"",""trial"",""time""
""fullscreenenter"",""0"",""3361""
","
","
","""event"",""trial"",""time""
""fullscreenenter"",""0"",""3361""
","
","null","<p></p>","null","","","","","","","",""
"","image","115","135791","0.0-115.0","""event"",""trial"",""time""
""fullscreenenter"",""0"",""3361""
","
","
","""event"",""trial"",""time""
""fullscreenenter"",""0"",""3361""
","
","949.0999999940395","run_exp/static/images/Set 6_rs/073a.jpg","86","","","","","","learn","SL",""
"","show_choice","116","136844","0.0-116.0","""event"",""trial"",""time""
""fullscreenenter"",""0"",""3361""
","
","
","""event"",""trial"",""time""
""fullscreenenter"",""0"",""3361""
","
","null","run_exp/static/images/Set 6_rs/073a.jpg","null","","","","","","learn","SL",""
"","html-keyboard-response","117","137349","0.0-117.0","""event"",""trial"",""time""
""fullscreenenter"",""0"",""3361""
","
","
","""event"",""trial"",""time""
""fullscreenenter"",""0"",""3361""
","
","null","<p></p>","null","","","","","","","",""
"","image","118","138947","0.0-118.0","""event"",""trial"",""time""
""fullscreenenter"",""0"",""3361""
","
","
","""event"",""trial"",""time""
""fullscreenenter"",""0"",""3361""
","
","1596.7000000029802","run_exp/static/images/Set 6_rs/144a.jpg","86","","","","","","learn","SL",""
"","show_choice","119","139352","0.0-119.0","""event"",""trial"",""time""
""fullscreenenter"",""0"",""3361""
","
","
","""event"",""trial"",""time""
""fullscreenenter"",""0"",""3361""
","
","null","run_exp/static/images/Set 6_rs/144a.jpg","null","","","","","","learn","SL",""
"","html-keyboard-response","120","139856","0.0-120.0","""event"",""trial"",""time""
""fullscreenenter"",""0"",""3361""
","
","
","""event"",""trial"",""time""
""fullscreenenter"",""0"",""3361""
","
","null","<p></p>","null","","","","","","","",""
"","image","121","141030","0.0-121.0","""event"",""trial"",""time""
""fullscreenenter"",""0"",""3361""
","
","
","""event"",""trial"",""time""
""fullscreenenter"",""0"",""3361""
","
","1173.0999999940395","run_exp/static/images/Set 6_rs/134a.jpg","86","","","","","","learn","SR",""
"","show_choice","122","141858","0.0-122.0","""event"",""trial"",""time""
""fullscreenenter"",""0"",""3361""
","
","
","""event"",""trial"",""time""
""fullscreenenter"",""0"",""3361""
","
","null","run_exp/static/images/Set 6_rs/134a.jpg","null","","","","","","learn","SR",""
"","html-keyboard-response","123","142361","0.0-123.0","""event"",""trial"",""time""
""fullscreenenter"",""0"",""3361""
","
","
","""event"",""trial"",""time""
""fullscreenenter"",""0"",""3361""
","
","null","<p></p>","null","","","","","","","",""
"","image","124","143419","0.0-124.0","""event"",""trial"",""time""
""fullscreenenter"",""0"",""3361""
","
","
","""event"",""trial"",""time""
""fullscreenenter"",""0"",""3361""
","
","1057","run_exp/static/images/Set 6_rs/008a.jpg","78","","","","","","learn","SL",""
"","show_choice","125","144364","0.0-125.0","""event"",""trial"",""time""
""fullscreenenter"",""0"",""3361""
","
","
","""event"",""trial"",""time""
""fullscreenenter"",""0"",""3361""
","
","null","run_exp/static/images/Set 6_rs/008a.jpg","null","","","","","","learn","SL",""
"","html-keyboard-response","126","144865","0.0-126.0","""event"",""trial"",""time""
""fullscreenenter"",""0"",""3361""
","
","
","""event"",""trial"",""time""
""fullscreenenter"",""0"",""3361""
","
","null","<p></p>","null","","","","","","","",""
"","image","127","145701","0.0-127.0","""event"",""trial"",""time""
""fullscreenenter"",""0"",""3361""
","
","
","""event"",""trial"",""time""
""fullscreenenter"",""0"",""3361""
","
","834.2000000029802","run_exp/static/images/Set 6_rs/181a.jpg","78","","","","","","learn","SL",""
"","show_choice","128","146872","0.0-128.0","""event"",""trial"",""time""
""fullscreenenter"",""0"",""3361""
","
","
","""event"",""trial"",""time""
""fullscreenenter"",""0"",""3361""
","
","null","run_exp/static/images/Set 6_rs/181a.jpg","null","","","","","","learn","SL",""
"","html-keyboard-response","129","147376","0.0-129.0","""event"",""trial"",""time""
""fullscreenenter"",""0"",""3361""
","
","
","""event"",""trial"",""time""
""fullscreenenter"",""0"",""3361""
","
","null","<p></p>","null","","","","","","","",""
"","image","130","148229","0.0-130.0","""event"",""trial"",""time""
""fullscreenenter"",""0"",""3361""
","
","
","""event"",""trial"",""time""
""fullscreenenter"",""0"",""3361""
","
","851.7999999970198","run_exp/static/images/Set 6_rs/178a.jpg","78","","","","","","learn","SR",""
"","show_choice","131","149379","0.0-131.0","""event"",""trial"",""time""
""fullscreenenter"",""0"",""3361""
","
","
","""event"",""trial"",""time""
""fullscreenenter"",""0"",""3361""
","
","null","run_exp/static/images/Set 6_rs/178a.jpg","null","","","","","","learn","SR",""
"","html-keyboard-response","132","149881","0.0-132.0","""event"",""trial"",""time""
""fullscreenenter"",""0"",""3361""
","
","
","""event"",""trial"",""time""
""fullscreenenter"",""0"",""3361""
","
","null","<p></p>","null","","","","","","","",""
"","image","133","151336","0.0-133.0","""event"",""trial"",""time""
""fullscreenenter"",""0"",""3361""
","
","
","""event"",""trial"",""time""
""fullscreenenter"",""0"",""3361""
","
","1453.699999988079","run_exp/static/images/Set 6_rs/191a.jpg","78","","","","","","learn","SL",""
"","show_choice","134","151888","0.0-134.0","""event"",""trial"",""time""
""fullscreenenter"",""0"",""3361""
","
","
","""event"",""trial"",""time""
""fullscreenenter"",""0"",""3361""
","
","null","run_exp/static/images/Set 6_rs/191a.jpg","null","","","","","","learn","SL",""
"","html-keyboard-response","135","152394","0.0-135.0","""event"",""trial"",""time""
""fullscreenenter"",""0"",""3361""
","
","
","""event"",""trial"",""time""
""fullscreenenter"",""0"",""3361""
","
","null","<p></p>","null","","","","","","","",""
"","image","136","153178","0.0-136.0","""event"",""trial"",""time""
""fullscreenenter"",""0"",""3361""
","
","
","""event"",""trial"",""time""
""fullscreenenter"",""0"",""3361""
","
","782.5","run_exp/static/images/Set 6_rs/079a.jpg","86","","","","","","learn","SL",""
"","show_choice","137","154401","0.0-137.0","""event"",""trial"",""time""
""fullscreenenter"",""0"",""3361""
","
","
","""event"",""trial"",""time""
""fullscreenenter"",""0"",""3361""
","
","null","run_exp/static/images/Set 6_rs/079a.jpg","null","","","","","","learn","SL",""
"","html-keyboard-response","138","154902","0.0-138.0","""event"",""trial"",""time""
""fullscreenenter"",""0"",""3361""
","
","
","""event"",""trial"",""time""
""fullscreenenter"",""0"",""3361""
","
","null","<p></p>","null","","","","","","","",""
"","image","139","156563","0.0-139.0","""event"",""trial"",""time""
""fullscreenenter"",""0"",""3361""
","
","
","""event"",""trial"",""time""
""fullscreenenter"",""0"",""3361""
","
","1659.1000000089407","run_exp/static/images/Set 6_rs/138a.jpg","78","","","","","","learn","SL",""
"","show_choice","140","156906","0.0-140.0","""event"",""trial"",""time""
""fullscreenenter"",""0"",""3361""
","
","
","""event"",""trial"",""time""
""fullscreenenter"",""0"",""3361""
","
","null","run_exp/static/images/Set 6_rs/138a.jpg","null","","","","","","learn","SL",""
"","html-keyboard-response","141","157409","0.0-141.0","""event"",""trial"",""time""
""fullscreenenter"",""0"",""3361""
","
","
","""event"",""trial"",""time""
""fullscreenenter"",""0"",""3361""
","
","null","<p></p>","null","","","","","","","",""
"","image","142","158729","0.0-142.0","""event"",""trial"",""time""
""fullscreenenter"",""0"",""3361""
","
","
","""event"",""trial"",""time""
""fullscreenenter"",""0"",""3361""
","
","1318.0999999940395","run_exp/static/images/Set 6_rs/108a.jpg","78","","","","","","learn","SR",""
"","show_choice","143","159416","0.0-143.0","""event"",""trial"",""time""
""fullscreenenter"",""0"",""3361""
","
","
","""event"",""trial"",""time""
""fullscreenenter"",""0"",""3361""
","
","null","run_exp/static/images/Set 6_rs/108a.jpg","null","","","","","","learn","SR",""
"","html-keyboard-response","144","159917","0.0-144.0","""event"",""trial"",""time""
""fullscreenenter"",""0"",""3361""
","
","
","""event"",""trial"",""time""
""fullscreenenter"",""0"",""3361""
","
","null","<p></p>","null","","","","","","","",""
"","image","145","161378","0.0-145.0","""event"",""trial"",""time""
""fullscreenenter"",""0"",""3361""
","
","
","""event"",""trial"",""time""
""fullscreenenter"",""0"",""3361""
","
","1459.2000000029802","run_exp/static/images/Set 6_rs/126a.jpg","78","","","","","","learn","SR",""
"","show_choice","146","161922","0.0-146.0","""event"",""trial"",""time""
""fullscreenenter"",""0"",""3361""
","
","
","""event"",""trial"",""time""
""fullscreenenter"",""0"",""3361""
","
","null","run_exp/static/images/Set 6_rs/126a.jpg","null","","","","","","learn","SR",""
"","html-keyboard-response","147","162427","0.0-147.0","""event"",""trial"",""time""
""fullscreenenter"",""0"",""3361""
","
","
","""event"",""trial"",""time""
""fullscreenenter"",""0"",""3361""
","
","null","<p></p>","null","","","","","","","",""
"","image","148","163328","0.0-148.0","""event"",""trial"",""time""
""fullscreenenter"",""0"",""3361""
","
","
","""event"",""trial"",""time""
""fullscreenenter"",""0"",""3361""
","
","899.6000000089407","run_exp/static/images/Set 6_rs/123a.jpg","78","","","","","","learn","SL",""
"","show_choice","149","164429","0.0-149.0","""event"",""trial"",""time""
""fullscreenenter"",""0"",""3361""
","
","
","""event"",""trial"",""time""
""fullscreenenter"",""0"",""3361""
","
","null","run_exp/static/images/Set 6_rs/123a.jpg","null","","","","","","learn","SL",""
"","html-keyboard-response","150","164935","0.0-150.0","""event"",""trial"",""time""
""fullscreenenter"",""0"",""3361""
","
","
","""event"",""trial"",""time""
""fullscreenenter"",""0"",""3361""
","
","null","<p></p>","null","","","","","","","",""
"","image","151","166216","0.0-151.0","""event"",""trial"",""time""
""fullscreenenter"",""0"",""3361""
","
","
","""event"",""trial"",""time""
""fullscreenenter"",""0"",""3361""
","
","1278.9000000059605","run_exp/static/images/Set 6_rs/019a.jpg","86","","","","","","learn","SL",""
"","show_choice","152","166943","0.0-152.0","""event"",""trial"",""time""
""fullscreenenter"",""0"",""3361""
","
","
","""event"",""trial"",""time""
""fullscreenenter"",""0"",""3361""
","
","null","run_exp/static/images/Set 6_rs/019a.jpg","null","","","","","","learn","SL",""
"","html-keyboard-response","153","167449","0.0-153.0","""event"",""trial"",""time""
""fullscreenenter"",""0"",""3361""
","
","
","""event"",""trial"",""time""
""fullscreenenter"",""0"",""3361""
","
","null","<p></p>","null","","","","","","","",""
"","image","154","169293","0.0-154.0","""event"",""trial"",""time""
""fullscreenenter"",""0"",""3361""
","
","
","""event"",""trial"",""time""
""fullscreenenter"",""0"",""3361""
","
","1842.9000000059605","run_exp/static/images/Set 6_rs/010a.jpg","86","","","","","","learn","SR",""
"","show_choice","155","169452","0.0-155.0","""event"",""trial"",""time""
""fullscreenenter"",""0"",""3361""
","
","
","""event"",""trial"",""time""
""fullscreenenter"",""0"",""3361""
","
","null","run_exp/static/images/Set 6_rs/010a.jpg","null","","","","","","learn","SR",""
"","html-keyboard-response","156","169956","0.0-156.0","""event"",""trial"",""time""
""fullscreenenter"",""0"",""3361""
","
","
","""event"",""trial"",""time""
""fullscreenenter"",""0"",""3361""
","
","null","<p></p>","null","","","","","","","",""
"","image","157","171393","0.0-157.0","""event"",""trial"",""time""
""fullscreenenter"",""0"",""3361""
","
","
","""event"",""trial"",""time""
""fullscreenenter"",""0"",""3361""
","
","1435.5999999940395","run_exp/static/images/Set 6_rs/132a.jpg","78","","","","","","learn","SR",""
"","show_choice","158","171963","0.0-158.0","""event"",""trial"",""time""
""fullscreenenter"",""0"",""3361""
","
","
","""event"",""trial"",""time""
""fullscreenenter"",""0"",""3361""
","
","null","run_exp/static/images/Set 6_rs/132a.jpg","null","","","","","","learn","SR",""
"","html-keyboard-response","159","172469","0.0-159.0","""event"",""trial"",""time""
""fullscreenenter"",""0"",""3361""
","
","
","""event"",""trial"",""time""
""fullscreenenter"",""0"",""3361""
","
","null","<p></p>","null","","","","","","","",""
"","image","160","173382","0.0-160.0","""event"",""trial"",""time""
""fullscreenenter"",""0"",""3361""
","
","
","""event"",""trial"",""time""
""fullscreenenter"",""0"",""3361""
","
","910.7999999970198","run_exp/static/images/Set 6_rs/007a.jpg","86","","","","","","learn","SR",""
"","show_choice","161","174476","0.0-161.0","""event"",""trial"",""time""
""fullscreenenter"",""0"",""3361""
","
","
","""event"",""trial"",""time""
""fullscreenenter"",""0"",""3361""
","
","null","run_exp/static/images/Set 6_rs/007a.jpg","null","","","","","","learn","SR",""
"","html-keyboard-response","162","174982","0.0-162.0","""event"",""trial"",""time""
""fullscreenenter"",""0"",""3361""
","
","
","""event"",""trial"",""time""
""fullscreenenter"",""0"",""3361""
","
","null","<p></p>","null","","","","","","","",""
"","image","163","175872","0.0-163.0","""event"",""trial"",""time""
""fullscreenenter"",""0"",""3361""
","
","
","""event"",""trial"",""time""
""fullscreenenter"",""0"",""3361""
","
","887.5999999940395","run_exp/static/images/Set 6_rs/071a.jpg","78","","","","","","learn","SL",""
"","show_choice","164","176989","0.0-164.0","""event"",""trial"",""time""
""fullscreenenter"",""0"",""3361""
","
","
","""event"",""trial"",""time""
""fullscreenenter"",""0"",""3361""
","
","null","run_exp/static/images/Set 6_rs/071a.jpg","null","","","","","","learn","SL",""
"","html-keyboard-response","165","177495","0.0-165.0","""event"",""trial"",""time""
""fullscreenenter"",""0"",""3361""
","
","
","""event"",""trial"",""time""
""fullscreenenter"",""0"",""3361""
","
","null","<p></p>","null","","","","","","","",""
"","image","166","178478","0.0-166.0","""event"",""trial"",""time""
""fullscreenenter"",""0"",""3361""
","
","
","""event"",""trial"",""time""
""fullscreenenter"",""0"",""3361""
","
","980.6000000089407","run_exp/static/images/Set 6_rs/186a.jpg","86","","","","","","learn","SR",""
"","show_choice","167","179502","0.0-167.0","""event"",""trial"",""time""
""fullscreenenter"",""0"",""3361""
","
","
","""event"",""trial"",""time""
""fullscreenenter"",""0"",""3361""
","
","null","run_exp/static/images/Set 6_rs/186a.jpg","null","","","","","","learn","SR",""
"","html-keyboard-response","168","180008","0.0-168.0","""event"",""trial"",""time""
""fullscreenenter"",""0"",""3361""
","
","
","""event"",""trial"",""time""
""fullscreenenter"",""0"",""3361""
","
","null","<p></p>","null","","","","","","","",""
"","image","169","182014","0.0-169.0","""event"",""trial"",""time""
""fullscreenenter"",""0"",""3361""
","
","
","""event"",""trial"",""time""
""fullscreenenter"",""0"",""3361""
","
","null","run_exp/static/images/Set 6_rs/045a.jpg","null","","","","","","learn","SR",""
"","show_choice","170","184016","0.0-170.0","""event"",""trial"",""time""
""fullscreenenter"",""0"",""3361""
","
","
","""event"",""trial"",""time""
""fullscreenenter"",""0"",""3361""
","
","null","run_exp/static/images/blank.png","null","","","","","","learn","SR",""
"","html-keyboard-response","171","184523","0.0-171.0","""event"",""trial"",""time""
""fullscreenenter"",""0"",""3361""
","
","
","""event"",""trial"",""time""
""fullscreenenter"",""0"",""3361""
","
","null","<p></p>","null","","","","","","","",""
"","image","172","185664","0.0-172.0","""event"",""trial"",""time""
""fullscreenenter"",""0"",""3361""
","
","
","""event"",""trial"",""time""
""fullscreenenter"",""0"",""3361""
","
","1139.9000000059605","run_exp/static/images/Set 6_rs/111a.jpg","86","","","","","","learn","SL",""
"","show_choice","173","186530","0.0-173.0","""event"",""trial"",""time""
""fullscreenenter"",""0"",""3361""
","
","
","""event"",""trial"",""time""
""fullscreenenter"",""0"",""3361""
","
","null","run_exp/static/images/Set 6_rs/111a.jpg","null","","","","","","learn","SL",""
"","html-keyboard-response","174","187031","0.0-174.0","""event"",""trial"",""time""
""fullscreenenter"",""0"",""3361""
","
","
","""event"",""trial"",""time""
""fullscreenenter"",""0"",""3361""
","
","null","<p></p>","null","","","","","","","",""
"","image","175","187894","0.0-175.0","""event"",""trial"",""time""
""fullscreenenter"",""0"",""3361""
","
","
","""event"",""trial"",""time""
""fullscreenenter"",""0"",""3361""
","
","861.3000000119209","run_exp/static/images/Set 6_rs/141a.jpg","78","","","","","","learn","SR",""
"","show_choice","176","189038","0.0-176.0","""event"",""trial"",""time""
""fullscreenenter"",""0"",""3361""
","
","
","""event"",""trial"",""time""
""fullscreenenter"",""0"",""3361""
","
","null","run_exp/static/images/Set 6_rs/141a.jpg","null","","","","","","learn","SR",""
"","html-keyboard-response","177","189544","0.0-177.0","""event"",""trial"",""time""
""fullscreenenter"",""0"",""3361""
","
","
","""event"",""trial"",""time""
""fullscreenenter"",""0"",""3361""
","
","null","<p></p>","null","","","","","","","",""
"","image","178","190646","0.0-178.0","""event"",""trial"",""time""
""fullscreenenter"",""0"",""3361""
","
","
","""event"",""trial"",""time""
""fullscreenenter"",""0"",""3361""
","
","1100.0999999940395","run_exp/static/images/Set 6_rs/064a.jpg","78","","","","","","learn","SR",""
"","show_choice","179","191551","0.0-179.0","""event"",""trial"",""time""
""fullscreenenter"",""0"",""3361""
","
","
","""event"",""trial"",""time""
""fullscreenenter"",""0"",""3361""
","
","null","run_exp/static/images/Set 6_rs/064a.jpg","null","","","","","","learn","SR",""
"","html-keyboard-response","180","192052","0.0-180.0","""event"",""trial"",""time""
""fullscreenenter"",""0"",""3361""
","
","
","""event"",""trial"",""time""
""fullscreenenter"",""0"",""3361""
","
","null","<p></p>","null","","","","","","","",""
"","image","181","193235","0.0-181.0","""event"",""trial"",""time""
""fullscreenenter"",""0"",""3361""
","
","
","""event"",""trial"",""time""
""fullscreenenter"",""0"",""3361""
","
","1181.6000000089407","run_exp/static/images/Set 6_rs/166a.jpg","86","","","","","","learn","SR",""
"","show_choice","182","194059","0.0-182.0","""event"",""trial"",""time""
""fullscreenenter"",""0"",""3361""
","
","
","""event"",""trial"",""time""
""fullscreenenter"",""0"",""3361""
","
","null","run_exp/static/images/Set 6_rs/166a.jpg","null","","","","","","learn","SR",""
"","html-keyboard-response","183","194565","0.0-183.0","""event"",""trial"",""time""
""fullscreenenter"",""0"",""3361""
","
","
","""event"",""trial"",""time""
""fullscreenenter"",""0"",""3361""
","
","null","<p></p>","null","","","","","","","",""
"","image","184","195966","0.0-184.0","""event"",""trial"",""time""
""fullscreenenter"",""0"",""3361""
","
","
","""event"",""trial"",""time""
""fullscreenenter"",""0"",""3361""
","
","1399.699999988079","run_exp/static/images/Set 6_rs/095a.jpg","86","","","","","","learn","SL",""
"","show_choice","185","196568","0.0-185.0","""event"",""trial"",""time""
""fullscreenenter"",""0"",""3361""
","
","
","""event"",""trial"",""time""
""fullscreenenter"",""0"",""3361""
","
","null","run_exp/static/images/Set 6_rs/095a.jpg","null","","","","","","learn","SL",""
"","html-keyboard-response","186","197074","0.0-186.0","""event"",""trial"",""time""
""fullscreenenter"",""0"",""3361""
","
","
","""event"",""trial"",""time""
""fullscreenenter"",""0"",""3361""
","
","null","<p></p>","null","","","","","","","",""
"","image","187","198387","0.0-187.0","""event"",""trial"",""time""
""fullscreenenter"",""0"",""3361""
","
","
","""event"",""trial"",""time""
""fullscreenenter"",""0"",""3361""
","
","1311.8999999910593","run_exp/static/images/Set 6_rs/187a.jpg","86","","","","","","learn","SR",""
"","show_choice","188","199081","0.0-188.0","""event"",""trial"",""time""
""fullscreenenter"",""0"",""3361""
","
","
","""event"",""trial"",""time""
""fullscreenenter"",""0"",""3361""
","
","null","run_exp/static/images/Set 6_rs/187a.jpg","null","","","","","","learn","SR",""
"","html-keyboard-response","189","199586","0.0-189.0","""event"",""trial"",""time""
""fullscreenenter"",""0"",""3361""
","
","
","""event"",""trial"",""time""
""fullscreenenter"",""0"",""3361""
","
","null","<p></p>","null","","","","","","","",""
"","image","190","200433","0.0-190.0","""event"",""trial"",""time""
""fullscreenenter"",""0"",""3361""
","
","
","""event"",""trial"",""time""
""fullscreenenter"",""0"",""3361""
","
","846.2000000029802","run_exp/static/images/Set 6_rs/091a.jpg","78","","","","","","learn","SL",""
"","show_choice","191","201587","0.0-191.0","""event"",""trial"",""time""
""fullscreenenter"",""0"",""3361""
","
","
","""event"",""trial"",""time""
""fullscreenenter"",""0"",""3361""
","
","null","run_exp/static/images/Set 6_rs/091a.jpg","null","","","","","","learn","SL",""
"","html-keyboard-response","192","202089","0.0-192.0","""event"",""trial"",""time""
""fullscreenenter"",""0"",""3361""
","
","
","""event"",""trial"",""time""
""fullscreenenter"",""0"",""3361""
","
","null","<p></p>","null","","","","","","","",""
"","image","193","203361","0.0-193.0","""event"",""trial"",""time""
""fullscreenenter"",""0"",""3361""
","
","
","""event"",""trial"",""time""
""fullscreenenter"",""0"",""3361""
","
","1269.2999999970198","run_exp/static/images/Set 6_rs/025a.jpg","78","","","","","","learn","SL",""
"","show_choice","194","204093","0.0-194.0","""event"",""trial"",""time""
""fullscreenenter"",""0"",""3361""
","
","
","""event"",""trial"",""time""
""fullscreenenter"",""0"",""3361""
","
","null","run_exp/static/images/Set 6_rs/025a.jpg","null","","","","","","learn","SL",""
"","html-keyboard-response","195","204594","0.0-195.0","""event"",""trial"",""time""
""fullscreenenter"",""0"",""3361""
","
","
","""event"",""trial"",""time""
""fullscreenenter"",""0"",""3361""
","
","null","<p></p>","null","","","","","","","",""
"","test_intro","196","241570","0.0-196.0","""event"",""trial"",""time""
""fullscreenenter"",""0"",""3361""
","
","
","""event"",""trial"",""time""
""fullscreenenter"",""0"",""3361""
","
","null","run_exp/static/audio/clip_2_memory.m4a","null","","","","","<div class='center'><p>Now, lets see how much you remember about the items you just saw.  For each item, you need to indicate if it was <b>old</b> by pressing the <b>v</b> key, <b>similar</b> by pressing the <b>b</b> key, or <b>new</b> by pressing the <b>n</b> key.</p><p>Old refers to an item that you saw before in the indoor/outdoor game that you just played, new refers to an item you have <b>not</b> seen before within the indoor/outdoor game, and similar refers to an item that is similar to an item youve seen before but is not exactly the same. </p><p>Before we begin, lets go over some brief demonstrations to make sure you understand.</p></div>","","",""
"","html-keyboard-response","197","243208","0.0-197.0","""event"",""trial"",""time""
""fullscreenenter"",""0"",""3361""
","
","
","""event"",""trial"",""time""
""fullscreenenter"",""0"",""3361""
","
","1635.3999999910593","<div class='center'><p>Now, lets see how much you remember about the items you just saw.  For each item, you need to indicate if it was <b>old</b> by pressing the <b>v</b> key, <b>similar</b> by pressing the <b>b</b> key, or <b>new</b> by pressing the <b>n</b> key.</p><p>Old refers to an item that you saw before in the indoor/outdoor game that you just played, new refers to an item you have <b>not</b> seen before within the indoor/outdoor game, and similar refers to an item that is similar to an item youve seen before but is not exactly the same. </p><p>Before we begin, lets go over some brief demonstrations to make sure you understand.</p><div><p><b>[Press the space bar to continue]</b></p></div>","32","","","","","","","",""
"","items","198","250714","0.0-198.0","""event"",""trial"",""time""
""fullscreenenter"",""0"",""3361""
","
","
","""event"",""trial"",""time""
""fullscreenenter"",""0"",""3361""
","
","null","run_exp/static/audio/clip_3_items.m4a","null","","","","","","","",""
"","mop","199","255220","0.0-199.0","""event"",""trial"",""time""
""fullscreenenter"",""0"",""3361""
","
","
","""event"",""trial"",""time""
""fullscreenenter"",""0"",""3361""
","
","null","run_exp/static/audio/clip_4_mop.m4a","null","","","","","","","",""
"","baseball","200","258726","0.0-200.0","""event"",""trial"",""time""
""fullscreenenter"",""0"",""3361""
","
","
","""event"",""trial"",""time""
""fullscreenenter"",""0"",""3361""
","
","null","run_exp/static/audio/clip_5_baseball.m4a","null","","","","","","","",""
"","trumpet","201","262231","0.0-201.0","""event"",""trial"",""time""
""fullscreenenter"",""0"",""3361""
","
","
","""event"",""trial"",""time""
""fullscreenenter"",""0"",""3361""
","
","null","run_exp/static/audio/clip_6_trumpet.m4a","null","","","","","","","",""
"","gummies","202","265735","0.0-202.0","""event"",""trial"",""time""
""fullscreenenter"",""0"",""3361""
","
","
","""event"",""trial"",""time""
""fullscreenenter"",""0"",""3361""
","
","null","run_exp/static/audio/clip_7_gummies.m4a","null","","","","","","","",""
"","osn","203","270240","0.0-203.0","""event"",""trial"",""time""
""fullscreenenter"",""0"",""3361""
","
","
","""event"",""trial"",""time""
""fullscreenenter"",""0"",""3361""
","
","null","run_exp/static/audio/clip_8_osn.m4a","null","","","","","","","",""
"","old_1","204","276746","0.0-204.0","""event"",""trial"",""time""
""fullscreenenter"",""0"",""3361""
","
","
","""event"",""trial"",""time""
""fullscreenenter"",""0"",""3361""
","
","null","run_exp/static/audio/clip_9_old_trumpet.m4a","null","","","","","","","",""
"","new_1","205","284254","0.0-205.0","""event"",""trial"",""time""
""fullscreenenter"",""0"",""3361""
","
","
","""event"",""trial"",""time""
""fullscreenenter"",""0"",""3361""
","
","null","run_exp/static/audio/clip_10_new_balloon.m4a","null","","","","","","","",""
"","similar_1a","206","288759","0.0-206.0","""event"",""trial"",""time""
""fullscreenenter"",""0"",""3361""
","
","
","""event"",""trial"",""time""
""fullscreenenter"",""0"",""3361""
","
","null","run_exp/static/audio/clip_11a_similar_mop.m4a","null","","","","","","","",""
"","similar_1b","207","295261","0.0-207.0","""event"",""trial"",""time""
""fullscreenenter"",""0"",""3361""
","
","
","""event"",""trial"",""time""
""fullscreenenter"",""0"",""3361""
","
","null","run_exp/static/audio/clip_11b_similar_mop.m4a","null","","","","","","","",""
"","new_2","208","298768","0.0-208.0","""event"",""trial"",""time""
""fullscreenenter"",""0"",""3361""
","
","
","""event"",""trial"",""time""
""fullscreenenter"",""0"",""3361""
","
","null","run_exp/static/audio/clip_12_new_stoplight.m4a","null","","","","","","","",""
"","old_2","209","302275","0.0-209.0","""event"",""trial"",""time""
""fullscreenenter"",""0"",""3361""
","
","
","""event"",""trial"",""time""
""fullscreenenter"",""0"",""3361""
","
","null","run_exp/static/audio/clip_13_old_baseball.m4a","null","","","","","","","",""
"","similar_2a","210","305777","0.0-210.0","""event"",""trial"",""time""
""fullscreenenter"",""0"",""3361""
","
","
","""event"",""trial"",""time""
""fullscreenenter"",""0"",""3361""
","
","null","run_exp/static/audio/clip_14a_similar_gummies.m4a","null","","","","","","","",""
"","similar_2b","211","313280","0.0-211.0","""event"",""trial"",""time""
""fullscreenenter"",""0"",""3361""
","
","
","""event"",""trial"",""time""
""fullscreenenter"",""0"",""3361""
","
","null","run_exp/static/audio/clip_14b_similar_gummies.m4a","null","","","","","","","",""
"","practice","212","355390","0.0-212.0","""event"",""trial"",""time""
""fullscreenenter"",""0"",""3361""
","
","
","""event"",""trial"",""time""
""fullscreenenter"",""0"",""3361""
","
","null","run_exp/static/audio/clip_15_practice.m4a","null","","","","","<div class='center'><p>Lets practice a little to make sure you understand the difference between new, similar, and old. Lets say you saw these three items in the indoor/outdoor game.</p><p> Try your best to remember these images because youll soon be tested on them in a practice game. In the practice game, youll be shown images and youll have to say if they are old (one of the three images belows), similar (similar to one of the images below but not exactly the same), or new (are not one of the images below nor similar to them).</p><p>Once you press the space bar youll be shown these images again but one at time. Then youll begin the practice game.</p><p><img src='run_exp/static/images/tutorial/test/three_indoor_outdoor.png' height='300'></p></div>","","",""
"","html-keyboard-response","213","365161","0.0-213.0","""event"",""trial"",""time""
""fullscreenenter"",""0"",""3361""
","
","
","""event"",""trial"",""time""
""fullscreenenter"",""0"",""3361""
","
","9768.60000000894","<div class='center'><p>Lets practice a little to make sure you understand the difference between new, similar, and old. Lets say you saw these three items in the indoor/outdoor game.</p><p> Try your best to remember these images because youll soon be tested on them in a practice game. In the practice game, youll be shown images and youll have to say if they are old (one of the three images belows), similar (similar to one of the images below but not exactly the same), or new (are not one of the images below nor similar to them).</p><p>Once you press the space bar youll be shown these images again but one at time. Then youll begin the practice game.</p><p><img src='run_exp/static/images/tutorial/test/three_indoor_outdoor.png' height='300'></p><div><p><b>[Press the space bar to continue]</b></p></div>","32","","","","","","","",""
"","planet","214","367167","0.0-214.0","""event"",""trial"",""time""
""fullscreenenter"",""0"",""3361""
","
","
","""event"",""trial"",""time""
""fullscreenenter"",""0"",""3361""
","
","null","run_exp/static/images/tutorial/test/008a.jpg","null","","","","","","","",""
"","boot","215","369171","0.0-215.0","""event"",""trial"",""time""
""fullscreenenter"",""0"",""3361""
","
","
","""event"",""trial"",""time""
""fullscreenenter"",""0"",""3361""
","
","null","run_exp/static/images/tutorial/test/011a.jpg","null","","","","","","","",""
"","lemon","216","371176","0.0-216.0","""event"",""trial"",""time""
""fullscreenenter"",""0"",""3361""
","
","
","""event"",""trial"",""time""
""fullscreenenter"",""0"",""3361""
","
","null","run_exp/static/images/tutorial/test/018a.jpg","null","","","","","","","",""
"","practice_q1","217","371279","0.0-217.0","""event"",""trial"",""time""
""fullscreenenter"",""0"",""3361""
","
","
","""event"",""trial"",""time""
""fullscreenenter"",""0"",""3361""
","
","99.5","run_exp/static/audio/clip_16_practice_question.m4a","66","","","","","","","",""
"","incorrect_q1","218","374120","0.0-218.0-0.0","""event"",""trial"",""time""
""fullscreenenter"",""0"",""3361""
","
","
","""event"",""trial"",""time""
""fullscreenenter"",""0"",""3361""
","
","null","run_exp/static/audio/clip_18_incorrect_new.m4a","null","","","","","<div class='center'><p>Thats incorrect. Its new.</p></div>","","",""
"","html-keyboard-response","219","379027","0.0-218.0-1.0","""event"",""trial"",""time""
""fullscreenenter"",""0"",""3361""
","
","
","""event"",""trial"",""time""
""fullscreenenter"",""0"",""3361""
","
","4905.20000000298","<div class='center'><p>Thats incorrect. Its new.</p><div><p><b>[Press the space bar to continue]</b></p></div>","32","","","","","","","",""
"","practice_q2","220","382986","0.0-218.0-2.0","""event"",""trial"",""time""
""fullscreenenter"",""0"",""3361""
","
","
","""event"",""trial"",""time""
""fullscreenenter"",""0"",""3361""
","
","3956.7000000029802","run_exp/static/audio/clip_16_practice_question.m4a","86","","","","","","","",""
"","correct","221","384894","0.0-219.0-0.0","""event"",""trial"",""time""
""fullscreenenter"",""0"",""3361""
","
","
","""event"",""trial"",""time""
""fullscreenenter"",""0"",""3361""
","
","null","run_exp/static/audio/clip_17_correct.m4a","null","","","","","<div class='center'><p>That's correct!</p></div>","","",""
"","html-keyboard-response","222","385510","0.0-219.0-1.0","""event"",""trial"",""time""
""fullscreenenter"",""0"",""3361""
","
","
","""event"",""trial"",""time""
""fullscreenenter"",""0"",""3361""
","
","614.7000000029802","<div class='center'><p>That's correct!</p><div><p><b>[Press the space bar to continue]</b></p></div>","32","","","","","","","",""
"","practice_q3","223","387116","0.0-219.0-2.0","""event"",""trial"",""time""
""fullscreenenter"",""0"",""3361""
","
","
","""event"",""trial"",""time""
""fullscreenenter"",""0"",""3361""
","
","1604.2000000029802","run_exp/static/audio/clip_16_practice_question.m4a","66","","","","","","","",""
"","correct","224","389004","0.0-220.0-0.0","""event"",""trial"",""time""
""fullscreenenter"",""0"",""3361""
","
","
","""event"",""trial"",""time""
""fullscreenenter"",""0"",""3361""
","
","null","run_exp/static/audio/clip_17_correct.m4a","null","","","","","<div class='center'><p>That's correct!</p></div>","","",""
"","html-keyboard-response","225","389366","0.0-220.0-1.0","""event"",""trial"",""time""
""fullscreenenter"",""0"",""3361""
","
","
","""event"",""trial"",""time""
""fullscreenenter"",""0"",""3361""
","
","360.5","<div class='center'><p>That's correct!</p><div><p><b>[Press the space bar to continue]</b></p></div>","32","","","","","","","",""
"","repeat","226","394112","0.0-221.0-0.0","""event"",""trial"",""time""
""fullscreenenter"",""0"",""3361""
","
","
","""event"",""trial"",""time""
""fullscreenenter"",""0"",""3361""
","
","null","run_exp/static/audio/clip_21_practice_again.m4a","null","","","","","<div class='center'><p>Oops. you missed at least one of these questions. Let's try practicing again. </p></div>","","",""
"","html-keyboard-response","227","394511","0.0-221.0-1.0","""event"",""trial"",""time""
""fullscreenenter"",""0"",""3361""
","
","
","""event"",""trial"",""time""
""fullscreenenter"",""0"",""3361""
","
","397.70000000298023","<div class='center'><p>Oops. you missed at least one of these questions. Let's try practicing again. </p><div><p><b>[Press the space bar to continue]</b></p></div>","32","","","","","","","",""
"","practice_q1","228","395618","0.0-221.0-2.0","""event"",""trial"",""time""
""fullscreenenter"",""0"",""3361""
","
","
","""event"",""trial"",""time""
""fullscreenenter"",""0"",""3361""
","
","1105.0999999940395","run_exp/static/audio/clip_16_practice_question.m4a","78","","","","","","","",""
"","correct","229","397502","0.0-222.0-0.0","""event"",""trial"",""time""
""fullscreenenter"",""0"",""3361""
","
","
","""event"",""trial"",""time""
""fullscreenenter"",""0"",""3361""
","
","null","run_exp/static/audio/clip_17_correct.m4a","null","","","","","<div class='center'><p>That's correct!</p></div>","","",""
"","html-keyboard-response","230","397565","0.0-222.0-1.0","""event"",""trial"",""time""
""fullscreenenter"",""0"",""3361""
","
","
","""event"",""trial"",""time""
""fullscreenenter"",""0"",""3361""
","
","61.5","<div class='center'><p>That's correct!</p><div><p><b>[Press the space bar to continue]</b></p></div>","32","","","","","","","",""
"","practice_q2","231","398939","0.0-222.0-2.0","""event"",""trial"",""time""
""fullscreenenter"",""0"",""3361""
","
","
","""event"",""trial"",""time""
""fullscreenenter"",""0"",""3361""
","
","1371.9000000059605","run_exp/static/audio/clip_16_practice_question.m4a","86","","","","","","","",""
"","correct","232","400822","0.0-223.0-0.0","""event"",""trial"",""time""
""fullscreenenter"",""0"",""3361""
","
","
","""event"",""trial"",""time""
""fullscreenenter"",""0"",""3361""
","
","null","run_exp/static/audio/clip_17_correct.m4a","null","","","","","<div class='center'><p>That's correct!</p></div>","","",""
"","html-keyboard-response","233","400998","0.0-223.0-1.0","""event"",""trial"",""time""
""fullscreenenter"",""0"",""3361""
","
","
","""event"",""trial"",""time""
""fullscreenenter"",""0"",""3361""
","
","174.09999999403954","<div class='center'><p>That's correct!</p><div><p><b>[Press the space bar to continue]</b></p></div>","32","","","","","","","",""
"","practice_q3","234","401931","0.0-223.0-2.0","""event"",""trial"",""time""
""fullscreenenter"",""0"",""3361""
","
","
","""event"",""trial"",""time""
""fullscreenenter"",""0"",""3361""
","
","931.1000000089407","run_exp/static/audio/clip_16_practice_question.m4a","66","","","","","","","",""
"","correct","235","403957","0.0-224.0-0.0","""event"",""trial"",""time""
""fullscreenenter"",""0"",""3361""
","
","
","""event"",""trial"",""time""
""fullscreenenter"",""0"",""3361""
","
","null","run_exp/static/audio/clip_17_correct.m4a","null","","","","","<div class='center'><p>That's correct!</p></div>","","",""
"","html-keyboard-response","236","404117","0.0-224.0-1.0","""event"",""trial"",""time""
""fullscreenenter"",""0"",""3361""
","
","
","""event"",""trial"",""time""
""fullscreenenter"",""0"",""3361""
","
","158.8999999910593","<div class='center'><p>That's correct!</p><div><p><b>[Press the space bar to continue]</b></p></div>","32","","","","","","","",""
"","begin_text","237","422602","0.0-225.0-0.0","""event"",""trial"",""time""
""fullscreenenter"",""0"",""3361""
","
","
","""event"",""trial"",""time""
""fullscreenenter"",""0"",""3361""
","
","null","run_exp/static/audio/clip_22_begin_test.m4a","null","","","","","<div class='center'><p>On to the real game where well test your memory of items from the indoor/outdoor game. For each item, you need to indicate if the item is <b>old</b> by pressing the <b>v</b> key, <b>similar</b> by pressing the <b>b</b> key, or <b>new</b> by pressing the <b>n</b> key. </p></div>","","",""
"","html-keyboard-response","238","424927","0.0-225.0-1.0","""event"",""trial"",""time""
""fullscreenenter"",""0"",""3361""
","
","
","""event"",""trial"",""time""
""fullscreenenter"",""0"",""3361""
","
","2323.0999999940395","<div class='center'><p>On to the real game where well test your memory of items from the indoor/outdoor game. For each item, you need to indicate if the item is <b>old</b> by pressing the <b>v</b> key, <b>similar</b> by pressing the <b>b</b> key, or <b>new</b> by pressing the <b>n</b> key. </p><div><p><b>[Press the space bar to continue]</b></p></div>","32","","","","","","","",""
"","image","239","426249","0.0-226.0-0.0","""event"",""trial"",""time""
""fullscreenenter"",""0"",""3361""
","
","
","""event"",""trial"",""time""
""fullscreenenter"",""0"",""3361""
","
","1320.7000000029802","run_exp/static/images/Set 6_rs/155a.jpg","78","","","","","","test","TF","4"
"","show_choice","240","426754","0.0-226.0-1.0","""event"",""trial"",""time""
""fullscreenenter"",""0"",""3361""
","
","
","""event"",""trial"",""time""
""fullscreenenter"",""0"",""3361""
","
","null","run_exp/static/images/Set 6_rs/155a.jpg","null","","","","","","test","TF",""
"","html-keyboard-response","241","427259","0.0-226.0-2.0","""event"",""trial"",""time""
""fullscreenenter"",""0"",""3361""
","
","
","""event"",""trial"",""time""
""fullscreenenter"",""0"",""3361""
","
","null","<p></p>","null","","","","","","","",""
"","image","242","428944","0.0-227.0-0.0","""event"",""trial"",""time""
""fullscreenenter"",""0"",""3361""
","
","
","""event"",""trial"",""time""
""fullscreenenter"",""0"",""3361""
","
","1683.4000000059605","run_exp/static/images/Set 6_rs/122a.jpg","86","","","","","","test","TR","5"
"","show_choice","243","429447","0.0-227.0-1.0","""event"",""trial"",""time""
""fullscreenenter"",""0"",""3361""
","
","
","""event"",""trial"",""time""
""fullscreenenter"",""0"",""3361""
","
","null","run_exp/static/images/Set 6_rs/122a.jpg","null","","","","","","test","TR",""
"","html-keyboard-response","244","429952","0.0-227.0-2.0","""event"",""trial"",""time""
""fullscreenenter"",""0"",""3361""
","
","
","""event"",""trial"",""time""
""fullscreenenter"",""0"",""3361""
","
","null","<p></p>","null","","","","","","","",""
"","image","245","431196","0.0-228.0-0.0","""event"",""trial"",""time""
""fullscreenenter"",""0"",""3361""
","
","
","""event"",""trial"",""time""
""fullscreenenter"",""0"",""3361""
","
","1242.9000000059605","run_exp/static/images/Set 6_rs/166a.jpg","86","","","","","","test","TR","1"
"","show_choice","246","431699","0.0-228.0-1.0","""event"",""trial"",""time""
""fullscreenenter"",""0"",""3361""
","
","
","""event"",""trial"",""time""
""fullscreenenter"",""0"",""3361""
","
","null","run_exp/static/images/Set 6_rs/166a.jpg","null","","","","","","test","TR",""
"","html-keyboard-response","247","432202","0.0-228.0-2.0","""event"",""trial"",""time""
""fullscreenenter"",""0"",""3361""
","
","
","""event"",""trial"",""time""
""fullscreenenter"",""0"",""3361""
","
","null","<p></p>","null","","","","","","","",""
"","image","248","433380","0.0-229.0-0.0","""event"",""trial"",""time""
""fullscreenenter"",""0"",""3361""
","
","
","""event"",""trial"",""time""
""fullscreenenter"",""0"",""3361""
","
","1175.7000000029802","run_exp/static/images/Set 6_rs/186a.jpg","86","","","","","","test","TR","5"
"","show_choice","249","433881","0.0-229.0-1.0","""event"",""trial"",""time""
""fullscreenenter"",""0"",""3361""
","
","
","""event"",""trial"",""time""
""fullscreenenter"",""0"",""3361""
","
","null","run_exp/static/images/Set 6_rs/186a.jpg","null","","","","","","test","TR",""
"","html-keyboard-response","250","434383","0.0-229.0-2.0","""event"",""trial"",""time""
""fullscreenenter"",""0"",""3361""
","
","
","""event"",""trial"",""time""
""fullscreenenter"",""0"",""3361""
","
","null","<p></p>","null","","","","","","","",""
"","image","251","436043","0.0-230.0-0.0","""event"",""trial"",""time""
""fullscreenenter"",""0"",""3361""
","
","
","""event"",""trial"",""time""
""fullscreenenter"",""0"",""3361""
","
","1658.199999988079","run_exp/static/images/Set 6_rs/111b.jpg","78","","","","","","test","TL","3"
"","show_choice","252","436547","0.0-230.0-1.0","""event"",""trial"",""time""
""fullscreenenter"",""0"",""3361""
","
","
","""event"",""trial"",""time""
""fullscreenenter"",""0"",""3361""
","
","null","run_exp/static/images/Set 6_rs/111b.jpg","null","","","","","","test","TL",""
"","html-keyboard-response","253","437048","0.0-230.0-2.0","""event"",""trial"",""time""
""fullscreenenter"",""0"",""3361""
","
","
","""event"",""trial"",""time""
""fullscreenenter"",""0"",""3361""
","
","null","<p></p>","null","","","","","","","",""
"","image","254","438297","0.0-231.0-0.0","""event"",""trial"",""time""
""fullscreenenter"",""0"",""3361""
","
","
","""event"",""trial"",""time""
""fullscreenenter"",""0"",""3361""
","
","1247.3999999910593","run_exp/static/images/Set 6_rs/181b.jpg","86","","","","","","test","TL","1"
"","show_choice","255","438800","0.0-231.0-1.0","""event"",""trial"",""time""
""fullscreenenter"",""0"",""3361""
","
","
","""event"",""trial"",""time""
""fullscreenenter"",""0"",""3361""
","
","null","run_exp/static/images/Set 6_rs/181b.jpg","null","","","","","","test","TL",""
"","html-keyboard-response","256","439304","0.0-231.0-2.0","""event"",""trial"",""time""
""fullscreenenter"",""0"",""3361""
","
","
","""event"",""trial"",""time""
""fullscreenenter"",""0"",""3361""
","
","null","<p></p>","null","","","","","","","",""
"","image","257","440469","0.0-232.0-0.0","""event"",""trial"",""time""
""fullscreenenter"",""0"",""3361""
","
","
","""event"",""trial"",""time""
""fullscreenenter"",""0"",""3361""
","
","1163.7999999970198","run_exp/static/images/Set 6_rs/023a.jpg","86","","","","","","test","TR","3"
"","show_choice","258","440971","0.0-232.0-1.0","""event"",""trial"",""time""
""fullscreenenter"",""0"",""3361""
","
","
","""event"",""trial"",""time""
""fullscreenenter"",""0"",""3361""
","
","null","run_exp/static/images/Set 6_rs/023a.jpg","null","","","","","","test","TR",""
"","html-keyboard-response","259","441476","0.0-232.0-2.0","""event"",""trial"",""time""
""fullscreenenter"",""0"",""3361""
","
","
","""event"",""trial"",""time""
""fullscreenenter"",""0"",""3361""
","
","null","<p></p>","null","","","","","","","",""
"","image","260","442911","0.0-233.0-0.0","""event"",""trial"",""time""
""fullscreenenter"",""0"",""3361""
","
","
","""event"",""trial"",""time""
""fullscreenenter"",""0"",""3361""
","
","1433.9000000059605","run_exp/static/images/Set 6_rs/028a.jpg","78","","","","","","test","TF","1"
"","show_choice","261","443416","0.0-233.0-1.0","""event"",""trial"",""time""
""fullscreenenter"",""0"",""3361""
","
","
","""event"",""trial"",""time""
""fullscreenenter"",""0"",""3361""
","
","null","run_exp/static/images/Set 6_rs/028a.jpg","null","","","","","","test","TF",""
"","html-keyboard-response","262","443922","0.0-233.0-2.0","""event"",""trial"",""time""
""fullscreenenter"",""0"",""3361""
","
","
","""event"",""trial"",""time""
""fullscreenenter"",""0"",""3361""
","
","null","<p></p>","null","","","","","","","",""
"","image","263","445240","0.0-234.0-0.0","""event"",""trial"",""time""
""fullscreenenter"",""0"",""3361""
","
","
","""event"",""trial"",""time""
""fullscreenenter"",""0"",""3361""
","
","1316.4000000059605","run_exp/static/images/Set 6_rs/014b.jpg","66","","","","","","test","TL","5"
"","show_choice","264","445745","0.0-234.0-1.0","""event"",""trial"",""time""
""fullscreenenter"",""0"",""3361""
","
","
","""event"",""trial"",""time""
""fullscreenenter"",""0"",""3361""
","
","null","run_exp/static/images/Set 6_rs/014b.jpg","null","","","","","","test","TL",""
"","html-keyboard-response","265","446249","0.0-234.0-2.0","""event"",""trial"",""time""
""fullscreenenter"",""0"",""3361""
","
","
","""event"",""trial"",""time""
""fullscreenenter"",""0"",""3361""
","
","null","<p></p>","null","","","","","","","",""
"","image","266","448073","0.0-235.0-0.0","""event"",""trial"",""time""
""fullscreenenter"",""0"",""3361""
","
","
","""event"",""trial"",""time""
""fullscreenenter"",""0"",""3361""
","
","1823.1000000089407","run_exp/static/images/Set 6_rs/116b.jpg","66","","","","","","test","TL","2"
"","show_choice","267","448575","0.0-235.0-1.0","""event"",""trial"",""time""
""fullscreenenter"",""0"",""3361""
","
","
","""event"",""trial"",""time""
""fullscreenenter"",""0"",""3361""
","
","null","run_exp/static/images/Set 6_rs/116b.jpg","null","","","","","","test","TL",""
"","html-keyboard-response","268","449079","0.0-235.0-2.0","""event"",""trial"",""time""
""fullscreenenter"",""0"",""3361""
","
","
","""event"",""trial"",""time""
""fullscreenenter"",""0"",""3361""
","
","null","<p></p>","null","","","","","","","",""
"","image","269","450519","0.0-236.0-0.0","""event"",""trial"",""time""
""fullscreenenter"",""0"",""3361""
","
","
","""event"",""trial"",""time""
""fullscreenenter"",""0"",""3361""
","
","1438.4000000059605","run_exp/static/images/Set 6_rs/168b.jpg","66","","","","","","test","TL","3"
"","show_choice","270","451023","0.0-236.0-1.0","""event"",""trial"",""time""
""fullscreenenter"",""0"",""3361""
","
","
","""event"",""trial"",""time""
""fullscreenenter"",""0"",""3361""
","
","null","run_exp/static/images/Set 6_rs/168b.jpg","null","","","","","","test","TL",""
"","html-keyboard-response","271","451525","0.0-236.0-2.0","""event"",""trial"",""time""
""fullscreenenter"",""0"",""3361""
","
","
","""event"",""trial"",""time""
""fullscreenenter"",""0"",""3361""
","
","null","<p></p>","null","","","","","","","",""
"","image","272","452333","0.0-237.0-0.0","""event"",""trial"",""time""
""fullscreenenter"",""0"",""3361""
","
","
","""event"",""trial"",""time""
""fullscreenenter"",""0"",""3361""
","
","805.9000000059605","run_exp/static/images/Set 6_rs/076a.jpg","86","","","","","","test","TR","4"
"","show_choice","273","452838","0.0-237.0-1.0","""event"",""trial"",""time""
""fullscreenenter"",""0"",""3361""
","
","
","""event"",""trial"",""time""
""fullscreenenter"",""0"",""3361""
","
","null","run_exp/static/images/Set 6_rs/076a.jpg","null","","","","","","test","TR",""
"","html-keyboard-response","274","453340","0.0-237.0-2.0","""event"",""trial"",""time""
""fullscreenenter"",""0"",""3361""
","
","
","""event"",""trial"",""time""
""fullscreenenter"",""0"",""3361""
","
","null","<p></p>","null","","","","","","","",""
"","image","275","454238","0.0-238.0-0.0","""event"",""trial"",""time""
""fullscreenenter"",""0"",""3361""
","
","
","""event"",""trial"",""time""
""fullscreenenter"",""0"",""3361""
","
","896.2000000029802","run_exp/static/images/Set 6_rs/121a.jpg","86","","","","","","test","TR","4"
"","show_choice","276","454742","0.0-238.0-1.0","""event"",""trial"",""time""
""fullscreenenter"",""0"",""3361""
","
","
","""event"",""trial"",""time""
""fullscreenenter"",""0"",""3361""
","
","null","run_exp/static/images/Set 6_rs/121a.jpg","null","","","","","","test","TR",""
"","html-keyboard-response","277","455244","0.0-238.0-2.0","""event"",""trial"",""time""
""fullscreenenter"",""0"",""3361""
","
","
","""event"",""trial"",""time""
""fullscreenenter"",""0"",""3361""
","
","null","<p></p>","null","","","","","","","",""
"","image","278","456144","0.0-239.0-0.0","""event"",""trial"",""time""
""fullscreenenter"",""0"",""3361""
","
","
","""event"",""trial"",""time""
""fullscreenenter"",""0"",""3361""
","
","897.7999999970198","run_exp/static/images/Set 6_rs/176a.jpg","78","","","","","","test","TF","4"
"","show_choice","279","456649","0.0-239.0-1.0","""event"",""trial"",""time""
""fullscreenenter"",""0"",""3361""
","
","
","""event"",""trial"",""time""
""fullscreenenter"",""0"",""3361""
","
","null","run_exp/static/images/Set 6_rs/176a.jpg","null","","","","","","test","TF",""
"","html-keyboard-response","280","457154","0.0-239.0-2.0","""event"",""trial"",""time""
""fullscreenenter"",""0"",""3361""
","
","
","""event"",""trial"",""time""
""fullscreenenter"",""0"",""3361""
","
","null","<p></p>","null","","","","","","","",""
"","image","281","458100","0.0-240.0-0.0","""event"",""trial"",""time""
""fullscreenenter"",""0"",""3361""
","
","
","""event"",""trial"",""time""
""fullscreenenter"",""0"",""3361""
","
","944.1000000089407","run_exp/static/images/Set 6_rs/117b.jpg","86","","","","","","test","TL","5"
"","show_choice","282","458603","0.0-240.0-1.0","""event"",""trial"",""time""
""fullscreenenter"",""0"",""3361""
","
","
","""event"",""trial"",""time""
""fullscreenenter"",""0"",""3361""
","
","null","run_exp/static/images/Set 6_rs/117b.jpg","null","","","","","","test","TL",""
"","html-keyboard-response","283","459105","0.0-240.0-2.0","""event"",""trial"",""time""
""fullscreenenter"",""0"",""3361""
","
","
","""event"",""trial"",""time""
""fullscreenenter"",""0"",""3361""
","
","null","<p></p>","null","","","","","","","",""
"","image","284","460268","0.0-241.0-0.0","""event"",""trial"",""time""
""fullscreenenter"",""0"",""3361""
","
","
","""event"",""trial"",""time""
""fullscreenenter"",""0"",""3361""
","
","1161.5999999940395","run_exp/static/images/Set 6_rs/079b.jpg","66","","","","","","test","TL","5"
"","show_choice","285","460773","0.0-241.0-1.0","""event"",""trial"",""time""
""fullscreenenter"",""0"",""3361""
","
","
","""event"",""trial"",""time""
""fullscreenenter"",""0"",""3361""
","
","null","run_exp/static/images/Set 6_rs/079b.jpg","null","","","","","","test","TL",""
"","html-keyboard-response","286","461277","0.0-241.0-2.0","""event"",""trial"",""time""
""fullscreenenter"",""0"",""3361""
","
","
","""event"",""trial"",""time""
""fullscreenenter"",""0"",""3361""
","
","null","<p></p>","null","","","","","","","",""
"","image","287","462247","0.0-242.0-0.0","""event"",""trial"",""time""
""fullscreenenter"",""0"",""3361""
","
","
","""event"",""trial"",""time""
""fullscreenenter"",""0"",""3361""
","
","968.9000000059605","run_exp/static/images/Set 6_rs/123b.jpg","86","","","","","","test","TL","2"
"","show_choice","288","462749","0.0-242.0-1.0","""event"",""trial"",""time""
""fullscreenenter"",""0"",""3361""
","
","
","""event"",""trial"",""time""
""fullscreenenter"",""0"",""3361""
","
","null","run_exp/static/images/Set 6_rs/123b.jpg","null","","","","","","test","TL",""
"","html-keyboard-response","289","463252","0.0-242.0-2.0","""event"",""trial"",""time""
""fullscreenenter"",""0"",""3361""
","
","
","""event"",""trial"",""time""
""fullscreenenter"",""0"",""3361""
","
","null","<p></p>","null","","","","","","","",""
"","image","290","465120","0.0-243.0-0.0","""event"",""trial"",""time""
""fullscreenenter"",""0"",""3361""
","
","
","""event"",""trial"",""time""
""fullscreenenter"",""0"",""3361""
","
","1866.9000000059605","run_exp/static/images/Set 6_rs/024a.jpg","86","","","","","","test","TR","5"
"","show_choice","291","465625","0.0-243.0-1.0","""event"",""trial"",""time""
""fullscreenenter"",""0"",""3361""
","
","
","""event"",""trial"",""time""
""fullscreenenter"",""0"",""3361""
","
","null","run_exp/static/images/Set 6_rs/024a.jpg","null","","","","","","test","TR",""
"","html-keyboard-response","292","466128","0.0-243.0-2.0","""event"",""trial"",""time""
""fullscreenenter"",""0"",""3361""
","
","
","""event"",""trial"",""time""
""fullscreenenter"",""0"",""3361""
","
","null","<p></p>","null","","","","","","","",""
"","image","293","467070","0.0-244.0-0.0","""event"",""trial"",""time""
""fullscreenenter"",""0"",""3361""
","
","
","""event"",""trial"",""time""
""fullscreenenter"",""0"",""3361""
","
","939.7999999970198","run_exp/static/images/Set 6_rs/016b.jpg","86","","","","","","test","TL","1"
"","show_choice","294","467572","0.0-244.0-1.0","""event"",""trial"",""time""
""fullscreenenter"",""0"",""3361""
","
","
","""event"",""trial"",""time""
""fullscreenenter"",""0"",""3361""
","
","null","run_exp/static/images/Set 6_rs/016b.jpg","null","","","","","","test","TL",""
"","html-keyboard-response","295","468076","0.0-244.0-2.0","""event"",""trial"",""time""
""fullscreenenter"",""0"",""3361""
","
","
","""event"",""trial"",""time""
""fullscreenenter"",""0"",""3361""
","
","null","<p></p>","null","","","","","","","",""
"","image","296","469067","0.0-245.0-0.0","""event"",""trial"",""time""
""fullscreenenter"",""0"",""3361""
","
","
","""event"",""trial"",""time""
""fullscreenenter"",""0"",""3361""
","
","989.8999999910593","run_exp/static/images/Set 6_rs/170a.jpg","78","","","","","","test","TF","2"
"","show_choice","297","469569","0.0-245.0-1.0","""event"",""trial"",""time""
""fullscreenenter"",""0"",""3361""
","
","
","""event"",""trial"",""time""
""fullscreenenter"",""0"",""3361""
","
","null","run_exp/static/images/Set 6_rs/170a.jpg","null","","","","","","test","TF",""
"","html-keyboard-response","298","470074","0.0-245.0-2.0","""event"",""trial"",""time""
""fullscreenenter"",""0"",""3361""
","
","
","""event"",""trial"",""time""
""fullscreenenter"",""0"",""3361""
","
","null","<p></p>","null","","","","","","","",""
"","image","299","471091","0.0-246.0-0.0","""event"",""trial"",""time""
""fullscreenenter"",""0"",""3361""
","
","
","""event"",""trial"",""time""
""fullscreenenter"",""0"",""3361""
","
","1014.7999999970198","run_exp/static/images/Set 6_rs/045a.jpg","86","","","","","","test","TR","2"
"","show_choice","300","471592","0.0-246.0-1.0","""event"",""trial"",""time""
""fullscreenenter"",""0"",""3361""
","
","
","""event"",""trial"",""time""
""fullscreenenter"",""0"",""3361""
","
","null","run_exp/static/images/Set 6_rs/045a.jpg","null","","","","","","test","TR",""
"","html-keyboard-response","301","472097","0.0-246.0-2.0","""event"",""trial"",""time""
""fullscreenenter"",""0"",""3361""
","
","
","""event"",""trial"",""time""
""fullscreenenter"",""0"",""3361""
","
","null","<p></p>","null","","","","","","","",""
"","image","302","473575","0.0-247.0-0.0","""event"",""trial"",""time""
""fullscreenenter"",""0"",""3361""
","
","
","""event"",""trial"",""time""
""fullscreenenter"",""0"",""3361""
","
","1475.7999999970198","run_exp/static/images/Set 6_rs/071b.jpg","66","","","","","","test","TL","4"
"","show_choice","303","474080","0.0-247.0-1.0","""event"",""trial"",""time""
""fullscreenenter"",""0"",""3361""
","
","
","""event"",""trial"",""time""
""fullscreenenter"",""0"",""3361""
","
","null","run_exp/static/images/Set 6_rs/071b.jpg","null","","","","","","test","TL",""
"","html-keyboard-response","304","474582","0.0-247.0-2.0","""event"",""trial"",""time""
""fullscreenenter"",""0"",""3361""
","
","
","""event"",""trial"",""time""
""fullscreenenter"",""0"",""3361""
","
","null","<p></p>","null","","","","","","","",""
"","image","305","476806","0.0-248.0-0.0","""event"",""trial"",""time""
""fullscreenenter"",""0"",""3361""
","
","
","""event"",""trial"",""time""
""fullscreenenter"",""0"",""3361""
","
","2223","run_exp/static/images/Set 6_rs/132a.jpg","86","","","","","","test","TR","5"
"","show_choice","306","477311","0.0-248.0-1.0","""event"",""trial"",""time""
""fullscreenenter"",""0"",""3361""
","
","
","""event"",""trial"",""time""
""fullscreenenter"",""0"",""3361""
","
","null","run_exp/static/images/Set 6_rs/132a.jpg","null","","","","","","test","TR",""
"","html-keyboard-response","307","477813","0.0-248.0-2.0","""event"",""trial"",""time""
""fullscreenenter"",""0"",""3361""
","
","
","""event"",""trial"",""time""
""fullscreenenter"",""0"",""3361""
","
","null","<p></p>","null","","","","","","","",""
"","image","308","480116","0.0-249.0-0.0","""event"",""trial"",""time""
""fullscreenenter"",""0"",""3361""
","
","
","""event"",""trial"",""time""
""fullscreenenter"",""0"",""3361""
","
","2301.0999999940395","run_exp/static/images/Set 6_rs/131a.jpg","78","","","","","","test","TR","5"
"","show_choice","309","480619","0.0-249.0-1.0","""event"",""trial"",""time""
""fullscreenenter"",""0"",""3361""
","
","
","""event"",""trial"",""time""
""fullscreenenter"",""0"",""3361""
","
","null","run_exp/static/images/Set 6_rs/131a.jpg","null","","","","","","test","TR",""
"","html-keyboard-response","310","481124","0.0-249.0-2.0","""event"",""trial"",""time""
""fullscreenenter"",""0"",""3361""
","
","
","""event"",""trial"",""time""
""fullscreenenter"",""0"",""3361""
","
","null","<p></p>","null","","","","","","","",""
"","image","311","482841","0.0-250.0-0.0","""event"",""trial"",""time""
""fullscreenenter"",""0"",""3361""
","
","
","""event"",""trial"",""time""
""fullscreenenter"",""0"",""3361""
","
","1715.5","run_exp/static/images/Set 6_rs/052a.jpg","78","","","","","","test","TF","1"
"","show_choice","312","483346","0.0-250.0-1.0","""event"",""trial"",""time""
""fullscreenenter"",""0"",""3361""
","
","
","""event"",""trial"",""time""
""fullscreenenter"",""0"",""3361""
","
","null","run_exp/static/images/Set 6_rs/052a.jpg","null","","","","","","test","TF",""
"","html-keyboard-response","313","483852","0.0-250.0-2.0","""event"",""trial"",""time""
""fullscreenenter"",""0"",""3361""
","
","
","""event"",""trial"",""time""
""fullscreenenter"",""0"",""3361""
","
","null","<p></p>","null","","","","","","","",""
"","image","314","485083","0.0-251.0-0.0","""event"",""trial"",""time""
""fullscreenenter"",""0"",""3361""
","
","
","""event"",""trial"",""time""
""fullscreenenter"",""0"",""3361""
","
","1229.2999999970198","run_exp/static/images/Set 6_rs/191b.jpg","86","","","","","","test","TL","2"
"","show_choice","315","485585","0.0-251.0-1.0","""event"",""trial"",""time""
""fullscreenenter"",""0"",""3361""
","
","
","""event"",""trial"",""time""
""fullscreenenter"",""0"",""3361""
","
","null","run_exp/static/images/Set 6_rs/191b.jpg","null","","","","","","test","TL",""
"","html-keyboard-response","316","486088","0.0-251.0-2.0","""event"",""trial"",""time""
""fullscreenenter"",""0"",""3361""
","
","
","""event"",""trial"",""time""
""fullscreenenter"",""0"",""3361""
","
","null","<p></p>","null","","","","","","","",""
"","image","317","488188","0.0-252.0-0.0","""event"",""trial"",""time""
""fullscreenenter"",""0"",""3361""
","
","
","""event"",""trial"",""time""
""fullscreenenter"",""0"",""3361""
","
","2097.8999999910593","run_exp/static/images/Set 6_rs/172a.jpg","86","","","","","","test","TR","1"
"","show_choice","318","488692","0.0-252.0-1.0","""event"",""trial"",""time""
""fullscreenenter"",""0"",""3361""
","
","
","""event"",""trial"",""time""
""fullscreenenter"",""0"",""3361""
","
","null","run_exp/static/images/Set 6_rs/172a.jpg","null","","","","","","test","TR",""
"","html-keyboard-response","319","489195","0.0-252.0-2.0","""event"",""trial"",""time""
""fullscreenenter"",""0"",""3361""
","
","
","""event"",""trial"",""time""
""fullscreenenter"",""0"",""3361""
","
","null","<p></p>","null","","","","","","","",""
"","image","320","491314","0.0-253.0-0.0","""event"",""trial"",""time""
""fullscreenenter"",""0"",""3361""
","
","
","""event"",""trial"",""time""
""fullscreenenter"",""0"",""3361""
","
","2117.1000000089407","run_exp/static/images/Set 6_rs/108a.jpg","86","","","","","","test","TR","5"
"","show_choice","321","491816","0.0-253.0-1.0","""event"",""trial"",""time""
""fullscreenenter"",""0"",""3361""
","
","
","""event"",""trial"",""time""
""fullscreenenter"",""0"",""3361""
","
","null","run_exp/static/images/Set 6_rs/108a.jpg","null","","","","","","test","TR",""
"","html-keyboard-response","322","492318","0.0-253.0-2.0","""event"",""trial"",""time""
""fullscreenenter"",""0"",""3361""
","
","
","""event"",""trial"",""time""
""fullscreenenter"",""0"",""3361""
","
","null","<p></p>","null","","","","","","","",""
"","image","323","494019","0.0-254.0-0.0","""event"",""trial"",""time""
""fullscreenenter"",""0"",""3361""
","
","
","""event"",""trial"",""time""
""fullscreenenter"",""0"",""3361""
","
","1700.4000000059605","run_exp/static/images/Set 6_rs/138b.jpg","86","","","","","","test","TL","1"
"","show_choice","324","494525","0.0-254.0-1.0","""event"",""trial"",""time""
""fullscreenenter"",""0"",""3361""
","
","
","""event"",""trial"",""time""
""fullscreenenter"",""0"",""3361""
","
","null","run_exp/static/images/Set 6_rs/138b.jpg","null","","","","","","test","TL",""
"","html-keyboard-response","325","495026","0.0-254.0-2.0","""event"",""trial"",""time""
""fullscreenenter"",""0"",""3361""
","
","
","""event"",""trial"",""time""
""fullscreenenter"",""0"",""3361""
","
","null","<p></p>","null","","","","","","","",""
"","image","326","496489","0.0-255.0-0.0","""event"",""trial"",""time""
""fullscreenenter"",""0"",""3361""
","
","
","""event"",""trial"",""time""
""fullscreenenter"",""0"",""3361""
","
","1461.699999988079","run_exp/static/images/Set 6_rs/062b.jpg","86","","","","","","test","TL","1"
"","show_choice","327","496992","0.0-255.0-1.0","""event"",""trial"",""time""
""fullscreenenter"",""0"",""3361""
","
","
","""event"",""trial"",""time""
""fullscreenenter"",""0"",""3361""
","
","null","run_exp/static/images/Set 6_rs/062b.jpg","null","","","","","","test","TL",""
"","html-keyboard-response","328","497494","0.0-255.0-2.0","""event"",""trial"",""time""
""fullscreenenter"",""0"",""3361""
","
","
","""event"",""trial"",""time""
""fullscreenenter"",""0"",""3361""
","
","null","<p></p>","null","","","","","","","",""
"","image","329","498848","0.0-256.0-0.0","""event"",""trial"",""time""
""fullscreenenter"",""0"",""3361""
","
","
","""event"",""trial"",""time""
""fullscreenenter"",""0"",""3361""
","
","1352","run_exp/static/images/Set 6_rs/086a.jpg","78","","","","","","test","TF","1"
"","show_choice","330","499351","0.0-256.0-1.0","""event"",""trial"",""time""
""fullscreenenter"",""0"",""3361""
","
","
","""event"",""trial"",""time""
""fullscreenenter"",""0"",""3361""
","
","null","run_exp/static/images/Set 6_rs/086a.jpg","null","","","","","","test","TF",""
"","html-keyboard-response","331","499855","0.0-256.0-2.0","""event"",""trial"",""time""
""fullscreenenter"",""0"",""3361""
","
","
","""event"",""trial"",""time""
""fullscreenenter"",""0"",""3361""
","
","null","<p></p>","null","","","","","","","",""
"","image","332","501024","0.0-257.0-0.0","""event"",""trial"",""time""
""fullscreenenter"",""0"",""3361""
","
","
","""event"",""trial"",""time""
""fullscreenenter"",""0"",""3361""
","
","1167.8999999910593","run_exp/static/images/Set 6_rs/187a.jpg","86","","","","","","test","TR","3"
"","show_choice","333","501529","0.0-257.0-1.0","""event"",""trial"",""time""
""fullscreenenter"",""0"",""3361""
","
","
","""event"",""trial"",""time""
""fullscreenenter"",""0"",""3361""
","
","null","run_exp/static/images/Set 6_rs/187a.jpg","null","","","","","","test","TR",""
"","html-keyboard-response","334","502031","0.0-257.0-2.0","""event"",""trial"",""time""
""fullscreenenter"",""0"",""3361""
","
","
","""event"",""trial"",""time""
""fullscreenenter"",""0"",""3361""
","
","null","<p></p>","null","","","","","","","",""
"","image","335","504161","0.0-258.0-0.0","""event"",""trial"",""time""
""fullscreenenter"",""0"",""3361""
","
","
","""event"",""trial"",""time""
""fullscreenenter"",""0"",""3361""
","
","2128.8999999910593","run_exp/static/images/Set 6_rs/134a.jpg","86","","","","","","test","TR","3"
"","show_choice","336","504663","0.0-258.0-1.0","""event"",""trial"",""time""
""fullscreenenter"",""0"",""3361""
","
","
","""event"",""trial"",""time""
""fullscreenenter"",""0"",""3361""
","
","null","run_exp/static/images/Set 6_rs/134a.jpg","null","","","","","","test","TR",""
"","html-keyboard-response","337","505165","0.0-258.0-2.0","""event"",""trial"",""time""
""fullscreenenter"",""0"",""3361""
","
","
","""event"",""trial"",""time""
""fullscreenenter"",""0"",""3361""
","
","null","<p></p>","null","","","","","","","",""
"","image","338","506567","0.0-259.0-0.0","""event"",""trial"",""time""
