"success","trial_type","trial_index","time_elapsed","internal_node_id","interactions","blur_events","focus_events","fullscreenenter_events","fullscreenexit_events","rt","stimulus","key_press","subject_id","participant_id","age","gender","prompt","phase","condition","lure_bin"
"true","fullscreen","0","9928","0.0-0.0","""event"",""trial"",""time""
""fullscreenenter"",""0"",""9005""
","
","
","""event"",""trial"",""time""
""fullscreenenter"",""0"",""9005""
","
","","","","","","","","","","",""
"","pavlovia","1","9932","0.0-1.0","""event"",""trial"",""time""
""fullscreenenter"",""0"",""9005""
","
","
","""event"",""trial"",""time""
""fullscreenenter"",""0"",""9005""
","
","","","","","","","","","","",""
"","welcome","2","44849","0.0-2.0","""event"",""trial"",""time""
""fullscreenenter"",""0"",""9005""
","
","
","""event"",""trial"",""time""
""fullscreenenter"",""0"",""9005""
","
","null","run_exp/static/audio/clip_1_welcome.m4a","null","1300","958","8","Female","<div class='center'><p>Welcome to the third part of the study! First, you'll be shown pictures of items one at a time. For each picture, you have to decide if the item is typically found indoors or outdoors.</p><p>If you think it's usually found indoors, then press <b>v</b> key on your keyboard. If you think it's usually found outdoors, then press the <b>n</b> key.There will be reminders on the screen to help you remember which keys to press. </p><p>If you're not sure whether the item is an indoor item or an outdoor item, go ahead and take a guess but try your best not to skip that choice. </p></div>","","",""
"","html-keyboard-response","3","46429","0.0-3.0","""event"",""trial"",""time""
""fullscreenenter"",""0"",""9005""
","
","
","""event"",""trial"",""time""
""fullscreenenter"",""0"",""9005""
","
","1566.199999988079","<div class='center'><p>Welcome to the third part of the study! First, you'll be shown pictures of items one at a time. For each picture, you have to decide if the item is typically found indoors or outdoors.</p><p>If you think it's usually found indoors, then press <b>v</b> key on your keyboard. If you think it's usually found outdoors, then press the <b>n</b> key.There will be reminders on the screen to help you remember which keys to press. </p><p>If you're not sure whether the item is an indoor item or an outdoor item, go ahead and take a guess but try your best not to skip that choice. </p><div><p><b>[Press the space bar to continue]</b></p></div>","32","","","","","","","",""
"","image","4","48122","0.0-4.0","""event"",""trial"",""time""
""fullscreenenter"",""0"",""9005""
","
","
","""event"",""trial"",""time""
""fullscreenenter"",""0"",""9005""
","
","1692.1000000238419","run_exp/static/images/Set 6_rs/131a.jpg","86","","","","","","learn","SR",""
"","show_choice","5","48431","0.0-5.0","""event"",""trial"",""time""
""fullscreenenter"",""0"",""9005""
","
","
","""event"",""trial"",""time""
""fullscreenenter"",""0"",""9005""
","
","null","run_exp/static/images/Set 6_rs/131a.jpg","null","","","","","","learn","SR",""
"","html-keyboard-response","6","48936","0.0-6.0","""event"",""trial"",""time""
""fullscreenenter"",""0"",""9005""
","
","
","""event"",""trial"",""time""
""fullscreenenter"",""0"",""9005""
","
","null","<p></p>","null","","","","","","","",""
"","image","7","50807","0.0-7.0","""event"",""trial"",""time""
""fullscreenenter"",""0"",""9005""
","
","
","""event"",""trial"",""time""
""fullscreenenter"",""0"",""9005""
","
","1869.4000000357628","run_exp/static/images/Set 6_rs/172a.jpg","78","","","","","","learn","SR",""
"","show_choice","8","50943","0.0-8.0","""event"",""trial"",""time""
""fullscreenenter"",""0"",""9005""
","
","
","""event"",""trial"",""time""
""fullscreenenter"",""0"",""9005""
","
","null","run_exp/static/images/Set 6_rs/172a.jpg","null","","","","","","learn","SR",""
"","html-keyboard-response","9","51449","0.0-9.0","""event"",""trial"",""time""
""fullscreenenter"",""0"",""9005""
","
","
","""event"",""trial"",""time""
""fullscreenenter"",""0"",""9005""
","
","null","<p></p>","null","","","","","","","",""
"","image","10","53456","0.0-10.0","""event"",""trial"",""time""
""fullscreenenter"",""0"",""9005""
","
","
","""event"",""trial"",""time""
""fullscreenenter"",""0"",""9005""
","
","null","run_exp/static/images/Set 6_rs/121a.jpg","null","","","","","","learn","SR",""
"","show_choice","11","55458","0.0-11.0","""event"",""trial"",""time""
""fullscreenenter"",""0"",""9005""
","
","
","""event"",""trial"",""time""
""fullscreenenter"",""0"",""9005""
","
","null","run_exp/static/images/blank.png","null","","","","","","learn","SR",""
"","html-keyboard-response","12","55960","0.0-12.0","""event"",""trial"",""time""
""fullscreenenter"",""0"",""9005""
","
","
","""event"",""trial"",""time""
""fullscreenenter"",""0"",""9005""
","
","null","<p></p>","null","","","","","","","",""
"","image","13","57008","0.0-13.0","""event"",""trial"",""time""
""fullscreenenter"",""0"",""9005""
","
","
","""event"",""trial"",""time""
""fullscreenenter"",""0"",""9005""
","
","1045.699999988079","run_exp/static/images/Set 6_rs/116a.jpg","78","","","","","","learn","SL",""
"","show_choice","14","57968","0.0-14.0","""event"",""trial"",""time""
""fullscreenenter"",""0"",""9005""
","
","
","""event"",""trial"",""time""
""fullscreenenter"",""0"",""9005""
","
","null","run_exp/static/images/Set 6_rs/116a.jpg","null","","","","","","learn","SL",""
"","html-keyboard-response","15","58470","0.0-15.0","""event"",""trial"",""time""
""fullscreenenter"",""0"",""9005""
","
","
","""event"",""trial"",""time""
""fullscreenenter"",""0"",""9005""
","
","null","<p></p>","null","","","","","","","",""
"","image","16","60476","0.0-16.0","""event"",""trial"",""time""
""fullscreenenter"",""0"",""9005""
","
","
","""event"",""trial"",""time""
""fullscreenenter"",""0"",""9005""
","
","null","run_exp/static/images/Set 6_rs/126a.jpg","null","","","","","","learn","SR",""
"","show_choice","17","62478","0.0-17.0","""event"",""trial"",""time""
""fullscreenenter"",""0"",""9005""
","
","
","""event"",""trial"",""time""
""fullscreenenter"",""0"",""9005""
","
","null","run_exp/static/images/blank.png","null","","","","","","learn","SR",""
"","html-keyboard-response","18","62979","0.0-18.0","""event"",""trial"",""time""
""fullscreenenter"",""0"",""9005""
","
","
","""event"",""trial"",""time""
""fullscreenenter"",""0"",""9005""
","
","null","<p></p>","null","","","","","","","",""
"","image","19","64390","0.0-19.0","""event"",""trial"",""time""
""fullscreenenter"",""0"",""9005""
","
","
","""event"",""trial"",""time""
""fullscreenenter"",""0"",""9005""
","
","1408.6000000238419","run_exp/static/images/Set 6_rs/073a.jpg","86","","","","","","learn","SL",""
"","show_choice","20","64984","0.0-20.0","""event"",""trial"",""time""
""fullscreenenter"",""0"",""9005""
","
","
","""event"",""trial"",""time""
""fullscreenenter"",""0"",""9005""
","
","null","run_exp/static/images/Set 6_rs/073a.jpg","null","","","","","","learn","SL",""
"","html-keyboard-response","21","65490","0.0-21.0","""event"",""trial"",""time""
""fullscreenenter"",""0"",""9005""
","
","
","""event"",""trial"",""time""
""fullscreenenter"",""0"",""9005""
","
","null","<p></p>","null","","","","","","","",""
"","image","22","67146","0.0-22.0","""event"",""trial"",""time""
""fullscreenenter"",""0"",""9005""
","
","
","""event"",""trial"",""time""
""fullscreenenter"",""0"",""9005""
","
","1655.2999999523163","run_exp/static/images/Set 6_rs/177a.jpg","78","","","","","","learn","SR",""
"","show_choice","23","67493","0.0-23.0","""event"",""trial"",""time""
""fullscreenenter"",""0"",""9005""
","
","
","""event"",""trial"",""time""
""fullscreenenter"",""0"",""9005""
","
","null","run_exp/static/images/Set 6_rs/177a.jpg","null","","","","","","learn","SR",""
"","html-keyboard-response","24","67999","0.0-24.0","""event"",""trial"",""time""
""fullscreenenter"",""0"",""9005""
","
","
","""event"",""trial"",""time""
""fullscreenenter"",""0"",""9005""
","
","null","<p></p>","null","","","","","","","",""
"","image","25","69699","0.0-25.0","""event"",""trial"",""time""
""fullscreenenter"",""0"",""9005""
","
","
","""event"",""trial"",""time""
""fullscreenenter"",""0"",""9005""
","
","1698.4000000357628","run_exp/static/images/Set 6_rs/187a.jpg","86","","","","","","learn","SR",""
"","show_choice","26","70002","0.0-26.0","""event"",""trial"",""time""
""fullscreenenter"",""0"",""9005""
","
","
","""event"",""trial"",""time""
""fullscreenenter"",""0"",""9005""
","
","null","run_exp/static/images/Set 6_rs/187a.jpg","null","","","","","","learn","SR",""
"","html-keyboard-response","27","70507","0.0-27.0","""event"",""trial"",""time""
""fullscreenenter"",""0"",""9005""
","
","
","""event"",""trial"",""time""
""fullscreenenter"",""0"",""9005""
","
","null","<p></p>","null","","","","","","","",""
"","image","28","71718","0.0-28.0","""event"",""trial"",""time""
""fullscreenenter"",""0"",""9005""
","
","
","""event"",""trial"",""time""
""fullscreenenter"",""0"",""9005""
","
","1209.6000000238419","run_exp/static/images/Set 6_rs/150a.jpg","86","","","","","","learn","SR",""
"","show_choice","29","72514","0.0-29.0","""event"",""trial"",""time""
""fullscreenenter"",""0"",""9005""
","
","
","""event"",""trial"",""time""
""fullscreenenter"",""0"",""9005""
","
","null","run_exp/static/images/Set 6_rs/150a.jpg","null","","","","","","learn","SR",""
"","html-keyboard-response","30","73016","0.0-30.0","""event"",""trial"",""time""
""fullscreenenter"",""0"",""9005""
","
","
","""event"",""trial"",""time""
""fullscreenenter"",""0"",""9005""
","
","null","<p></p>","null","","","","","","","",""
"","image","31","74683","0.0-31.0","""event"",""trial"",""time""
""fullscreenenter"",""0"",""9005""
","
","
","""event"",""trial"",""time""
""fullscreenenter"",""0"",""9005""
","
","1665.3999999761581","run_exp/static/images/Set 6_rs/091a.jpg","86","","","","","","learn","SL",""
"","show_choice","32","75023","0.0-32.0","""event"",""trial"",""time""
""fullscreenenter"",""0"",""9005""
","
","
","""event"",""trial"",""time""
""fullscreenenter"",""0"",""9005""
","
","null","run_exp/static/images/Set 6_rs/091a.jpg","null","","","","","","learn","SL",""
"","html-keyboard-response","33","75529","0.0-33.0","""event"",""trial"",""time""
""fullscreenenter"",""0"",""9005""
","
","
","""event"",""trial"",""time""
""fullscreenenter"",""0"",""9005""
","
","null","<p></p>","null","","","","","","","",""
"","image","34","76607","0.0-34.0","""event"",""trial"",""time""
""fullscreenenter"",""0"",""9005""
","
","
","""event"",""trial"",""time""
""fullscreenenter"",""0"",""9005""
","
","1076.5","run_exp/static/images/Set 6_rs/166a.jpg","86","","","","","","learn","SR",""
"","show_choice","35","77536","0.0-35.0","""event"",""trial"",""time""
""fullscreenenter"",""0"",""9005""
","
","
","""event"",""trial"",""time""
""fullscreenenter"",""0"",""9005""
","
","null","run_exp/static/images/Set 6_rs/166a.jpg","null","","","","","","learn","SR",""
"","html-keyboard-response","36","78043","0.0-36.0","""event"",""trial"",""time""
""fullscreenenter"",""0"",""9005""
","
","
","""event"",""trial"",""time""
""fullscreenenter"",""0"",""9005""
","
","null","<p></p>","null","","","","","","","",""
"","image","37","79536","0.0-37.0","""event"",""trial"",""time""
""fullscreenenter"",""0"",""9005""
","
","
","""event"",""trial"",""time""
""fullscreenenter"",""0"",""9005""
","
","1491.5","run_exp/static/images/Set 6_rs/055a.jpg","86","","","","","","learn","SL",""
"","show_choice","38","80045","0.0-38.0","""event"",""trial"",""time""
""fullscreenenter"",""0"",""9005""
","
","
","""event"",""trial"",""time""
""fullscreenenter"",""0"",""9005""
","
","null","run_exp/static/images/Set 6_rs/055a.jpg","null","","","","","","learn","SL",""
"","html-keyboard-response","39","80550","0.0-39.0","""event"",""trial"",""time""
""fullscreenenter"",""0"",""9005""
","
","
","""event"",""trial"",""time""
""fullscreenenter"",""0"",""9005""
","
","null","<p></p>","null","","","","","","","",""
"","image","40","82088","0.0-40.0","""event"",""trial"",""time""
""fullscreenenter"",""0"",""9005""
","
","
","""event"",""trial"",""time""
""fullscreenenter"",""0"",""9005""
","
","1536.0999999642372","run_exp/static/images/Set 6_rs/008a.jpg","78","","","","","","learn","SL",""
"","show_choice","41","82557","0.0-41.0","""event"",""trial"",""time""
""fullscreenenter"",""0"",""9005""
","
","
","""event"",""trial"",""time""
""fullscreenenter"",""0"",""9005""
","
","null","run_exp/static/images/Set 6_rs/008a.jpg","null","","","","","","learn","SL",""
"","html-keyboard-response","42","83058","0.0-42.0","""event"",""trial"",""time""
""fullscreenenter"",""0"",""9005""
","
","
","""event"",""trial"",""time""
""fullscreenenter"",""0"",""9005""
","
","null","<p></p>","null","","","","","","","",""
"","image","43","84375","0.0-43.0","""event"",""trial"",""time""
""fullscreenenter"",""0"",""9005""
","
","
","""event"",""trial"",""time""
""fullscreenenter"",""0"",""9005""
","
","1316.5","run_exp/static/images/Set 6_rs/108a.jpg","78","","","","","","learn","SR",""
"","show_choice","44","85064","0.0-44.0","""event"",""trial"",""time""
""fullscreenenter"",""0"",""9005""
","
","
","""event"",""trial"",""time""
""fullscreenenter"",""0"",""9005""
","
","null","run_exp/static/images/Set 6_rs/108a.jpg","null","","","","","","learn","SR",""
"","html-keyboard-response","45","85566","0.0-45.0","""event"",""trial"",""time""
""fullscreenenter"",""0"",""9005""
","
","
","""event"",""trial"",""time""
""fullscreenenter"",""0"",""9005""
","
","null","<p></p>","null","","","","","","","",""
"","image","46","86691","0.0-46.0","""event"",""trial"",""time""
""fullscreenenter"",""0"",""9005""
","
","
","""event"",""trial"",""time""
""fullscreenenter"",""0"",""9005""
","
","1124.1000000238419","run_exp/static/images/Set 6_rs/085a.jpg","86","","","","","","learn","SL",""
"","show_choice","47","87572","0.0-47.0","""event"",""trial"",""time""
""fullscreenenter"",""0"",""9005""
","
","
","""event"",""trial"",""time""
""fullscreenenter"",""0"",""9005""
","
","null","run_exp/static/images/Set 6_rs/085a.jpg","null","","","","","","learn","SL",""
"","html-keyboard-response","48","88077","0.0-48.0","""event"",""trial"",""time""
""fullscreenenter"",""0"",""9005""
","
","
","""event"",""trial"",""time""
""fullscreenenter"",""0"",""9005""
","
","null","<p></p>","null","","","","","","","",""
"","image","49","89605","0.0-49.0","""event"",""trial"",""time""
""fullscreenenter"",""0"",""9005""
","
","
","""event"",""trial"",""time""
""fullscreenenter"",""0"",""9005""
","
","1526.5999999642372","run_exp/static/images/Set 6_rs/141a.jpg","78","","","","","","learn","SR",""
"","show_choice","50","90083","0.0-50.0","""event"",""trial"",""time""
""fullscreenenter"",""0"",""9005""
","
","
","""event"",""trial"",""time""
""fullscreenenter"",""0"",""9005""
","
","null","run_exp/static/images/Set 6_rs/141a.jpg","null","","","","","","learn","SR",""
"","html-keyboard-response","51","90590","0.0-51.0","""event"",""trial"",""time""
""fullscreenenter"",""0"",""9005""
","
","
","""event"",""trial"",""time""
""fullscreenenter"",""0"",""9005""
","
","null","<p></p>","null","","","","","","","",""
"","image","52","91912","0.0-52.0","""event"",""trial"",""time""
""fullscreenenter"",""0"",""9005""
","
","
","""event"",""trial"",""time""
""fullscreenenter"",""0"",""9005""
","
","1321.199999988079","run_exp/static/images/Set 6_rs/019a.jpg","86","","","","","","learn","SL",""
"","show_choice","53","92597","0.0-53.0","""event"",""trial"",""time""
""fullscreenenter"",""0"",""9005""
","
","
","""event"",""trial"",""time""
""fullscreenenter"",""0"",""9005""
","
","null","run_exp/static/images/Set 6_rs/019a.jpg","null","","","","","","learn","SL",""
"","html-keyboard-response","54","93103","0.0-54.0","""event"",""trial"",""time""
""fullscreenenter"",""0"",""9005""
","
","
","""event"",""trial"",""time""
""fullscreenenter"",""0"",""9005""
","
","null","<p></p>","null","","","","","","","",""
"","image","55","94181","0.0-55.0","""event"",""trial"",""time""
""fullscreenenter"",""0"",""9005""
","
","
","""event"",""trial"",""time""
""fullscreenenter"",""0"",""9005""
","
","1075.5999999642372","run_exp/static/images/Set 6_rs/007a.jpg","86","","","","","","learn","SR",""
"","show_choice","56","95106","0.0-56.0","""event"",""trial"",""time""
""fullscreenenter"",""0"",""9005""
","
","
","""event"",""trial"",""time""
""fullscreenenter"",""0"",""9005""
","
","null","run_exp/static/images/Set 6_rs/007a.jpg","null","","","","","","learn","SR",""
"","html-keyboard-response","57","95612","0.0-57.0","""event"",""trial"",""time""
""fullscreenenter"",""0"",""9005""
","
","
","""event"",""trial"",""time""
""fullscreenenter"",""0"",""9005""
","
","null","<p></p>","null","","","","","","","",""
"","image","58","96745","0.0-58.0","""event"",""trial"",""time""
""fullscreenenter"",""0"",""9005""
","
","
","""event"",""trial"",""time""
""fullscreenenter"",""0"",""9005""
","
","1131.5999999642372","run_exp/static/images/Set 6_rs/014a.jpg","86","","","","","","learn","SL",""
"","show_choice","59","97617","0.0-59.0","""event"",""trial"",""time""
""fullscreenenter"",""0"",""9005""
","
","
","""event"",""trial"",""time""
""fullscreenenter"",""0"",""9005""
","
","null","run_exp/static/images/Set 6_rs/014a.jpg","null","","","","","","learn","SL",""
"","html-keyboard-response","60","98123","0.0-60.0","""event"",""trial"",""time""
""fullscreenenter"",""0"",""9005""
","
","
","""event"",""trial"",""time""
""fullscreenenter"",""0"",""9005""
","
","null","<p></p>","null","","","","","","","",""
"","image","61","98946","0.0-61.0","""event"",""trial"",""time""
""fullscreenenter"",""0"",""9005""
","
","
","""event"",""trial"",""time""
""fullscreenenter"",""0"",""9005""
","
","822.1000000238419","run_exp/static/images/Set 6_rs/079a.jpg","86","","","","","","learn","SL",""
"","show_choice","62","100129","0.0-62.0","""event"",""trial"",""time""
""fullscreenenter"",""0"",""9005""
","
","
","""event"",""trial"",""time""
""fullscreenenter"",""0"",""9005""
","
","null","run_exp/static/images/Set 6_rs/079a.jpg","null","","","","","","learn","SL",""
"","html-keyboard-response","63","100636","0.0-63.0","""event"",""trial"",""time""
""fullscreenenter"",""0"",""9005""
","
","
","""event"",""trial"",""time""
""fullscreenenter"",""0"",""9005""
","
","null","<p></p>","null","","","","","","","",""
"","image","64","102403","0.0-64.0","""event"",""trial"",""time""
""fullscreenenter"",""0"",""9005""
","
","
","""event"",""trial"",""time""
""fullscreenenter"",""0"",""9005""
","
","1766","run_exp/static/images/Set 6_rs/178a.jpg","78","","","","","","learn","SR",""
"","show_choice","65","102639","0.0-65.0","""event"",""trial"",""time""
""fullscreenenter"",""0"",""9005""
","
","
","""event"",""trial"",""time""
""fullscreenenter"",""0"",""9005""
","
","null","run_exp/static/images/Set 6_rs/178a.jpg","null","","","","","","learn","SR",""
"","html-keyboard-response","66","103144","0.0-66.0","""event"",""trial"",""time""
""fullscreenenter"",""0"",""9005""
","
","
","""event"",""trial"",""time""
""fullscreenenter"",""0"",""9005""
","
","null","<p></p>","null","","","","","","","",""
"","image","67","104361","0.0-67.0","""event"",""trial"",""time""
""fullscreenenter"",""0"",""9005""
","
","
","""event"",""trial"",""time""
""fullscreenenter"",""0"",""9005""
","
","1215.699999988079","run_exp/static/images/Set 6_rs/064a.jpg","86","","","","","","learn","SR",""
"","show_choice","68","105151","0.0-68.0","""event"",""trial"",""time""
""fullscreenenter"",""0"",""9005""
","
","
","""event"",""trial"",""time""
""fullscreenenter"",""0"",""9005""
","
","null","run_exp/static/images/Set 6_rs/064a.jpg","null","","","","","","learn","SR",""
"","html-keyboard-response","69","105652","0.0-69.0","""event"",""trial"",""time""
""fullscreenenter"",""0"",""9005""
","
","
","""event"",""trial"",""time""
""fullscreenenter"",""0"",""9005""
","
","null","<p></p>","null","","","","","","","",""
"","image","70","107472","0.0-70.0","""event"",""trial"",""time""
""fullscreenenter"",""0"",""9005""
","
","
","""event"",""trial"",""time""
""fullscreenenter"",""0"",""9005""
","
","1818.8999999761581","run_exp/static/images/Set 6_rs/169a.jpg","78","","","","","","learn","SR",""
"","show_choice","71","107656","0.0-71.0","""event"",""trial"",""time""
""fullscreenenter"",""0"",""9005""
","
","
","""event"",""trial"",""time""
""fullscreenenter"",""0"",""9005""
","
","null","run_exp/static/images/Set 6_rs/169a.jpg","null","","","","","","learn","SR",""
"","html-keyboard-response","72","108160","0.0-72.0","""event"",""trial"",""time""
""fullscreenenter"",""0"",""9005""
","
","
","""event"",""trial"",""time""
""fullscreenenter"",""0"",""9005""
","
","null","<p></p>","null","","","","","","","",""
"","image","73","109246","0.0-73.0","""event"",""trial"",""time""
""fullscreenenter"",""0"",""9005""
","
","
","""event"",""trial"",""time""
""fullscreenenter"",""0"",""9005""
","
","1084.300000011921","run_exp/static/images/Set 6_rs/066a.jpg","86","","","","","","learn","SL",""
"","show_choice","74","110167","0.0-74.0","""event"",""trial"",""time""
""fullscreenenter"",""0"",""9005""
","
","
","""event"",""trial"",""time""
""fullscreenenter"",""0"",""9005""
","
","null","run_exp/static/images/Set 6_rs/066a.jpg","null","","","","","","learn","SL",""
"","html-keyboard-response","75","110673","0.0-75.0","""event"",""trial"",""time""
""fullscreenenter"",""0"",""9005""
","
","
","""event"",""trial"",""time""
""fullscreenenter"",""0"",""9005""
","
","null","<p></p>","null","","","","","","","",""
"","image","76","111553","0.0-76.0","""event"",""trial"",""time""
""fullscreenenter"",""0"",""9005""
","
","
","""event"",""trial"",""time""
""fullscreenenter"",""0"",""9005""
","
","879.1000000238419","run_exp/static/images/Set 6_rs/045a.jpg","86","","","","","","learn","SR",""
"","show_choice","77","112680","0.0-77.0","""event"",""trial"",""time""
""fullscreenenter"",""0"",""9005""
","
","
","""event"",""trial"",""time""
""fullscreenenter"",""0"",""9005""
","
","null","run_exp/static/images/Set 6_rs/045a.jpg","null","","","","","","learn","SR",""
"","html-keyboard-response","78","113181","0.0-78.0","""event"",""trial"",""time""
""fullscreenenter"",""0"",""9005""
","
","
","""event"",""trial"",""time""
""fullscreenenter"",""0"",""9005""
","
","null","<p></p>","null","","","","","","","",""
"","image","79","114812","0.0-79.0","""event"",""trial"",""time""
""fullscreenenter"",""0"",""9005""
","
","
","""event"",""trial"",""time""
""fullscreenenter"",""0"",""9005""
","
","1629.5","run_exp/static/images/Set 6_rs/006a.jpg","86","","","","","","learn","SL",""
"","show_choice","80","115183","0.0-80.0","""event"",""trial"",""time""
""fullscreenenter"",""0"",""9005""
","
","
","""event"",""trial"",""time""
""fullscreenenter"",""0"",""9005""
","
","null","run_exp/static/images/Set 6_rs/006a.jpg","null","","","","","","learn","SL",""
"","html-keyboard-response","81","115688","0.0-81.0","""event"",""trial"",""time""
""fullscreenenter"",""0"",""9005""
","
","
","""event"",""trial"",""time""
""fullscreenenter"",""0"",""9005""
","
","null","<p></p>","null","","","","","","","",""
"","image","82","116989","0.0-82.0","""event"",""trial"",""time""
""fullscreenenter"",""0"",""9005""
","
","
","""event"",""trial"",""time""
""fullscreenenter"",""0"",""9005""
","
","1299.699999988079","run_exp/static/images/Set 6_rs/112a.jpg","86","","","","","","learn","SR",""
"","show_choice","83","117692","0.0-83.0","""event"",""trial"",""time""
""fullscreenenter"",""0"",""9005""
","
","
","""event"",""trial"",""time""
""fullscreenenter"",""0"",""9005""
","
","null","run_exp/static/images/Set 6_rs/112a.jpg","null","","","","","","learn","SR",""
"","html-keyboard-response","84","118198","0.0-84.0","""event"",""trial"",""time""
""fullscreenenter"",""0"",""9005""
","
","
","""event"",""trial"",""time""
""fullscreenenter"",""0"",""9005""
","
","null","<p></p>","null","","","","","","","",""
"","image","85","119539","0.0-85.0","""event"",""trial"",""time""
""fullscreenenter"",""0"",""9005""
","
","
","""event"",""trial"",""time""
""fullscreenenter"",""0"",""9005""
","
","1339.1000000238419","run_exp/static/images/Set 6_rs/074a.jpg","86","","","","","","learn","SL",""
"","show_choice","86","120202","0.0-86.0","""event"",""trial"",""time""
""fullscreenenter"",""0"",""9005""
","
","
","""event"",""trial"",""time""
""fullscreenenter"",""0"",""9005""
","
","null","run_exp/static/images/Set 6_rs/074a.jpg","null","","","","","","learn","SL",""
"","html-keyboard-response","87","120704","0.0-87.0","""event"",""trial"",""time""
""fullscreenenter"",""0"",""9005""
","
","
","""event"",""trial"",""time""
""fullscreenenter"",""0"",""9005""
","
","null","<p></p>","null","","","","","","","",""
"","image","88","121897","0.0-88.0","""event"",""trial"",""time""
""fullscreenenter"",""0"",""9005""
","
","
","""event"",""trial"",""time""
""fullscreenenter"",""0"",""9005""
","
","1191.300000011921","run_exp/static/images/Set 6_rs/070a.jpg","86","","","","","","learn","SR",""
"","show_choice","89","122708","0.0-89.0","""event"",""trial"",""time""
""fullscreenenter"",""0"",""9005""
","
","
","""event"",""trial"",""time""
""fullscreenenter"",""0"",""9005""
","
","null","run_exp/static/images/Set 6_rs/070a.jpg","null","","","","","","learn","SR",""
"","html-keyboard-response","90","123213","0.0-90.0","""event"",""trial"",""time""
""fullscreenenter"",""0"",""9005""
","
","
","""event"",""trial"",""time""
""fullscreenenter"",""0"",""9005""
","
","null","<p></p>","null","","","","","","","",""
"","image","91","124306","0.0-91.0","""event"",""trial"",""time""
""fullscreenenter"",""0"",""9005""
","
","
","""event"",""trial"",""time""
""fullscreenenter"",""0"",""9005""
","
","1091.4000000357628","run_exp/static/images/Set 6_rs/088a.jpg","86","","","","","","learn","SR",""
"","show_choice","92","125220","0.0-92.0","""event"",""trial"",""time""
""fullscreenenter"",""0"",""9005""
","
","
","""event"",""trial"",""time""
""fullscreenenter"",""0"",""9005""
","
","null","run_exp/static/images/Set 6_rs/088a.jpg","null","","","","","","learn","SR",""
"","html-keyboard-response","93","125727","0.0-93.0","""event"",""trial"",""time""
""fullscreenenter"",""0"",""9005""
","
","
","""event"",""trial"",""time""
""fullscreenenter"",""0"",""9005""
","
","null","<p></p>","null","","","","","","","",""
"","image","94","126745","0.0-94.0","""event"",""trial"",""time""
""fullscreenenter"",""0"",""9005""
","
","
","""event"",""trial"",""time""
""fullscreenenter"",""0"",""9005""
","
","1016.8000000119209","run_exp/static/images/Set 6_rs/036a.jpg","78","","","","","","learn","SL",""
"","show_choice","95","127734","0.0-95.0","""event"",""trial"",""time""
""fullscreenenter"",""0"",""9005""
","
","
","""event"",""trial"",""time""
""fullscreenenter"",""0"",""9005""
","
","null","run_exp/static/images/Set 6_rs/036a.jpg","null","","","","","","learn","SL",""
"","html-keyboard-response","96","128235","0.0-96.0","""event"",""trial"",""time""
""fullscreenenter"",""0"",""9005""
","
","
","""event"",""trial"",""time""
""fullscreenenter"",""0"",""9005""
","
","null","<p></p>","null","","","","","","","",""
"","image","97","129941","0.0-97.0","""event"",""trial"",""time""
""fullscreenenter"",""0"",""9005""
","
","
","""event"",""trial"",""time""
""fullscreenenter"",""0"",""9005""
","
","1705.2999999523163","run_exp/static/images/Set 6_rs/152a.jpg","78","","","","","","learn","SR",""
"","show_choice","98","130237","0.0-98.0","""event"",""trial"",""time""
""fullscreenenter"",""0"",""9005""
","
","
","""event"",""trial"",""time""
""fullscreenenter"",""0"",""9005""
","
","null","run_exp/static/images/Set 6_rs/152a.jpg","null","","","","","","learn","SR",""
"","html-keyboard-response","99","130743","0.0-99.0","""event"",""trial"",""time""
""fullscreenenter"",""0"",""9005""
","
","
","""event"",""trial"",""time""
""fullscreenenter"",""0"",""9005""
","
","null","<p></p>","null","","","","","","","",""
"","image","100","131874","0.0-100.0","""event"",""trial"",""time""
""fullscreenenter"",""0"",""9005""
","
","
","""event"",""trial"",""time""
""fullscreenenter"",""0"",""9005""
","
","1129.5","run_exp/static/images/Set 6_rs/186a.jpg","86","","","","","","learn","SR",""
"","show_choice","101","132750","0.0-101.0","""event"",""trial"",""time""
""fullscreenenter"",""0"",""9005""
","
","
","""event"",""trial"",""time""
""fullscreenenter"",""0"",""9005""
","
","null","run_exp/static/images/Set 6_rs/186a.jpg","null","","","","","","learn","SR",""
"","html-keyboard-response","102","133257","0.0-102.0","""event"",""trial"",""time""
""fullscreenenter"",""0"",""9005""
","
","
","""event"",""trial"",""time""
""fullscreenenter"",""0"",""9005""
","
","null","<p></p>","null","","","","","","","",""
"","image","103","134274","0.0-103.0","""event"",""trial"",""time""
""fullscreenenter"",""0"",""9005""
","
","
","""event"",""trial"",""time""
""fullscreenenter"",""0"",""9005""
","
","1015","run_exp/static/images/Set 6_rs/025a.jpg","78","","","","","","learn","SL",""
"","show_choice","104","135261","0.0-104.0","""event"",""trial"",""time""
""fullscreenenter"",""0"",""9005""
","
","
","""event"",""trial"",""time""
""fullscreenenter"",""0"",""9005""
","
","null","run_exp/static/images/Set 6_rs/025a.jpg","null","","","","","","learn","SL",""
"","html-keyboard-response","105","135763","0.0-105.0","""event"",""trial"",""time""
""fullscreenenter"",""0"",""9005""
","
","
","""event"",""trial"",""time""
""fullscreenenter"",""0"",""9005""
","
","null","<p></p>","null","","","","","","","",""
"","image","106","136742","0.0-106.0","""event"",""trial"",""time""
""fullscreenenter"",""0"",""9005""
","
","
","""event"",""trial"",""time""
""fullscreenenter"",""0"",""9005""
","
","977.6000000238419","run_exp/static/images/Set 6_rs/024a.jpg","86","","","","","","learn","SR",""
"","show_choice","107","137765","0.0-107.0","""event"",""trial"",""time""
""fullscreenenter"",""0"",""9005""
","
","
","""event"",""trial"",""time""
""fullscreenenter"",""0"",""9005""
","
","null","run_exp/static/images/Set 6_rs/024a.jpg","null","","","","","","learn","SR",""
"","html-keyboard-response","108","138267","0.0-108.0","""event"",""trial"",""time""
""fullscreenenter"",""0"",""9005""
","
","
","""event"",""trial"",""time""
""fullscreenenter"",""0"",""9005""
","
","null","<p></p>","null","","","","","","","",""
"","image","109","139707","0.0-109.0","""event"",""trial"",""time""
""fullscreenenter"",""0"",""9005""
","
","
","""event"",""trial"",""time""
""fullscreenenter"",""0"",""9005""
","
","1438.3999999761581","run_exp/static/images/Set 6_rs/168a.jpg","78","","","","","","learn","SL",""
"","show_choice","110","140274","0.0-110.0","""event"",""trial"",""time""
""fullscreenenter"",""0"",""9005""
","
","
","""event"",""trial"",""time""
""fullscreenenter"",""0"",""9005""
","
","null","run_exp/static/images/Set 6_rs/168a.jpg","null","","","","","","learn","SL",""
"","html-keyboard-response","111","140780","0.0-111.0","""event"",""trial"",""time""
""fullscreenenter"",""0"",""9005""
","
","
","""event"",""trial"",""time""
""fullscreenenter"",""0"",""9005""
","
","null","<p></p>","null","","","","","","","",""
"","image","112","141030","0.0-112.0","""event"",""trial"",""time""
""fullscreenenter"",""0"",""9005""
","
","
","""event"",""trial"",""time""
""fullscreenenter"",""0"",""9005""
","
","247.9000000357628","run_exp/static/images/Set 6_rs/075a.jpg","86","","","","","","learn","SR",""
"","show_choice","113","142787","0.0-113.0","""event"",""trial"",""time""
""fullscreenenter"",""0"",""9005""
","
","
","""event"",""trial"",""time""
""fullscreenenter"",""0"",""9005""
","
","null","run_exp/static/images/Set 6_rs/075a.jpg","null","","","","","","learn","SR",""
"","html-keyboard-response","114","143289","0.0-114.0","""event"",""trial"",""time""
""fullscreenenter"",""0"",""9005""
","
","
","""event"",""trial"",""time""
""fullscreenenter"",""0"",""9005""
","
","null","<p></p>","null","","","","","","","",""
"","image","115","144656","0.0-115.0","""event"",""trial"",""time""
""fullscreenenter"",""0"",""9005""
","
","
","""event"",""trial"",""time""
""fullscreenenter"",""0"",""9005""
","
","1366.199999988079","run_exp/static/images/Set 6_rs/167a.jpg","86","","","","","","learn","SL",""
"","show_choice","116","145295","0.0-116.0","""event"",""trial"",""time""
""fullscreenenter"",""0"",""9005""
","
","
","""event"",""trial"",""time""
""fullscreenenter"",""0"",""9005""
","
","null","run_exp/static/images/Set 6_rs/167a.jpg","null","","","","","","learn","SL",""
"","html-keyboard-response","117","145802","0.0-117.0","""event"",""trial"",""time""
""fullscreenenter"",""0"",""9005""
","
","
","""event"",""trial"",""time""
""fullscreenenter"",""0"",""9005""
","
","null","<p></p>","null","","","","","","","",""
"","image","118","147193","0.0-118.0","""event"",""trial"",""time""
""fullscreenenter"",""0"",""9005""
","
","
","""event"",""trial"",""time""
""fullscreenenter"",""0"",""9005""
","
","1389.3999999761581","run_exp/static/images/Set 6_rs/017a.jpg","86","","","","","","learn","SL",""
"","show_choice","119","147809","0.0-119.0","""event"",""trial"",""time""
""fullscreenenter"",""0"",""9005""
","
","
","""event"",""trial"",""time""
""fullscreenenter"",""0"",""9005""
","
","null","run_exp/static/images/Set 6_rs/017a.jpg","null","","","","","","learn","SL",""
"","html-keyboard-response","120","148314","0.0-120.0","""event"",""trial"",""time""
""fullscreenenter"",""0"",""9005""
","
","
","""event"",""trial"",""time""
""fullscreenenter"",""0"",""9005""
","
","null","<p></p>","null","","","","","","","",""
"","image","121","149441","0.0-121.0","""event"",""trial"",""time""
""fullscreenenter"",""0"",""9005""
","
","
","""event"",""trial"",""time""
""fullscreenenter"",""0"",""9005""
","
","1125.6000000238419","run_exp/static/images/Set 6_rs/012a.jpg","86","","","","","","learn","SR",""
"","show_choice","122","150319","0.0-122.0","""event"",""trial"",""time""
""fullscreenenter"",""0"",""9005""
","
","
","""event"",""trial"",""time""
""fullscreenenter"",""0"",""9005""
","
","null","run_exp/static/images/Set 6_rs/012a.jpg","null","","","","","","learn","SR",""
"","html-keyboard-response","123","150824","0.0-123.0","""event"",""trial"",""time""
""fullscreenenter"",""0"",""9005""
","
","
","""event"",""trial"",""time""
""fullscreenenter"",""0"",""9005""
","
","null","<p></p>","null","","","","","","","",""
"","image","124","152360","0.0-124.0","""event"",""trial"",""time""
""fullscreenenter"",""0"",""9005""
","
","
","""event"",""trial"",""time""
""fullscreenenter"",""0"",""9005""
","
","1534.1000000238419","run_exp/static/images/Set 6_rs/123a.jpg","78","","","","","","learn","SL",""
"","show_choice","125","152831","0.0-125.0","""event"",""trial"",""time""
""fullscreenenter"",""0"",""9005""
","
","
","""event"",""trial"",""time""
""fullscreenenter"",""0"",""9005""
","
","null","run_exp/static/images/Set 6_rs/123a.jpg","null","","","","","","learn","SL",""
"","html-keyboard-response","126","153337","0.0-126.0","""event"",""trial"",""time""
""fullscreenenter"",""0"",""9005""
","
","
","""event"",""trial"",""time""
""fullscreenenter"",""0"",""9005""
","
","null","<p></p>","null","","","","","","","",""
"","image","127","154547","0.0-127.0","""event"",""trial"",""time""
""fullscreenenter"",""0"",""9005""
","
","
","""event"",""trial"",""time""
""fullscreenenter"",""0"",""9005""
","
","1208","run_exp/static/images/Set 6_rs/076a.jpg","86","","","","","","learn","SR",""
"","show_choice","128","155344","0.0-128.0","""event"",""trial"",""time""
""fullscreenenter"",""0"",""9005""
","
","
","""event"",""trial"",""time""
""fullscreenenter"",""0"",""9005""
","
","null","run_exp/static/images/Set 6_rs/076a.jpg","null","","","","","","learn","SR",""
"","html-keyboard-response","129","155851","0.0-129.0","""event"",""trial"",""time""
""fullscreenenter"",""0"",""9005""
","
","
","""event"",""trial"",""time""
""fullscreenenter"",""0"",""9005""
","
","null","<p></p>","null","","","","","","","",""
"","image","130","157425","0.0-130.0","""event"",""trial"",""time""
""fullscreenenter"",""0"",""9005""
","
","
","""event"",""trial"",""time""
""fullscreenenter"",""0"",""9005""
","
","1572.6000000238419","run_exp/static/images/Set 6_rs/144a.jpg","86","","","","","","learn","SL",""
"","show_choice","131","157858","0.0-131.0","""event"",""trial"",""time""
""fullscreenenter"",""0"",""9005""
","
","
","""event"",""trial"",""time""
""fullscreenenter"",""0"",""9005""
","
","null","run_exp/static/images/Set 6_rs/144a.jpg","null","","","","","","learn","SL",""
"","html-keyboard-response","132","158364","0.0-132.0","""event"",""trial"",""time""
""fullscreenenter"",""0"",""9005""
","
","
","""event"",""trial"",""time""
""fullscreenenter"",""0"",""9005""
","
","null","<p></p>","null","","","","","","","",""
"","image","133","160369","0.0-133.0","""event"",""trial"",""time""
""fullscreenenter"",""0"",""9005""
","
","
","""event"",""trial"",""time""
""fullscreenenter"",""0"",""9005""
","
","null","run_exp/static/images/Set 6_rs/061a.jpg","null","","","","","","learn","SR",""
"","show_choice","134","162371","0.0-134.0","""event"",""trial"",""time""
""fullscreenenter"",""0"",""9005""
","
","
","""event"",""trial"",""time""
""fullscreenenter"",""0"",""9005""
","
","null","run_exp/static/images/blank.png","null","","","","","","learn","SR",""
"","html-keyboard-response","135","162872","0.0-135.0","""event"",""trial"",""time""
""fullscreenenter"",""0"",""9005""
","
","
","""event"",""trial"",""time""
""fullscreenenter"",""0"",""9005""
","
","null","<p></p>","null","","","","","","","",""
"","image","136","164085","0.0-136.0","""event"",""trial"",""time""
""fullscreenenter"",""0"",""9005""
","
","
","""event"",""trial"",""time""
""fullscreenenter"",""0"",""9005""
","
","1211.5","run_exp/static/images/Set 6_rs/089a.jpg","86","","","","","","learn","SL",""
"","show_choice","137","164879","0.0-137.0","""event"",""trial"",""time""
""fullscreenenter"",""0"",""9005""
","
","
","""event"",""trial"",""time""
""fullscreenenter"",""0"",""9005""
","
","null","run_exp/static/images/Set 6_rs/089a.jpg","null","","","","","","learn","SL",""
"","html-keyboard-response","138","165385","0.0-138.0","""event"",""trial"",""time""
""fullscreenenter"",""0"",""9005""
","
","
","""event"",""trial"",""time""
""fullscreenenter"",""0"",""9005""
","
","null","<p></p>","null","","","","","","","",""
"","image","139","166365","0.0-139.0","""event"",""trial"",""time""
""fullscreenenter"",""0"",""9005""
","
","
","""event"",""trial"",""time""
""fullscreenenter"",""0"",""9005""
","
","978.7000000476837","run_exp/static/images/Set 6_rs/122a.jpg","86","","","","","","learn","SR",""
"","show_choice","140","167392","0.0-140.0","""event"",""trial"",""time""
""fullscreenenter"",""0"",""9005""
","
","
","""event"",""trial"",""time""
""fullscreenenter"",""0"",""9005""
","
","null","run_exp/static/images/Set 6_rs/122a.jpg","null","","","","","","learn","SR",""
"","html-keyboard-response","141","167895","0.0-141.0","""event"",""trial"",""time""
""fullscreenenter"",""0"",""9005""
","
","
","""event"",""trial"",""time""
""fullscreenenter"",""0"",""9005""
","
","null","<p></p>","null","","","","","","","",""
"","image","142","168902","0.0-142.0","""event"",""trial"",""time""
""fullscreenenter"",""0"",""9005""
","
","
","""event"",""trial"",""time""
""fullscreenenter"",""0"",""9005""
","
","1005.7000000476837","run_exp/static/images/Set 6_rs/154a.jpg","86","","","","","","learn","SR",""
"","show_choice","143","169899","0.0-143.0","""event"",""trial"",""time""
""fullscreenenter"",""0"",""9005""
","
","
","""event"",""trial"",""time""
""fullscreenenter"",""0"",""9005""
","
","null","run_exp/static/images/Set 6_rs/154a.jpg","null","","","","","","learn","SR",""
"","html-keyboard-response","144","170405","0.0-144.0","""event"",""trial"",""time""
""fullscreenenter"",""0"",""9005""
","
","
","""event"",""trial"",""time""
""fullscreenenter"",""0"",""9005""
","
","null","<p></p>","null","","","","","","","",""
"","image","145","171563","0.0-145.0","""event"",""trial"",""time""
""fullscreenenter"",""0"",""9005""
","
","
","""event"",""trial"",""time""
""fullscreenenter"",""0"",""9005""
","
","1156.800000011921","run_exp/static/images/Set 6_rs/062a.jpg","78","","","","","","learn","SL",""
"","show_choice","146","172408","0.0-146.0","""event"",""trial"",""time""
""fullscreenenter"",""0"",""9005""
","
","
","""event"",""trial"",""time""
""fullscreenenter"",""0"",""9005""
","
","null","run_exp/static/images/Set 6_rs/062a.jpg","null","","","","","","learn","SL",""
"","html-keyboard-response","147","172914","0.0-147.0","""event"",""trial"",""time""
""fullscreenenter"",""0"",""9005""
","
","
","""event"",""trial"",""time""
""fullscreenenter"",""0"",""9005""
","
","null","<p></p>","null","","","","","","","",""
"","image","148","173892","0.0-148.0","""event"",""trial"",""time""
""fullscreenenter"",""0"",""9005""
","
","
","""event"",""trial"",""time""
""fullscreenenter"",""0"",""9005""
","
","977.3999999761581","run_exp/static/images/Set 6_rs/057a.jpg","86","","","","","","learn","SL",""
"","show_choice","149","174920","0.0-149.0","""event"",""trial"",""time""
""fullscreenenter"",""0"",""9005""
","
","
","""event"",""trial"",""time""
""fullscreenenter"",""0"",""9005""
","
","null","run_exp/static/images/Set 6_rs/057a.jpg","null","","","","","","learn","SL",""
"","html-keyboard-response","150","175427","0.0-150.0","""event"",""trial"",""time""
""fullscreenenter"",""0"",""9005""
","
","
","""event"",""trial"",""time""
""fullscreenenter"",""0"",""9005""
","
","null","<p></p>","null","","","","","","","",""
"","image","151","176287","0.0-151.0","""event"",""trial"",""time""
""fullscreenenter"",""0"",""9005""
","
","
","""event"",""trial"",""time""
""fullscreenenter"",""0"",""9005""
","
","858.6999999880791","run_exp/static/images/Set 6_rs/129a.jpg","86","","","","","","learn","SL",""
"","show_choice","152","177434","0.0-152.0","""event"",""trial"",""time""
""fullscreenenter"",""0"",""9005""
","
","
","""event"",""trial"",""time""
""fullscreenenter"",""0"",""9005""
","
","null","run_exp/static/images/Set 6_rs/129a.jpg","null","","","","","","learn","SL",""
"","html-keyboard-response","153","177937","0.0-153.0","""event"",""trial"",""time""
""fullscreenenter"",""0"",""9005""
","
","
","""event"",""trial"",""time""
""fullscreenenter"",""0"",""9005""
","
","null","<p></p>","null","","","","","","","",""
"","image","154","179088","0.0-154.0","""event"",""trial"",""time""
""fullscreenenter"",""0"",""9005""
","
","
","""event"",""trial"",""time""
""fullscreenenter"",""0"",""9005""
","
","1149.5","run_exp/static/images/Set 6_rs/132a.jpg","78","","","","","","learn","SR",""
"","show_choice","155","179941","0.0-155.0","""event"",""trial"",""time""
""fullscreenenter"",""0"",""9005""
","
","
","""event"",""trial"",""time""
""fullscreenenter"",""0"",""9005""
","
","null","run_exp/static/images/Set 6_rs/132a.jpg","null","","","","","","learn","SR",""
"","html-keyboard-response","156","180447","0.0-156.0","""event"",""trial"",""time""
""fullscreenenter"",""0"",""9005""
","
","
","""event"",""trial"",""time""
""fullscreenenter"",""0"",""9005""
","
","null","<p></p>","null","","","","","","","",""
"","image","157","181954","0.0-157.0","""event"",""trial"",""time""
""fullscreenenter"",""0"",""9005""
","
","
","""event"",""trial"",""time""
""fullscreenenter"",""0"",""9005""
","
","1505.9000000357628","run_exp/static/images/Set 6_rs/191a.jpg","86","","","","","","learn","SL",""
"","show_choice","158","182454","0.0-158.0","""event"",""trial"",""time""
""fullscreenenter"",""0"",""9005""
","
","
","""event"",""trial"",""time""
""fullscreenenter"",""0"",""9005""
","
","null","run_exp/static/images/Set 6_rs/191a.jpg","null","","","","","","learn","SL",""
"","html-keyboard-response","159","182956","0.0-159.0","""event"",""trial"",""time""
""fullscreenenter"",""0"",""9005""
","
","
","""event"",""trial"",""time""
""fullscreenenter"",""0"",""9005""
","
","null","<p></p>","null","","","","","","","",""
"","image","160","183918","0.0-160.0","""event"",""trial"",""time""
""fullscreenenter"",""0"",""9005""
","
","
","""event"",""trial"",""time""
""fullscreenenter"",""0"",""9005""
","
","960.5999999642372","run_exp/static/images/Set 6_rs/050a.jpg","86","","","","","","learn","SL",""
"","show_choice","161","184962","0.0-161.0","""event"",""trial"",""time""
""fullscreenenter"",""0"",""9005""
","
","
","""event"",""trial"",""time""
""fullscreenenter"",""0"",""9005""
","
","null","run_exp/static/images/Set 6_rs/050a.jpg","null","","","","","","learn","SL",""
"","html-keyboard-response","162","185467","0.0-162.0","""event"",""trial"",""time""
""fullscreenenter"",""0"",""9005""
","
","
","""event"",""trial"",""time""
""fullscreenenter"",""0"",""9005""
","
","null","<p></p>","null","","","","","","","",""
"","image","163","186512","0.0-163.0","""event"",""trial"",""time""
""fullscreenenter"",""0"",""9005""
","
","
","""event"",""trial"",""time""
""fullscreenenter"",""0"",""9005""
","
","1044.199999988079","run_exp/static/images/Set 6_rs/134a.jpg","86","","","","","","learn","SR",""
"","show_choice","164","187473","0.0-164.0","""event"",""trial"",""time""
""fullscreenenter"",""0"",""9005""
","
","
","""event"",""trial"",""time""
""fullscreenenter"",""0"",""9005""
","
","null","run_exp/static/images/Set 6_rs/134a.jpg","null","","","","","","learn","SR",""
"","html-keyboard-response","165","187980","0.0-165.0","""event"",""trial"",""time""
""fullscreenenter"",""0"",""9005""
","
","
","""event"",""trial"",""time""
""fullscreenenter"",""0"",""9005""
","
","null","<p></p>","null","","","","","","","",""
"","image","166","189073","0.0-166.0","""event"",""trial"",""time""
""fullscreenenter"",""0"",""9005""
","
","
","""event"",""trial"",""time""
""fullscreenenter"",""0"",""9005""
","
","1091.4000000357628","run_exp/static/images/Set 6_rs/181a.jpg","86","","","","","","learn","SL",""
"","show_choice","167","189986","0.0-167.0","""event"",""trial"",""time""
""fullscreenenter"",""0"",""9005""
","
","
","""event"",""trial"",""time""
""fullscreenenter"",""0"",""9005""
","
","null","run_exp/static/images/Set 6_rs/181a.jpg","null","","","","","","learn","SL",""
"","html-keyboard-response","168","190492","0.0-168.0","""event"",""trial"",""time""
""fullscreenenter"",""0"",""9005""
","
","
","""event"",""trial"",""time""
""fullscreenenter"",""0"",""9005""
","
","null","<p></p>","null","","","","","","","",""
"","image","169","191460","0.0-169.0","""event"",""trial"",""time""
""fullscreenenter"",""0"",""9005""
","
","
","""event"",""trial"",""time""
""fullscreenenter"",""0"",""9005""
","
","965.8000000119209","run_exp/static/images/Set 6_rs/111a.jpg","86","","","","","","learn","SL",""
"","show_choice","170","192499","0.0-170.0","""event"",""trial"",""time""
""fullscreenenter"",""0"",""9005""
","
","
","""event"",""trial"",""time""
""fullscreenenter"",""0"",""9005""
","
","null","run_exp/static/images/Set 6_rs/111a.jpg","null","","","","","","learn","SL",""
"","html-keyboard-response","171","193002","0.0-171.0","""event"",""trial"",""time""
""fullscreenenter"",""0"",""9005""
","
","
","""event"",""trial"",""time""
""fullscreenenter"",""0"",""9005""
","
","null","<p></p>","null","","","","","","","",""
"","image","172","194373","0.0-172.0","""event"",""trial"",""time""
""fullscreenenter"",""0"",""9005""
","
","
","""event"",""trial"",""time""
""fullscreenenter"",""0"",""9005""
","
","1369.699999988079","run_exp/static/images/Set 6_rs/095a.jpg","86","","","","","","learn","SL",""
"","show_choice","173","195009","0.0-173.0","""event"",""trial"",""time""
""fullscreenenter"",""0"",""9005""
","
","
","""event"",""trial"",""time""
""fullscreenenter"",""0"",""9005""
","
","null","run_exp/static/images/Set 6_rs/095a.jpg","null","","","","","","learn","SL",""
"","html-keyboard-response","174","195511","0.0-174.0","""event"",""trial"",""time""
""fullscreenenter"",""0"",""9005""
","
","
","""event"",""trial"",""time""
""fullscreenenter"",""0"",""9005""
","
","null","<p></p>","null","","","","","","","",""
"","image","175","197518","0.0-175.0","""event"",""trial"",""time""
""fullscreenenter"",""0"",""9005""
","
","
","""event"",""trial"",""time""
""fullscreenenter"",""0"",""9005""
","
","null","run_exp/static/images/Set 6_rs/016a.jpg","null","","","","","","learn","SL",""
"","show_choice","176","199524","0.0-176.0","""event"",""trial"",""time""
""fullscreenenter"",""0"",""9005""
","
","
","""event"",""trial"",""time""
""fullscreenenter"",""0"",""9005""
","
","null","run_exp/static/images/blank.png","null","","","","","","learn","SL",""
"","html-keyboard-response","177","200029","0.0-177.0","""event"",""trial"",""time""
""fullscreenenter"",""0"",""9005""
","
","
","""event"",""trial"",""time""
""fullscreenenter"",""0"",""9005""
","
","null","<p></p>","null","","","","","","","",""
"","image","178","200820","0.0-178.0","""event"",""trial"",""time""
""fullscreenenter"",""0"",""9005""
","
","
","""event"",""trial"",""time""
""fullscreenenter"",""0"",""9005""
","
","789.5","run_exp/static/images/Set 6_rs/023a.jpg","86","","","","","","learn","SR",""
"","show_choice","179","202031","0.0-179.0","""event"",""trial"",""time""
""fullscreenenter"",""0"",""9005""
","
","
","""event"",""trial"",""time""
""fullscreenenter"",""0"",""9005""
","
","null","run_exp/static/images/Set 6_rs/023a.jpg","null","","","","","","learn","SR",""
"","html-keyboard-response","180","202532","0.0-180.0","""event"",""trial"",""time""
""fullscreenenter"",""0"",""9005""
","
","
","""event"",""trial"",""time""
""fullscreenenter"",""0"",""9005""
","
","null","<p></p>","null","","","","","","","",""
"","image","181","203221","0.0-181.0","""event"",""trial"",""time""
""fullscreenenter"",""0"",""9005""
","
","
","""event"",""trial"",""time""
""fullscreenenter"",""0"",""9005""
","
","688.3999999761581","run_exp/static/images/Set 6_rs/138a.jpg","78","","","","","","learn","SL",""
"","show_choice","182","204538","0.0-182.0","""event"",""trial"",""time""
""fullscreenenter"",""0"",""9005""
","
","
","""event"",""trial"",""time""
""fullscreenenter"",""0"",""9005""
","
","null","run_exp/static/images/Set 6_rs/138a.jpg","null","","","","","","learn","SL",""
"","html-keyboard-response","183","205042","0.0-183.0","""event"",""trial"",""time""
""fullscreenenter"",""0"",""9005""
","
","
","""event"",""trial"",""time""
""fullscreenenter"",""0"",""9005""
","
","null","<p></p>","null","","","","","","","",""
"","image","184","206439","0.0-184.0","""event"",""trial"",""time""
""fullscreenenter"",""0"",""9005""
","
","
","""event"",""trial"",""time""
""fullscreenenter"",""0"",""9005""
","
","1395.8999999761581","run_exp/static/images/Set 6_rs/071a.jpg","86","","","","","","learn","SL",""
"","show_choice","185","207048","0.0-185.0","""event"",""trial"",""time""
""fullscreenenter"",""0"",""9005""
","
","
","""event"",""trial"",""time""
""fullscreenenter"",""0"",""9005""
","
","null","run_exp/static/images/Set 6_rs/071a.jpg","null","","","","","","learn","SL",""
"","html-keyboard-response","186","207549","0.0-186.0","""event"",""trial"",""time""
""fullscreenenter"",""0"",""9005""
","
","
","""event"",""trial"",""time""
""fullscreenenter"",""0"",""9005""
","
","null","<p></p>","null","","","","","","","",""
"","image","187","207613","0.0-187.0","""event"",""trial"",""time""
""fullscreenenter"",""0"",""9005""
","
","
","""event"",""trial"",""time""
""fullscreenenter"",""0"",""9005""
","
","62.39999997615814","run_exp/static/images/Set 6_rs/117a.jpg","78","","","","","","learn","SL",""
"","show_choice","188","209556","0.0-188.0","""event"",""trial"",""time""
""fullscreenenter"",""0"",""9005""
","
","
","""event"",""trial"",""time""
""fullscreenenter"",""0"",""9005""
","
","null","run_exp/static/images/Set 6_rs/117a.jpg","null","","","","","","learn","SL",""
"","html-keyboard-response","189","210063","0.0-189.0","""event"",""trial"",""time""
""fullscreenenter"",""0"",""9005""
","
","
","""event"",""trial"",""time""
""fullscreenenter"",""0"",""9005""
","
","null","<p></p>","null","","","","","","","",""
"","image","190","211719","0.0-190.0","""event"",""trial"",""time""
""fullscreenenter"",""0"",""9005""
","
","
","""event"",""trial"",""time""
""fullscreenenter"",""0"",""9005""
","
","1654.1000000238419","run_exp/static/images/Set 6_rs/010a.jpg","86","","","","","","learn","SR",""
"","show_choice","191","212067","0.0-191.0","""event"",""trial"",""time""
""fullscreenenter"",""0"",""9005""
","
","
","""event"",""trial"",""time""
""fullscreenenter"",""0"",""9005""
","
","null","run_exp/static/images/Set 6_rs/010a.jpg","null","","","","","","learn","SR",""
"","html-keyboard-response","192","212573","0.0-192.0","""event"",""trial"",""time""
""fullscreenenter"",""0"",""9005""
","
","
","""event"",""trial"",""time""
""fullscreenenter"",""0"",""9005""
","
","null","<p></p>","null","","","","","","","",""
"","image","193","212994","0.0-193.0","""event"",""trial"",""time""
""fullscreenenter"",""0"",""9005""
","
","
","""event"",""trial"",""time""
""fullscreenenter"",""0"",""9005""
","
","419.5","run_exp/static/images/Set 6_rs/063a.jpg","86","","","","","","learn","SR",""
"","show_choice","194","214576","0.0-194.0","""event"",""trial"",""time""
""fullscreenenter"",""0"",""9005""
","
","
","""event"",""trial"",""time""
""fullscreenenter"",""0"",""9005""
","
","null","run_exp/static/images/Set 6_rs/063a.jpg","null","","","","","","learn","SR",""
"","html-keyboard-response","195","215081","0.0-195.0","""event"",""trial"",""time""
""fullscreenenter"",""0"",""9005""
","
","
","""event"",""trial"",""time""
""fullscreenenter"",""0"",""9005""
","
","null","<p></p>","null","","","","","","","",""
"","test_intro","196","252013","0.0-196.0","""event"",""trial"",""time""
""fullscreenenter"",""0"",""9005""
","
","
","""event"",""trial"",""time""
""fullscreenenter"",""0"",""9005""
","
","null","run_exp/static/audio/clip_2_memory.m4a","null","","","","","<div class='center'><p>Now, lets see how much you remember about the items you just saw.  For each item, you need to indicate if it was <b>old</b> by pressing the <b>v</b> key, <b>similar</b> by pressing the <b>b</b> key, or <b>new</b> by pressing the <b>n</b> key.</p><p>Old refers to an item that you saw before in the indoor/outdoor game that you just played, new refers to an item you have <b>not</b> seen before within the indoor/outdoor game, and similar refers to an item that is similar to an item youve seen before but is not exactly the same. </p><p>Before we begin, lets go over some brief demonstrations to make sure you understand.</p></div>","","",""
"","html-keyboard-response","197","266845","0.0-197.0","""event"",""trial"",""time""
""fullscreenenter"",""0"",""9005""
","
","
","""event"",""trial"",""time""
""fullscreenenter"",""0"",""9005""
","
","14829.300000011921","<div class='center'><p>Now, lets see how much you remember about the items you just saw.  For each item, you need to indicate if it was <b>old</b> by pressing the <b>v</b> key, <b>similar</b> by pressing the <b>b</b> key, or <b>new</b> by pressing the <b>n</b> key.</p><p>Old refers to an item that you saw before in the indoor/outdoor game that you just played, new refers to an item you have <b>not</b> seen before within the indoor/outdoor game, and similar refers to an item that is similar to an item youve seen before but is not exactly the same. </p><p>Before we begin, lets go over some brief demonstrations to make sure you understand.</p><div><p><b>[Press the space bar to continue]</b></p></div>","32","","","","","","","",""
"","items","198","274350","0.0-198.0","""event"",""trial"",""time""
""fullscreenenter"",""0"",""9005""
","
","
","""event"",""trial"",""time""
""fullscreenenter"",""0"",""9005""
","
","null","run_exp/static/audio/clip_3_items.m4a","null","","","","","","","",""
"","mop","199","278858","0.0-199.0","""event"",""trial"",""time""
""fullscreenenter"",""0"",""9005""
","
","
","""event"",""trial"",""time""
""fullscreenenter"",""0"",""9005""
","
","null","run_exp/static/audio/clip_4_mop.m4a","null","","","","","","","",""
"","baseball","200","282365","0.0-200.0","""event"",""trial"",""time""
""fullscreenenter"",""0"",""9005""
","
","
","""event"",""trial"",""time""
""fullscreenenter"",""0"",""9005""
","
","null","run_exp/static/audio/clip_5_baseball.m4a","null","","","","","","","",""
"","trumpet","201","285869","0.0-201.0","""event"",""trial"",""time""
""fullscreenenter"",""0"",""9005""
","
","
","""event"",""trial"",""time""
""fullscreenenter"",""0"",""9005""
","
","null","run_exp/static/audio/clip_6_trumpet.m4a","null","","","","","","","",""
"","gummies","202","289376","0.0-202.0","""event"",""trial"",""time""
""fullscreenenter"",""0"",""9005""
","
","
","""event"",""trial"",""time""
""fullscreenenter"",""0"",""9005""
","
","null","run_exp/static/audio/clip_7_gummies.m4a","null","","","","","","","",""
"","osn","203","293878","0.0-203.0","""event"",""trial"",""time""
""fullscreenenter"",""0"",""9005""
","
","
","""event"",""trial"",""time""
""fullscreenenter"",""0"",""9005""
","
","null","run_exp/static/audio/clip_8_osn.m4a","null","","","","","","","",""
"","old_1","204","300386","0.0-204.0","""event"",""trial"",""time""
""fullscreenenter"",""0"",""9005""
","
","
","""event"",""trial"",""time""
""fullscreenenter"",""0"",""9005""
","
","null","run_exp/static/audio/clip_9_old_trumpet.m4a","null","","","","","","","",""
"","new_1","205","307894","0.0-205.0","""event"",""trial"",""time""
""fullscreenenter"",""0"",""9005""
","
","
","""event"",""trial"",""time""
""fullscreenenter"",""0"",""9005""
","
","null","run_exp/static/audio/clip_10_new_balloon.m4a","null","","","","","","","",""
"","similar_1a","206","312400","0.0-206.0","""event"",""trial"",""time""
""fullscreenenter"",""0"",""9005""
","
","
","""event"",""trial"",""time""
""fullscreenenter"",""0"",""9005""
","
","null","run_exp/static/audio/clip_11a_similar_mop.m4a","null","","","","","","","",""
"","similar_1b","207","318907","0.0-207.0","""event"",""trial"",""time""
""fullscreenenter"",""0"",""9005""
","
","
","""event"",""trial"",""time""
""fullscreenenter"",""0"",""9005""
","
","null","run_exp/static/audio/clip_11b_similar_mop.m4a","null","","","","","","","",""
"","new_2","208","322414","0.0-208.0","""event"",""trial"",""time""
""fullscreenenter"",""0"",""9005""
","
","
","""event"",""trial"",""time""
""fullscreenenter"",""0"",""9005""
","
","null","run_exp/static/audio/clip_12_new_stoplight.m4a","null","","","","","","","",""
"","old_2","209","325921","0.0-209.0","""event"",""trial"",""time""
""fullscreenenter"",""0"",""9005""
","
","
","""event"",""trial"",""time""
""fullscreenenter"",""0"",""9005""
","
","null","run_exp/static/audio/clip_13_old_baseball.m4a","null","","","","","","","",""
"","similar_2a","210","329428","0.0-210.0","""event"",""trial"",""time""
""fullscreenenter"",""0"",""9005""
","
","
","""event"",""trial"",""time""
""fullscreenenter"",""0"",""9005""
","
","null","run_exp/static/audio/clip_14a_similar_gummies.m4a","null","","","","","","","",""
"","similar_2b","211","336936","0.0-211.0","""event"",""trial"",""time""
""fullscreenenter"",""0"",""9005""
","
","
","""event"",""trial"",""time""
""fullscreenenter"",""0"",""9005""
","
","null","run_exp/static/audio/clip_14b_similar_gummies.m4a","null","","","","","","","",""
"","practice","212","379039","0.0-212.0","""event"",""trial"",""time""
""fullscreenenter"",""0"",""9005""
","
","
","""event"",""trial"",""time""
""fullscreenenter"",""0"",""9005""
","
","null","run_exp/static/audio/clip_15_practice.m4a","null","","","","","<div class='center'><p>Lets practice a little to make sure you understand the difference between new, similar, and old. Lets say you saw these three items in the indoor/outdoor game.</p><p> Try your best to remember these images because youll soon be tested on them in a practice game. In the practice game, youll be shown images and youll have to say if they are old (one of the three images belows), similar (similar to one of the images below but not exactly the same), or new (are not one of the images below nor similar to them).</p><p>Once you press the space bar youll be shown these images again but one at time. Then youll begin the practice game.</p><p><img src='run_exp/static/images/tutorial/test/three_indoor_outdoor.png' height='300'></p></div>","","",""
"","html-keyboard-response","213","379223","0.0-213.0","""event"",""trial"",""time""
""fullscreenenter"",""0"",""9005""
","
","
","""event"",""trial"",""time""
""fullscreenenter"",""0"",""9005""
","
","182.0999999642372","<div class='center'><p>Lets practice a little to make sure you understand the difference between new, similar, and old. Lets say you saw these three items in the indoor/outdoor game.</p><p> Try your best to remember these images because youll soon be tested on them in a practice game. In the practice game, youll be shown images and youll have to say if they are old (one of the three images belows), similar (similar to one of the images below but not exactly the same), or new (are not one of the images below nor similar to them).</p><p>Once you press the space bar youll be shown these images again but one at time. Then youll begin the practice game.</p><p><img src='run_exp/static/images/tutorial/test/three_indoor_outdoor.png' height='300'></p><div><p><b>[Press the space bar to continue]</b></p></div>","32","","","","","","","",""
"","planet","214","381224","0.0-214.0","""event"",""trial"",""time""
""fullscreenenter"",""0"",""9005""
","
","
","""event"",""trial"",""time""
""fullscreenenter"",""0"",""9005""
","
","null","run_exp/static/images/tutorial/test/008a.jpg","null","","","","","","","",""
"","boot","215","383231","0.0-215.0","""event"",""trial"",""time""
""fullscreenenter"",""0"",""9005""
","
","
","""event"",""trial"",""time""
""fullscreenenter"",""0"",""9005""
","
","null","run_exp/static/images/tutorial/test/011a.jpg","null","","","","","","","",""
"","lemon","216","385234","0.0-216.0","""event"",""trial"",""time""
""fullscreenenter"",""0"",""9005""
","
","
","""event"",""trial"",""time""
""fullscreenenter"",""0"",""9005""
","
","null","run_exp/static/images/tutorial/test/018a.jpg","null","","","","","","","",""
"","practice_q1","217","392453","0.0-217.0","""event"",""trial"",""time""
""fullscreenenter"",""0"",""9005""
","
","
","""event"",""trial"",""time""
""fullscreenenter"",""0"",""9005""
","
","7216.699999988079","run_exp/static/audio/clip_16_practice_question.m4a","66","","","","","","","",""
"","incorrect_q1","218","395293","0.0-218.0-0.0","""event"",""trial"",""time""
""fullscreenenter"",""0"",""9005""
","
","
","""event"",""trial"",""time""
""fullscreenenter"",""0"",""9005""
","
","null","run_exp/static/audio/clip_18_incorrect_new.m4a","null","","","","","<div class='center'><p>Thats incorrect. Its new.</p></div>","","",""
"","html-keyboard-response","219","412971","0.0-218.0-1.0","""event"",""trial"",""time""
""fullscreenenter"",""0"",""9005""
","
","
","""event"",""trial"",""time""
""fullscreenenter"",""0"",""9005""
","
","17676.200000047684","<div class='center'><p>Thats incorrect. Its new.</p><div><p><b>[Press the space bar to continue]</b></p></div>","32","","","","","","","",""
"","practice_q2","220","421361","0.0-218.0-2.0","""event"",""trial"",""time""
""fullscreenenter"",""0"",""9005""
","
","
","""event"",""trial"",""time""
""fullscreenenter"",""0"",""9005""
","
","8389.200000047684","run_exp/static/audio/clip_16_practice_question.m4a","86","","","","","","","",""
"","correct","221","423248","0.0-219.0-0.0","""event"",""trial"",""time""
""fullscreenenter"",""0"",""9005""
","
","
","""event"",""trial"",""time""
""fullscreenenter"",""0"",""9005""
","
","null","run_exp/static/audio/clip_17_correct.m4a","null","","","","","<div class='center'><p>That's correct!</p></div>","","",""
"","html-keyboard-response","222","425714","0.0-219.0-1.0","""event"",""trial"",""time""
""fullscreenenter"",""0"",""9005""
","
","
","""event"",""trial"",""time""
""fullscreenenter"",""0"",""9005""
","
","2464.400000035763","<div class='center'><p>That's correct!</p><div><p><b>[Press the space bar to continue]</b></p></div>","32","","","","","","","",""
"","practice_q3","223","443713","0.0-219.0-2.0","""event"",""trial"",""time""
""fullscreenenter"",""0"",""9005""
","
","
","""event"",""trial"",""time""
""fullscreenenter"",""0"",""9005""
","
","17998","run_exp/static/audio/clip_16_practice_question.m4a","66","","","","","","","",""
"","correct","224","445584","0.0-220.0-0.0","""event"",""trial"",""time""
""fullscreenenter"",""0"",""9005""
","
","
","""event"",""trial"",""time""
""fullscreenenter"",""0"",""9005""
","
","null","run_exp/static/audio/clip_17_correct.m4a","null","","","","","<div class='center'><p>That's correct!</p></div>","","",""
"","html-keyboard-response","225","447004","0.0-220.0-1.0","""event"",""trial"",""time""
""fullscreenenter"",""0"",""9005""
","
","
","""event"",""trial"",""time""
""fullscreenenter"",""0"",""9005""
","
","1418.699999988079","<div class='center'><p>That's correct!</p><div><p><b>[Press the space bar to continue]</b></p></div>","32","","","","","","","",""
"","repeat","226","451737","0.0-221.0-0.0","""event"",""trial"",""time""
""fullscreenenter"",""0"",""9005""
","
","
","""event"",""trial"",""time""
""fullscreenenter"",""0"",""9005""
","
","null","run_exp/static/audio/clip_21_practice_again.m4a","null","","","","","<div class='center'><p>Oops. you missed at least one of these questions. Let's try practicing again. </p></div>","","",""
"","html-keyboard-response","227","452912","0.0-221.0-1.0","""event"",""trial"",""time""
""fullscreenenter"",""0"",""9005""
","
","
","""event"",""trial"",""time""
""fullscreenenter"",""0"",""9005""
","
","1173.5","<div class='center'><p>Oops. you missed at least one of these questions. Let's try practicing again. </p><div><p><b>[Press the space bar to continue]</b></p></div>","32","","","","","","","",""
"","practice_q1","228","458235","0.0-221.0-2.0","""event"",""trial"",""time""
""fullscreenenter"",""0"",""9005""
","
","
","""event"",""trial"",""time""
""fullscreenenter"",""0"",""9005""
","
","5321.600000023842","run_exp/static/audio/clip_16_practice_question.m4a","78","","","","","","","",""
"","correct","229","460118","0.0-222.0-0.0","""event"",""trial"",""time""
""fullscreenenter"",""0"",""9005""
","
","
","""event"",""trial"",""time""
""fullscreenenter"",""0"",""9005""
","
","null","run_exp/static/audio/clip_17_correct.m4a","null","","","","","<div class='center'><p>That's correct!</p></div>","","",""
"","html-keyboard-response","230","460978","0.0-222.0-1.0","""event"",""trial"",""time""
""fullscreenenter"",""0"",""9005""
","
","
","""event"",""trial"",""time""
""fullscreenenter"",""0"",""9005""
","
","859.1999999880791","<div class='center'><p>That's correct!</p><div><p><b>[Press the space bar to continue]</b></p></div>","32","","","","","","","",""
"","practice_q2","231","466093","0.0-222.0-2.0","""event"",""trial"",""time""
""fullscreenenter"",""0"",""9005""
","
","
","""event"",""trial"",""time""
""fullscreenenter"",""0"",""9005""
","
","5113.299999952316","run_exp/static/audio/clip_16_practice_question.m4a","86","","","","","","","",""
"","correct","232","467966","0.0-223.0-0.0","""event"",""trial"",""time""
""fullscreenenter"",""0"",""9005""
","
","
","""event"",""trial"",""time""
""fullscreenenter"",""0"",""9005""
","
","null","run_exp/static/audio/clip_17_correct.m4a","null","","","","","<div class='center'><p>That's correct!</p></div>","","",""
"","html-keyboard-response","233","469188","0.0-223.0-1.0","""event"",""trial"",""time""
""fullscreenenter"",""0"",""9005""
","
","
","""event"",""trial"",""time""
""fullscreenenter"",""0"",""9005""
","
","1221.5","<div class='center'><p>That's correct!</p><div><p><b>[Press the space bar to continue]</b></p></div>","32","","","","","","","",""
"","practice_q3","234","473575","0.0-223.0-2.0","""event"",""trial"",""time""
""fullscreenenter"",""0"",""9005""
","
","
","""event"",""trial"",""time""
""fullscreenenter"",""0"",""9005""
","
","4385.800000011921","run_exp/static/audio/clip_16_practice_question.m4a","66","","","","","","","",""
"","correct","235","475606","0.0-224.0-0.0","""event"",""trial"",""time""
""fullscreenenter"",""0"",""9005""
","
","
","""event"",""trial"",""time""
""fullscreenenter"",""0"",""9005""
","
","null","run_exp/static/audio/clip_17_correct.m4a","null","","","","","<div class='center'><p>That's correct!</p></div>","","",""
"","html-keyboard-response","236","477567","0.0-224.0-1.0","""event"",""trial"",""time""
""fullscreenenter"",""0"",""9005""
","
","
","""event"",""trial"",""time""
""fullscreenenter"",""0"",""9005""
","
","1959.8999999761581","<div class='center'><p>That's correct!</p><div><p><b>[Press the space bar to continue]</b></p></div>","32","","","","","","","",""
"","begin_text","237","496039","0.0-225.0-0.0","""event"",""trial"",""time""
""fullscreenenter"",""0"",""9005""
","
","
","""event"",""trial"",""time""
""fullscreenenter"",""0"",""9005""
","
","null","run_exp/static/audio/clip_22_begin_test.m4a","null","","","","","<div class='center'><p>On to the real game where well test your memory of items from the indoor/outdoor game. For each item, you need to indicate if the item is <b>old</b> by pressing the <b>v</b> key, <b>similar</b> by pressing the <b>b</b> key, or <b>new</b> by pressing the <b>n</b> key. </p></div>","","",""
"","html-keyboard-response","238","498211","0.0-225.0-1.0","""event"",""trial"",""time""
""fullscreenenter"",""0"",""9005""
","
","
","""event"",""trial"",""time""
""fullscreenenter"",""0"",""9005""
","
","2170.300000011921","<div class='center'><p>On to the real game where well test your memory of items from the indoor/outdoor game. For each item, you need to indicate if the item is <b>old</b> by pressing the <b>v</b> key, <b>similar</b> by pressing the <b>b</b> key, or <b>new</b> by pressing the <b>n</b> key. </p><div><p><b>[Press the space bar to continue]</b></p></div>","32","","","","","","","",""
"","image","239","501216","0.0-226.0-0.0","""event"",""trial"",""time""
""fullscreenenter"",""0"",""9005""
","
","
","""event"",""trial"",""time""
""fullscreenenter"",""0"",""9005""
","
","null","run_exp/static/images/Set 6_rs/089b.jpg","null","","","","","","test","TL","4"
"","show_choice","240","501722","0.0-226.0-1.0","""event"",""trial"",""time""
""fullscreenenter"",""0"",""9005""
","
","
","""event"",""trial"",""time""
""fullscreenenter"",""0"",""9005""
","
","null","run_exp/static/images/Set 6_rs/089b.jpg","null","","","","","","test","TL",""
"","html-keyboard-response","241","502224","0.0-226.0-2.0","""event"",""trial"",""time""
""fullscreenenter"",""0"",""9005""
","
","
","""event"",""trial"",""time""
""fullscreenenter"",""0"",""9005""
","
","null","<p></p>","null","","","","","","","",""
"","image","242","504583","0.0-227.0-0.0","""event"",""trial"",""time""
""fullscreenenter"",""0"",""9005""
","
","
","""event"",""trial"",""time""
""fullscreenenter"",""0"",""9005""
","
","2357.800000011921","run_exp/static/images/Set 6_rs/170a.jpg","78","","","","","","test","TF","2"
"","show_choice","243","505086","0.0-227.0-1.0","""event"",""trial"",""time""
""fullscreenenter"",""0"",""9005""
","
","
","""event"",""trial"",""time""
""fullscreenenter"",""0"",""9005""
","
","null","run_exp/static/images/Set 6_rs/170a.jpg","null","","","","","","test","TF",""
"","html-keyboard-response","244","505587","0.0-227.0-2.0","""event"",""trial"",""time""
""fullscreenenter"",""0"",""9005""
","
","
","""event"",""trial"",""time""
""fullscreenenter"",""0"",""9005""
","
","null","<p></p>","null","","","","","","","",""
"","image","245","507346","0.0-228.0-0.0","""event"",""trial"",""time""
""fullscreenenter"",""0"",""9005""
","
","
","""event"",""trial"",""time""
""fullscreenenter"",""0"",""9005""
","
","1756.3999999761581","run_exp/static/images/Set 6_rs/076a.jpg","86","","","","","","test","TR","4"
"","show_choice","246","507851","0.0-228.0-1.0","""event"",""trial"",""time""
""fullscreenenter"",""0"",""9005""
","
","
","""event"",""trial"",""time""
""fullscreenenter"",""0"",""9005""
","
","null","run_exp/static/images/Set 6_rs/076a.jpg","null","","","","","","test","TR",""
"","html-keyboard-response","247","508352","0.0-228.0-2.0","""event"",""trial"",""time""
""fullscreenenter"",""0"",""9005""
","
","
","""event"",""trial"",""time""
""fullscreenenter"",""0"",""9005""
","
","null","<p></p>","null","","","","","","","",""
"","image","248","509366","0.0-229.0-0.0","""event"",""trial"",""time""
""fullscreenenter"",""0"",""9005""
","
","
","""event"",""trial"",""time""
""fullscreenenter"",""0"",""9005""
","
","1013.8000000119209","run_exp/static/images/Set 6_rs/008b.jpg","86","","","","","","test","TL","2"
"","show_choice","249","509868","0.0-229.0-1.0","""event"",""trial"",""time""
""fullscreenenter"",""0"",""9005""
","
","
","""event"",""trial"",""time""
""fullscreenenter"",""0"",""9005""
","
","null","run_exp/static/images/Set 6_rs/008b.jpg","null","","","","","","test","TL",""
"","html-keyboard-response","250","510371","0.0-229.0-2.0","""event"",""trial"",""time""
""fullscreenenter"",""0"",""9005""
","
","
","""event"",""trial"",""time""
""fullscreenenter"",""0"",""9005""
","
","null","<p></p>","null","","","","","","","",""
"","image","251","511676","0.0-230.0-0.0","""event"",""trial"",""time""
""fullscreenenter"",""0"",""9005""
","
","
","""event"",""trial"",""time""
""fullscreenenter"",""0"",""9005""
","
","1302.800000011921","run_exp/static/images/Set 6_rs/117b.jpg","86","","","","","","test","TL","5"
"","show_choice","252","512179","0.0-230.0-1.0","""event"",""trial"",""time""
""fullscreenenter"",""0"",""9005""
","
","
","""event"",""trial"",""time""
""fullscreenenter"",""0"",""9005""
","
","null","run_exp/static/images/Set 6_rs/117b.jpg","null","","","","","","test","TL",""
"","html-keyboard-response","253","512683","0.0-230.0-2.0","""event"",""trial"",""time""
""fullscreenenter"",""0"",""9005""
","
","
","""event"",""trial"",""time""
""fullscreenenter"",""0"",""9005""
","
","null","<p></p>","null","","","","","","","",""
"","image","254","514252","0.0-231.0-0.0","""event"",""trial"",""time""
""fullscreenenter"",""0"",""9005""
","
","
","""event"",""trial"",""time""
""fullscreenenter"",""0"",""9005""
","
","1567.2999999523163","run_exp/static/images/Set 6_rs/091b.jpg","86","","","","","","test","TL","3"
"","show_choice","255","514757","0.0-231.0-1.0","""event"",""trial"",""time""
""fullscreenenter"",""0"",""9005""
","
","
","""event"",""trial"",""time""
""fullscreenenter"",""0"",""9005""
","
","null","run_exp/static/images/Set 6_rs/091b.jpg","null","","","","","","test","TL",""
"","html-keyboard-response","256","515259","0.0-231.0-2.0","""event"",""trial"",""time""
""fullscreenenter"",""0"",""9005""
","
","
","""event"",""trial"",""time""
""fullscreenenter"",""0"",""9005""
","
","null","<p></p>","null","","","","","","","",""
"","image","257","516483","0.0-232.0-0.0","""event"",""trial"",""time""
""fullscreenenter"",""0"",""9005""
","
","
","""event"",""trial"",""time""
""fullscreenenter"",""0"",""9005""
","
","1222.6000000238419","run_exp/static/images/Set 6_rs/140a.jpg","66","","","","","","test","TF","1"
"","show_choice","258","516985","0.0-232.0-1.0","""event"",""trial"",""time""
""fullscreenenter"",""0"",""9005""
","
","
","""event"",""trial"",""time""
""fullscreenenter"",""0"",""9005""
","
","null","run_exp/static/images/Set 6_rs/140a.jpg","null","","","","","","test","TF",""
"","html-keyboard-response","259","517490","0.0-232.0-2.0","""event"",""trial"",""time""
""fullscreenenter"",""0"",""9005""
","
","
","""event"",""trial"",""time""
""fullscreenenter"",""0"",""9005""
","
","null","<p></p>","null","","","","","","","",""
"","image","260","519307","0.0-233.0-0.0","""event"",""trial"",""time""
""fullscreenenter"",""0"",""9005""
","
","
","""event"",""trial"",""time""
""fullscreenenter"",""0"",""9005""
","
","1815.300000011921","run_exp/static/images/Set 6_rs/090a.jpg","78","","","","","","test","TF","5"
"","show_choice","261","519810","0.0-233.0-1.0","""event"",""trial"",""time""
""fullscreenenter"",""0"",""9005""
","
","
","""event"",""trial"",""time""
""fullscreenenter"",""0"",""9005""
","
","null","run_exp/static/images/Set 6_rs/090a.jpg","null","","","","","","test","TF",""
"","html-keyboard-response","262","520314","0.0-233.0-2.0","""event"",""trial"",""time""
""fullscreenenter"",""0"",""9005""
","
","
","""event"",""trial"",""time""
""fullscreenenter"",""0"",""9005""
","
","null","<p></p>","null","","","","","","","",""
"","image","263","521301","0.0-234.0-0.0","""event"",""trial"",""time""
""fullscreenenter"",""0"",""9005""
","
","
","""event"",""trial"",""time""
""fullscreenenter"",""0"",""9005""
","
","986","run_exp/static/images/Set 6_rs/047a.jpg","78","","","","","","test","TF","3"
"","show_choice","264","521803","0.0-234.0-1.0","""event"",""trial"",""time""
""fullscreenenter"",""0"",""9005""
","
","
","""event"",""trial"",""time""
""fullscreenenter"",""0"",""9005""
","
","null","run_exp/static/images/Set 6_rs/047a.jpg","null","","","","","","test","TF",""
"","html-keyboard-response","265","522309","0.0-234.0-2.0","""event"",""trial"",""time""
""fullscreenenter"",""0"",""9005""
","
","
","""event"",""trial"",""time""
""fullscreenenter"",""0"",""9005""
","
","null","<p></p>","null","","","","","","","",""
"","image","266","523966","0.0-235.0-0.0","""event"",""trial"",""time""
""fullscreenenter"",""0"",""9005""
","
","
","""event"",""trial"",""time""
""fullscreenenter"",""0"",""9005""
","
","1655","run_exp/static/images/Set 6_rs/186a.jpg","86","","","","","","test","TR","5"
"","show_choice","267","524470","0.0-235.0-1.0","""event"",""trial"",""time""
""fullscreenenter"",""0"",""9005""
","
","
","""event"",""trial"",""time""
""fullscreenenter"",""0"",""9005""
","
","null","run_exp/static/images/Set 6_rs/186a.jpg","null","","","","","","test","TR",""
"","html-keyboard-response","268","524974","0.0-235.0-2.0","""event"",""trial"",""time""
""fullscreenenter"",""0"",""9005""
","
","
","""event"",""trial"",""time""
""fullscreenenter"",""0"",""9005""
","
","null","<p></p>","null","","","","","","","",""
"","image","269","526728","0.0-236.0-0.0","""event"",""trial"",""time""
""fullscreenenter"",""0"",""9005""
","
","
","""event"",""trial"",""time""
""fullscreenenter"",""0"",""9005""
","
","1751.0999999642372","run_exp/static/images/Set 6_rs/097a.jpg","78","","","","","","test","TF","5"
"","show_choice","270","527230","0.0-236.0-1.0","""event"",""trial"",""time""
""fullscreenenter"",""0"",""9005""
","
","
","""event"",""trial"",""time""
""fullscreenenter"",""0"",""9005""
","
","null","run_exp/static/images/Set 6_rs/097a.jpg","null","","","","","","test","TF",""
"","html-keyboard-response","271","527732","0.0-236.0-2.0","""event"",""trial"",""time""
""fullscreenenter"",""0"",""9005""
","
","
","""event"",""trial"",""time""
""fullscreenenter"",""0"",""9005""
","
","null","<p></p>","null","","","","","","","",""
"","image","272","529031","0.0-237.0-0.0","""event"",""trial"",""time""
""fullscreenenter"",""0"",""9005""
","
","
","""event"",""trial"",""time""
""fullscreenenter"",""0"",""9005""
","
","1297.3999999761581","run_exp/static/images/Set 6_rs/077a.jpg","66","","","","","","test","TF","3"
"","show_choice","273","529532","0.0-237.0-1.0","""event"",""trial"",""time""
""fullscreenenter"",""0"",""9005""
","
","
","""event"",""trial"",""time""
""fullscreenenter"",""0"",""9005""
","
","null","run_exp/static/images/Set 6_rs/077a.jpg","null","","","","","","test","TF",""
"","html-keyboard-response","274","530037","0.0-237.0-2.0","""event"",""trial"",""time""
""fullscreenenter"",""0"",""9005""
","
","
","""event"",""trial"",""time""
""fullscreenenter"",""0"",""9005""
","
","null","<p></p>","null","","","","","","","",""
"","image","275","531569","0.0-238.0-0.0","""event"",""trial"",""time""
""fullscreenenter"",""0"",""9005""
","
","
","""event"",""trial"",""time""
""fullscreenenter"",""0"",""9005""
","
","1529.0999999642372","run_exp/static/images/Set 6_rs/150a.jpg","86","","","","","","test","TR","1"
"","show_choice","276","532072","0.0-238.0-1.0","""event"",""trial"",""time""
""fullscreenenter"",""0"",""9005""
","
","
","""event"",""trial"",""time""
""fullscreenenter"",""0"",""9005""
","
","null","run_exp/static/images/Set 6_rs/150a.jpg","null","","","","","","test","TR",""
"","html-keyboard-response","277","532575","0.0-238.0-2.0","""event"",""trial"",""time""
""fullscreenenter"",""0"",""9005""
","
","
","""event"",""trial"",""time""
""fullscreenenter"",""0"",""9005""
","
","null","<p></p>","null","","","","","","","",""
"","image","278","533557","0.0-239.0-0.0","""event"",""trial"",""time""
""fullscreenenter"",""0"",""9005""
","
","
","""event"",""trial"",""time""
""fullscreenenter"",""0"",""9005""
","
","980.1000000238419","run_exp/static/images/Set 6_rs/088a.jpg","86","","","","","","test","TR","2"
"","show_choice","279","534058","0.0-239.0-1.0","""event"",""trial"",""time""
""fullscreenenter"",""0"",""9005""
","
","
","""event"",""trial"",""time""
""fullscreenenter"",""0"",""9005""
","
","null","run_exp/static/images/Set 6_rs/088a.jpg","null","","","","","","test","TR",""
"","html-keyboard-response","280","534565","0.0-239.0-2.0","""event"",""trial"",""time""
""fullscreenenter"",""0"",""9005""
","
","
","""event"",""trial"",""time""
""fullscreenenter"",""0"",""9005""
","
","null","<p></p>","null","","","","","","","",""
"","image","281","535869","0.0-240.0-0.0","""event"",""trial"",""time""
""fullscreenenter"",""0"",""9005""
","
","
","""event"",""trial"",""time""
""fullscreenenter"",""0"",""9005""
","
","1302.1000000238419","run_exp/static/images/Set 6_rs/012a.jpg","86","","","","","","test","TR","1"
"","show_choice","282","536371","0.0-240.0-1.0","""event"",""trial"",""time""
""fullscreenenter"",""0"",""9005""
","
","
","""event"",""trial"",""time""
""fullscreenenter"",""0"",""9005""
","
","null","run_exp/static/images/Set 6_rs/012a.jpg","null","","","","","","test","TR",""
"","html-keyboard-response","283","536875","0.0-240.0-2.0","""event"",""trial"",""time""
""fullscreenenter"",""0"",""9005""
","
","
","""event"",""trial"",""time""
""fullscreenenter"",""0"",""9005""
","
","null","<p></p>","null","","","","","","","",""
"","image","284","537987","0.0-241.0-0.0","""event"",""trial"",""time""
""fullscreenenter"",""0"",""9005""
","
","
","""event"",""trial"",""time""
""fullscreenenter"",""0"",""9005""
","
","1110.4000000357628","run_exp/static/images/Set 6_rs/025b.jpg","86","","","","","","test","TL","5"
"","show_choice","285","538491","0.0-241.0-1.0","""event"",""trial"",""time""
""fullscreenenter"",""0"",""9005""
","
","
","""event"",""trial"",""time""
""fullscreenenter"",""0"",""9005""
","
","null","run_exp/static/images/Set 6_rs/025b.jpg","null","","","","","","test","TL",""
"","html-keyboard-response","286","538994","0.0-241.0-2.0","""event"",""trial"",""time""
""fullscreenenter"",""0"",""9005""
","
","
","""event"",""trial"",""time""
""fullscreenenter"",""0"",""9005""
","
","null","<p></p>","null","","","","","","","",""
"","image","287","540294","0.0-242.0-0.0","""event"",""trial"",""time""
""fullscreenenter"",""0"",""9005""
","
","
","""event"",""trial"",""time""
""fullscreenenter"",""0"",""9005""
","
","1298.3999999761581","run_exp/static/images/Set 6_rs/129b.jpg","86","","","","","","test","TL","1"
"","show_choice","288","540798","0.0-242.0-1.0","""event"",""trial"",""time""
""fullscreenenter"",""0"",""9005""
","
","
","""event"",""trial"",""time""
""fullscreenenter"",""0"",""9005""
","
","null","run_exp/static/images/Set 6_rs/129b.jpg","null","","","","","","test","TL",""
"","html-keyboard-response","289","541301","0.0-242.0-2.0","""event"",""trial"",""time""
""fullscreenenter"",""0"",""9005""
","
","
","""event"",""trial"",""time""
""fullscreenenter"",""0"",""9005""
","
","null","<p></p>","null","","","","","","","",""
"","image","290","542471","0.0-243.0-0.0","""event"",""trial"",""time""
""fullscreenenter"",""0"",""9005""
","
","
","""event"",""trial"",""time""
""fullscreenenter"",""0"",""9005""
","
","1168.3999999761581","run_exp/static/images/Set 6_rs/095b.jpg","66","","","","","","test","TL","5"
"","show_choice","291","542973","0.0-243.0-1.0","""event"",""trial"",""time""
""fullscreenenter"",""0"",""9005""
","
","
","""event"",""trial"",""time""
""fullscreenenter"",""0"",""9005""
","
","null","run_exp/static/images/Set 6_rs/095b.jpg","null","","","","","","test","TL",""
"","html-keyboard-response","292","543476","0.0-243.0-2.0","""event"",""trial"",""time""
""fullscreenenter"",""0"",""9005""
","
","
","""event"",""trial"",""time""
""fullscreenenter"",""0"",""9005""
","
","null","<p></p>","null","","","","","","","",""
"","image","293","545326","0.0-244.0-0.0","""event"",""trial"",""time""
""fullscreenenter"",""0"",""9005""
","
","
","""event"",""trial"",""time""
""fullscreenenter"",""0"",""9005""
","
","1849.4000000357628","run_exp/static/images/Set 6_rs/066b.jpg","78","","","","","","test","TL","5"
"","show_choice","294","545831","0.0-244.0-1.0","""event"",""trial"",""time""
""fullscreenenter"",""0"",""9005""
","
","
","""event"",""trial"",""time""
""fullscreenenter"",""0"",""9005""
","
","null","run_exp/static/images/Set 6_rs/066b.jpg","null","","","","","","test","TL",""
"","html-keyboard-response","295","546332","0.0-244.0-2.0","""event"",""trial"",""time""
""fullscreenenter"",""0"",""9005""
","
","
","""event"",""trial"",""time""
""fullscreenenter"",""0"",""9005""
","
","null","<p></p>","null","","","","","","","",""
"","image","296","547561","0.0-245.0-0.0","""event"",""trial"",""time""
""fullscreenenter"",""0"",""9005""
","
","
","""event"",""trial"",""time""
""fullscreenenter"",""0"",""9005""
","
","1227.800000011921","run_exp/static/images/Set 6_rs/007a.jpg","86","","","","","","test","TR","3"
"","show_choice","297","548066","0.0-245.0-1.0","""event"",""trial"",""time""
""fullscreenenter"",""0"",""9005""
","
","
","""event"",""trial"",""time""
""fullscreenenter"",""0"",""9005""
","
","null","run_exp/static/images/Set 6_rs/007a.jpg","null","","","","","","test","TR",""
"","html-keyboard-response","298","548573","0.0-245.0-2.0","""event"",""trial"",""time""
""fullscreenenter"",""0"",""9005""
","
","
","""event"",""trial"",""time""
""fullscreenenter"",""0"",""9005""
","
","null","<p></p>","null","","","","","","","",""
"","image","299","549599","0.0-246.0-0.0","""event"",""trial"",""time""
""fullscreenenter"",""0"",""9005""
","
","
","""event"",""trial"",""time""
""fullscreenenter"",""0"",""9005""
","
","1024.300000011921","run_exp/static/images/Set 6_rs/178a.jpg","86","","","","","","test","TR","3"
"","show_choice","300","550104","0.0-246.0-1.0","""event"",""trial"",""time""
""fullscreenenter"",""0"",""9005""
","
","
","""event"",""trial"",""time""
""fullscreenenter"",""0"",""9005""
","
","null","run_exp/static/images/Set 6_rs/178a.jpg","null","","","","","","test","TR",""
"","html-keyboard-response","301","550605","0.0-246.0-2.0","""event"",""trial"",""time""
""fullscreenenter"",""0"",""9005""
","
","
","""event"",""trial"",""time""
""fullscreenenter"",""0"",""9005""
","
","null","<p></p>","null","","","","","","","",""
"","image","302","552008","0.0-247.0-0.0","""event"",""trial"",""time""
""fullscreenenter"",""0"",""9005""
","
","
","""event"",""trial"",""time""
""fullscreenenter"",""0"",""9005""
","
","1400.8999999761581","run_exp/static/images/Set 6_rs/132a.jpg","86","","","","","","test","TR","5"
"","show_choice","303","552513","0.0-247.0-1.0","""event"",""trial"",""time""
""fullscreenenter"",""0"",""9005""
","
","
","""event"",""trial"",""time""
""fullscreenenter"",""0"",""9005""
","
","null","run_exp/static/images/Set 6_rs/132a.jpg","null","","","","","","test","TR",""
"","html-keyboard-response","304","553015","0.0-247.0-2.0","""event"",""trial"",""time""
""fullscreenenter"",""0"",""9005""
","
","
","""event"",""trial"",""time""
""fullscreenenter"",""0"",""9005""
","
","null","<p></p>","null","","","","","","","",""
"","image","305","553968","0.0-248.0-0.0","""event"",""trial"",""time""
""fullscreenenter"",""0"",""9005""
","
","
","""event"",""trial"",""time""
""fullscreenenter"",""0"",""9005""
","
","952.3000000119209","run_exp/static/images/Set 6_rs/105a.jpg","66","","","","","","test","TF","5"
"","show_choice","306","554471","0.0-248.0-1.0","""event"",""trial"",""time""
""fullscreenenter"",""0"",""9005""
","
","
","""event"",""trial"",""time""
""fullscreenenter"",""0"",""9005""
","
","null","run_exp/static/images/Set 6_rs/105a.jpg","null","","","","","","test","TF",""
"","html-keyboard-response","307","554977","0.0-248.0-2.0","""event"",""trial"",""time""
""fullscreenenter"",""0"",""9005""
","
","
","""event"",""trial"",""time""
""fullscreenenter"",""0"",""9005""
","
","null","<p></p>","null","","","","","","","",""
"","image","308","556693","0.0-249.0-0.0","""event"",""trial"",""time""
""fullscreenenter"",""0"",""9005""
","
","
","""event"",""trial"",""time""
""fullscreenenter"",""0"",""9005""
","
","1714.8999999761581","run_exp/static/images/Set 6_rs/085b.jpg","66","","","","","","test","TL","1"
"","show_choice","309","557197","0.0-249.0-1.0","""event"",""trial"",""time""
""fullscreenenter"",""0"",""9005""
","
","
","""event"",""trial"",""time""
""fullscreenenter"",""0"",""9005""
","
","null","run_exp/static/images/Set 6_rs/085b.jpg","null","","","","","","test","TL",""
"","html-keyboard-response","310","557700","0.0-249.0-2.0","""event"",""trial"",""time""
""fullscreenenter"",""0"",""9005""
","
","
","""event"",""trial"",""time""
""fullscreenenter"",""0"",""9005""
","
","null","<p></p>","null","","","","","","","",""
"","image","311","559440","0.0-250.0-0.0","""event"",""trial"",""time""
""fullscreenenter"",""0"",""9005""
","
","
","""event"",""trial"",""time""
""fullscreenenter"",""0"",""9005""
","
","1738.6000000238419","run_exp/static/images/Set 6_rs/073b.jpg","66","","","","","","test","TL","3"
"","show_choice","312","559943","0.0-250.0-1.0","""event"",""trial"",""time""
""fullscreenenter"",""0"",""9005""
","
","
","""event"",""trial"",""time""
""fullscreenenter"",""0"",""9005""
","
","null","run_exp/static/images/Set 6_rs/073b.jpg","null","","","","","","test","TL",""
"","html-keyboard-response","313","560447","0.0-250.0-2.0","""event"",""trial"",""time""
""fullscreenenter"",""0"",""9005""
","
","
","""event"",""trial"",""time""
""fullscreenenter"",""0"",""9005""
","
","null","<p></p>","null","","","","","","","",""
"","image","314","561809","0.0-251.0-0.0","""event"",""trial"",""time""
""fullscreenenter"",""0"",""9005""
","
","
","""event"",""trial"",""time""
""fullscreenenter"",""0"",""9005""
","
","1360.5","run_exp/static/images/Set 6_rs/149a.jpg","66","","","","","","test","TF","1"
"","show_choice","315","562310","0.0-251.0-1.0","""event"",""trial"",""time""
""fullscreenenter"",""0"",""9005""
","
","
","""event"",""trial"",""time""
""fullscreenenter"",""0"",""9005""
","
","null","run_exp/static/images/Set 6_rs/149a.jpg","null","","","","","","test","TF",""
"","html-keyboard-response","316","562816","0.0-251.0-2.0","""event"",""trial"",""time""
""fullscreenenter"",""0"",""9005""
","
","
","""event"",""trial"",""time""
""fullscreenenter"",""0"",""9005""
","
","null","<p></p>","null","","","","","","","",""
"","image","317","564109","0.0-252.0-0.0","""event"",""trial"",""time""
""fullscreenenter"",""0"",""9005""
","
","
","""event"",""trial"",""time""
""fullscreenenter"",""0"",""9005""
","
","1291.1000000238419","run_exp/static/images/Set 6_rs/144b.jpg","86","","","","","","test","TL","4"
"","show_choice","318","564614","0.0-252.0-1.0","""event"",""trial"",""time""
""fullscreenenter"",""0"",""9005""
","
","
","""event"",""trial"",""time""
""fullscreenenter"",""0"",""9005""
","
","null","run_exp/static/images/Set 6_rs/144b.jpg","null","","","","","","test","TL",""
"","html-keyboard-response","319","565115","0.0-252.0-2.0","""event"",""trial"",""time""
""fullscreenenter"",""0"",""9005""
","
","
","""event"",""trial"",""time""
""fullscreenenter"",""0"",""9005""
","
","null","<p></p>","null","","","","","","","",""
"","image","320","566107","0.0-253.0-0.0","""event"",""trial"",""time""
""fullscreenenter"",""0"",""9005""
","
","
","""event"",""trial"",""time""
""fullscreenenter"",""0"",""9005""
","
","990.3999999761581","run_exp/static/images/Set 6_rs/187a.jpg","86","","","","","","test","TR","3"
"","show_choice","321","566613","0.0-253.0-1.0","""event"",""trial"",""time""
""fullscreenenter"",""0"",""9005""
","
","
","""event"",""trial"",""time""
""fullscreenenter"",""0"",""9005""
","
","null","run_exp/static/images/Set 6_rs/187a.jpg","null","","","","","","test","TR",""
"","html-keyboard-response","322","567119","0.0-253.0-2.0","""event"",""trial"",""time""
""fullscreenenter"",""0"",""9005""
","
","
","""event"",""trial"",""time""
""fullscreenenter"",""0"",""9005""
","
","null","<p></p>","null","","","","","","","",""
"","image","323","568197","0.0-254.0-0.0","""event"",""trial"",""time""
""fullscreenenter"",""0"",""9005""
","
","
","""event"",""trial"",""time""
""fullscreenenter"",""0"",""9005""
","
","1075.0999999642372","run_exp/static/images/Set 6_rs/074b.jpg","86","","","","","","test","TL","4"
"","show_choice","324","568702","0.0-254.0-1.0","""event"",""trial"",""time""
""fullscreenenter"",""0"",""9005""
","
","
","""event"",""trial"",""time""
""fullscreenenter"",""0"",""9005""
","
","null","run_exp/static/images/Set 6_rs/074b.jpg","null","","","","","","test","TL",""
"","html-keyboard-response","325","569205","0.0-254.0-2.0","""event"",""trial"",""time""
""fullscreenenter"",""0"",""9005""
","
","
","""event"",""trial"",""time""
""fullscreenenter"",""0"",""9005""
","
","null","<p></p>","null","","","","","","","",""
"","image","326","570609","0.0-255.0-0.0","""event"",""trial"",""time""
""fullscreenenter"",""0"",""9005""
","
","
","""event"",""trial"",""time""
""fullscreenenter"",""0"",""9005""
","
","1403.199999988079","run_exp/static/images/Set 6_rs/166a.jpg","86","","","","","","test","TR","1"
"","show_choice","327","571115","0.0-255.0-1.0","""event"",""trial"",""time""
""fullscreenenter"",""0"",""9005""
","
","
","""event"",""trial"",""time""
""fullscreenenter"",""0"",""9005""
","
","null","run_exp/static/images/Set 6_rs/166a.jpg","null","","","","","","test","TR",""
"","html-keyboard-response","328","571618","0.0-255.0-2.0","""event"",""trial"",""time""
""fullscreenenter"",""0"",""9005""
","
","
","""event"",""trial"",""time""
""fullscreenenter"",""0"",""9005""
","
","null","<p></p>","null","","","","","","","",""
"","image","329","572675","0.0-256.0-0.0","""event"",""trial"",""time""
""fullscreenenter"",""0"",""9005""
","
","
","""event"",""trial"",""time""
""fullscreenenter"",""0"",""9005""
","
","1055.3999999761581","run_exp/static/images/Set 6_rs/061a.jpg","86","","","","","","test","TR","5"
"","show_choice","330","573176","0.0-256.0-1.0","""event"",""trial"",""time""
""fullscreenenter"",""0"",""9005""
","
","
","""event"",""trial"",""time""
""fullscreenenter"",""0"",""9005""
","
","null","run_exp/static/images/Set 6_rs/061a.jpg","null","","","","","","test","TR",""
"","html-keyboard-response","331","573681","0.0-256.0-2.0","""event"",""trial"",""time""
""fullscreenenter"",""0"",""9005""
","
","
","""event"",""trial"",""time""
""fullscreenenter"",""0"",""9005""
","
","null","<p></p>","null","","","","","","","",""
"","image","332","575678","0.0-257.0-0.0","""event"",""trial"",""time""
""fullscreenenter"",""0"",""9005""
","
","
","""event"",""trial"",""time""
""fullscreenenter"",""0"",""9005""
","
","1995.3999999761581","run_exp/static/images/Set 6_rs/011a.jpg","78","","","","","","test","TF","3"
"","show_choice","333","576180","0.0-257.0-1.0","""event"",""trial"",""time""
""fullscreenenter"",""0"",""9005""
","
","
","""event"",""trial"",""time""
""fullscreenenter"",""0"",""9005""
","
","null","run_exp/static/images/Set 6_rs/011a.jpg","null","","","","","","test","TF",""
"","html-keyboard-response","334","576685","0.0-257.0-2.0","""event"",""trial"",""time""
""fullscreenenter"",""0"",""9005""
","
","
","""event"",""trial"",""time""
""fullscreenenter"",""0"",""9005""
","
","null","<p></p>","null","","","","","","","",""
"","image","335","578247","0.0-258.0-0.0","""event"",""trial"",""time""
""fullscreenenter"",""0"",""9005""
","
","
","""event"",""trial"",""time""
""fullscreenenter"",""0"",""9005""
","
","1561","run_exp/static/images/Set 6_rs/075a.jpg","86","","","","","","test","TR","1"
"","show_choice","336","578753","0.0-258.0-1.0","""event"",""trial"",""time""
""fullscreenenter"",""0"",""9005""
","
","
","""event"",""trial"",""time""
""fullscreenenter"",""0"",""9005""
","
","null","run_exp/static/images/Set 6_rs/075a.jpg","null","","","","","","test","TR",""
"","html-keyboard-response","337","579259","0.0-258.0-2.0","""event"",""trial"",""time""
""fullscreenenter"",""0"",""9005""
","
","
","""event"",""trial"",""time""
""fullscreenenter"",""0"",""9005""
","
","null","<p></p>","null","","","","","","","",""
"","image","338","580519","0.0-259.0-0.0","""event"",""trial"",""time""
""fullscreenenter"",""0"",""9005""
","
","
","""event"",""trial"",""time""
