"success","trial_type","trial_index","time_elapsed","internal_node_id","interactions","blur_events","focus_events","fullscreenenter_events","fullscreenexit_events","rt","stimulus","key_press","subject_id","participant_id","age","gender","prompt","phase","condition","lure_bin"
"true","fullscreen","0","5399","0.0-0.0","""event"",""trial"",""time""
""fullscreenenter"",""0"",""4419""
","
","
","""event"",""trial"",""time""
""fullscreenenter"",""0"",""4419""
","
","","","","","","","","","","",""
"","pavlovia","1","5404","0.0-1.0","""event"",""trial"",""time""
""fullscreenenter"",""0"",""4419""
","
","
","""event"",""trial"",""time""
""fullscreenenter"",""0"",""4419""
","
","","","","","","","","","","",""
"","welcome","2","40580","0.0-2.0","""event"",""trial"",""time""
""fullscreenenter"",""0"",""4419""
","
","
","""event"",""trial"",""time""
""fullscreenenter"",""0"",""4419""
","
","null","run_exp/static/audio/clip_1_welcome.m4a","null","1041","1148","20","Male","<div class='center'><p>Welcome to the third part of the study! First, you'll be shown pictures of items one at a time. For each picture, you have to decide if the item is typically found indoors or outdoors.</p><p>If you think it's usually found indoors, then press <b>v</b> key on your keyboard. If you think it's usually found outdoors, then press the <b>n</b> key.There will be reminders on the screen to help you remember which keys to press. </p><p>If you're not sure whether the item is an indoor item or an outdoor item, go ahead and take a guess but try your best not to skip that choice. </p></div>","","",""
"","html-keyboard-response","3","42497","0.0-3.0","""event"",""trial"",""time""
""fullscreenenter"",""0"",""4419""
","
","
","""event"",""trial"",""time""
""fullscreenenter"",""0"",""4419""
","
","1914.2999997138977","<div class='center'><p>Welcome to the third part of the study! First, you'll be shown pictures of items one at a time. For each picture, you have to decide if the item is typically found indoors or outdoors.</p><p>If you think it's usually found indoors, then press <b>v</b> key on your keyboard. If you think it's usually found outdoors, then press the <b>n</b> key.There will be reminders on the screen to help you remember which keys to press. </p><p>If you're not sure whether the item is an indoor item or an outdoor item, go ahead and take a guess but try your best not to skip that choice. </p><div><p><b>[Press the space bar to continue]</b></p></div>","32","","","","","","","",""
"","image","4","44506","0.0-4.0","""event"",""trial"",""time""
""fullscreenenter"",""0"",""4419""
","
","
","""event"",""trial"",""time""
""fullscreenenter"",""0"",""4419""
","
","null","run_exp/static/images/Set 6_rs/066a.jpg","null","","","","","","learn","SL",""
"","show_choice","5","46518","0.0-5.0","""event"",""trial"",""time""
""fullscreenenter"",""0"",""4419""
","
","
","""event"",""trial"",""time""
""fullscreenenter"",""0"",""4419""
","
","null","run_exp/static/images/blank.png","null","","","","","","learn","SL",""
"","html-keyboard-response","6","47033","0.0-6.0","""event"",""trial"",""time""
""fullscreenenter"",""0"",""4419""
","
","
","""event"",""trial"",""time""
""fullscreenenter"",""0"",""4419""
","
","null","<p></p>","null","","","","","","","",""
"","image","7","47845","0.0-7.0","""event"",""trial"",""time""
""fullscreenenter"",""0"",""4419""
","
","
","""event"",""trial"",""time""
""fullscreenenter"",""0"",""4419""
","
","810.5","run_exp/static/images/Set 6_rs/062a.jpg","78","","","","","","learn","SL",""
"","show_choice","8","49044","0.0-8.0","""event"",""trial"",""time""
""fullscreenenter"",""0"",""4419""
","
","
","""event"",""trial"",""time""
""fullscreenenter"",""0"",""4419""
","
","null","run_exp/static/images/Set 6_rs/062a.jpg","null","","","","","","learn","SL",""
"","html-keyboard-response","9","49559","0.0-9.0","""event"",""trial"",""time""
""fullscreenenter"",""0"",""4419""
","
","
","""event"",""trial"",""time""
""fullscreenenter"",""0"",""4419""
","
","null","<p></p>","null","","","","","","","",""
"","image","10","51489","0.0-10.0","""event"",""trial"",""time""
""fullscreenenter"",""0"",""4419""
","
","
","""event"",""trial"",""time""
""fullscreenenter"",""0"",""4419""
","
","1928.9000000953674","run_exp/static/images/Set 6_rs/070a.jpg","86","","","","","","learn","SR",""
"","show_choice","11","51570","0.0-11.0","""event"",""trial"",""time""
""fullscreenenter"",""0"",""4419""
","
","
","""event"",""trial"",""time""
""fullscreenenter"",""0"",""4419""
","
","null","run_exp/static/images/Set 6_rs/070a.jpg","null","","","","","","learn","SR",""
"","html-keyboard-response","12","52084","0.0-12.0","""event"",""trial"",""time""
""fullscreenenter"",""0"",""4419""
","
","
","""event"",""trial"",""time""
""fullscreenenter"",""0"",""4419""
","
","null","<p></p>","null","","","","","","","",""
"","image","13","53221","0.0-13.0","""event"",""trial"",""time""
""fullscreenenter"",""0"",""4419""
","
","
","""event"",""trial"",""time""
""fullscreenenter"",""0"",""4419""
","
","1134.8999996185303","run_exp/static/images/Set 6_rs/061a.jpg","78","","","","","","learn","SR",""
"","show_choice","14","54093","0.0-14.0","""event"",""trial"",""time""
""fullscreenenter"",""0"",""4419""
","
","
","""event"",""trial"",""time""
""fullscreenenter"",""0"",""4419""
","
","null","run_exp/static/images/Set 6_rs/061a.jpg","null","","","","","","learn","SR",""
"","html-keyboard-response","15","54609","0.0-15.0","""event"",""trial"",""time""
""fullscreenenter"",""0"",""4419""
","
","
","""event"",""trial"",""time""
""fullscreenenter"",""0"",""4419""
","
","null","<p></p>","null","","","","","","","",""
"","image","16","55567","0.0-16.0","""event"",""trial"",""time""
""fullscreenenter"",""0"",""4419""
","
","
","""event"",""trial"",""time""
""fullscreenenter"",""0"",""4419""
","
","957.2000002861023","run_exp/static/images/Set 6_rs/010a.jpg","86","","","","","","learn","SR",""
"","show_choice","17","56618","0.0-17.0","""event"",""trial"",""time""
""fullscreenenter"",""0"",""4419""
","
","
","""event"",""trial"",""time""
""fullscreenenter"",""0"",""4419""
","
","null","run_exp/static/images/Set 6_rs/010a.jpg","null","","","","","","learn","SR",""
"","html-keyboard-response","18","57132","0.0-18.0","""event"",""trial"",""time""
""fullscreenenter"",""0"",""4419""
","
","
","""event"",""trial"",""time""
""fullscreenenter"",""0"",""4419""
","
","null","<p></p>","null","","","","","","","",""
"","image","19","58054","0.0-19.0","""event"",""trial"",""time""
""fullscreenenter"",""0"",""4419""
","
","
","""event"",""trial"",""time""
""fullscreenenter"",""0"",""4419""
","
","920.4000000953674","run_exp/static/images/Set 6_rs/017a.jpg","86","","","","","","learn","SL",""
"","show_choice","20","59144","0.0-20.0","""event"",""trial"",""time""
""fullscreenenter"",""0"",""4419""
","
","
","""event"",""trial"",""time""
""fullscreenenter"",""0"",""4419""
","
","null","run_exp/static/images/Set 6_rs/017a.jpg","null","","","","","","learn","SL",""
"","html-keyboard-response","21","59659","0.0-21.0","""event"",""trial"",""time""
""fullscreenenter"",""0"",""4419""
","
","
","""event"",""trial"",""time""
""fullscreenenter"",""0"",""4419""
","
","null","<p></p>","null","","","","","","","",""
"","image","22","60675","0.0-22.0","""event"",""trial"",""time""
""fullscreenenter"",""0"",""4419""
","
","
","""event"",""trial"",""time""
""fullscreenenter"",""0"",""4419""
","
","1014.8000001907349","run_exp/static/images/Set 6_rs/057a.jpg","86","","","","","","learn","SL",""
"","show_choice","23","61663","0.0-23.0","""event"",""trial"",""time""
""fullscreenenter"",""0"",""4419""
","
","
","""event"",""trial"",""time""
""fullscreenenter"",""0"",""4419""
","
","null","run_exp/static/images/Set 6_rs/057a.jpg","null","","","","","","learn","SL",""
"","html-keyboard-response","24","62176","0.0-24.0","""event"",""trial"",""time""
""fullscreenenter"",""0"",""4419""
","
","
","""event"",""trial"",""time""
""fullscreenenter"",""0"",""4419""
","
","null","<p></p>","null","","","","","","","",""
"","image","25","63489","0.0-25.0","""event"",""trial"",""time""
""fullscreenenter"",""0"",""4419""
","
","
","""event"",""trial"",""time""
""fullscreenenter"",""0"",""4419""
","
","1311.6000003814697","run_exp/static/images/Set 6_rs/169a.jpg","86","","","","","","learn","SR",""
"","show_choice","26","64187","0.0-26.0","""event"",""trial"",""time""
""fullscreenenter"",""0"",""4419""
","
","
","""event"",""trial"",""time""
""fullscreenenter"",""0"",""4419""
","
","null","run_exp/static/images/Set 6_rs/169a.jpg","null","","","","","","learn","SR",""
"","html-keyboard-response","27","64688","0.0-27.0","""event"",""trial"",""time""
""fullscreenenter"",""0"",""4419""
","
","
","""event"",""trial"",""time""
""fullscreenenter"",""0"",""4419""
","
","null","<p></p>","null","","","","","","","",""
"","image","28","65430","0.0-28.0","""event"",""trial"",""time""
""fullscreenenter"",""0"",""4419""
","
","
","""event"",""trial"",""time""
""fullscreenenter"",""0"",""4419""
","
","739.6999998092651","run_exp/static/images/Set 6_rs/007a.jpg","86","","","","","","learn","SR",""
"","show_choice","29","66701","0.0-29.0","""event"",""trial"",""time""
""fullscreenenter"",""0"",""4419""
","
","
","""event"",""trial"",""time""
""fullscreenenter"",""0"",""4419""
","
","null","run_exp/static/images/Set 6_rs/007a.jpg","null","","","","","","learn","SR",""
"","html-keyboard-response","30","67216","0.0-30.0","""event"",""trial"",""time""
""fullscreenenter"",""0"",""4419""
","
","
","""event"",""trial"",""time""
""fullscreenenter"",""0"",""4419""
","
","null","<p></p>","null","","","","","","","",""
"","image","31","68111","0.0-31.0","""event"",""trial"",""time""
""fullscreenenter"",""0"",""4419""
","
","
","""event"",""trial"",""time""
""fullscreenenter"",""0"",""4419""
","
","893.9000000953674","run_exp/static/images/Set 6_rs/076a.jpg","78","","","","","","learn","SR",""
"","show_choice","32","69225","0.0-32.0","""event"",""trial"",""time""
""fullscreenenter"",""0"",""4419""
","
","
","""event"",""trial"",""time""
""fullscreenenter"",""0"",""4419""
","
","null","run_exp/static/images/Set 6_rs/076a.jpg","null","","","","","","learn","SR",""
"","html-keyboard-response","33","69741","0.0-33.0","""event"",""trial"",""time""
""fullscreenenter"",""0"",""4419""
","
","
","""event"",""trial"",""time""
""fullscreenenter"",""0"",""4419""
","
","null","<p></p>","null","","","","","","","",""
"","image","34","70938","0.0-34.0","""event"",""trial"",""time""
""fullscreenenter"",""0"",""4419""
","
","
","""event"",""trial"",""time""
""fullscreenenter"",""0"",""4419""
","
","1195.3000001907349","run_exp/static/images/Set 6_rs/014a.jpg","86","","","","","","learn","SL",""
"","show_choice","35","71755","0.0-35.0","""event"",""trial"",""time""
""fullscreenenter"",""0"",""4419""
","
","
","""event"",""trial"",""time""
""fullscreenenter"",""0"",""4419""
","
","null","run_exp/static/images/Set 6_rs/014a.jpg","null","","","","","","learn","SL",""
"","html-keyboard-response","36","72269","0.0-36.0","""event"",""trial"",""time""
""fullscreenenter"",""0"",""4419""
","
","
","""event"",""trial"",""time""
""fullscreenenter"",""0"",""4419""
","
","null","<p></p>","null","","","","","","","",""
"","image","37","73821","0.0-37.0","""event"",""trial"",""time""
""fullscreenenter"",""0"",""4419""
","
","
","""event"",""trial"",""time""
""fullscreenenter"",""0"",""4419""
","
","1550.5999999046326","run_exp/static/images/Set 6_rs/111a.jpg","86","","","","","","learn","SL",""
"","show_choice","38","74272","0.0-38.0","""event"",""trial"",""time""
""fullscreenenter"",""0"",""4419""
","
","
","""event"",""trial"",""time""
""fullscreenenter"",""0"",""4419""
","
","null","run_exp/static/images/Set 6_rs/111a.jpg","null","","","","","","learn","SL",""
"","html-keyboard-response","39","74775","0.0-39.0","""event"",""trial"",""time""
""fullscreenenter"",""0"",""4419""
","
","
","""event"",""trial"",""time""
""fullscreenenter"",""0"",""4419""
","
","null","<p></p>","null","","","","","","","",""
"","image","40","75552","0.0-40.0","""event"",""trial"",""time""
""fullscreenenter"",""0"",""4419""
","
","
","""event"",""trial"",""time""
""fullscreenenter"",""0"",""4419""
","
","775.6000003814697","run_exp/static/images/Set 6_rs/012a.jpg","86","","","","","","learn","SR",""
"","show_choice","41","76781","0.0-41.0","""event"",""trial"",""time""
""fullscreenenter"",""0"",""4419""
","
","
","""event"",""trial"",""time""
""fullscreenenter"",""0"",""4419""
","
","null","run_exp/static/images/Set 6_rs/012a.jpg","null","","","","","","learn","SR",""
"","html-keyboard-response","42","77297","0.0-42.0","""event"",""trial"",""time""
""fullscreenenter"",""0"",""4419""
","
","
","""event"",""trial"",""time""
""fullscreenenter"",""0"",""4419""
","
","null","<p></p>","null","","","","","","","",""
"","image","43","78338","0.0-43.0","""event"",""trial"",""time""
""fullscreenenter"",""0"",""4419""
","
","
","""event"",""trial"",""time""
""fullscreenenter"",""0"",""4419""
","
","1039.4000000953674","run_exp/static/images/Set 6_rs/008a.jpg","86","","","","","","learn","SL",""
"","show_choice","44","79309","0.0-44.0","""event"",""trial"",""time""
""fullscreenenter"",""0"",""4419""
","
","
","""event"",""trial"",""time""
""fullscreenenter"",""0"",""4419""
","
","null","run_exp/static/images/Set 6_rs/008a.jpg","null","","","","","","learn","SL",""
"","html-keyboard-response","45","79823","0.0-45.0","""event"",""trial"",""time""
""fullscreenenter"",""0"",""4419""
","
","
","""event"",""trial"",""time""
""fullscreenenter"",""0"",""4419""
","
","null","<p></p>","null","","","","","","","",""
"","image","46","80701","0.0-46.0","""event"",""trial"",""time""
""fullscreenenter"",""0"",""4419""
","
","
","""event"",""trial"",""time""
""fullscreenenter"",""0"",""4419""
","
","877.0999999046326","run_exp/static/images/Set 6_rs/075a.jpg","86","","","","","","learn","SR",""
"","show_choice","47","81836","0.0-47.0","""event"",""trial"",""time""
""fullscreenenter"",""0"",""4419""
","
","
","""event"",""trial"",""time""
""fullscreenenter"",""0"",""4419""
","
","null","run_exp/static/images/Set 6_rs/075a.jpg","null","","","","","","learn","SR",""
"","html-keyboard-response","48","82351","0.0-48.0","""event"",""trial"",""time""
""fullscreenenter"",""0"",""4419""
","
","
","""event"",""trial"",""time""
""fullscreenenter"",""0"",""4419""
","
","null","<p></p>","null","","","","","","","",""
"","image","49","82950","0.0-49.0","""event"",""trial"",""time""
""fullscreenenter"",""0"",""4419""
","
","
","""event"",""trial"",""time""
""fullscreenenter"",""0"",""4419""
","
","597.7999997138977","run_exp/static/images/Set 6_rs/095a.jpg","86","","","","","","learn","SL",""
"","show_choice","50","84367","0.0-50.0","""event"",""trial"",""time""
""fullscreenenter"",""0"",""4419""
","
","
","""event"",""trial"",""time""
""fullscreenenter"",""0"",""4419""
","
","null","run_exp/static/images/Set 6_rs/095a.jpg","null","","","","","","learn","SL",""
"","html-keyboard-response","51","84883","0.0-51.0","""event"",""trial"",""time""
""fullscreenenter"",""0"",""4419""
","
","
","""event"",""trial"",""time""
""fullscreenenter"",""0"",""4419""
","
","null","<p></p>","null","","","","","","","",""
"","image","52","85824","0.0-52.0","""event"",""trial"",""time""
""fullscreenenter"",""0"",""4419""
","
","
","""event"",""trial"",""time""
""fullscreenenter"",""0"",""4419""
","
","939.1000003814697","run_exp/static/images/Set 6_rs/129a.jpg","86","","","","","","learn","SL",""
"","show_choice","53","86895","0.0-53.0","""event"",""trial"",""time""
""fullscreenenter"",""0"",""4419""
","
","
","""event"",""trial"",""time""
""fullscreenenter"",""0"",""4419""
","
","null","run_exp/static/images/Set 6_rs/129a.jpg","null","","","","","","learn","SL",""
"","html-keyboard-response","54","87409","0.0-54.0","""event"",""trial"",""time""
""fullscreenenter"",""0"",""4419""
","
","
","""event"",""trial"",""time""
""fullscreenenter"",""0"",""4419""
","
","null","<p></p>","null","","","","","","","",""
"","image","55","88336","0.0-55.0","""event"",""trial"",""time""
""fullscreenenter"",""0"",""4419""
","
","
","""event"",""trial"",""time""
""fullscreenenter"",""0"",""4419""
","
","925.3000001907349","run_exp/static/images/Set 6_rs/088a.jpg","86","","","","","","learn","SR",""
"","show_choice","56","89414","0.0-56.0","""event"",""trial"",""time""
""fullscreenenter"",""0"",""4419""
","
","
","""event"",""trial"",""time""
""fullscreenenter"",""0"",""4419""
","
","null","run_exp/static/images/Set 6_rs/088a.jpg","null","","","","","","learn","SR",""
"","html-keyboard-response","57","89925","0.0-57.0","""event"",""trial"",""time""
""fullscreenenter"",""0"",""4419""
","
","
","""event"",""trial"",""time""
""fullscreenenter"",""0"",""4419""
","
","null","<p></p>","null","","","","","","","",""
"","image","58","90458","0.0-58.0","""event"",""trial"",""time""
""fullscreenenter"",""0"",""4419""
","
","
","""event"",""trial"",""time""
""fullscreenenter"",""0"",""4419""
","
","531.8000001907349","run_exp/static/images/Set 6_rs/117a.jpg","86","","","","","","learn","SL",""
"","show_choice","59","91936","0.0-59.0","""event"",""trial"",""time""
""fullscreenenter"",""0"",""4419""
","
","
","""event"",""trial"",""time""
""fullscreenenter"",""0"",""4419""
","
","null","run_exp/static/images/Set 6_rs/117a.jpg","null","","","","","","learn","SL",""
"","html-keyboard-response","60","92452","0.0-60.0","""event"",""trial"",""time""
""fullscreenenter"",""0"",""4419""
","
","
","""event"",""trial"",""time""
""fullscreenenter"",""0"",""4419""
","
","null","<p></p>","null","","","","","","","",""
"","image","61","93064","0.0-61.0","""event"",""trial"",""time""
""fullscreenenter"",""0"",""4419""
","
","
","""event"",""trial"",""time""
""fullscreenenter"",""0"",""4419""
","
","610.2000002861023","run_exp/static/images/Set 6_rs/023a.jpg","86","","","","","","learn","SR",""
"","show_choice","62","94456","0.0-62.0","""event"",""trial"",""time""
""fullscreenenter"",""0"",""4419""
","
","
","""event"",""trial"",""time""
""fullscreenenter"",""0"",""4419""
","
","null","run_exp/static/images/Set 6_rs/023a.jpg","null","","","","","","learn","SR",""
"","html-keyboard-response","63","94969","0.0-63.0","""event"",""trial"",""time""
""fullscreenenter"",""0"",""4419""
","
","
","""event"",""trial"",""time""
""fullscreenenter"",""0"",""4419""
","
","null","<p></p>","null","","","","","","","",""
"","image","64","95621","0.0-64.0","""event"",""trial"",""time""
""fullscreenenter"",""0"",""4419""
","
","
","""event"",""trial"",""time""
""fullscreenenter"",""0"",""4419""
","
","650.7000002861023","run_exp/static/images/Set 6_rs/138a.jpg","78","","","","","","learn","SL",""
"","show_choice","65","96978","0.0-65.0","""event"",""trial"",""time""
""fullscreenenter"",""0"",""4419""
","
","
","""event"",""trial"",""time""
""fullscreenenter"",""0"",""4419""
","
","null","run_exp/static/images/Set 6_rs/138a.jpg","null","","","","","","learn","SL",""
"","html-keyboard-response","66","97493","0.0-66.0","""event"",""trial"",""time""
""fullscreenenter"",""0"",""4419""
","
","
","""event"",""trial"",""time""
""fullscreenenter"",""0"",""4419""
","
","null","<p></p>","null","","","","","","","",""
"","image","67","98352","0.0-67.0","""event"",""trial"",""time""
""fullscreenenter"",""0"",""4419""
","
","
","""event"",""trial"",""time""
""fullscreenenter"",""0"",""4419""
","
","857.4000000953674","run_exp/static/images/Set 6_rs/141a.jpg","86","","","","","","learn","SR",""
"","show_choice","68","99505","0.0-68.0","""event"",""trial"",""time""
""fullscreenenter"",""0"",""4419""
","
","
","""event"",""trial"",""time""
""fullscreenenter"",""0"",""4419""
","
","null","run_exp/static/images/Set 6_rs/141a.jpg","null","","","","","","learn","SR",""
"","html-keyboard-response","69","100007","0.0-69.0","""event"",""trial"",""time""
""fullscreenenter"",""0"",""4419""
","
","
","""event"",""trial"",""time""
""fullscreenenter"",""0"",""4419""
","
","null","<p></p>","null","","","","","","","",""
"","image","70","101212","0.0-70.0","""event"",""trial"",""time""
""fullscreenenter"",""0"",""4419""
","
","
","""event"",""trial"",""time""
""fullscreenenter"",""0"",""4419""
","
","1204","run_exp/static/images/Set 6_rs/045a.jpg","86","","","","","","learn","SR",""
"","show_choice","71","102016","0.0-71.0","""event"",""trial"",""time""
""fullscreenenter"",""0"",""4419""
","
","
","""event"",""trial"",""time""
""fullscreenenter"",""0"",""4419""
","
","null","run_exp/static/images/Set 6_rs/045a.jpg","null","","","","","","learn","SR",""
"","html-keyboard-response","72","102531","0.0-72.0","""event"",""trial"",""time""
""fullscreenenter"",""0"",""4419""
","
","
","""event"",""trial"",""time""
""fullscreenenter"",""0"",""4419""
","
","null","<p></p>","null","","","","","","","",""
"","image","73","103189","0.0-73.0","""event"",""trial"",""time""
""fullscreenenter"",""0"",""4419""
","
","
","""event"",""trial"",""time""
""fullscreenenter"",""0"",""4419""
","
","656.9000000953674","run_exp/static/images/Set 6_rs/187a.jpg","86","","","","","","learn","SR",""
"","show_choice","74","104543","0.0-74.0","""event"",""trial"",""time""
""fullscreenenter"",""0"",""4419""
","
","
","""event"",""trial"",""time""
""fullscreenenter"",""0"",""4419""
","
","null","run_exp/static/images/Set 6_rs/187a.jpg","null","","","","","","learn","SR",""
"","html-keyboard-response","75","105056","0.0-75.0","""event"",""trial"",""time""
""fullscreenenter"",""0"",""4419""
","
","
","""event"",""trial"",""time""
""fullscreenenter"",""0"",""4419""
","
","null","<p></p>","null","","","","","","","",""
"","image","76","105855","0.0-76.0","""event"",""trial"",""time""
""fullscreenenter"",""0"",""4419""
","
","
","""event"",""trial"",""time""
""fullscreenenter"",""0"",""4419""
","
","798.5999999046326","run_exp/static/images/Set 6_rs/055a.jpg","86","","","","","","learn","SL",""
"","show_choice","77","107065","0.0-77.0","""event"",""trial"",""time""
""fullscreenenter"",""0"",""4419""
","
","
","""event"",""trial"",""time""
""fullscreenenter"",""0"",""4419""
","
","null","run_exp/static/images/Set 6_rs/055a.jpg","null","","","","","","learn","SL",""
"","html-keyboard-response","78","107579","0.0-78.0","""event"",""trial"",""time""
""fullscreenenter"",""0"",""4419""
","
","
","""event"",""trial"",""time""
""fullscreenenter"",""0"",""4419""
","
","null","<p></p>","null","","","","","","","",""
"","image","79","108145","0.0-79.0","""event"",""trial"",""time""
""fullscreenenter"",""0"",""4419""
","
","
","""event"",""trial"",""time""
""fullscreenenter"",""0"",""4419""
","
","564.1999998092651","run_exp/static/images/Set 6_rs/108a.jpg","78","","","","","","learn","SR",""
"","show_choice","80","109586","0.0-80.0","""event"",""trial"",""time""
""fullscreenenter"",""0"",""4419""
","
","
","""event"",""trial"",""time""
""fullscreenenter"",""0"",""4419""
","
","null","run_exp/static/images/Set 6_rs/108a.jpg","null","","","","","","learn","SR",""
"","html-keyboard-response","81","110101","0.0-81.0","""event"",""trial"",""time""
""fullscreenenter"",""0"",""4419""
","
","
","""event"",""trial"",""time""
""fullscreenenter"",""0"",""4419""
","
","null","<p></p>","null","","","","","","","",""
"","image","82","110674","0.0-82.0","""event"",""trial"",""time""
""fullscreenenter"",""0"",""4419""
","
","
","""event"",""trial"",""time""
""fullscreenenter"",""0"",""4419""
","
","571.8000001907349","run_exp/static/images/Set 6_rs/123a.jpg","78","","","","","","learn","SL",""
"","show_choice","83","112113","0.0-83.0","""event"",""trial"",""time""
""fullscreenenter"",""0"",""4419""
","
","
","""event"",""trial"",""time""
""fullscreenenter"",""0"",""4419""
","
","null","run_exp/static/images/Set 6_rs/123a.jpg","null","","","","","","learn","SL",""
"","html-keyboard-response","84","112628","0.0-84.0","""event"",""trial"",""time""
""fullscreenenter"",""0"",""4419""
","
","
","""event"",""trial"",""time""
""fullscreenenter"",""0"",""4419""
","
","null","<p></p>","null","","","","","","","",""
"","image","85","113260","0.0-85.0","""event"",""trial"",""time""
""fullscreenenter"",""0"",""4419""
","
","
","""event"",""trial"",""time""
""fullscreenenter"",""0"",""4419""
","
","630.5999999046326","run_exp/static/images/Set 6_rs/074a.jpg","78","","","","","","learn","SL",""
"","show_choice","86","114634","0.0-86.0","""event"",""trial"",""time""
""fullscreenenter"",""0"",""4419""
","
","
","""event"",""trial"",""time""
""fullscreenenter"",""0"",""4419""
","
","null","run_exp/static/images/Set 6_rs/074a.jpg","null","","","","","","learn","SL",""
"","html-keyboard-response","87","115149","0.0-87.0","""event"",""trial"",""time""
""fullscreenenter"",""0"",""4419""
","
","
","""event"",""trial"",""time""
""fullscreenenter"",""0"",""4419""
","
","null","<p></p>","null","","","","","","","",""
"","image","88","115868","0.0-88.0","""event"",""trial"",""time""
""fullscreenenter"",""0"",""4419""
","
","
","""event"",""trial"",""time""
""fullscreenenter"",""0"",""4419""
","
","718","run_exp/static/images/Set 6_rs/050a.jpg","86","","","","","","learn","SL",""
"","show_choice","89","117164","0.0-89.0","""event"",""trial"",""time""
""fullscreenenter"",""0"",""4419""
","
","
","""event"",""trial"",""time""
""fullscreenenter"",""0"",""4419""
","
","null","run_exp/static/images/Set 6_rs/050a.jpg","null","","","","","","learn","SL",""
"","html-keyboard-response","90","117679","0.0-90.0","""event"",""trial"",""time""
""fullscreenenter"",""0"",""4419""
","
","
","""event"",""trial"",""time""
""fullscreenenter"",""0"",""4419""
","
","null","<p></p>","null","","","","","","","",""
"","image","91","118304","0.0-91.0","""event"",""trial"",""time""
""fullscreenenter"",""0"",""4419""
","
","
","""event"",""trial"",""time""
""fullscreenenter"",""0"",""4419""
","
","623.8000001907349","run_exp/static/images/Set 6_rs/121a.jpg","86","","","","","","learn","SR",""
"","show_choice","92","119693","0.0-92.0","""event"",""trial"",""time""
""fullscreenenter"",""0"",""4419""
","
","
","""event"",""trial"",""time""
""fullscreenenter"",""0"",""4419""
","
","null","run_exp/static/images/Set 6_rs/121a.jpg","null","","","","","","learn","SR",""
"","html-keyboard-response","93","120207","0.0-93.0","""event"",""trial"",""time""
""fullscreenenter"",""0"",""4419""
","
","
","""event"",""trial"",""time""
""fullscreenenter"",""0"",""4419""
","
","null","<p></p>","null","","","","","","","",""
"","image","94","120933","0.0-94.0","""event"",""trial"",""time""
""fullscreenenter"",""0"",""4419""
","
","
","""event"",""trial"",""time""
""fullscreenenter"",""0"",""4419""
","
","724.7999997138977","run_exp/static/images/Set 6_rs/016a.jpg","86","","","","","","learn","SL",""
"","show_choice","95","122210","0.0-95.0","""event"",""trial"",""time""
""fullscreenenter"",""0"",""4419""
","
","
","""event"",""trial"",""time""
""fullscreenenter"",""0"",""4419""
","
","null","run_exp/static/images/Set 6_rs/016a.jpg","null","","","","","","learn","SL",""
"","html-keyboard-response","96","122724","0.0-96.0","""event"",""trial"",""time""
""fullscreenenter"",""0"",""4419""
","
","
","""event"",""trial"",""time""
""fullscreenenter"",""0"",""4419""
","
","null","<p></p>","null","","","","","","","",""
"","image","97","123348","0.0-97.0","""event"",""trial"",""time""
""fullscreenenter"",""0"",""4419""
","
","
","""event"",""trial"",""time""
""fullscreenenter"",""0"",""4419""
","
","623.5","run_exp/static/images/Set 6_rs/079a.jpg","86","","","","","","learn","SL",""
"","show_choice","98","124729","0.0-98.0","""event"",""trial"",""time""
""fullscreenenter"",""0"",""4419""
","
","
","""event"",""trial"",""time""
""fullscreenenter"",""0"",""4419""
","
","null","run_exp/static/images/Set 6_rs/079a.jpg","null","","","","","","learn","SL",""
"","html-keyboard-response","99","125242","0.0-99.0","""event"",""trial"",""time""
""fullscreenenter"",""0"",""4419""
","
","
","""event"",""trial"",""time""
""fullscreenenter"",""0"",""4419""
","
","null","<p></p>","null","","","","","","","",""
"","image","100","126101","0.0-100.0","""event"",""trial"",""time""
""fullscreenenter"",""0"",""4419""
","
","
","""event"",""trial"",""time""
""fullscreenenter"",""0"",""4419""
","
","857.5","run_exp/static/images/Set 6_rs/063a.jpg","86","","","","","","learn","SR",""
"","show_choice","101","127250","0.0-101.0","""event"",""trial"",""time""
""fullscreenenter"",""0"",""4419""
","
","
","""event"",""trial"",""time""
""fullscreenenter"",""0"",""4419""
","
","null","run_exp/static/images/Set 6_rs/063a.jpg","null","","","","","","learn","SR",""
"","html-keyboard-response","102","127763","0.0-102.0","""event"",""trial"",""time""
""fullscreenenter"",""0"",""4419""
","
","
","""event"",""trial"",""time""
""fullscreenenter"",""0"",""4419""
","
","null","<p></p>","null","","","","","","","",""
"","image","103","128704","0.0-103.0","""event"",""trial"",""time""
""fullscreenenter"",""0"",""4419""
","
","
","""event"",""trial"",""time""
""fullscreenenter"",""0"",""4419""
","
","939.5","run_exp/static/images/Set 6_rs/091a.jpg","78","","","","","","learn","SL",""
"","show_choice","104","129772","0.0-104.0","""event"",""trial"",""time""
""fullscreenenter"",""0"",""4419""
","
","
","""event"",""trial"",""time""
""fullscreenenter"",""0"",""4419""
","
","null","run_exp/static/images/Set 6_rs/091a.jpg","null","","","","","","learn","SL",""
"","html-keyboard-response","105","130286","0.0-105.0","""event"",""trial"",""time""
""fullscreenenter"",""0"",""4419""
","
","
","""event"",""trial"",""time""
""fullscreenenter"",""0"",""4419""
","
","null","<p></p>","null","","","","","","","",""
"","image","106","130818","0.0-106.0","""event"",""trial"",""time""
""fullscreenenter"",""0"",""4419""
","
","
","""event"",""trial"",""time""
""fullscreenenter"",""0"",""4419""
","
","530.7999997138977","run_exp/static/images/Set 6_rs/116a.jpg","86","","","","","","learn","SL",""
"","show_choice","107","132298","0.0-107.0","""event"",""trial"",""time""
""fullscreenenter"",""0"",""4419""
","
","
","""event"",""trial"",""time""
""fullscreenenter"",""0"",""4419""
","
","null","run_exp/static/images/Set 6_rs/116a.jpg","null","","","","","","learn","SL",""
"","html-keyboard-response","108","132811","0.0-108.0","""event"",""trial"",""time""
""fullscreenenter"",""0"",""4419""
","
","
","""event"",""trial"",""time""
""fullscreenenter"",""0"",""4419""
","
","null","<p></p>","null","","","","","","","",""
"","image","109","133190","0.0-109.0","""event"",""trial"",""time""
""fullscreenenter"",""0"",""4419""
","
","
","""event"",""trial"",""time""
""fullscreenenter"",""0"",""4419""
","
","377.7999997138977","run_exp/static/images/Set 6_rs/089a.jpg","86","","","","","","learn","SL",""
"","show_choice","110","134821","0.0-110.0","""event"",""trial"",""time""
""fullscreenenter"",""0"",""4419""
","
","
","""event"",""trial"",""time""
""fullscreenenter"",""0"",""4419""
","
","null","run_exp/static/images/Set 6_rs/089a.jpg","null","","","","","","learn","SL",""
"","html-keyboard-response","111","135338","0.0-111.0","""event"",""trial"",""time""
""fullscreenenter"",""0"",""4419""
","
","
","""event"",""trial"",""time""
""fullscreenenter"",""0"",""4419""
","
","null","<p></p>","null","","","","","","","",""
"","image","112","136154","0.0-112.0","""event"",""trial"",""time""
""fullscreenenter"",""0"",""4419""
","
","
","""event"",""trial"",""time""
""fullscreenenter"",""0"",""4419""
","
","814.5999999046326","run_exp/static/images/Set 6_rs/144a.jpg","86","","","","","","learn","SL",""
"","show_choice","113","137348","0.0-113.0","""event"",""trial"",""time""
""fullscreenenter"",""0"",""4419""
","
","
","""event"",""trial"",""time""
""fullscreenenter"",""0"",""4419""
","
","null","run_exp/static/images/Set 6_rs/144a.jpg","null","","","","","","learn","SL",""
"","html-keyboard-response","114","137862","0.0-114.0","""event"",""trial"",""time""
""fullscreenenter"",""0"",""4419""
","
","
","""event"",""trial"",""time""
""fullscreenenter"",""0"",""4419""
","
","null","<p></p>","null","","","","","","","",""
"","image","115","138412","0.0-115.0","""event"",""trial"",""time""
""fullscreenenter"",""0"",""4419""
","
","
","""event"",""trial"",""time""
""fullscreenenter"",""0"",""4419""
","
","549.2000002861023","run_exp/static/images/Set 6_rs/152a.jpg","86","","","","","","learn","SR",""
"","show_choice","116","139873","0.0-116.0","""event"",""trial"",""time""
""fullscreenenter"",""0"",""4419""
","
","
","""event"",""trial"",""time""
""fullscreenenter"",""0"",""4419""
","
","null","run_exp/static/images/Set 6_rs/152a.jpg","null","","","","","","learn","SR",""
"","html-keyboard-response","117","140388","0.0-117.0","""event"",""trial"",""time""
""fullscreenenter"",""0"",""4419""
","
","
","""event"",""trial"",""time""
""fullscreenenter"",""0"",""4419""
","
","null","<p></p>","null","","","","","","","",""
"","image","118","140962","0.0-118.0","""event"",""trial"",""time""
""fullscreenenter"",""0"",""4419""
","
","
","""event"",""trial"",""time""
""fullscreenenter"",""0"",""4419""
","
","572.0999999046326","run_exp/static/images/Set 6_rs/186a.jpg","86","","","","","","learn","SR",""
"","show_choice","119","142399","0.0-119.0","""event"",""trial"",""time""
""fullscreenenter"",""0"",""4419""
","
","
","""event"",""trial"",""time""
""fullscreenenter"",""0"",""4419""
","
","null","run_exp/static/images/Set 6_rs/186a.jpg","null","","","","","","learn","SR",""
"","html-keyboard-response","120","142914","0.0-120.0","""event"",""trial"",""time""
""fullscreenenter"",""0"",""4419""
","
","
","""event"",""trial"",""time""
""fullscreenenter"",""0"",""4419""
","
","null","<p></p>","null","","","","","","","",""
"","image","121","143427","0.0-121.0","""event"",""trial"",""time""
""fullscreenenter"",""0"",""4419""
","
","
","""event"",""trial"",""time""
""fullscreenenter"",""0"",""4419""
","
","512.3000001907349","run_exp/static/images/Set 6_rs/191a.jpg","86","","","","","","learn","SL",""
"","show_choice","122","144928","0.0-122.0","""event"",""trial"",""time""
""fullscreenenter"",""0"",""4419""
","
","
","""event"",""trial"",""time""
""fullscreenenter"",""0"",""4419""
","
","null","run_exp/static/images/Set 6_rs/191a.jpg","null","","","","","","learn","SL",""
"","html-keyboard-response","123","145445","0.0-123.0","""event"",""trial"",""time""
""fullscreenenter"",""0"",""4419""
","
","
","""event"",""trial"",""time""
""fullscreenenter"",""0"",""4419""
","
","null","<p></p>","null","","","","","","","",""
"","image","124","146041","0.0-124.0","""event"",""trial"",""time""
""fullscreenenter"",""0"",""4419""
","
","
","""event"",""trial"",""time""
""fullscreenenter"",""0"",""4419""
","
","594.4000000953674","run_exp/static/images/Set 6_rs/167a.jpg","86","","","","","","learn","SL",""
"","show_choice","125","147455","0.0-125.0","""event"",""trial"",""time""
""fullscreenenter"",""0"",""4419""
","
","
","""event"",""trial"",""time""
""fullscreenenter"",""0"",""4419""
","
","null","run_exp/static/images/Set 6_rs/167a.jpg","null","","","","","","learn","SL",""
"","html-keyboard-response","126","147970","0.0-126.0","""event"",""trial"",""time""
""fullscreenenter"",""0"",""4419""
","
","
","""event"",""trial"",""time""
""fullscreenenter"",""0"",""4419""
","
","null","<p></p>","null","","","","","","","",""
"","image","127","148496","0.0-127.0","""event"",""trial"",""time""
""fullscreenenter"",""0"",""4419""
","
","
","""event"",""trial"",""time""
""fullscreenenter"",""0"",""4419""
","
","525.1999998092651","run_exp/static/images/Set 6_rs/064a.jpg","86","","","","","","learn","SR",""
"","show_choice","128","149979","0.0-128.0","""event"",""trial"",""time""
""fullscreenenter"",""0"",""4419""
","
","
","""event"",""trial"",""time""
""fullscreenenter"",""0"",""4419""
","
","null","run_exp/static/images/Set 6_rs/064a.jpg","null","","","","","","learn","SR",""
"","html-keyboard-response","129","150492","0.0-129.0","""event"",""trial"",""time""
""fullscreenenter"",""0"",""4419""
","
","
","""event"",""trial"",""time""
""fullscreenenter"",""0"",""4419""
","
","null","<p></p>","null","","","","","","","",""
"","image","130","151263","0.0-130.0","""event"",""trial"",""time""
""fullscreenenter"",""0"",""4419""
","
","
","""event"",""trial"",""time""
""fullscreenenter"",""0"",""4419""
","
","769.5","run_exp/static/images/Set 6_rs/036a.jpg","78","","","","","","learn","SL",""
"","show_choice","131","152505","0.0-131.0","""event"",""trial"",""time""
""fullscreenenter"",""0"",""4419""
","
","
","""event"",""trial"",""time""
""fullscreenenter"",""0"",""4419""
","
","null","run_exp/static/images/Set 6_rs/036a.jpg","null","","","","","","learn","SL",""
"","html-keyboard-response","132","153021","0.0-132.0","""event"",""trial"",""time""
""fullscreenenter"",""0"",""4419""
","
","
","""event"",""trial"",""time""
""fullscreenenter"",""0"",""4419""
","
","null","<p></p>","null","","","","","","","",""
"","image","133","153985","0.0-133.0","""event"",""trial"",""time""
""fullscreenenter"",""0"",""4419""
","
","
","""event"",""trial"",""time""
""fullscreenenter"",""0"",""4419""
","
","962.0999999046326","run_exp/static/images/Set 6_rs/132a.jpg","78","","","","","","learn","SR",""
"","show_choice","134","155033","0.0-134.0","""event"",""trial"",""time""
""fullscreenenter"",""0"",""4419""
","
","
","""event"",""trial"",""time""
""fullscreenenter"",""0"",""4419""
","
","null","run_exp/static/images/Set 6_rs/132a.jpg","null","","","","","","learn","SR",""
"","html-keyboard-response","135","155548","0.0-135.0","""event"",""trial"",""time""
""fullscreenenter"",""0"",""4419""
","
","
","""event"",""trial"",""time""
""fullscreenenter"",""0"",""4419""
","
","null","<p></p>","null","","","","","","","",""
"","image","136","156106","0.0-136.0","""event"",""trial"",""time""
""fullscreenenter"",""0"",""4419""
","
","
","""event"",""trial"",""time""
""fullscreenenter"",""0"",""4419""
","
","556.5999999046326","run_exp/static/images/Set 6_rs/019a.jpg","86","","","","","","learn","SL",""
"","show_choice","137","157557","0.0-137.0","""event"",""trial"",""time""
""fullscreenenter"",""0"",""4419""
","
","
","""event"",""trial"",""time""
""fullscreenenter"",""0"",""4419""
","
","null","run_exp/static/images/Set 6_rs/019a.jpg","null","","","","","","learn","SL",""
"","html-keyboard-response","138","158071","0.0-138.0","""event"",""trial"",""time""
""fullscreenenter"",""0"",""4419""
","
","
","""event"",""trial"",""time""
""fullscreenenter"",""0"",""4419""
","
","null","<p></p>","null","","","","","","","",""
"","image","139","158857","0.0-139.0","""event"",""trial"",""time""
""fullscreenenter"",""0"",""4419""
","
","
","""event"",""trial"",""time""
""fullscreenenter"",""0"",""4419""
","
","784","run_exp/static/images/Set 6_rs/126a.jpg","86","","","","","","learn","SR",""
"","show_choice","140","160082","0.0-140.0","""event"",""trial"",""time""
""fullscreenenter"",""0"",""4419""
","
","
","""event"",""trial"",""time""
""fullscreenenter"",""0"",""4419""
","
","null","run_exp/static/images/Set 6_rs/126a.jpg","null","","","","","","learn","SR",""
"","html-keyboard-response","141","160595","0.0-141.0","""event"",""trial"",""time""
""fullscreenenter"",""0"",""4419""
","
","
","""event"",""trial"",""time""
""fullscreenenter"",""0"",""4419""
","
","null","<p></p>","null","","","","","","","",""
"","image","142","161124","0.0-142.0","""event"",""trial"",""time""
""fullscreenenter"",""0"",""4419""
","
","
","""event"",""trial"",""time""
""fullscreenenter"",""0"",""4419""
","
","527.7000002861023","run_exp/static/images/Set 6_rs/166a.jpg","86","","","","","","learn","SR",""
"","show_choice","143","162605","0.0-143.0","""event"",""trial"",""time""
""fullscreenenter"",""0"",""4419""
","
","
","""event"",""trial"",""time""
""fullscreenenter"",""0"",""4419""
","
","null","run_exp/static/images/Set 6_rs/166a.jpg","null","","","","","","learn","SR",""
"","html-keyboard-response","144","163121","0.0-144.0","""event"",""trial"",""time""
""fullscreenenter"",""0"",""4419""
","
","
","""event"",""trial"",""time""
""fullscreenenter"",""0"",""4419""
","
","null","<p></p>","null","","","","","","","",""
"","image","145","163714","0.0-145.0","""event"",""trial"",""time""
""fullscreenenter"",""0"",""4419""
","
","
","""event"",""trial"",""time""
""fullscreenenter"",""0"",""4419""
","
","592.4000000953674","run_exp/static/images/Set 6_rs/085a.jpg","86","","","","","","learn","SL",""
"","show_choice","146","165134","0.0-146.0","""event"",""trial"",""time""
""fullscreenenter"",""0"",""4419""
","
","
","""event"",""trial"",""time""
""fullscreenenter"",""0"",""4419""
","
","null","run_exp/static/images/Set 6_rs/085a.jpg","null","","","","","","learn","SL",""
"","html-keyboard-response","147","165647","0.0-147.0","""event"",""trial"",""time""
""fullscreenenter"",""0"",""4419""
","
","
","""event"",""trial"",""time""
""fullscreenenter"",""0"",""4419""
","
","null","<p></p>","null","","","","","","","",""
"","image","148","166525","0.0-148.0","""event"",""trial"",""time""
""fullscreenenter"",""0"",""4419""
","
","
","""event"",""trial"",""time""
""fullscreenenter"",""0"",""4419""
","
","876.2999997138977","run_exp/static/images/Set 6_rs/168a.jpg","78","","","","","","learn","SL",""
"","show_choice","149","167659","0.0-149.0","""event"",""trial"",""time""
""fullscreenenter"",""0"",""4419""
","
","
","""event"",""trial"",""time""
""fullscreenenter"",""0"",""4419""
","
","null","run_exp/static/images/Set 6_rs/168a.jpg","null","","","","","","learn","SL",""
"","html-keyboard-response","150","168161","0.0-150.0","""event"",""trial"",""time""
""fullscreenenter"",""0"",""4419""
","
","
","""event"",""trial"",""time""
""fullscreenenter"",""0"",""4419""
","
","null","<p></p>","null","","","","","","","",""
"","image","151","168624","0.0-151.0","""event"",""trial"",""time""
""fullscreenenter"",""0"",""4419""
","
","
","""event"",""trial"",""time""
""fullscreenenter"",""0"",""4419""
","
","462.09999990463257","run_exp/static/images/Set 6_rs/178a.jpg","86","","","","","","learn","SR",""
"","show_choice","152","170168","0.0-152.0","""event"",""trial"",""time""
""fullscreenenter"",""0"",""4419""
","
","
","""event"",""trial"",""time""
""fullscreenenter"",""0"",""4419""
","
","null","run_exp/static/images/Set 6_rs/178a.jpg","null","","","","","","learn","SR",""
"","html-keyboard-response","153","170669","0.0-153.0","""event"",""trial"",""time""
""fullscreenenter"",""0"",""4419""
","
","
","""event"",""trial"",""time""
""fullscreenenter"",""0"",""4419""
","
","null","<p></p>","null","","","","","","","",""
"","image","154","171465","0.0-154.0","""event"",""trial"",""time""
""fullscreenenter"",""0"",""4419""
","
","
","""event"",""trial"",""time""
""fullscreenenter"",""0"",""4419""
","
","794.6000003814697","run_exp/static/images/Set 6_rs/131a.jpg","78","","","","","","learn","SR",""
"","show_choice","155","172679","0.0-155.0","""event"",""trial"",""time""
""fullscreenenter"",""0"",""4419""
","
","
","""event"",""trial"",""time""
""fullscreenenter"",""0"",""4419""
","
","null","run_exp/static/images/Set 6_rs/131a.jpg","null","","","","","","learn","SR",""
"","html-keyboard-response","156","173193","0.0-156.0","""event"",""trial"",""time""
""fullscreenenter"",""0"",""4419""
","
","
","""event"",""trial"",""time""
""fullscreenenter"",""0"",""4419""
","
","null","<p></p>","null","","","","","","","",""
"","image","157","173902","0.0-157.0","""event"",""trial"",""time""
""fullscreenenter"",""0"",""4419""
","
","
","""event"",""trial"",""time""
""fullscreenenter"",""0"",""4419""
","
","707.7999997138977","run_exp/static/images/Set 6_rs/024a.jpg","86","","","","","","learn","SR",""
"","show_choice","158","175198","0.0-158.0","""event"",""trial"",""time""
""fullscreenenter"",""0"",""4419""
","
","
","""event"",""trial"",""time""
""fullscreenenter"",""0"",""4419""
","
","null","run_exp/static/images/Set 6_rs/024a.jpg","null","","","","","","learn","SR",""
"","html-keyboard-response","159","175713","0.0-159.0","""event"",""trial"",""time""
""fullscreenenter"",""0"",""4419""
","
","
","""event"",""trial"",""time""
""fullscreenenter"",""0"",""4419""
","
","null","<p></p>","null","","","","","","","",""
"","image","160","176423","0.0-160.0","""event"",""trial"",""time""
""fullscreenenter"",""0"",""4419""
","
","
","""event"",""trial"",""time""
""fullscreenenter"",""0"",""4419""
","
","708.5999999046326","run_exp/static/images/Set 6_rs/073a.jpg","86","","","","","","learn","SL",""
"","show_choice","161","177721","0.0-161.0","""event"",""trial"",""time""
""fullscreenenter"",""0"",""4419""
","
","
","""event"",""trial"",""time""
""fullscreenenter"",""0"",""4419""
","
","null","run_exp/static/images/Set 6_rs/073a.jpg","null","","","","","","learn","SL",""
"","html-keyboard-response","162","178236","0.0-162.0","""event"",""trial"",""time""
""fullscreenenter"",""0"",""4419""
","
","
","""event"",""trial"",""time""
""fullscreenenter"",""0"",""4419""
","
","null","<p></p>","null","","","","","","","",""
"","image","163","178843","0.0-163.0","""event"",""trial"",""time""
""fullscreenenter"",""0"",""4419""
","
","
","""event"",""trial"",""time""
""fullscreenenter"",""0"",""4419""
","
","605","run_exp/static/images/Set 6_rs/025a.jpg","86","","","","","","learn","SL",""
"","show_choice","164","180248","0.0-164.0","""event"",""trial"",""time""
""fullscreenenter"",""0"",""4419""
","
","
","""event"",""trial"",""time""
""fullscreenenter"",""0"",""4419""
","
","null","run_exp/static/images/Set 6_rs/025a.jpg","null","","","","","","learn","SL",""
"","html-keyboard-response","165","180762","0.0-165.0","""event"",""trial"",""time""
""fullscreenenter"",""0"",""4419""
","
","
","""event"",""trial"",""time""
""fullscreenenter"",""0"",""4419""
","
","null","<p></p>","null","","","","","","","",""
"","image","166","181983","0.0-166.0","""event"",""trial"",""time""
""fullscreenenter"",""0"",""4419""
","
","
","""event"",""trial"",""time""
""fullscreenenter"",""0"",""4419""
","
","1219.8000001907349","run_exp/static/images/Set 6_rs/006a.jpg","86","","","","","","learn","SL",""
"","show_choice","167","182773","0.0-167.0","""event"",""trial"",""time""
""fullscreenenter"",""0"",""4419""
","
","
","""event"",""trial"",""time""
""fullscreenenter"",""0"",""4419""
","
","null","run_exp/static/images/Set 6_rs/006a.jpg","null","","","","","","learn","SL",""
"","html-keyboard-response","168","183285","0.0-168.0","""event"",""trial"",""time""
""fullscreenenter"",""0"",""4419""
","
","
","""event"",""trial"",""time""
""fullscreenenter"",""0"",""4419""
","
","null","<p></p>","null","","","","","","","",""
"","image","169","183873","0.0-169.0","""event"",""trial"",""time""
""fullscreenenter"",""0"",""4419""
","
","
","""event"",""trial"",""time""
""fullscreenenter"",""0"",""4419""
","
","586","run_exp/static/images/Set 6_rs/172a.jpg","78","","","","","","learn","SR",""
"","show_choice","170","185295","0.0-170.0","""event"",""trial"",""time""
""fullscreenenter"",""0"",""4419""
","
","
","""event"",""trial"",""time""
""fullscreenenter"",""0"",""4419""
","
","null","run_exp/static/images/Set 6_rs/172a.jpg","null","","","","","","learn","SR",""
"","html-keyboard-response","171","185808","0.0-171.0","""event"",""trial"",""time""
""fullscreenenter"",""0"",""4419""
","
","
","""event"",""trial"",""time""
""fullscreenenter"",""0"",""4419""
","
","null","<p></p>","null","","","","","","","",""
"","image","172","186357","0.0-172.0","""event"",""trial"",""time""
""fullscreenenter"",""0"",""4419""
","
","
","""event"",""trial"",""time""
""fullscreenenter"",""0"",""4419""
","
","548","run_exp/static/images/Set 6_rs/177a.jpg","86","","","","","","learn","SR",""
"","show_choice","173","187821","0.0-173.0","""event"",""trial"",""time""
""fullscreenenter"",""0"",""4419""
","
","
","""event"",""trial"",""time""
""fullscreenenter"",""0"",""4419""
","
","null","run_exp/static/images/Set 6_rs/177a.jpg","null","","","","","","learn","SR",""
"","html-keyboard-response","174","188331","0.0-174.0","""event"",""trial"",""time""
""fullscreenenter"",""0"",""4419""
","
","
","""event"",""trial"",""time""
""fullscreenenter"",""0"",""4419""
","
","null","<p></p>","null","","","","","","","",""
"","image","175","189017","0.0-175.0","""event"",""trial"",""time""
""fullscreenenter"",""0"",""4419""
","
","
","""event"",""trial"",""time""
""fullscreenenter"",""0"",""4419""
","
","684.5999999046326","run_exp/static/images/Set 6_rs/071a.jpg","78","","","","","","learn","SL",""
"","show_choice","176","190342","0.0-176.0","""event"",""trial"",""time""
""fullscreenenter"",""0"",""4419""
","
","
","""event"",""trial"",""time""
""fullscreenenter"",""0"",""4419""
","
","null","run_exp/static/images/Set 6_rs/071a.jpg","null","","","","","","learn","SL",""
"","html-keyboard-response","177","190858","0.0-177.0","""event"",""trial"",""time""
""fullscreenenter"",""0"",""4419""
","
","
","""event"",""trial"",""time""
""fullscreenenter"",""0"",""4419""
","
","null","<p></p>","null","","","","","","","",""
"","image","178","191333","0.0-178.0","""event"",""trial"",""time""
""fullscreenenter"",""0"",""4419""
","
","
","""event"",""trial"",""time""
""fullscreenenter"",""0"",""4419""
","
","474.30000019073486","run_exp/static/images/Set 6_rs/181a.jpg","86","","","","","","learn","SL",""
"","show_choice","179","192864","0.0-179.0","""event"",""trial"",""time""
""fullscreenenter"",""0"",""4419""
","
","
","""event"",""trial"",""time""
""fullscreenenter"",""0"",""4419""
","
","null","run_exp/static/images/Set 6_rs/181a.jpg","null","","","","","","learn","SL",""
"","html-keyboard-response","180","193377","0.0-180.0","""event"",""trial"",""time""
""fullscreenenter"",""0"",""4419""
","
","
","""event"",""trial"",""time""
""fullscreenenter"",""0"",""4419""
","
","null","<p></p>","null","","","","","","","",""
"","image","181","194179","0.0-181.0","""event"",""trial"",""time""
""fullscreenenter"",""0"",""4419""
","
","
","""event"",""trial"",""time""
""fullscreenenter"",""0"",""4419""
","
","800.8000001907349","run_exp/static/images/Set 6_rs/112a.jpg","86","","","","","","learn","SR",""
"","show_choice","182","195388","0.0-182.0","""event"",""trial"",""time""
""fullscreenenter"",""0"",""4419""
","
","
","""event"",""trial"",""time""
""fullscreenenter"",""0"",""4419""
","
","null","run_exp/static/images/Set 6_rs/112a.jpg","null","","","","","","learn","SR",""
"","html-keyboard-response","183","195900","0.0-183.0","""event"",""trial"",""time""
""fullscreenenter"",""0"",""4419""
","
","
","""event"",""trial"",""time""
""fullscreenenter"",""0"",""4419""
","
","null","<p></p>","null","","","","","","","",""
"","image","184","196635","0.0-184.0","""event"",""trial"",""time""
""fullscreenenter"",""0"",""4419""
","
","
","""event"",""trial"",""time""
""fullscreenenter"",""0"",""4419""
","
","733.0999999046326","run_exp/static/images/Set 6_rs/134a.jpg","86","","","","","","learn","SR",""
"","show_choice","185","197913","0.0-185.0","""event"",""trial"",""time""
""fullscreenenter"",""0"",""4419""
","
","
","""event"",""trial"",""time""
""fullscreenenter"",""0"",""4419""
","
","null","run_exp/static/images/Set 6_rs/134a.jpg","null","","","","","","learn","SR",""
"","html-keyboard-response","186","198427","0.0-186.0","""event"",""trial"",""time""
""fullscreenenter"",""0"",""4419""
","
","
","""event"",""trial"",""time""
""fullscreenenter"",""0"",""4419""
","
","null","<p></p>","null","","","","","","","",""
"","image","187","199115","0.0-187.0","""event"",""trial"",""time""
""fullscreenenter"",""0"",""4419""
","
","
","""event"",""trial"",""time""
""fullscreenenter"",""0"",""4419""
","
","686.2999997138977","run_exp/static/images/Set 6_rs/122a.jpg","78","","","","","","learn","SR",""
"","show_choice","188","200436","0.0-188.0","""event"",""trial"",""time""
""fullscreenenter"",""0"",""4419""
","
","
","""event"",""trial"",""time""
""fullscreenenter"",""0"",""4419""
","
","null","run_exp/static/images/Set 6_rs/122a.jpg","null","","","","","","learn","SR",""
"","html-keyboard-response","189","200950","0.0-189.0","""event"",""trial"",""time""
""fullscreenenter"",""0"",""4419""
","
","
","""event"",""trial"",""time""
""fullscreenenter"",""0"",""4419""
","
","null","<p></p>","null","","","","","","","",""
"","image","190","201765","0.0-190.0","""event"",""trial"",""time""
""fullscreenenter"",""0"",""4419""
","
","
","""event"",""trial"",""time""
""fullscreenenter"",""0"",""4419""
","
","813.5999999046326","run_exp/static/images/Set 6_rs/154a.jpg","86","","","","","","learn","SR",""
"","show_choice","191","202957","0.0-191.0","""event"",""trial"",""time""
""fullscreenenter"",""0"",""4419""
","
","
","""event"",""trial"",""time""
""fullscreenenter"",""0"",""4419""
","
","null","run_exp/static/images/Set 6_rs/154a.jpg","null","","","","","","learn","SR",""
"","html-keyboard-response","192","203458","0.0-192.0","""event"",""trial"",""time""
""fullscreenenter"",""0"",""4419""
","
","
","""event"",""trial"",""time""
""fullscreenenter"",""0"",""4419""
","
","null","<p></p>","null","","","","","","","",""
"","image","193","204294","0.0-193.0","""event"",""trial"",""time""
""fullscreenenter"",""0"",""4419""
","
","
","""event"",""trial"",""time""
""fullscreenenter"",""0"",""4419""
","
","833.7000002861023","run_exp/static/images/Set 6_rs/150a.jpg","86","","","","","","learn","SR",""
"","show_choice","194","205470","0.0-194.0","""event"",""trial"",""time""
""fullscreenenter"",""0"",""4419""
","
","
","""event"",""trial"",""time""
""fullscreenenter"",""0"",""4419""
","
","null","run_exp/static/images/Set 6_rs/150a.jpg","null","","","","","","learn","SR",""
"","html-keyboard-response","195","205985","0.0-195.0","""event"",""trial"",""time""
""fullscreenenter"",""0"",""4419""
","
","
","""event"",""trial"",""time""
""fullscreenenter"",""0"",""4419""
","
","null","<p></p>","null","","","","","","","",""
"","test_intro","196","243663","0.0-196.0","""event"",""trial"",""time""
""fullscreenenter"",""0"",""4419""
","
","
","""event"",""trial"",""time""
""fullscreenenter"",""0"",""4419""
","
","null","run_exp/static/audio/clip_2_memory.m4a","null","","","","","<div class='center'><p>Now, lets see how much you remember about the items you just saw.  For each item, you need to indicate if it was <b>old</b> by pressing the <b>v</b> key, <b>similar</b> by pressing the <b>b</b> key, or <b>new</b> by pressing the <b>n</b> key.</p><p>Old refers to an item that you saw before in the indoor/outdoor game that you just played, new refers to an item you have <b>not</b> seen before within the indoor/outdoor game, and similar refers to an item that is similar to an item youve seen before but is not exactly the same. </p><p>Before we begin, lets go over some brief demonstrations to make sure you understand.</p></div>","","",""
"","html-keyboard-response","197","244230","0.0-197.0","""event"",""trial"",""time""
""fullscreenenter"",""0"",""4419""
","
","
","""event"",""trial"",""time""
""fullscreenenter"",""0"",""4419""
","
","565.1999998092651","<div class='center'><p>Now, lets see how much you remember about the items you just saw.  For each item, you need to indicate if it was <b>old</b> by pressing the <b>v</b> key, <b>similar</b> by pressing the <b>b</b> key, or <b>new</b> by pressing the <b>n</b> key.</p><p>Old refers to an item that you saw before in the indoor/outdoor game that you just played, new refers to an item you have <b>not</b> seen before within the indoor/outdoor game, and similar refers to an item that is similar to an item youve seen before but is not exactly the same. </p><p>Before we begin, lets go over some brief demonstrations to make sure you understand.</p><div><p><b>[Press the space bar to continue]</b></p></div>","32","","","","","","","",""
"","items","198","251740","0.0-198.0","""event"",""trial"",""time""
""fullscreenenter"",""0"",""4419""
","
","
","""event"",""trial"",""time""
""fullscreenenter"",""0"",""4419""
","
","null","run_exp/static/audio/clip_3_items.m4a","null","","","","","","","",""
"","mop","199","256253","0.0-199.0","""event"",""trial"",""time""
""fullscreenenter"",""0"",""4419""
","
","
","""event"",""trial"",""time""
""fullscreenenter"",""0"",""4419""
","
","null","run_exp/static/audio/clip_4_mop.m4a","null","","","","","","","",""
"","baseball","200","259764","0.0-200.0","""event"",""trial"",""time""
""fullscreenenter"",""0"",""4419""
","
","
","""event"",""trial"",""time""
""fullscreenenter"",""0"",""4419""
","
","null","run_exp/static/audio/clip_5_baseball.m4a","null","","","","","","","",""
"","trumpet","201","263267","0.0-201.0","""event"",""trial"",""time""
""fullscreenenter"",""0"",""4419""
","
","
","""event"",""trial"",""time""
""fullscreenenter"",""0"",""4419""
","
","null","run_exp/static/audio/clip_6_trumpet.m4a","null","","","","","","","",""
"","gummies","202","266775","0.0-202.0","""event"",""trial"",""time""
""fullscreenenter"",""0"",""4419""
","
","
","""event"",""trial"",""time""
""fullscreenenter"",""0"",""4419""
","
","null","run_exp/static/audio/clip_7_gummies.m4a","null","","","","","","","",""
"","osn","203","271286","0.0-203.0","""event"",""trial"",""time""
""fullscreenenter"",""0"",""4419""
","
","
","""event"",""trial"",""time""
""fullscreenenter"",""0"",""4419""
","
","null","run_exp/static/audio/clip_8_osn.m4a","null","","","","","","","",""
"","old_1","204","277800","0.0-204.0","""event"",""trial"",""time""
""fullscreenenter"",""0"",""4419""
","
","
","""event"",""trial"",""time""
""fullscreenenter"",""0"",""4419""
","
","null","run_exp/static/audio/clip_9_old_trumpet.m4a","null","","","","","","","",""
"","new_1","205","285311","0.0-205.0","""event"",""trial"",""time""
""fullscreenenter"",""0"",""4419""
","
","
","""event"",""trial"",""time""
""fullscreenenter"",""0"",""4419""
","
","null","run_exp/static/audio/clip_10_new_balloon.m4a","null","","","","","","","",""
"","similar_1a","206","289826","0.0-206.0","""event"",""trial"",""time""
""fullscreenenter"",""0"",""4419""
","
","
","""event"",""trial"",""time""
""fullscreenenter"",""0"",""4419""
","
","null","run_exp/static/audio/clip_11a_similar_mop.m4a","null","","","","","","","",""
"","similar_1b","207","296339","0.0-207.0","""event"",""trial"",""time""
""fullscreenenter"",""0"",""4419""
","
","
","""event"",""trial"",""time""
""fullscreenenter"",""0"",""4419""
","
","null","run_exp/static/audio/clip_11b_similar_mop.m4a","null","","","","","","","",""
"","new_2","208","299850","0.0-208.0","""event"",""trial"",""time""
""fullscreenenter"",""0"",""4419""
","
","
","""event"",""trial"",""time""
""fullscreenenter"",""0"",""4419""
","
","null","run_exp/static/audio/clip_12_new_stoplight.m4a","null","","","","","","","",""
"","old_2","209","303360","0.0-209.0","""event"",""trial"",""time""
""fullscreenenter"",""0"",""4419""
","
","
","""event"",""trial"",""time""
""fullscreenenter"",""0"",""4419""
","
","null","run_exp/static/audio/clip_13_old_baseball.m4a","null","","","","","","","",""
"","similar_2a","210","306868","0.0-210.0","""event"",""trial"",""time""
""fullscreenenter"",""0"",""4419""
","
","
","""event"",""trial"",""time""
""fullscreenenter"",""0"",""4419""
","
","null","run_exp/static/audio/clip_14a_similar_gummies.m4a","null","","","","","","","",""
"","similar_2b","211","314371","0.0-211.0","""event"",""trial"",""time""
""fullscreenenter"",""0"",""4419""
","
","
","""event"",""trial"",""time""
""fullscreenenter"",""0"",""4419""
","
","null","run_exp/static/audio/clip_14b_similar_gummies.m4a","null","","","","","","","",""
"","practice","212","356483","0.0-212.0","""event"",""trial"",""time""
""fullscreenenter"",""0"",""4419""
","
","
","""event"",""trial"",""time""
""fullscreenenter"",""0"",""4419""
","
","null","run_exp/static/audio/clip_15_practice.m4a","null","","","","","<div class='center'><p>Lets practice a little to make sure you understand the difference between new, similar, and old. Lets say you saw these three items in the indoor/outdoor game.</p><p> Try your best to remember these images because youll soon be tested on them in a practice game. In the practice game, youll be shown images and youll have to say if they are old (one of the three images belows), similar (similar to one of the images below but not exactly the same), or new (are not one of the images below nor similar to them).</p><p>Once you press the space bar youll be shown these images again but one at time. Then youll begin the practice game.</p><p><img src='run_exp/static/images/tutorial/test/three_indoor_outdoor.png' height='300'></p></div>","","",""
"","html-keyboard-response","213","357206","0.0-213.0","""event"",""trial"",""time""
""fullscreenenter"",""0"",""4419""
","
","
","""event"",""trial"",""time""
""fullscreenenter"",""0"",""4419""
","
","720.4000000953674","<div class='center'><p>Lets practice a little to make sure you understand the difference between new, similar, and old. Lets say you saw these three items in the indoor/outdoor game.</p><p> Try your best to remember these images because youll soon be tested on them in a practice game. In the practice game, youll be shown images and youll have to say if they are old (one of the three images belows), similar (similar to one of the images below but not exactly the same), or new (are not one of the images below nor similar to them).</p><p>Once you press the space bar youll be shown these images again but one at time. Then youll begin the practice game.</p><p><img src='run_exp/static/images/tutorial/test/three_indoor_outdoor.png' height='300'></p><div><p><b>[Press the space bar to continue]</b></p></div>","32","","","","","","","",""
"","planet","214","359214","0.0-214.0","""event"",""trial"",""time""
""fullscreenenter"",""0"",""4419""
","
","
","""event"",""trial"",""time""
""fullscreenenter"",""0"",""4419""
","
","null","run_exp/static/images/tutorial/test/008a.jpg","null","","","","","","","",""
"","boot","215","361226","0.0-215.0","""event"",""trial"",""time""
""fullscreenenter"",""0"",""4419""
","
","
","""event"",""trial"",""time""
""fullscreenenter"",""0"",""4419""
","
","null","run_exp/static/images/tutorial/test/011a.jpg","null","","","","","","","",""
"","lemon","216","363239","0.0-216.0","""event"",""trial"",""time""
""fullscreenenter"",""0"",""4419""
","
","
","""event"",""trial"",""time""
""fullscreenenter"",""0"",""4419""
","
","null","run_exp/static/images/tutorial/test/018a.jpg","null","","","","","","","",""
"","practice_q1","217","369324","0.0-217.0","""event"",""trial"",""time""
""fullscreenenter"",""0"",""4419""
","
","
","""event"",""trial"",""time""
""fullscreenenter"",""0"",""4419""
","
","6083.5","run_exp/static/audio/clip_16_practice_question.m4a","86","","","","","","","",""
"","incorrect_q1","218","372183","0.0-218.0-0.0","""event"",""trial"",""time""
""fullscreenenter"",""0"",""4419""
","
","
","""event"",""trial"",""time""
""fullscreenenter"",""0"",""4419""
","
","null","run_exp/static/audio/clip_18_incorrect_new.m4a","null","","","","","<div class='center'><p>Thats incorrect. Its new.</p></div>","","",""
"","html-keyboard-response","219","373071","0.0-218.0-1.0","""event"",""trial"",""time""
""fullscreenenter"",""0"",""4419""
","
","
","""event"",""trial"",""time""
""fullscreenenter"",""0"",""4419""
","
","886.3999996185303","<div class='center'><p>Thats incorrect. Its new.</p><div><p><b>[Press the space bar to continue]</b></p></div>","32","","","","","","","",""
"","practice_q2","220","374725","0.0-218.0-2.0","""event"",""trial"",""time""
""fullscreenenter"",""0"",""4419""
","
","
","""event"",""trial"",""time""
""fullscreenenter"",""0"",""4419""
","
","1652.7999997138977","run_exp/static/audio/clip_16_practice_question.m4a","86","","","","","","","",""
"","correct","221","376643","0.0-219.0-0.0","""event"",""trial"",""time""
""fullscreenenter"",""0"",""4419""
","
","
","""event"",""trial"",""time""
""fullscreenenter"",""0"",""4419""
","
","null","run_exp/static/audio/clip_17_correct.m4a","null","","","","","<div class='center'><p>That's correct!</p></div>","","",""
"","html-keyboard-response","222","377422","0.0-219.0-1.0","""event"",""trial"",""time""
""fullscreenenter"",""0"",""4419""
","
","
","""event"",""trial"",""time""
""fullscreenenter"",""0"",""4419""
","
","778.5","<div class='center'><p>That's correct!</p><div><p><b>[Press the space bar to continue]</b></p></div>","32","","","","","","","",""
"","practice_q3","223","378893","0.0-219.0-2.0","""event"",""trial"",""time""
""fullscreenenter"",""0"",""4419""
","
","
","""event"",""trial"",""time""
""fullscreenenter"",""0"",""4419""
","
","1469.0999999046326","run_exp/static/audio/clip_16_practice_question.m4a","86","","","","","","","",""
"","incorrect_q3","224","381623","0.0-220.0-0.0","""event"",""trial"",""time""
""fullscreenenter"",""0"",""4419""
","
","
","""event"",""trial"",""time""
""fullscreenenter"",""0"",""4419""
","
","null","run_exp/static/audio/clip_20_incorrect_similar.m4a","null","","","","","<div class='center'><p>Thats incorrect. Its similar.</p><p><img src='run_exp/static/images/tutorial/test/boot_comparison.png' height='300'></p></div>","","",""
"","html-keyboard-response","225","382217","0.0-220.0-1.0","""event"",""trial"",""time""
""fullscreenenter"",""0"",""4419""
","
","
","""event"",""trial"",""time""
""fullscreenenter"",""0"",""4419""
","
","592.5999999046326","<div class='center'><p>Thats incorrect. Its similar.</p><p><img src='run_exp/static/images/tutorial/test/boot_comparison.png' height='300'></p><div><p><b>[Press the space bar to continue]</b></p></div>","32","","","","","","","",""
"","repeat","226","386963","0.0-221.0-0.0","""event"",""trial"",""time""
""fullscreenenter"",""0"",""4419""
","
","
","""event"",""trial"",""time""
""fullscreenenter"",""0"",""4419""
","
","null","run_exp/static/audio/clip_21_practice_again.m4a","null","","","","","<div class='center'><p>Oops. you missed at least one of these questions. Let's try practicing again. </p></div>","","",""
"","html-keyboard-response","227","387490","0.0-221.0-1.0","""event"",""trial"",""time""
""fullscreenenter"",""0"",""4419""
","
","
","""event"",""trial"",""time""
""fullscreenenter"",""0"",""4419""
","
","525.4000000953674","<div class='center'><p>Oops. you missed at least one of these questions. Let's try practicing again. </p><div><p><b>[Press the space bar to continue]</b></p></div>","32","","","","","","","",""
"","practice_q1","228","389648","0.0-221.0-2.0","""event"",""trial"",""time""
""fullscreenenter"",""0"",""4419""
","
","
","""event"",""trial"",""time""
""fullscreenenter"",""0"",""4419""
","
","2156.9000000953674","run_exp/static/audio/clip_16_practice_question.m4a","78","","","","","","","",""
"","correct","229","391543","0.0-222.0-0.0","""event"",""trial"",""time""
""fullscreenenter"",""0"",""4419""
","
","
","""event"",""trial"",""time""
""fullscreenenter"",""0"",""4419""
","
","null","run_exp/static/audio/clip_17_correct.m4a","null","","","","","<div class='center'><p>That's correct!</p></div>","","",""
"","html-keyboard-response","230","391957","0.0-222.0-1.0","""event"",""trial"",""time""
""fullscreenenter"",""0"",""4419""
","
","
","""event"",""trial"",""time""
""fullscreenenter"",""0"",""4419""
","
","413.09999990463257","<div class='center'><p>That's correct!</p><div><p><b>[Press the space bar to continue]</b></p></div>","32","","","","","","","",""
"","practice_q2","231","392490","0.0-222.0-2.0","""event"",""trial"",""time""
""fullscreenenter"",""0"",""4419""
","
","
","""event"",""trial"",""time""
""fullscreenenter"",""0"",""4419""
","
","530.9000000953674","run_exp/static/audio/clip_16_practice_question.m4a","86","","","","","","","",""
"","correct","232","394384","0.0-223.0-0.0","""event"",""trial"",""time""
""fullscreenenter"",""0"",""4419""
","
","
","""event"",""trial"",""time""
""fullscreenenter"",""0"",""4419""
","
","null","run_exp/static/audio/clip_17_correct.m4a","null","","","","","<div class='center'><p>That's correct!</p></div>","","",""
"","html-keyboard-response","233","394855","0.0-223.0-1.0","""event"",""trial"",""time""
""fullscreenenter"",""0"",""4419""
","
","
","""event"",""trial"",""time""
""fullscreenenter"",""0"",""4419""
","
","470","<div class='center'><p>That's correct!</p><div><p><b>[Press the space bar to continue]</b></p></div>","32","","","","","","","",""
"","practice_q3","234","395316","0.0-223.0-2.0","""event"",""trial"",""time""
""fullscreenenter"",""0"",""4419""
","
","
","""event"",""trial"",""time""
""fullscreenenter"",""0"",""4419""
","
","459.5","run_exp/static/audio/clip_16_practice_question.m4a","66","","","","","","","",""
"","correct","235","397423","0.0-224.0-0.0","""event"",""trial"",""time""
""fullscreenenter"",""0"",""4419""
","
","
","""event"",""trial"",""time""
""fullscreenenter"",""0"",""4419""
","
","null","run_exp/static/audio/clip_17_correct.m4a","null","","","","","<div class='center'><p>That's correct!</p></div>","","",""
"","html-keyboard-response","236","397820","0.0-224.0-1.0","""event"",""trial"",""time""
""fullscreenenter"",""0"",""4419""
","
","
","""event"",""trial"",""time""
""fullscreenenter"",""0"",""4419""
","
","395.30000019073486","<div class='center'><p>That's correct!</p><div><p><b>[Press the space bar to continue]</b></p></div>","32","","","","","","","",""
"","begin_text","237","416283","0.0-225.0-0.0","""event"",""trial"",""time""
""fullscreenenter"",""0"",""4419""
","
","
","""event"",""trial"",""time""
""fullscreenenter"",""0"",""4419""
","
","null","run_exp/static/audio/clip_22_begin_test.m4a","null","","","","","<div class='center'><p>On to the real game where well test your memory of items from the indoor/outdoor game. For each item, you need to indicate if the item is <b>old</b> by pressing the <b>v</b> key, <b>similar</b> by pressing the <b>b</b> key, or <b>new</b> by pressing the <b>n</b> key. </p></div>","","",""
"","html-keyboard-response","238","417305","0.0-225.0-1.0","""event"",""trial"",""time""
""fullscreenenter"",""0"",""4419""
","
","
","""event"",""trial"",""time""
""fullscreenenter"",""0"",""4419""
","
","1019.9000000953674","<div class='center'><p>On to the real game where well test your memory of items from the indoor/outdoor game. For each item, you need to indicate if the item is <b>old</b> by pressing the <b>v</b> key, <b>similar</b> by pressing the <b>b</b> key, or <b>new</b> by pressing the <b>n</b> key. </p><div><p><b>[Press the space bar to continue]</b></p></div>","32","","","","","","","",""
"","image","239","418784","0.0-226.0-0.0","""event"",""trial"",""time""
""fullscreenenter"",""0"",""4419""
","
","
","""event"",""trial"",""time""
""fullscreenenter"",""0"",""4419""
","
","1477.1000003814697","run_exp/static/images/Set 6_rs/131a.jpg","66","","","","","","test","TR","5"
"","show_choice","240","419300","0.0-226.0-1.0","""event"",""trial"",""time""
""fullscreenenter"",""0"",""4419""
","
","
","""event"",""trial"",""time""
""fullscreenenter"",""0"",""4419""
","
","null","run_exp/static/images/Set 6_rs/131a.jpg","null","","","","","","test","TR",""
"","html-keyboard-response","241","419815","0.0-226.0-2.0","""event"",""trial"",""time""
""fullscreenenter"",""0"",""4419""
","
","
","""event"",""trial"",""time""
""fullscreenenter"",""0"",""4419""
","
","null","<p></p>","null","","","","","","","",""
"","image","242","420909","0.0-227.0-0.0","""event"",""trial"",""time""
""fullscreenenter"",""0"",""4419""
","
","
","""event"",""trial"",""time""
""fullscreenenter"",""0"",""4419""
","
","1092.4000000953674","run_exp/static/images/Set 6_rs/097a.jpg","78","","","","","","test","TF","5"
"","show_choice","243","421423","0.0-227.0-1.0","""event"",""trial"",""time""
""fullscreenenter"",""0"",""4419""
","
","
","""event"",""trial"",""time""
""fullscreenenter"",""0"",""4419""
","
","null","run_exp/static/images/Set 6_rs/097a.jpg","null","","","","","","test","TF",""
"","html-keyboard-response","244","421939","0.0-227.0-2.0","""event"",""trial"",""time""
""fullscreenenter"",""0"",""4419""
","
","
","""event"",""trial"",""time""
""fullscreenenter"",""0"",""4419""
","
","null","<p></p>","null","","","","","","","",""
"","image","245","422865","0.0-228.0-0.0","""event"",""trial"",""time""
""fullscreenenter"",""0"",""4419""
","
","
","""event"",""trial"",""time""
""fullscreenenter"",""0"",""4419""
","
","924.5","run_exp/static/images/Set 6_rs/028a.jpg","78","","","","","","test","TF","1"
"","show_choice","246","423371","0.0-228.0-1.0","""event"",""trial"",""time""
""fullscreenenter"",""0"",""4419""
","
","
","""event"",""trial"",""time""
""fullscreenenter"",""0"",""4419""
","
","null","run_exp/static/images/Set 6_rs/028a.jpg","null","","","","","","test","TF",""
"","html-keyboard-response","247","423874","0.0-228.0-2.0","""event"",""trial"",""time""
""fullscreenenter"",""0"",""4419""
","
","
","""event"",""trial"",""time""
""fullscreenenter"",""0"",""4419""
","
","null","<p></p>","null","","","","","","","",""
"","image","248","424890","0.0-229.0-0.0","""event"",""trial"",""time""
""fullscreenenter"",""0"",""4419""
","
","
","""event"",""trial"",""time""
""fullscreenenter"",""0"",""4419""
","
","1015.0999999046326","run_exp/static/images/Set 6_rs/090a.jpg","86","","","","","","test","TF","5"
"","show_choice","249","425403","0.0-229.0-1.0","""event"",""trial"",""time""
""fullscreenenter"",""0"",""4419""
","
","
","""event"",""trial"",""time""
""fullscreenenter"",""0"",""4419""
","
","null","run_exp/static/images/Set 6_rs/090a.jpg","null","","","","","","test","TF",""
"","html-keyboard-response","250","425920","0.0-229.0-2.0","""event"",""trial"",""time""
""fullscreenenter"",""0"",""4419""
","
","
","""event"",""trial"",""time""
""fullscreenenter"",""0"",""4419""
","
","null","<p></p>","null","","","","","","","",""
"","image","251","427285","0.0-230.0-0.0","""event"",""trial"",""time""
""fullscreenenter"",""0"",""4419""
","
","
","""event"",""trial"",""time""
""fullscreenenter"",""0"",""4419""
","
","1364.2999997138977","run_exp/static/images/Set 6_rs/177a.jpg","66","","","","","","test","TR","5"
"","show_choice","252","427791","0.0-230.0-1.0","""event"",""trial"",""time""
""fullscreenenter"",""0"",""4419""
","
","
","""event"",""trial"",""time""
""fullscreenenter"",""0"",""4419""
","
","null","run_exp/static/images/Set 6_rs/177a.jpg","null","","","","","","test","TR",""
"","html-keyboard-response","253","428305","0.0-230.0-2.0","""event"",""trial"",""time""
""fullscreenenter"",""0"",""4419""
","
","
","""event"",""trial"",""time""
""fullscreenenter"",""0"",""4419""
","
","null","<p></p>","null","","","","","","","",""
"","image","254","429525","0.0-231.0-0.0","""event"",""trial"",""time""
""fullscreenenter"",""0"",""4419""
","
","
","""event"",""trial"",""time""
""fullscreenenter"",""0"",""4419""
","
","1218.5","run_exp/static/images/Set 6_rs/169a.jpg","86","","","","","","test","TR","4"
"","show_choice","255","430036","0.0-231.0-1.0","""event"",""trial"",""time""
""fullscreenenter"",""0"",""4419""
","
","
","""event"",""trial"",""time""
""fullscreenenter"",""0"",""4419""
","
","null","run_exp/static/images/Set 6_rs/169a.jpg","null","","","","","","test","TR",""
"","html-keyboard-response","256","430538","0.0-231.0-2.0","""event"",""trial"",""time""
""fullscreenenter"",""0"",""4419""
","
","
","""event"",""trial"",""time""
""fullscreenenter"",""0"",""4419""
","
","null","<p></p>","null","","","","","","","",""
"","image","257","431649","0.0-232.0-0.0","""event"",""trial"",""time""
""fullscreenenter"",""0"",""4419""
","
","
","""event"",""trial"",""time""
""fullscreenenter"",""0"",""4419""
","
","1109.0999999046326","run_exp/static/images/Set 6_rs/100a.jpg","78","","","","","","test","TF","2"
"","show_choice","258","432160","0.0-232.0-1.0","""event"",""trial"",""time""
""fullscreenenter"",""0"",""4419""
","
","
","""event"",""trial"",""time""
""fullscreenenter"",""0"",""4419""
","
","null","run_exp/static/images/Set 6_rs/100a.jpg","null","","","","","","test","TF",""
"","html-keyboard-response","259","432673","0.0-232.0-2.0","""event"",""trial"",""time""
""fullscreenenter"",""0"",""4419""
","
","
","""event"",""trial"",""time""
""fullscreenenter"",""0"",""4419""
","
","null","<p></p>","null","","","","","","","",""
"","image","260","434053","0.0-233.0-0.0","""event"",""trial"",""time""
""fullscreenenter"",""0"",""4419""
","
","
","""event"",""trial"",""time""
""fullscreenenter"",""0"",""4419""
","
","1379","run_exp/static/images/Set 6_rs/117b.jpg","66","","","","","","test","TL","5"
"","show_choice","261","434556","0.0-233.0-1.0","""event"",""trial"",""time""
""fullscreenenter"",""0"",""4419""
","
","
","""event"",""trial"",""time""
""fullscreenenter"",""0"",""4419""
","
","null","run_exp/static/images/Set 6_rs/117b.jpg","null","","","","","","test","TL",""
"","html-keyboard-response","262","435072","0.0-233.0-2.0","""event"",""trial"",""time""
""fullscreenenter"",""0"",""4419""
","
","
","""event"",""trial"",""time""
""fullscreenenter"",""0"",""4419""
","
","null","<p></p>","null","","","","","","","",""
"","image","263","436591","0.0-234.0-0.0","""event"",""trial"",""time""
""fullscreenenter"",""0"",""4419""
","
","
","""event"",""trial"",""time""
""fullscreenenter"",""0"",""4419""
","
","1518.7000002861023","run_exp/static/images/Set 6_rs/022a.jpg","78","","","","","","test","TF","4"
"","show_choice","264","437104","0.0-234.0-1.0","""event"",""trial"",""time""
""fullscreenenter"",""0"",""4419""
","
","
","""event"",""trial"",""time""
""fullscreenenter"",""0"",""4419""
","
","null","run_exp/static/images/Set 6_rs/022a.jpg","null","","","","","","test","TF",""
"","html-keyboard-response","265","437605","0.0-234.0-2.0","""event"",""trial"",""time""
""fullscreenenter"",""0"",""4419""
","
","
","""event"",""trial"",""time""
""fullscreenenter"",""0"",""4419""
","
","null","<p></p>","null","","","","","","","",""
"","image","266","438663","0.0-235.0-0.0","""event"",""trial"",""time""
""fullscreenenter"",""0"",""4419""
","
","
","""event"",""trial"",""time""
""fullscreenenter"",""0"",""4419""
","
","1057","run_exp/static/images/Set 6_rs/171a.jpg","66","","","","","","test","TF","1"
"","show_choice","267","439174","0.0-235.0-1.0","""event"",""trial"",""time""
""fullscreenenter"",""0"",""4419""
","
","
","""event"",""trial"",""time""
""fullscreenenter"",""0"",""4419""
","
","null","run_exp/static/images/Set 6_rs/171a.jpg","null","","","","","","test","TF",""
"","html-keyboard-response","268","439675","0.0-235.0-2.0","""event"",""trial"",""time""
""fullscreenenter"",""0"",""4419""
","
","
","""event"",""trial"",""time""
""fullscreenenter"",""0"",""4419""
","
","null","<p></p>","null","","","","","","","",""
"","image","269","440644","0.0-236.0-0.0","""event"",""trial"",""time""
""fullscreenenter"",""0"",""4419""
","
","
","""event"",""trial"",""time""
""fullscreenenter"",""0"",""4419""
","
","967.5","run_exp/static/images/Set 6_rs/134a.jpg","86","","","","","","test","TR","3"
"","show_choice","270","441155","0.0-236.0-1.0","""event"",""trial"",""time""
""fullscreenenter"",""0"",""4419""
","
","
","""event"",""trial"",""time""
""fullscreenenter"",""0"",""4419""
","
","null","run_exp/static/images/Set 6_rs/134a.jpg","null","","","","","","test","TR",""
"","html-keyboard-response","271","441668","0.0-236.0-2.0","""event"",""trial"",""time""
""fullscreenenter"",""0"",""4419""
","
","
","""event"",""trial"",""time""
""fullscreenenter"",""0"",""4419""
","
","null","<p></p>","null","","","","","","","",""
"","image","272","442444","0.0-237.0-0.0","""event"",""trial"",""time""
""fullscreenenter"",""0"",""4419""
","
","
","""event"",""trial"",""time""
""fullscreenenter"",""0"",""4419""
","
","774.3999996185303","run_exp/static/images/Set 6_rs/078a.jpg","86","","","","","","test","TF","1"
"","show_choice","273","442960","0.0-237.0-1.0","""event"",""trial"",""time""
""fullscreenenter"",""0"",""4419""
","
","
","""event"",""trial"",""time""
""fullscreenenter"",""0"",""4419""
","
","null","run_exp/static/images/Set 6_rs/078a.jpg","null","","","","","","test","TF",""
"","html-keyboard-response","274","443474","0.0-237.0-2.0","""event"",""trial"",""time""
""fullscreenenter"",""0"",""4419""
","
","
","""event"",""trial"",""time""
""fullscreenenter"",""0"",""4419""
","
","null","<p></p>","null","","","","","","","",""
"","image","275","444074","0.0-238.0-0.0","""event"",""trial"",""time""
""fullscreenenter"",""0"",""4419""
","
","
","""event"",""trial"",""time""
""fullscreenenter"",""0"",""4419""
","
","598.2999997138977","run_exp/static/images/Set 6_rs/088a.jpg","86","","","","","","test","TR","2"
"","show_choice","276","444581","0.0-238.0-1.0","""event"",""trial"",""time""
""fullscreenenter"",""0"",""4419""
","
","
","""event"",""trial"",""time""
""fullscreenenter"",""0"",""4419""
","
","null","run_exp/static/images/Set 6_rs/088a.jpg","null","","","","","","test","TR",""
"","html-keyboard-response","277","445095","0.0-238.0-2.0","""event"",""trial"",""time""
""fullscreenenter"",""0"",""4419""
","
","
","""event"",""trial"",""time""
""fullscreenenter"",""0"",""4419""
","
","null","<p></p>","null","","","","","","","",""
"","image","278","446173","0.0-239.0-0.0","""event"",""trial"",""time""
""fullscreenenter"",""0"",""4419""
","
","
","""event"",""trial"",""time""
""fullscreenenter"",""0"",""4419""
","
","1076.4000000953674","run_exp/static/images/Set 6_rs/056a.jpg","66","","","","","","test","TF","3"
"","show_choice","279","446683","0.0-239.0-1.0","""event"",""trial"",""time""
""fullscreenenter"",""0"",""4419""
","
","
","""event"",""trial"",""time""
""fullscreenenter"",""0"",""4419""
","
","null","run_exp/static/images/Set 6_rs/056a.jpg","null","","","","","","test","TF",""
"","html-keyboard-response","280","447197","0.0-239.0-2.0","""event"",""trial"",""time""
""fullscreenenter"",""0"",""4419""
","
","
","""event"",""trial"",""time""
""fullscreenenter"",""0"",""4419""
","
","null","<p></p>","null","","","","","","","",""
"","image","281","448001","0.0-240.0-0.0","""event"",""trial"",""time""
""fullscreenenter"",""0"",""4419""
","
","
","""event"",""trial"",""time""
""fullscreenenter"",""0"",""4419""
","
","802.5","run_exp/static/images/Set 6_rs/063a.jpg","86","","","","","","test","TR","2"
"","show_choice","282","448506","0.0-240.0-1.0","""event"",""trial"",""time""
""fullscreenenter"",""0"",""4419""
","
","
","""event"",""trial"",""time""
""fullscreenenter"",""0"",""4419""
","
","null","run_exp/static/images/Set 6_rs/063a.jpg","null","","","","","","test","TR",""
"","html-keyboard-response","283","449019","0.0-240.0-2.0","""event"",""trial"",""time""
""fullscreenenter"",""0"",""4419""
","
","
","""event"",""trial"",""time""
""fullscreenenter"",""0"",""4419""
","
","null","<p></p>","null","","","","","","","",""
"","image","284","449954","0.0-241.0-0.0","""event"",""trial"",""time""
""fullscreenenter"",""0"",""4419""
","
","
","""event"",""trial"",""time""
""fullscreenenter"",""0"",""4419""
","
","932.5","run_exp/static/images/Set 6_rs/141a.jpg","86","","","","","","test","TR","2"
"","show_choice","285","450456","0.0-241.0-1.0","""event"",""trial"",""time""
""fullscreenenter"",""0"",""4419""
","
","
","""event"",""trial"",""time""
""fullscreenenter"",""0"",""4419""
","
","null","run_exp/static/images/Set 6_rs/141a.jpg","null","","","","","","test","TR",""
"","html-keyboard-response","286","450971","0.0-241.0-2.0","""event"",""trial"",""time""
""fullscreenenter"",""0"",""4419""
","
","
","""event"",""trial"",""time""
""fullscreenenter"",""0"",""4419""
","
","null","<p></p>","null","","","","","","","",""
"","image","287","451650","0.0-242.0-0.0","""event"",""trial"",""time""
""fullscreenenter"",""0"",""4419""
","
","
","""event"",""trial"",""time""
""fullscreenenter"",""0"",""4419""
","
","677.3000001907349","run_exp/static/images/Set 6_rs/181b.jpg","86","","","","","","test","TL","1"
"","show_choice","288","452152","0.0-242.0-1.0","""event"",""trial"",""time""
""fullscreenenter"",""0"",""4419""
","
","
","""event"",""trial"",""time""
""fullscreenenter"",""0"",""4419""
","
","null","run_exp/static/images/Set 6_rs/181b.jpg","null","","","","","","test","TL",""
"","html-keyboard-response","289","452654","0.0-242.0-2.0","""event"",""trial"",""time""
""fullscreenenter"",""0"",""4419""
","
","
","""event"",""trial"",""time""
""fullscreenenter"",""0"",""4419""
","
","null","<p></p>","null","","","","","","","",""
"","image","290","453315","0.0-243.0-0.0","""event"",""trial"",""time""
""fullscreenenter"",""0"",""4419""
","
","
","""event"",""trial"",""time""
""fullscreenenter"",""0"",""4419""
","
","659.3000001907349","run_exp/static/images/Set 6_rs/064a.jpg","86","","","","","","test","TR","5"
"","show_choice","291","453823","0.0-243.0-1.0","""event"",""trial"",""time""
""fullscreenenter"",""0"",""4419""
","
","
","""event"",""trial"",""time""
""fullscreenenter"",""0"",""4419""
","
","null","run_exp/static/images/Set 6_rs/064a.jpg","null","","","","","","test","TR",""
"","html-keyboard-response","292","454337","0.0-243.0-2.0","""event"",""trial"",""time""
""fullscreenenter"",""0"",""4419""
","
","
","""event"",""trial"",""time""
""fullscreenenter"",""0"",""4419""
","
","null","<p></p>","null","","","","","","","",""
"","image","293","455321","0.0-244.0-0.0","""event"",""trial"",""time""
""fullscreenenter"",""0"",""4419""
","
","
","""event"",""trial"",""time""
""fullscreenenter"",""0"",""4419""
","
","982.3000001907349","run_exp/static/images/Set 6_rs/048a.jpg","66","","","","","","test","TF","4"
"","show_choice","294","455833","0.0-244.0-1.0","""event"",""trial"",""time""
""fullscreenenter"",""0"",""4419""
","
","
","""event"",""trial"",""time""
""fullscreenenter"",""0"",""4419""
","
","null","run_exp/static/images/Set 6_rs/048a.jpg","null","","","","","","test","TF",""
"","html-keyboard-response","295","456346","0.0-244.0-2.0","""event"",""trial"",""time""
""fullscreenenter"",""0"",""4419""
","
","
","""event"",""trial"",""time""
""fullscreenenter"",""0"",""4419""
","
","null","<p></p>","null","","","","","","","",""
"","image","296","457257","0.0-245.0-0.0","""event"",""trial"",""time""
""fullscreenenter"",""0"",""4419""
","
","
","""event"",""trial"",""time""
""fullscreenenter"",""0"",""4419""
","
","909.1999998092651","run_exp/static/images/Set 6_rs/122a.jpg","86","","","","","","test","TR","5"
"","show_choice","297","457766","0.0-245.0-1.0","""event"",""trial"",""time""
""fullscreenenter"",""0"",""4419""
","
","
","""event"",""trial"",""time""
""fullscreenenter"",""0"",""4419""
","
","null","run_exp/static/images/Set 6_rs/122a.jpg","null","","","","","","test","TR",""
"","html-keyboard-response","298","458281","0.0-245.0-2.0","""event"",""trial"",""time""
""fullscreenenter"",""0"",""4419""
","
","
","""event"",""trial"",""time""
""fullscreenenter"",""0"",""4419""
","
","null","<p></p>","null","","","","","","","",""
"","image","299","459233","0.0-246.0-0.0","""event"",""trial"",""time""
""fullscreenenter"",""0"",""4419""
","
","
","""event"",""trial"",""time""
""fullscreenenter"",""0"",""4419""
","
","950","run_exp/static/images/Set 6_rs/005a.jpg","78","","","","","","test","TF","5"
"","show_choice","300","459744","0.0-246.0-1.0","""event"",""trial"",""time""
""fullscreenenter"",""0"",""4419""
","
","
","""event"",""trial"",""time""
""fullscreenenter"",""0"",""4419""
","
","null","run_exp/static/images/Set 6_rs/005a.jpg","null","","","","","","test","TF",""
"","html-keyboard-response","301","460257","0.0-246.0-2.0","""event"",""trial"",""time""
""fullscreenenter"",""0"",""4419""
","
","
","""event"",""trial"",""time""
""fullscreenenter"",""0"",""4419""
","
","null","<p></p>","null","","","","","","","",""
"","image","302","461033","0.0-247.0-0.0","""event"",""trial"",""time""
""fullscreenenter"",""0"",""4419""
","
","
","""event"",""trial"",""time""
""fullscreenenter"",""0"",""4419""
","
","774.6000003814697","run_exp/static/images/Set 6_rs/123b.jpg","86","","","","","","test","TL","2"
"","show_choice","303","461534","0.0-247.0-1.0","""event"",""trial"",""time""
""fullscreenenter"",""0"",""4419""
","
","
","""event"",""trial"",""time""
""fullscreenenter"",""0"",""4419""
","
","null","run_exp/static/images/Set 6_rs/123b.jpg","null","","","","","","test","TL",""
"","html-keyboard-response","304","462050","0.0-247.0-2.0","""event"",""trial"",""time""
""fullscreenenter"",""0"",""4419""
","
","
","""event"",""trial"",""time""
""fullscreenenter"",""0"",""4419""
","
","null","<p></p>","null","","","","","","","",""
"","image","305","462778","0.0-248.0-0.0","""event"",""trial"",""time""
""fullscreenenter"",""0"",""4419""
","
","
","""event"",""trial"",""time""
""fullscreenenter"",""0"",""4419""
","
","726.5","run_exp/static/images/Set 6_rs/186a.jpg","86","","","","","","test","TR","5"
"","show_choice","306","463294","0.0-248.0-1.0","""event"",""trial"",""time""
""fullscreenenter"",""0"",""4419""
","
","
","""event"",""trial"",""time""
""fullscreenenter"",""0"",""4419""
","
","null","run_exp/static/images/Set 6_rs/186a.jpg","null","","","","","","test","TR",""
"","html-keyboard-response","307","463807","0.0-248.0-2.0","""event"",""trial"",""time""
""fullscreenenter"",""0"",""4419""
","
","
","""event"",""trial"",""time""
""fullscreenenter"",""0"",""4419""
","
","null","<p></p>","null","","","","","","","",""
"","image","308","464969","0.0-249.0-0.0","""event"",""trial"",""time""
""fullscreenenter"",""0"",""4419""
","
","
","""event"",""trial"",""time""
""fullscreenenter"",""0"",""4419""
","
","1161.2999997138977","run_exp/static/images/Set 6_rs/112a.jpg","66","","","","","","test","TR","5"
"","show_choice","309","465474","0.0-249.0-1.0","""event"",""trial"",""time""
""fullscreenenter"",""0"",""4419""
","
","
","""event"",""trial"",""time""
""fullscreenenter"",""0"",""4419""
","
","null","run_exp/static/images/Set 6_rs/112a.jpg","null","","","","","","test","TR",""
"","html-keyboard-response","310","465990","0.0-249.0-2.0","""event"",""trial"",""time""
""fullscreenenter"",""0"",""4419""
","
","
","""event"",""trial"",""time""
""fullscreenenter"",""0"",""4419""
","
","null","<p></p>","null","","","","","","","",""
"","image","311","467177","0.0-250.0-0.0","""event"",""trial"",""time""
""fullscreenenter"",""0"",""4419""
","
","
","""event"",""trial"",""time""
""fullscreenenter"",""0"",""4419""
","
","1186.3000001907349","run_exp/static/images/Set 6_rs/176a.jpg","78","","","","","","test","TF","4"
"","show_choice","312","467689","0.0-250.0-1.0","""event"",""trial"",""time""
""fullscreenenter"",""0"",""4419""
","
","
","""event"",""trial"",""time""
""fullscreenenter"",""0"",""4419""
","
","null","run_exp/static/images/Set 6_rs/176a.jpg","null","","","","","","test","TF",""
"","html-keyboard-response","313","468203","0.0-250.0-2.0","""event"",""trial"",""time""
""fullscreenenter"",""0"",""4419""
","
","
","""event"",""trial"",""time""
""fullscreenenter"",""0"",""4419""
","
","null","<p></p>","null","","","","","","","",""
"","image","314","468904","0.0-251.0-0.0","""event"",""trial"",""time""
""fullscreenenter"",""0"",""4419""
","
","
","""event"",""trial"",""time""
""fullscreenenter"",""0"",""4419""
","
","699.4000000953674","run_exp/static/images/Set 6_rs/007a.jpg","86","","","","","","test","TR","3"
"","show_choice","315","469408","0.0-251.0-1.0","""event"",""trial"",""time""
""fullscreenenter"",""0"",""4419""
","
","
","""event"",""trial"",""time""
""fullscreenenter"",""0"",""4419""
","
","null","run_exp/static/images/Set 6_rs/007a.jpg","null","","","","","","test","TR",""
"","html-keyboard-response","316","469921","0.0-251.0-2.0","""event"",""trial"",""time""
""fullscreenenter"",""0"",""4419""
","
","
","""event"",""trial"",""time""
""fullscreenenter"",""0"",""4419""
","
","null","<p></p>","null","","","","","","","",""
"","image","317","470866","0.0-252.0-0.0","""event"",""trial"",""time""
""fullscreenenter"",""0"",""4419""
","
","
","""event"",""trial"",""time""
""fullscreenenter"",""0"",""4419""
","
","944","run_exp/static/images/Set 6_rs/017b.jpg","86","","","","","","test","TL","3"
"","show_choice","318","471368","0.0-252.0-1.0","""event"",""trial"",""time""
""fullscreenenter"",""0"",""4419""
","
","
","""event"",""trial"",""time""
""fullscreenenter"",""0"",""4419""
","
","null","run_exp/static/images/Set 6_rs/017b.jpg","null","","","","","","test","TL",""
"","html-keyboard-response","319","471882","0.0-252.0-2.0","""event"",""trial"",""time""
""fullscreenenter"",""0"",""4419""
","
","
","""event"",""trial"",""time""
""fullscreenenter"",""0"",""4419""
","
","null","<p></p>","null","","","","","","","",""
"","image","320","472932","0.0-253.0-0.0","""event"",""trial"",""time""
""fullscreenenter"",""0"",""4419""
","
","
","""event"",""trial"",""time""
""fullscreenenter"",""0"",""4419""
","
","1048.5","run_exp/static/images/Set 6_rs/074b.jpg","86","","","","","","test","TL","4"
"","show_choice","321","473435","0.0-253.0-1.0","""event"",""trial"",""time""
""fullscreenenter"",""0"",""4419""
","
","
","""event"",""trial"",""time""
""fullscreenenter"",""0"",""4419""
","
","null","run_exp/static/images/Set 6_rs/074b.jpg","null","","","","","","test","TL",""
"","html-keyboard-response","322","473950","0.0-253.0-2.0","""event"",""trial"",""time""
""fullscreenenter"",""0"",""4419""
","
","
","""event"",""trial"",""time""
""fullscreenenter"",""0"",""4419""
","
","null","<p></p>","null","","","","","","","",""
"","image","323","474643","0.0-254.0-0.0","""event"",""trial"",""time""
""fullscreenenter"",""0"",""4419""
","
","
","""event"",""trial"",""time""
""fullscreenenter"",""0"",""4419""
","
","691.2000002861023","run_exp/static/images/Set 6_rs/055b.jpg","86","","","","","","test","TL","4"
"","show_choice","324","475147","0.0-254.0-1.0","""event"",""trial"",""time""
""fullscreenenter"",""0"",""4419""
","
","
","""event"",""trial"",""time""
""fullscreenenter"",""0"",""4419""
","
","null","run_exp/static/images/Set 6_rs/055b.jpg","null","","","","","","test","TL",""
"","html-keyboard-response","325","475662","0.0-254.0-2.0","""event"",""trial"",""time""
""fullscreenenter"",""0"",""4419""
","
","
","""event"",""trial"",""time""
""fullscreenenter"",""0"",""4419""
","
","null","<p></p>","null","","","","","","","",""
"","image","326","476644","0.0-255.0-0.0","""event"",""trial"",""time""
""fullscreenenter"",""0"",""4419""
","
","
","""event"",""trial"",""time""
""fullscreenenter"",""0"",""4419""
","
","980.6999998092651","run_exp/static/images/Set 6_rs/172a.jpg","78","","","","","","test","TR","1"
"","show_choice","327","477156","0.0-255.0-1.0","""event"",""trial"",""time""
""fullscreenenter"",""0"",""4419""
","
","
","""event"",""trial"",""time""
""fullscreenenter"",""0"",""4419""
","
","null","run_exp/static/images/Set 6_rs/172a.jpg","null","","","","","","test","TR",""
"","html-keyboard-response","328","477669","0.0-255.0-2.0","""event"",""trial"",""time""
""fullscreenenter"",""0"",""4419""
","
","
","""event"",""trial"",""time""
""fullscreenenter"",""0"",""4419""
","
","null","<p></p>","null","","","","","","","",""
"","image","329","478510","0.0-256.0-0.0","""event"",""trial"",""time""
""fullscreenenter"",""0"",""4419""
","
","
","""event"",""trial"",""time""
""fullscreenenter"",""0"",""4419""
","
","839.8000001907349","run_exp/static/images/Set 6_rs/152a.jpg","86","","","","","","test","TR","2"
"","show_choice","330","479022","0.0-256.0-1.0","""event"",""trial"",""time""
""fullscreenenter"",""0"",""4419""
","
","
","""event"",""trial"",""time""
""fullscreenenter"",""0"",""4419""
","
","null","run_exp/static/images/Set 6_rs/152a.jpg","null","","","","","","test","TR",""
"","html-keyboard-response","331","479536","0.0-256.0-2.0","""event"",""trial"",""time""
""fullscreenenter"",""0"",""4419""
","
","
","""event"",""trial"",""time""
""fullscreenenter"",""0"",""4419""
","
","null","<p></p>","null","","","","","","","",""
"","image","332","480476","0.0-257.0-0.0","""event"",""trial"",""time""
""fullscreenenter"",""0"",""4419""
","
","
","""event"",""trial"",""time""
""fullscreenenter"",""0"",""4419""
","
","938","run_exp/static/images/Set 6_rs/010a.jpg","86","","","","","","test","TR","5"
"","show_choice","333","480989","0.0-257.0-1.0","""event"",""trial"",""time""
""fullscreenenter"",""0"",""4419""
","
","
","""event"",""trial"",""time""
""fullscreenenter"",""0"",""4419""
","
","null","run_exp/static/images/Set 6_rs/010a.jpg","null","","","","","","test","TR",""
"","html-keyboard-response","334","481504","0.0-257.0-2.0","""event"",""trial"",""time""
""fullscreenenter"",""0"",""4419""
","
","
","""event"",""trial"",""time""
""fullscreenenter"",""0"",""4419""
","
","null","<p></p>","null","","","","","","","",""
"","image","335","482207","0.0-258.0-0.0","""event"",""trial"",""time""
""fullscreenenter"",""0"",""4419""
","
","
","""event"",""trial"",""time""
""fullscreenenter"",""0"",""4419""
","
","702.1000003814697","run_exp/static/images/Set 6_rs/121a.jpg","86","","","","","","test","TR","4"
"","show_choice","336","482719","0.0-258.0-1.0","""event"",""trial"",""time""
""fullscreenenter"",""0"",""4419""
","
","
","""event"",""trial"",""time""
""fullscreenenter"",""0"",""4419""
","
","null","run_exp/static/images/Set 6_rs/121a.jpg","null","","","","","","test","TR",""
"","html-keyboard-response","337","483220","0.0-258.0-2.0","""event"",""trial"",""time""
""fullscreenenter"",""0"",""4419""
","
","
","""event"",""trial"",""time""
""fullscreenenter"",""0"",""4419""
","
","null","<p></p>","null","","","","","","","",""
