"success","trial_type","trial_index","time_elapsed","internal_node_id","interactions","blur_events","focus_events","fullscreenenter_events","fullscreenexit_events","rt","stimulus","key_press","subject_id","participant_id","age","gender","prompt","phase","condition","lure_bin"
"true","fullscreen","0","4836","0.0-0.0","""event"",""trial"",""time""
""fullscreenenter"",""0"",""3850""
","
","
","""event"",""trial"",""time""
""fullscreenenter"",""0"",""3850""
","
","","","","","","","","","","",""
"","pavlovia","1","4838","0.0-1.0","""event"",""trial"",""time""
""fullscreenenter"",""0"",""3850""
","
","
","""event"",""trial"",""time""
""fullscreenenter"",""0"",""3850""
","
","","","","","","","","","","",""
"","welcome","2","39614","0.0-2.0","""event"",""trial"",""time""
""fullscreenenter"",""0"",""3850""
","
","
","""event"",""trial"",""time""
""fullscreenenter"",""0"",""3850""
","
","null","run_exp/static/audio/clip_1_welcome.m4a","null","639","787","22","Female","<div class='center'><p>Welcome to the third part of the study! First, you'll be shown pictures of items one at a time. For each picture, you have to decide if the item is typically found indoors or outdoors.</p><p>If you think it's usually found indoors, then press <b>v</b> key on your keyboard. If you think it's usually found outdoors, then press the <b>n</b> key.There will be reminders on the screen to help you remember which keys to press. </p><p>If you're not sure whether the item is an indoor item or an outdoor item, go ahead and take a guess but try your best not to skip that choice. </p></div>","","",""
"","html-keyboard-response","3","41177","0.0-3.0","""event"",""trial"",""time""
""fullscreenenter"",""0"",""3850""
","
","
","""event"",""trial"",""time""
""fullscreenenter"",""0"",""3850""
","
","1561","<div class='center'><p>Welcome to the third part of the study! First, you'll be shown pictures of items one at a time. For each picture, you have to decide if the item is typically found indoors or outdoors.</p><p>If you think it's usually found indoors, then press <b>v</b> key on your keyboard. If you think it's usually found outdoors, then press the <b>n</b> key.There will be reminders on the screen to help you remember which keys to press. </p><p>If you're not sure whether the item is an indoor item or an outdoor item, go ahead and take a guess but try your best not to skip that choice. </p><div><p><b>[Press the space bar to continue]</b></p></div>","32","","","","","","","",""
"","image","4","42301","0.0-4.0","""event"",""trial"",""time""
""fullscreenenter"",""0"",""3850""
","
","
","""event"",""trial"",""time""
""fullscreenenter"",""0"",""3850""
","
","1122.5999999046326","run_exp/static/images/Set 6_rs/025a.jpg","86","","","","","","learn","SL",""
"","show_choice","5","43183","0.0-5.0","""event"",""trial"",""time""
""fullscreenenter"",""0"",""3850""
","
","
","""event"",""trial"",""time""
""fullscreenenter"",""0"",""3850""
","
","null","run_exp/static/images/Set 6_rs/025a.jpg","null","","","","","","learn","SL",""
"","html-keyboard-response","6","43703","0.0-6.0","""event"",""trial"",""time""
""fullscreenenter"",""0"",""3850""
","
","
","""event"",""trial"",""time""
""fullscreenenter"",""0"",""3850""
","
","null","<p></p>","null","","","","","","","",""
"","image","7","44912","0.0-7.0","""event"",""trial"",""time""
""fullscreenenter"",""0"",""3850""
","
","
","""event"",""trial"",""time""
""fullscreenenter"",""0"",""3850""
","
","1208.3000000715256","run_exp/static/images/Set 6_rs/010a.jpg","86","","","","","","learn","SR",""
"","show_choice","8","45713","0.0-8.0","""event"",""trial"",""time""
""fullscreenenter"",""0"",""3850""
","
","
","""event"",""trial"",""time""
""fullscreenenter"",""0"",""3850""
","
","null","run_exp/static/images/Set 6_rs/010a.jpg","null","","","","","","learn","SR",""
"","html-keyboard-response","9","46233","0.0-9.0","""event"",""trial"",""time""
""fullscreenenter"",""0"",""3850""
","
","
","""event"",""trial"",""time""
""fullscreenenter"",""0"",""3850""
","
","null","<p></p>","null","","","","","","","",""
"","image","10","47507","0.0-10.0","""event"",""trial"",""time""
""fullscreenenter"",""0"",""3850""
","
","
","""event"",""trial"",""time""
""fullscreenenter"",""0"",""3850""
","
","1272.8999999761581","run_exp/static/images/Set 6_rs/141a.jpg","78","","","","","","learn","SR",""
"","show_choice","11","48253","0.0-11.0","""event"",""trial"",""time""
""fullscreenenter"",""0"",""3850""
","
","
","""event"",""trial"",""time""
""fullscreenenter"",""0"",""3850""
","
","null","run_exp/static/images/Set 6_rs/141a.jpg","null","","","","","","learn","SR",""
"","html-keyboard-response","12","48762","0.0-12.0","""event"",""trial"",""time""
""fullscreenenter"",""0"",""3850""
","
","
","""event"",""trial"",""time""
""fullscreenenter"",""0"",""3850""
","
","null","<p></p>","null","","","","","","","",""
"","image","13","49973","0.0-13.0","""event"",""trial"",""time""
""fullscreenenter"",""0"",""3850""
","
","
","""event"",""trial"",""time""
""fullscreenenter"",""0"",""3850""
","
","1209.2000000476837","run_exp/static/images/Set 6_rs/178a.jpg","78","","","","","","learn","SR",""
"","show_choice","14","50780","0.0-14.0","""event"",""trial"",""time""
""fullscreenenter"",""0"",""3850""
","
","
","""event"",""trial"",""time""
""fullscreenenter"",""0"",""3850""
","
","null","run_exp/static/images/Set 6_rs/178a.jpg","null","","","","","","learn","SR",""
"","html-keyboard-response","15","51289","0.0-15.0","""event"",""trial"",""time""
""fullscreenenter"",""0"",""3850""
","
","
","""event"",""trial"",""time""
""fullscreenenter"",""0"",""3850""
","
","null","<p></p>","null","","","","","","","",""
"","image","16","51993","0.0-16.0","""event"",""trial"",""time""
""fullscreenenter"",""0"",""3850""
","
","
","""event"",""trial"",""time""
""fullscreenenter"",""0"",""3850""
","
","702.8000000715256","run_exp/static/images/Set 6_rs/079a.jpg","86","","","","","","learn","SL",""
"","show_choice","17","53293","0.0-17.0","""event"",""trial"",""time""
""fullscreenenter"",""0"",""3850""
","
","
","""event"",""trial"",""time""
""fullscreenenter"",""0"",""3850""
","
","null","run_exp/static/images/Set 6_rs/079a.jpg","null","","","","","","learn","SL",""
"","html-keyboard-response","18","53807","0.0-18.0","""event"",""trial"",""time""
""fullscreenenter"",""0"",""3850""
","
","
","""event"",""trial"",""time""
""fullscreenenter"",""0"",""3850""
","
","null","<p></p>","null","","","","","","","",""
"","image","19","55138","0.0-19.0","""event"",""trial"",""time""
""fullscreenenter"",""0"",""3850""
","
","
","""event"",""trial"",""time""
""fullscreenenter"",""0"",""3850""
","
","1330.1000000238419","run_exp/static/images/Set 6_rs/091a.jpg","78","","","","","","learn","SL",""
"","show_choice","20","55819","0.0-20.0","""event"",""trial"",""time""
""fullscreenenter"",""0"",""3850""
","
","
","""event"",""trial"",""time""
""fullscreenenter"",""0"",""3850""
","
","null","run_exp/static/images/Set 6_rs/091a.jpg","null","","","","","","learn","SL",""
"","html-keyboard-response","21","56322","0.0-21.0","""event"",""trial"",""time""
""fullscreenenter"",""0"",""3850""
","
","
","""event"",""trial"",""time""
""fullscreenenter"",""0"",""3850""
","
","null","<p></p>","null","","","","","","","",""
"","image","22","57293","0.0-22.0","""event"",""trial"",""time""
""fullscreenenter"",""0"",""3850""
","
","
","""event"",""trial"",""time""
""fullscreenenter"",""0"",""3850""
","
","968.1000000238419","run_exp/static/images/Set 6_rs/023a.jpg","86","","","","","","learn","SR",""
"","show_choice","23","58330","0.0-23.0","""event"",""trial"",""time""
""fullscreenenter"",""0"",""3850""
","
","
","""event"",""trial"",""time""
""fullscreenenter"",""0"",""3850""
","
","null","run_exp/static/images/Set 6_rs/023a.jpg","null","","","","","","learn","SR",""
"","html-keyboard-response","24","58841","0.0-24.0","""event"",""trial"",""time""
""fullscreenenter"",""0"",""3850""
","
","
","""event"",""trial"",""time""
""fullscreenenter"",""0"",""3850""
","
","null","<p></p>","null","","","","","","","",""
"","image","25","59948","0.0-25.0","""event"",""trial"",""time""
""fullscreenenter"",""0"",""3850""
","
","
","""event"",""trial"",""time""
""fullscreenenter"",""0"",""3850""
","
","1105.8999999761581","run_exp/static/images/Set 6_rs/062a.jpg","86","","","","","","learn","SL",""
"","show_choice","26","60857","0.0-26.0","""event"",""trial"",""time""
""fullscreenenter"",""0"",""3850""
","
","
","""event"",""trial"",""time""
""fullscreenenter"",""0"",""3850""
","
","null","run_exp/static/images/Set 6_rs/062a.jpg","null","","","","","","learn","SL",""
"","html-keyboard-response","27","61360","0.0-27.0","""event"",""trial"",""time""
""fullscreenenter"",""0"",""3850""
","
","
","""event"",""trial"",""time""
""fullscreenenter"",""0"",""3850""
","
","null","<p></p>","null","","","","","","","",""
"","image","28","62079","0.0-28.0","""event"",""trial"",""time""
""fullscreenenter"",""0"",""3850""
","
","
","""event"",""trial"",""time""
""fullscreenenter"",""0"",""3850""
","
","717.8999999761581","run_exp/static/images/Set 6_rs/095a.jpg","86","","","","","","learn","SL",""
"","show_choice","29","63372","0.0-29.0","""event"",""trial"",""time""
""fullscreenenter"",""0"",""3850""
","
","
","""event"",""trial"",""time""
""fullscreenenter"",""0"",""3850""
","
","null","run_exp/static/images/Set 6_rs/095a.jpg","null","","","","","","learn","SL",""
"","html-keyboard-response","30","63876","0.0-30.0","""event"",""trial"",""time""
""fullscreenenter"",""0"",""3850""
","
","
","""event"",""trial"",""time""
""fullscreenenter"",""0"",""3850""
","
","null","<p></p>","null","","","","","","","",""
"","image","31","64787","0.0-31.0","""event"",""trial"",""time""
""fullscreenenter"",""0"",""3850""
","
","
","""event"",""trial"",""time""
""fullscreenenter"",""0"",""3850""
","
","910.2000000476837","run_exp/static/images/Set 6_rs/063a.jpg","86","","","","","","learn","SR",""
"","show_choice","32","65885","0.0-32.0","""event"",""trial"",""time""
""fullscreenenter"",""0"",""3850""
","
","
","""event"",""trial"",""time""
""fullscreenenter"",""0"",""3850""
","
","null","run_exp/static/images/Set 6_rs/063a.jpg","null","","","","","","learn","SR",""
"","html-keyboard-response","33","66389","0.0-33.0","""event"",""trial"",""time""
""fullscreenenter"",""0"",""3850""
","
","
","""event"",""trial"",""time""
""fullscreenenter"",""0"",""3850""
","
","null","<p></p>","null","","","","","","","",""
"","image","34","67416","0.0-34.0","""event"",""trial"",""time""
""fullscreenenter"",""0"",""3850""
","
","
","""event"",""trial"",""time""
""fullscreenenter"",""0"",""3850""
","
","1025.5","run_exp/static/images/Set 6_rs/061a.jpg","78","","","","","","learn","SR",""
"","show_choice","35","68406","0.0-35.0","""event"",""trial"",""time""
""fullscreenenter"",""0"",""3850""
","
","
","""event"",""trial"",""time""
""fullscreenenter"",""0"",""3850""
","
","null","run_exp/static/images/Set 6_rs/061a.jpg","null","","","","","","learn","SR",""
"","html-keyboard-response","36","68909","0.0-36.0","""event"",""trial"",""time""
""fullscreenenter"",""0"",""3850""
","
","
","""event"",""trial"",""time""
""fullscreenenter"",""0"",""3850""
","
","null","<p></p>","null","","","","","","","",""
"","image","37","69986","0.0-37.0","""event"",""trial"",""time""
""fullscreenenter"",""0"",""3850""
","
","
","""event"",""trial"",""time""
""fullscreenenter"",""0"",""3850""
","
","1075.7000000476837","run_exp/static/images/Set 6_rs/116a.jpg","78","","","","","","learn","SL",""
"","show_choice","38","70926","0.0-38.0","""event"",""trial"",""time""
""fullscreenenter"",""0"",""3850""
","
","
","""event"",""trial"",""time""
""fullscreenenter"",""0"",""3850""
","
","null","run_exp/static/images/Set 6_rs/116a.jpg","null","","","","","","learn","SL",""
"","html-keyboard-response","39","71437","0.0-39.0","""event"",""trial"",""time""
""fullscreenenter"",""0"",""3850""
","
","
","""event"",""trial"",""time""
""fullscreenenter"",""0"",""3850""
","
","null","<p></p>","null","","","","","","","",""
"","image","40","72155","0.0-40.0","""event"",""trial"",""time""
""fullscreenenter"",""0"",""3850""
","
","
","""event"",""trial"",""time""
""fullscreenenter"",""0"",""3850""
","
","717.5","run_exp/static/images/Set 6_rs/112a.jpg","86","","","","","","learn","SR",""
"","show_choice","41","73439","0.0-41.0","""event"",""trial"",""time""
""fullscreenenter"",""0"",""3850""
","
","
","""event"",""trial"",""time""
""fullscreenenter"",""0"",""3850""
","
","null","run_exp/static/images/Set 6_rs/112a.jpg","null","","","","","","learn","SR",""
"","html-keyboard-response","42","73941","0.0-42.0","""event"",""trial"",""time""
""fullscreenenter"",""0"",""3850""
","
","
","""event"",""trial"",""time""
""fullscreenenter"",""0"",""3850""
","
","null","<p></p>","null","","","","","","","",""
"","image","43","74713","0.0-43.0","""event"",""trial"",""time""
""fullscreenenter"",""0"",""3850""
","
","
","""event"",""trial"",""time""
""fullscreenenter"",""0"",""3850""
","
","770.5","run_exp/static/images/Set 6_rs/154a.jpg","86","","","","","","learn","SR",""
"","show_choice","44","75954","0.0-44.0","""event"",""trial"",""time""
""fullscreenenter"",""0"",""3850""
","
","
","""event"",""trial"",""time""
""fullscreenenter"",""0"",""3850""
","
","null","run_exp/static/images/Set 6_rs/154a.jpg","null","","","","","","learn","SR",""
"","html-keyboard-response","45","76457","0.0-45.0","""event"",""trial"",""time""
""fullscreenenter"",""0"",""3850""
","
","
","""event"",""trial"",""time""
""fullscreenenter"",""0"",""3850""
","
","null","<p></p>","null","","","","","","","",""
"","image","46","77331","0.0-46.0","""event"",""trial"",""time""
""fullscreenenter"",""0"",""3850""
","
","
","""event"",""trial"",""time""
""fullscreenenter"",""0"",""3850""
","
","873.1999999284744","run_exp/static/images/Set 6_rs/019a.jpg","86","","","","","","learn","SL",""
"","show_choice","47","78462","0.0-47.0","""event"",""trial"",""time""
""fullscreenenter"",""0"",""3850""
","
","
","""event"",""trial"",""time""
""fullscreenenter"",""0"",""3850""
","
","null","run_exp/static/images/Set 6_rs/019a.jpg","null","","","","","","learn","SL",""
"","html-keyboard-response","48","78973","0.0-48.0","""event"",""trial"",""time""
""fullscreenenter"",""0"",""3850""
","
","
","""event"",""trial"",""time""
""fullscreenenter"",""0"",""3850""
","
","null","<p></p>","null","","","","","","","",""
"","image","49","79853","0.0-49.0","""event"",""trial"",""time""
""fullscreenenter"",""0"",""3850""
","
","
","""event"",""trial"",""time""
""fullscreenenter"",""0"",""3850""
","
","879.5","run_exp/static/images/Set 6_rs/123a.jpg","78","","","","","","learn","SL",""
"","show_choice","50","80980","0.0-50.0","""event"",""trial"",""time""
""fullscreenenter"",""0"",""3850""
","
","
","""event"",""trial"",""time""
""fullscreenenter"",""0"",""3850""
","
","null","run_exp/static/images/Set 6_rs/123a.jpg","null","","","","","","learn","SL",""
"","html-keyboard-response","51","81491","0.0-51.0","""event"",""trial"",""time""
""fullscreenenter"",""0"",""3850""
","
","
","""event"",""trial"",""time""
""fullscreenenter"",""0"",""3850""
","
","null","<p></p>","null","","","","","","","",""
"","image","52","82296","0.0-52.0","""event"",""trial"",""time""
""fullscreenenter"",""0"",""3850""
","
","
","""event"",""trial"",""time""
""fullscreenenter"",""0"",""3850""
","
","804","run_exp/static/images/Set 6_rs/055a.jpg","86","","","","","","learn","SL",""
"","show_choice","53","83508","0.0-53.0","""event"",""trial"",""time""
""fullscreenenter"",""0"",""3850""
","
","
","""event"",""trial"",""time""
""fullscreenenter"",""0"",""3850""
","
","null","run_exp/static/images/Set 6_rs/055a.jpg","null","","","","","","learn","SL",""
"","html-keyboard-response","54","84011","0.0-54.0","""event"",""trial"",""time""
""fullscreenenter"",""0"",""3850""
","
","
","""event"",""trial"",""time""
""fullscreenenter"",""0"",""3850""
","
","null","<p></p>","null","","","","","","","",""
"","image","55","84784","0.0-55.0","""event"",""trial"",""time""
""fullscreenenter"",""0"",""3850""
","
","
","""event"",""trial"",""time""
""fullscreenenter"",""0"",""3850""
","
","772.5","run_exp/static/images/Set 6_rs/172a.jpg","78","","","","","","learn","SR",""
"","show_choice","56","86013","0.0-56.0","""event"",""trial"",""time""
""fullscreenenter"",""0"",""3850""
","
","
","""event"",""trial"",""time""
""fullscreenenter"",""0"",""3850""
","
","null","run_exp/static/images/Set 6_rs/172a.jpg","null","","","","","","learn","SR",""
"","html-keyboard-response","57","86523","0.0-57.0","""event"",""trial"",""time""
""fullscreenenter"",""0"",""3850""
","
","
","""event"",""trial"",""time""
""fullscreenenter"",""0"",""3850""
","
","null","<p></p>","null","","","","","","","",""
"","image","58","87078","0.0-58.0","""event"",""trial"",""time""
""fullscreenenter"",""0"",""3850""
","
","
","""event"",""trial"",""time""
""fullscreenenter"",""0"",""3850""
","
","553.1000000238419","run_exp/static/images/Set 6_rs/132a.jpg","86","","","","","","learn","SR",""
"","show_choice","59","88534","0.0-59.0","""event"",""trial"",""time""
""fullscreenenter"",""0"",""3850""
","
","
","""event"",""trial"",""time""
""fullscreenenter"",""0"",""3850""
","
","null","run_exp/static/images/Set 6_rs/132a.jpg","null","","","","","","learn","SR",""
"","html-keyboard-response","60","89040","0.0-60.0","""event"",""trial"",""time""
""fullscreenenter"",""0"",""3850""
","
","
","""event"",""trial"",""time""
""fullscreenenter"",""0"",""3850""
","
","null","<p></p>","null","","","","","","","",""
"","image","61","90128","0.0-61.0","""event"",""trial"",""time""
""fullscreenenter"",""0"",""3850""
","
","
","""event"",""trial"",""time""
""fullscreenenter"",""0"",""3850""
","
","1086","run_exp/static/images/Set 6_rs/122a.jpg","86","","","","","","learn","SR",""
"","show_choice","62","91053","0.0-62.0","""event"",""trial"",""time""
""fullscreenenter"",""0"",""3850""
","
","
","""event"",""trial"",""time""
""fullscreenenter"",""0"",""3850""
","
","null","run_exp/static/images/Set 6_rs/122a.jpg","null","","","","","","learn","SR",""
"","html-keyboard-response","63","91558","0.0-63.0","""event"",""trial"",""time""
""fullscreenenter"",""0"",""3850""
","
","
","""event"",""trial"",""time""
""fullscreenenter"",""0"",""3850""
","
","null","<p></p>","null","","","","","","","",""
"","image","64","92495","0.0-64.0","""event"",""trial"",""time""
""fullscreenenter"",""0"",""3850""
","
","
","""event"",""trial"",""time""
""fullscreenenter"",""0"",""3850""
","
","936.3999999761581","run_exp/static/images/Set 6_rs/131a.jpg","86","","","","","","learn","SR",""
"","show_choice","65","93569","0.0-65.0","""event"",""trial"",""time""
""fullscreenenter"",""0"",""3850""
","
","
","""event"",""trial"",""time""
""fullscreenenter"",""0"",""3850""
","
","null","run_exp/static/images/Set 6_rs/131a.jpg","null","","","","","","learn","SR",""
"","html-keyboard-response","66","94075","0.0-66.0","""event"",""trial"",""time""
""fullscreenenter"",""0"",""3850""
","
","
","""event"",""trial"",""time""
""fullscreenenter"",""0"",""3850""
","
","null","<p></p>","null","","","","","","","",""
"","image","67","95047","0.0-67.0","""event"",""trial"",""time""
""fullscreenenter"",""0"",""3850""
","
","
","""event"",""trial"",""time""
""fullscreenenter"",""0"",""3850""
","
","970.3999999761581","run_exp/static/images/Set 6_rs/144a.jpg","86","","","","","","learn","SL",""
"","show_choice","68","96080","0.0-68.0","""event"",""trial"",""time""
""fullscreenenter"",""0"",""3850""
","
","
","""event"",""trial"",""time""
""fullscreenenter"",""0"",""3850""
","
","null","run_exp/static/images/Set 6_rs/144a.jpg","null","","","","","","learn","SL",""
"","html-keyboard-response","69","96584","0.0-69.0","""event"",""trial"",""time""
""fullscreenenter"",""0"",""3850""
","
","
","""event"",""trial"",""time""
""fullscreenenter"",""0"",""3850""
","
","null","<p></p>","null","","","","","","","",""
"","image","70","97369","0.0-70.0","""event"",""trial"",""time""
""fullscreenenter"",""0"",""3850""
","
","
","""event"",""trial"",""time""
""fullscreenenter"",""0"",""3850""
","
","784.2000000476837","run_exp/static/images/Set 6_rs/138a.jpg","78","","","","","","learn","SL",""
"","show_choice","71","98595","0.0-71.0","""event"",""trial"",""time""
""fullscreenenter"",""0"",""3850""
","
","
","""event"",""trial"",""time""
""fullscreenenter"",""0"",""3850""
","
","null","run_exp/static/images/Set 6_rs/138a.jpg","null","","","","","","learn","SL",""
"","html-keyboard-response","72","99097","0.0-72.0","""event"",""trial"",""time""
""fullscreenenter"",""0"",""3850""
","
","
","""event"",""trial"",""time""
""fullscreenenter"",""0"",""3850""
","
","null","<p></p>","null","","","","","","","",""
"","image","73","99931","0.0-73.0","""event"",""trial"",""time""
""fullscreenenter"",""0"",""3850""
","
","
","""event"",""trial"",""time""
""fullscreenenter"",""0"",""3850""
","
","832.3999999761581","run_exp/static/images/Set 6_rs/166a.jpg","86","","","","","","learn","SR",""
"","show_choice","74","101107","0.0-74.0","""event"",""trial"",""time""
""fullscreenenter"",""0"",""3850""
","
","
","""event"",""trial"",""time""
""fullscreenenter"",""0"",""3850""
","
","null","run_exp/static/images/Set 6_rs/166a.jpg","null","","","","","","learn","SR",""
"","html-keyboard-response","75","101612","0.0-75.0","""event"",""trial"",""time""
""fullscreenenter"",""0"",""3850""
","
","
","""event"",""trial"",""time""
""fullscreenenter"",""0"",""3850""
","
","null","<p></p>","null","","","","","","","",""
"","image","76","102290","0.0-76.0","""event"",""trial"",""time""
""fullscreenenter"",""0"",""3850""
","
","
","""event"",""trial"",""time""
""fullscreenenter"",""0"",""3850""
","
","677","run_exp/static/images/Set 6_rs/014a.jpg","86","","","","","","learn","SL",""
"","show_choice","77","103615","0.0-77.0","""event"",""trial"",""time""
""fullscreenenter"",""0"",""3850""
","
","
","""event"",""trial"",""time""
""fullscreenenter"",""0"",""3850""
","
","null","run_exp/static/images/Set 6_rs/014a.jpg","null","","","","","","learn","SL",""
"","html-keyboard-response","78","104117","0.0-78.0","""event"",""trial"",""time""
""fullscreenenter"",""0"",""3850""
","
","
","""event"",""trial"",""time""
""fullscreenenter"",""0"",""3850""
","
","null","<p></p>","null","","","","","","","",""
"","image","79","105645","0.0-79.0","""event"",""trial"",""time""
""fullscreenenter"",""0"",""3850""
","
","
","""event"",""trial"",""time""
""fullscreenenter"",""0"",""3850""
","
","1526.3999999761581","run_exp/static/images/Set 6_rs/074a.jpg","78","","","","","","learn","SL",""
"","show_choice","80","106132","0.0-80.0","""event"",""trial"",""time""
""fullscreenenter"",""0"",""3850""
","
","
","""event"",""trial"",""time""
""fullscreenenter"",""0"",""3850""
","
","null","run_exp/static/images/Set 6_rs/074a.jpg","null","","","","","","learn","SL",""
"","html-keyboard-response","81","106637","0.0-81.0","""event"",""trial"",""time""
""fullscreenenter"",""0"",""3850""
","
","
","""event"",""trial"",""time""
""fullscreenenter"",""0"",""3850""
","
","null","<p></p>","null","","","","","","","",""
"","image","82","107814","0.0-82.0","""event"",""trial"",""time""
""fullscreenenter"",""0"",""3850""
","
","
","""event"",""trial"",""time""
""fullscreenenter"",""0"",""3850""
","
","1175.7000000476837","run_exp/static/images/Set 6_rs/045a.jpg","86","","","","","","learn","SR",""
"","show_choice","83","108639","0.0-83.0","""event"",""trial"",""time""
""fullscreenenter"",""0"",""3850""
","
","
","""event"",""trial"",""time""
""fullscreenenter"",""0"",""3850""
","
","null","run_exp/static/images/Set 6_rs/045a.jpg","null","","","","","","learn","SR",""
"","html-keyboard-response","84","109149","0.0-84.0","""event"",""trial"",""time""
""fullscreenenter"",""0"",""3850""
","
","
","""event"",""trial"",""time""
""fullscreenenter"",""0"",""3850""
","
","null","<p></p>","null","","","","","","","",""
"","image","85","109888","0.0-85.0","""event"",""trial"",""time""
""fullscreenenter"",""0"",""3850""
","
","
","""event"",""trial"",""time""
""fullscreenenter"",""0"",""3850""
","
","738.1000000238419","run_exp/static/images/Set 6_rs/088a.jpg","86","","","","","","learn","SR",""
"","show_choice","86","111165","0.0-86.0","""event"",""trial"",""time""
""fullscreenenter"",""0"",""3850""
","
","
","""event"",""trial"",""time""
""fullscreenenter"",""0"",""3850""
","
","null","run_exp/static/images/Set 6_rs/088a.jpg","null","","","","","","learn","SR",""
"","html-keyboard-response","87","111667","0.0-87.0","""event"",""trial"",""time""
""fullscreenenter"",""0"",""3850""
","
","
","""event"",""trial"",""time""
""fullscreenenter"",""0"",""3850""
","
","null","<p></p>","null","","","","","","","",""
"","image","88","112354","0.0-88.0","""event"",""trial"",""time""
""fullscreenenter"",""0"",""3850""
","
","
","""event"",""trial"",""time""
""fullscreenenter"",""0"",""3850""
","
","686.1000000238419","run_exp/static/images/Set 6_rs/066a.jpg","86","","","","","","learn","SL",""
"","show_choice","89","113679","0.0-89.0","""event"",""trial"",""time""
""fullscreenenter"",""0"",""3850""
","
","
","""event"",""trial"",""time""
""fullscreenenter"",""0"",""3850""
","
","null","run_exp/static/images/Set 6_rs/066a.jpg","null","","","","","","learn","SL",""
"","html-keyboard-response","90","114182","0.0-90.0","""event"",""trial"",""time""
""fullscreenenter"",""0"",""3850""
","
","
","""event"",""trial"",""time""
""fullscreenenter"",""0"",""3850""
","
","null","<p></p>","null","","","","","","","",""
"","image","91","115711","0.0-91.0","""event"",""trial"",""time""
""fullscreenenter"",""0"",""3850""
","
","
","""event"",""trial"",""time""
""fullscreenenter"",""0"",""3850""
","
","1527.5","run_exp/static/images/Set 6_rs/168a.jpg","86","","","","","","learn","SL",""
"","show_choice","92","116191","0.0-92.0","""event"",""trial"",""time""
""fullscreenenter"",""0"",""3850""
","
","
","""event"",""trial"",""time""
""fullscreenenter"",""0"",""3850""
","
","null","run_exp/static/images/Set 6_rs/168a.jpg","null","","","","","","learn","SL",""
"","html-keyboard-response","93","116706","0.0-93.0","""event"",""trial"",""time""
""fullscreenenter"",""0"",""3850""
","
","
","""event"",""trial"",""time""
""fullscreenenter"",""0"",""3850""
","
","null","<p></p>","null","","","","","","","",""
"","image","94","117936","0.0-94.0","""event"",""trial"",""time""
""fullscreenenter"",""0"",""3850""
","
","
","""event"",""trial"",""time""
""fullscreenenter"",""0"",""3850""
","
","1235","run_exp/static/images/Set 6_rs/071a.jpg","86","","","","","","learn","SL",""
"","show_choice","95","118714","0.0-95.0","""event"",""trial"",""time""
""fullscreenenter"",""0"",""3850""
","
","
","""event"",""trial"",""time""
""fullscreenenter"",""0"",""3850""
","
","null","run_exp/static/images/Set 6_rs/071a.jpg","null","","","","","","learn","SL",""
"","html-keyboard-response","96","119224","0.0-96.0","""event"",""trial"",""time""
""fullscreenenter"",""0"",""3850""
","
","
","""event"",""trial"",""time""
""fullscreenenter"",""0"",""3850""
","
","null","<p></p>","null","","","","","","","",""
"","image","97","120216","0.0-97.0","""event"",""trial"",""time""
""fullscreenenter"",""0"",""3850""
","
","
","""event"",""trial"",""time""
""fullscreenenter"",""0"",""3850""
","
","991","run_exp/static/images/Set 6_rs/016a.jpg","86","","","","","","learn","SL",""
"","show_choice","98","121240","0.0-98.0","""event"",""trial"",""time""
""fullscreenenter"",""0"",""3850""
","
","
","""event"",""trial"",""time""
""fullscreenenter"",""0"",""3850""
","
","null","run_exp/static/images/Set 6_rs/016a.jpg","null","","","","","","learn","SL",""
"","html-keyboard-response","99","121754","0.0-99.0","""event"",""trial"",""time""
""fullscreenenter"",""0"",""3850""
","
","
","""event"",""trial"",""time""
""fullscreenenter"",""0"",""3850""
","
","null","<p></p>","null","","","","","","","",""
"","image","100","122705","0.0-100.0","""event"",""trial"",""time""
""fullscreenenter"",""0"",""3850""
","
","
","""event"",""trial"",""time""
""fullscreenenter"",""0"",""3850""
","
","949.8999999761581","run_exp/static/images/Set 6_rs/111a.jpg","86","","","","","","learn","SL",""
"","show_choice","101","123757","0.0-101.0","""event"",""trial"",""time""
""fullscreenenter"",""0"",""3850""
","
","
","""event"",""trial"",""time""
""fullscreenenter"",""0"",""3850""
","
","null","run_exp/static/images/Set 6_rs/111a.jpg","null","","","","","","learn","SL",""
"","html-keyboard-response","102","124268","0.0-102.0","""event"",""trial"",""time""
""fullscreenenter"",""0"",""3850""
","
","
","""event"",""trial"",""time""
""fullscreenenter"",""0"",""3850""
","
","null","<p></p>","null","","","","","","","",""
"","image","103","125282","0.0-103.0","""event"",""trial"",""time""
""fullscreenenter"",""0"",""3850""
","
","
","""event"",""trial"",""time""
""fullscreenenter"",""0"",""3850""
","
","1013","run_exp/static/images/Set 6_rs/134a.jpg","86","","","","","","learn","SR",""
"","show_choice","104","126276","0.0-104.0","""event"",""trial"",""time""
""fullscreenenter"",""0"",""3850""
","
","
","""event"",""trial"",""time""
""fullscreenenter"",""0"",""3850""
","
","null","run_exp/static/images/Set 6_rs/134a.jpg","null","","","","","","learn","SR",""
"","html-keyboard-response","105","126778","0.0-105.0","""event"",""trial"",""time""
""fullscreenenter"",""0"",""3850""
","
","
","""event"",""trial"",""time""
""fullscreenenter"",""0"",""3850""
","
","null","<p></p>","null","","","","","","","",""
"","image","106","128166","0.0-106.0","""event"",""trial"",""time""
""fullscreenenter"",""0"",""3850""
","
","
","""event"",""trial"",""time""
""fullscreenenter"",""0"",""3850""
","
","1386.3999999761581","run_exp/static/images/Set 6_rs/167a.jpg","78","","","","","","learn","SL",""
"","show_choice","107","128791","0.0-107.0","""event"",""trial"",""time""
""fullscreenenter"",""0"",""3850""
","
","
","""event"",""trial"",""time""
""fullscreenenter"",""0"",""3850""
","
","null","run_exp/static/images/Set 6_rs/167a.jpg","null","","","","","","learn","SL",""
"","html-keyboard-response","108","129295","0.0-108.0","""event"",""trial"",""time""
""fullscreenenter"",""0"",""3850""
","
","
","""event"",""trial"",""time""
""fullscreenenter"",""0"",""3850""
","
","null","<p></p>","null","","","","","","","",""
"","image","109","130225","0.0-109.0","""event"",""trial"",""time""
""fullscreenenter"",""0"",""3850""
","
","
","""event"",""trial"",""time""
""fullscreenenter"",""0"",""3850""
","
","928.7000000476837","run_exp/static/images/Set 6_rs/006a.jpg","86","","","","","","learn","SL",""
"","show_choice","110","131307","0.0-110.0","""event"",""trial"",""time""
""fullscreenenter"",""0"",""3850""
","
","
","""event"",""trial"",""time""
""fullscreenenter"",""0"",""3850""
","
","null","run_exp/static/images/Set 6_rs/006a.jpg","null","","","","","","learn","SL",""
"","html-keyboard-response","111","131820","0.0-111.0","""event"",""trial"",""time""
""fullscreenenter"",""0"",""3850""
","
","
","""event"",""trial"",""time""
""fullscreenenter"",""0"",""3850""
","
","null","<p></p>","null","","","","","","","",""
"","image","112","133072","0.0-112.0","""event"",""trial"",""time""
""fullscreenenter"",""0"",""3850""
","
","
","""event"",""trial"",""time""
""fullscreenenter"",""0"",""3850""
","
","1250.8999999761581","run_exp/static/images/Set 6_rs/191a.jpg","78","","","","","","learn","SL",""
"","show_choice","113","133832","0.0-113.0","""event"",""trial"",""time""
""fullscreenenter"",""0"",""3850""
","
","
","""event"",""trial"",""time""
""fullscreenenter"",""0"",""3850""
","
","null","run_exp/static/images/Set 6_rs/191a.jpg","null","","","","","","learn","SL",""
"","html-keyboard-response","114","134335","0.0-114.0","""event"",""trial"",""time""
""fullscreenenter"",""0"",""3850""
","
","
","""event"",""trial"",""time""
""fullscreenenter"",""0"",""3850""
","
","null","<p></p>","null","","","","","","","",""
"","image","115","135443","0.0-115.0","""event"",""trial"",""time""
""fullscreenenter"",""0"",""3850""
","
","
","""event"",""trial"",""time""
""fullscreenenter"",""0"",""3850""
","
","1106.8999999761581","run_exp/static/images/Set 6_rs/152a.jpg","86","","","","","","learn","SR",""
"","show_choice","116","136344","0.0-116.0","""event"",""trial"",""time""
""fullscreenenter"",""0"",""3850""
","
","
","""event"",""trial"",""time""
""fullscreenenter"",""0"",""3850""
","
","null","run_exp/static/images/Set 6_rs/152a.jpg","null","","","","","","learn","SR",""
"","html-keyboard-response","117","136855","0.0-117.0","""event"",""trial"",""time""
""fullscreenenter"",""0"",""3850""
","
","
","""event"",""trial"",""time""
""fullscreenenter"",""0"",""3850""
","
","null","<p></p>","null","","","","","","","",""
"","image","118","137651","0.0-118.0","""event"",""trial"",""time""
""fullscreenenter"",""0"",""3850""
","
","
","""event"",""trial"",""time""
""fullscreenenter"",""0"",""3850""
","
","795","run_exp/static/images/Set 6_rs/177a.jpg","86","","","","","","learn","SR",""
"","show_choice","119","138866","0.0-119.0","""event"",""trial"",""time""
""fullscreenenter"",""0"",""3850""
","
","
","""event"",""trial"",""time""
""fullscreenenter"",""0"",""3850""
","
","null","run_exp/static/images/Set 6_rs/177a.jpg","null","","","","","","learn","SR",""
"","html-keyboard-response","120","139369","0.0-120.0","""event"",""trial"",""time""
""fullscreenenter"",""0"",""3850""
","
","
","""event"",""trial"",""time""
""fullscreenenter"",""0"",""3850""
","
","null","<p></p>","null","","","","","","","",""
"","image","121","140595","0.0-121.0","""event"",""trial"",""time""
""fullscreenenter"",""0"",""3850""
","
","
","""event"",""trial"",""time""
""fullscreenenter"",""0"",""3850""
","
","1225.2999999523163","run_exp/static/images/Set 6_rs/117a.jpg","86","","","","","","learn","SL",""
"","show_choice","122","141386","0.0-122.0","""event"",""trial"",""time""
""fullscreenenter"",""0"",""3850""
","
","
","""event"",""trial"",""time""
""fullscreenenter"",""0"",""3850""
","
","null","run_exp/static/images/Set 6_rs/117a.jpg","null","","","","","","learn","SL",""
"","html-keyboard-response","123","141890","0.0-123.0","""event"",""trial"",""time""
""fullscreenenter"",""0"",""3850""
","
","
","""event"",""trial"",""time""
""fullscreenenter"",""0"",""3850""
","
","null","<p></p>","null","","","","","","","",""
"","image","124","142997","0.0-124.0","""event"",""trial"",""time""
""fullscreenenter"",""0"",""3850""
","
","
","""event"",""trial"",""time""
""fullscreenenter"",""0"",""3850""
","
","1106.2000000476837","run_exp/static/images/Set 6_rs/008a.jpg","78","","","","","","learn","SL",""
"","show_choice","125","143905","0.0-125.0","""event"",""trial"",""time""
""fullscreenenter"",""0"",""3850""
","
","
","""event"",""trial"",""time""
""fullscreenenter"",""0"",""3850""
","
","null","run_exp/static/images/Set 6_rs/008a.jpg","null","","","","","","learn","SL",""
"","html-keyboard-response","126","144416","0.0-126.0","""event"",""trial"",""time""
""fullscreenenter"",""0"",""3850""
","
","
","""event"",""trial"",""time""
""fullscreenenter"",""0"",""3850""
","
","null","<p></p>","null","","","","","","","",""
"","image","127","145531","0.0-127.0","""event"",""trial"",""time""
""fullscreenenter"",""0"",""3850""
","
","
","""event"",""trial"",""time""
""fullscreenenter"",""0"",""3850""
","
","1114","run_exp/static/images/Set 6_rs/169a.jpg","78","","","","","","learn","SR",""
"","show_choice","128","146424","0.0-128.0","""event"",""trial"",""time""
""fullscreenenter"",""0"",""3850""
","
","
","""event"",""trial"",""time""
""fullscreenenter"",""0"",""3850""
","
","null","run_exp/static/images/Set 6_rs/169a.jpg","null","","","","","","learn","SR",""
"","html-keyboard-response","129","146934","0.0-129.0","""event"",""trial"",""time""
""fullscreenenter"",""0"",""3850""
","
","
","""event"",""trial"",""time""
""fullscreenenter"",""0"",""3850""
","
","null","<p></p>","null","","","","","","","",""
"","image","130","148893","0.0-130.0","""event"",""trial"",""time""
""fullscreenenter"",""0"",""3850""
","
","
","""event"",""trial"",""time""
""fullscreenenter"",""0"",""3850""
","
","1958.4000000953674","run_exp/static/images/Set 6_rs/085a.jpg","86","","","","","","learn","SL",""
"","show_choice","131","148942","0.0-131.0","""event"",""trial"",""time""
""fullscreenenter"",""0"",""3850""
","
","
","""event"",""trial"",""time""
""fullscreenenter"",""0"",""3850""
","
","null","run_exp/static/images/Set 6_rs/085a.jpg","null","","","","","","learn","SL",""
"","html-keyboard-response","132","149450","0.0-132.0","""event"",""trial"",""time""
""fullscreenenter"",""0"",""3850""
","
","
","""event"",""trial"",""time""
""fullscreenenter"",""0"",""3850""
","
","null","<p></p>","null","","","","","","","",""
"","image","133","150215","0.0-133.0","""event"",""trial"",""time""
""fullscreenenter"",""0"",""3850""
","
","
","""event"",""trial"",""time""
""fullscreenenter"",""0"",""3850""
","
","764.5","run_exp/static/images/Set 6_rs/076a.jpg","78","","","","","","learn","SR",""
"","show_choice","134","151453","0.0-134.0","""event"",""trial"",""time""
""fullscreenenter"",""0"",""3850""
","
","
","""event"",""trial"",""time""
""fullscreenenter"",""0"",""3850""
","
","null","run_exp/static/images/Set 6_rs/076a.jpg","null","","","","","","learn","SR",""
"","html-keyboard-response","135","151955","0.0-135.0","""event"",""trial"",""time""
""fullscreenenter"",""0"",""3850""
","
","
","""event"",""trial"",""time""
""fullscreenenter"",""0"",""3850""
","
","null","<p></p>","null","","","","","","","",""
"","image","136","152622","0.0-136.0","""event"",""trial"",""time""
""fullscreenenter"",""0"",""3850""
","
","
","""event"",""trial"",""time""
""fullscreenenter"",""0"",""3850""
","
","666.2000000476837","run_exp/static/images/Set 6_rs/012a.jpg","86","","","","","","learn","SR",""
"","show_choice","137","153968","0.0-137.0","""event"",""trial"",""time""
""fullscreenenter"",""0"",""3850""
","
","
","""event"",""trial"",""time""
""fullscreenenter"",""0"",""3850""
","
","null","run_exp/static/images/Set 6_rs/012a.jpg","null","","","","","","learn","SR",""
"","html-keyboard-response","138","154470","0.0-138.0","""event"",""trial"",""time""
""fullscreenenter"",""0"",""3850""
","
","
","""event"",""trial"",""time""
""fullscreenenter"",""0"",""3850""
","
","null","<p></p>","null","","","","","","","",""
"","image","139","155509","0.0-139.0","""event"",""trial"",""time""
""fullscreenenter"",""0"",""3850""
","
","
","""event"",""trial"",""time""
""fullscreenenter"",""0"",""3850""
","
","1037.7999999523163","run_exp/static/images/Set 6_rs/089a.jpg","86","","","","","","learn","SL",""
"","show_choice","140","156486","0.0-140.0","""event"",""trial"",""time""
""fullscreenenter"",""0"",""3850""
","
","
","""event"",""trial"",""time""
""fullscreenenter"",""0"",""3850""
","
","null","run_exp/static/images/Set 6_rs/089a.jpg","null","","","","","","learn","SL",""
"","html-keyboard-response","141","156988","0.0-141.0","""event"",""trial"",""time""
""fullscreenenter"",""0"",""3850""
","
","
","""event"",""trial"",""time""
""fullscreenenter"",""0"",""3850""
","
","null","<p></p>","null","","","","","","","",""
"","image","142","158276","0.0-142.0","""event"",""trial"",""time""
""fullscreenenter"",""0"",""3850""
","
","
","""event"",""trial"",""time""
""fullscreenenter"",""0"",""3850""
","
","1286.6999999284744","run_exp/static/images/Set 6_rs/187a.jpg","86","","","","","","learn","SR",""
"","show_choice","143","159004","0.0-143.0","""event"",""trial"",""time""
""fullscreenenter"",""0"",""3850""
","
","
","""event"",""trial"",""time""
""fullscreenenter"",""0"",""3850""
","
","null","run_exp/static/images/Set 6_rs/187a.jpg","null","","","","","","learn","SR",""
"","html-keyboard-response","144","159508","0.0-144.0","""event"",""trial"",""time""
""fullscreenenter"",""0"",""3850""
","
","
","""event"",""trial"",""time""
""fullscreenenter"",""0"",""3850""
","
","null","<p></p>","null","","","","","","","",""
"","image","145","160255","0.0-145.0","""event"",""trial"",""time""
""fullscreenenter"",""0"",""3850""
","
","
","""event"",""trial"",""time""
""fullscreenenter"",""0"",""3850""
","
","746.3999999761581","run_exp/static/images/Set 6_rs/050a.jpg","86","","","","","","learn","SL",""
"","show_choice","146","161523","0.0-146.0","""event"",""trial"",""time""
""fullscreenenter"",""0"",""3850""
","
","
","""event"",""trial"",""time""
""fullscreenenter"",""0"",""3850""
","
","null","run_exp/static/images/Set 6_rs/050a.jpg","null","","","","","","learn","SL",""
"","html-keyboard-response","147","162026","0.0-147.0","""event"",""trial"",""time""
""fullscreenenter"",""0"",""3850""
","
","
","""event"",""trial"",""time""
""fullscreenenter"",""0"",""3850""
","
","null","<p></p>","null","","","","","","","",""
"","image","148","162888","0.0-148.0","""event"",""trial"",""time""
""fullscreenenter"",""0"",""3850""
","
","
","""event"",""trial"",""time""
""fullscreenenter"",""0"",""3850""
","
","861.0999999046326","run_exp/static/images/Set 6_rs/121a.jpg","86","","","","","","learn","SR",""
"","show_choice","149","164031","0.0-149.0","""event"",""trial"",""time""
""fullscreenenter"",""0"",""3850""
","
","
","""event"",""trial"",""time""
""fullscreenenter"",""0"",""3850""
","
","null","run_exp/static/images/Set 6_rs/121a.jpg","null","","","","","","learn","SR",""
"","html-keyboard-response","150","164534","0.0-150.0","""event"",""trial"",""time""
""fullscreenenter"",""0"",""3850""
","
","
","""event"",""trial"",""time""
""fullscreenenter"",""0"",""3850""
","
","null","<p></p>","null","","","","","","","",""
"","image","151","165567","0.0-151.0","""event"",""trial"",""time""
""fullscreenenter"",""0"",""3850""
","
","
","""event"",""trial"",""time""
""fullscreenenter"",""0"",""3850""
","
","1032","run_exp/static/images/Set 6_rs/126a.jpg","78","","","","","","learn","SR",""
"","show_choice","152","166541","0.0-152.0","""event"",""trial"",""time""
""fullscreenenter"",""0"",""3850""
","
","
","""event"",""trial"",""time""
""fullscreenenter"",""0"",""3850""
","
","null","run_exp/static/images/Set 6_rs/126a.jpg","null","","","","","","learn","SR",""
"","html-keyboard-response","153","167043","0.0-153.0","""event"",""trial"",""time""
""fullscreenenter"",""0"",""3850""
","
","
","""event"",""trial"",""time""
""fullscreenenter"",""0"",""3850""
","
","null","<p></p>","null","","","","","","","",""
"","image","154","167670","0.0-154.0","""event"",""trial"",""time""
""fullscreenenter"",""0"",""3850""
","
","
","""event"",""trial"",""time""
""fullscreenenter"",""0"",""3850""
","
","625.6000000238419","run_exp/static/images/Set 6_rs/024a.jpg","86","","","","","","learn","SR",""
"","show_choice","155","169047","0.0-155.0","""event"",""trial"",""time""
""fullscreenenter"",""0"",""3850""
","
","
","""event"",""trial"",""time""
""fullscreenenter"",""0"",""3850""
","
","null","run_exp/static/images/Set 6_rs/024a.jpg","null","","","","","","learn","SR",""
"","html-keyboard-response","156","169548","0.0-156.0","""event"",""trial"",""time""
""fullscreenenter"",""0"",""3850""
","
","
","""event"",""trial"",""time""
""fullscreenenter"",""0"",""3850""
","
","null","<p></p>","null","","","","","","","",""
"","image","157","170274","0.0-157.0","""event"",""trial"",""time""
""fullscreenenter"",""0"",""3850""
","
","
","""event"",""trial"",""time""
""fullscreenenter"",""0"",""3850""
","
","725.3000000715256","run_exp/static/images/Set 6_rs/073a.jpg","86","","","","","","learn","SL",""
"","show_choice","158","171555","0.0-158.0","""event"",""trial"",""time""
""fullscreenenter"",""0"",""3850""
","
","
","""event"",""trial"",""time""
""fullscreenenter"",""0"",""3850""
","
","null","run_exp/static/images/Set 6_rs/073a.jpg","null","","","","","","learn","SL",""
"","html-keyboard-response","159","172057","0.0-159.0","""event"",""trial"",""time""
""fullscreenenter"",""0"",""3850""
","
","
","""event"",""trial"",""time""
""fullscreenenter"",""0"",""3850""
","
","null","<p></p>","null","","","","","","","",""
"","image","160","172986","0.0-160.0","""event"",""trial"",""time""
""fullscreenenter"",""0"",""3850""
","
","
","""event"",""trial"",""time""
""fullscreenenter"",""0"",""3850""
","
","927.8000000715256","run_exp/static/images/Set 6_rs/036a.jpg","86","","","","","","learn","SL",""
"","show_choice","161","174058","0.0-161.0","""event"",""trial"",""time""
""fullscreenenter"",""0"",""3850""
","
","
","""event"",""trial"",""time""
""fullscreenenter"",""0"",""3850""
","
","null","run_exp/static/images/Set 6_rs/036a.jpg","null","","","","","","learn","SL",""
"","html-keyboard-response","162","174562","0.0-162.0","""event"",""trial"",""time""
""fullscreenenter"",""0"",""3850""
","
","
","""event"",""trial"",""time""
""fullscreenenter"",""0"",""3850""
","
","null","<p></p>","null","","","","","","","",""
"","image","163","175551","0.0-163.0","""event"",""trial"",""time""
""fullscreenenter"",""0"",""3850""
","
","
","""event"",""trial"",""time""
""fullscreenenter"",""0"",""3850""
","
","987.5","run_exp/static/images/Set 6_rs/017a.jpg","86","","","","","","learn","SL",""
"","show_choice","164","176577","0.0-164.0","""event"",""trial"",""time""
""fullscreenenter"",""0"",""3850""
","
","
","""event"",""trial"",""time""
""fullscreenenter"",""0"",""3850""
","
","null","run_exp/static/images/Set 6_rs/017a.jpg","null","","","","","","learn","SL",""
"","html-keyboard-response","165","177079","0.0-165.0","""event"",""trial"",""time""
""fullscreenenter"",""0"",""3850""
","
","
","""event"",""trial"",""time""
""fullscreenenter"",""0"",""3850""
","
","null","<p></p>","null","","","","","","","",""
"","image","166","177589","0.0-166.0","""event"",""trial"",""time""
""fullscreenenter"",""0"",""3850""
","
","
","""event"",""trial"",""time""
""fullscreenenter"",""0"",""3850""
","
","508.89999997615814","run_exp/static/images/Set 6_rs/007a.jpg","86","","","","","","learn","SR",""
"","show_choice","167","179101","0.0-167.0","""event"",""trial"",""time""
""fullscreenenter"",""0"",""3850""
","
","
","""event"",""trial"",""time""
""fullscreenenter"",""0"",""3850""
","
","null","run_exp/static/images/Set 6_rs/007a.jpg","null","","","","","","learn","SR",""
"","html-keyboard-response","168","179603","0.0-168.0","""event"",""trial"",""time""
""fullscreenenter"",""0"",""3850""
","
","
","""event"",""trial"",""time""
""fullscreenenter"",""0"",""3850""
","
","null","<p></p>","null","","","","","","","",""
"","image","169","180156","0.0-169.0","""event"",""trial"",""time""
""fullscreenenter"",""0"",""3850""
","
","
","""event"",""trial"",""time""
""fullscreenenter"",""0"",""3850""
","
","551.5","run_exp/static/images/Set 6_rs/070a.jpg","86","","","","","","learn","SR",""
"","show_choice","170","181606","0.0-170.0","""event"",""trial"",""time""
""fullscreenenter"",""0"",""3850""
","
","
","""event"",""trial"",""time""
""fullscreenenter"",""0"",""3850""
","
","null","run_exp/static/images/Set 6_rs/070a.jpg","null","","","","","","learn","SR",""
"","html-keyboard-response","171","182117","0.0-171.0","""event"",""trial"",""time""
""fullscreenenter"",""0"",""3850""
","
","
","""event"",""trial"",""time""
""fullscreenenter"",""0"",""3850""
","
","null","<p></p>","null","","","","","","","",""
"","image","172","182905","0.0-172.0","""event"",""trial"",""time""
""fullscreenenter"",""0"",""3850""
","
","
","""event"",""trial"",""time""
""fullscreenenter"",""0"",""3850""
","
","787.2999999523163","run_exp/static/images/Set 6_rs/129a.jpg","86","","","","","","learn","SL",""
"","show_choice","173","184120","0.0-173.0","""event"",""trial"",""time""
""fullscreenenter"",""0"",""3850""
","
","
","""event"",""trial"",""time""
""fullscreenenter"",""0"",""3850""
","
","null","run_exp/static/images/Set 6_rs/129a.jpg","null","","","","","","learn","SL",""
"","html-keyboard-response","174","184622","0.0-174.0","""event"",""trial"",""time""
""fullscreenenter"",""0"",""3850""
","
","
","""event"",""trial"",""time""
""fullscreenenter"",""0"",""3850""
","
","null","<p></p>","null","","","","","","","",""
"","image","175","185272","0.0-175.0","""event"",""trial"",""time""
""fullscreenenter"",""0"",""3850""
","
","
","""event"",""trial"",""time""
""fullscreenenter"",""0"",""3850""
","
","648.9000000953674","run_exp/static/images/Set 6_rs/057a.jpg","86","","","","","","learn","SL",""
"","show_choice","176","186628","0.0-176.0","""event"",""trial"",""time""
""fullscreenenter"",""0"",""3850""
","
","
","""event"",""trial"",""time""
""fullscreenenter"",""0"",""3850""
","
","null","run_exp/static/images/Set 6_rs/057a.jpg","null","","","","","","learn","SL",""
"","html-keyboard-response","177","187135","0.0-177.0","""event"",""trial"",""time""
""fullscreenenter"",""0"",""3850""
","
","
","""event"",""trial"",""time""
""fullscreenenter"",""0"",""3850""
","
","null","<p></p>","null","","","","","","","",""
"","image","178","188213","0.0-178.0","""event"",""trial"",""time""
""fullscreenenter"",""0"",""3850""
","
","
","""event"",""trial"",""time""
""fullscreenenter"",""0"",""3850""
","
","1076.5","run_exp/static/images/Set 6_rs/108a.jpg","78","","","","","","learn","SR",""
"","show_choice","179","189145","0.0-179.0","""event"",""trial"",""time""
""fullscreenenter"",""0"",""3850""
","
","
","""event"",""trial"",""time""
""fullscreenenter"",""0"",""3850""
","
","null","run_exp/static/images/Set 6_rs/108a.jpg","null","","","","","","learn","SR",""
"","html-keyboard-response","180","189652","0.0-180.0","""event"",""trial"",""time""
""fullscreenenter"",""0"",""3850""
","
","
","""event"",""trial"",""time""
""fullscreenenter"",""0"",""3850""
","
","null","<p></p>","null","","","","","","","",""
"","image","181","190275","0.0-181.0","""event"",""trial"",""time""
""fullscreenenter"",""0"",""3850""
","
","
","""event"",""trial"",""time""
""fullscreenenter"",""0"",""3850""
","
","621.3000000715256","run_exp/static/images/Set 6_rs/075a.jpg","86","","","","","","learn","SR",""
"","show_choice","182","191657","0.0-182.0","""event"",""trial"",""time""
""fullscreenenter"",""0"",""3850""
","
","
","""event"",""trial"",""time""
""fullscreenenter"",""0"",""3850""
","
","null","run_exp/static/images/Set 6_rs/075a.jpg","null","","","","","","learn","SR",""
"","html-keyboard-response","183","192159","0.0-183.0","""event"",""trial"",""time""
""fullscreenenter"",""0"",""3850""
","
","
","""event"",""trial"",""time""
""fullscreenenter"",""0"",""3850""
","
","null","<p></p>","null","","","","","","","",""
"","image","184","192613","0.0-184.0","""event"",""trial"",""time""
""fullscreenenter"",""0"",""3850""
","
","
","""event"",""trial"",""time""
""fullscreenenter"",""0"",""3850""
","
","452.3000000715256","run_exp/static/images/Set 6_rs/186a.jpg","86","","","","","","learn","SR",""
"","show_choice","185","194166","0.0-185.0","""event"",""trial"",""time""
""fullscreenenter"",""0"",""3850""
","
","
","""event"",""trial"",""time""
""fullscreenenter"",""0"",""3850""
","
","null","run_exp/static/images/Set 6_rs/186a.jpg","null","","","","","","learn","SR",""
"","html-keyboard-response","186","194676","0.0-186.0","""event"",""trial"",""time""
""fullscreenenter"",""0"",""3850""
","
","
","""event"",""trial"",""time""
""fullscreenenter"",""0"",""3850""
","
","null","<p></p>","null","","","","","","","",""
"","image","187","195228","0.0-187.0","""event"",""trial"",""time""
""fullscreenenter"",""0"",""3850""
","
","
","""event"",""trial"",""time""
""fullscreenenter"",""0"",""3850""
","
","550.8999999761581","run_exp/static/images/Set 6_rs/150a.jpg","86","","","","","","learn","SR",""
"","show_choice","188","196691","0.0-188.0","""event"",""trial"",""time""
""fullscreenenter"",""0"",""3850""
","
","
","""event"",""trial"",""time""
""fullscreenenter"",""0"",""3850""
","
","null","run_exp/static/images/Set 6_rs/150a.jpg","null","","","","","","learn","SR",""
"","html-keyboard-response","189","197193","0.0-189.0","""event"",""trial"",""time""
""fullscreenenter"",""0"",""3850""
","
","
","""event"",""trial"",""time""
""fullscreenenter"",""0"",""3850""
","
","null","<p></p>","null","","","","","","","",""
"","image","190","197679","0.0-190.0","""event"",""trial"",""time""
""fullscreenenter"",""0"",""3850""
","
","
","""event"",""trial"",""time""
""fullscreenenter"",""0"",""3850""
","
","484.40000009536743","run_exp/static/images/Set 6_rs/064a.jpg","86","","","","","","learn","SR",""
"","show_choice","191","199203","0.0-191.0","""event"",""trial"",""time""
""fullscreenenter"",""0"",""3850""
","
","
","""event"",""trial"",""time""
""fullscreenenter"",""0"",""3850""
","
","null","run_exp/static/images/Set 6_rs/064a.jpg","null","","","","","","learn","SR",""
"","html-keyboard-response","192","199707","0.0-192.0","""event"",""trial"",""time""
""fullscreenenter"",""0"",""3850""
","
","
","""event"",""trial"",""time""
""fullscreenenter"",""0"",""3850""
","
","null","<p></p>","null","","","","","","","",""
"","image","193","200540","0.0-193.0","""event"",""trial"",""time""
""fullscreenenter"",""0"",""3850""
","
","
","""event"",""trial"",""time""
""fullscreenenter"",""0"",""3850""
","
","832.3000000715256","run_exp/static/images/Set 6_rs/181a.jpg","78","","","","","","learn","SL",""
"","show_choice","194","201714","0.0-194.0","""event"",""trial"",""time""
""fullscreenenter"",""0"",""3850""
","
","
","""event"",""trial"",""time""
""fullscreenenter"",""0"",""3850""
","
","null","run_exp/static/images/Set 6_rs/181a.jpg","null","","","","","","learn","SL",""
"","html-keyboard-response","195","202224","0.0-195.0","""event"",""trial"",""time""
""fullscreenenter"",""0"",""3850""
","
","
","""event"",""trial"",""time""
""fullscreenenter"",""0"",""3850""
","
","null","<p></p>","null","","","","","","","",""
"","test_intro","196","239615","0.0-196.0","""event"",""trial"",""time""
""fullscreenenter"",""0"",""3850""
","
","
","""event"",""trial"",""time""
""fullscreenenter"",""0"",""3850""
","
","null","run_exp/static/audio/clip_2_memory.m4a","null","","","","","<div class='center'><p>Now, lets see how much you remember about the items you just saw.  For each item, you need to indicate if it was <b>old</b> by pressing the <b>v</b> key, <b>similar</b> by pressing the <b>b</b> key, or <b>new</b> by pressing the <b>n</b> key.</p><p>Old refers to an item that you saw before in the indoor/outdoor game that you just played, new refers to an item you have <b>not</b> seen before within the indoor/outdoor game, and similar refers to an item that is similar to an item youve seen before but is not exactly the same. </p><p>Before we begin, lets go over some brief demonstrations to make sure you understand.</p></div>","","",""
"","html-keyboard-response","197","240604","0.0-197.0","""event"",""trial"",""time""
""fullscreenenter"",""0"",""3850""
","
","
","""event"",""trial"",""time""
""fullscreenenter"",""0"",""3850""
","
","988.1000000238419","<div class='center'><p>Now, lets see how much you remember about the items you just saw.  For each item, you need to indicate if it was <b>old</b> by pressing the <b>v</b> key, <b>similar</b> by pressing the <b>b</b> key, or <b>new</b> by pressing the <b>n</b> key.</p><p>Old refers to an item that you saw before in the indoor/outdoor game that you just played, new refers to an item you have <b>not</b> seen before within the indoor/outdoor game, and similar refers to an item that is similar to an item youve seen before but is not exactly the same. </p><p>Before we begin, lets go over some brief demonstrations to make sure you understand.</p><div><p><b>[Press the space bar to continue]</b></p></div>","32","","","","","","","",""
"","items","198","248114","0.0-198.0","""event"",""trial"",""time""
""fullscreenenter"",""0"",""3850""
","
","
","""event"",""trial"",""time""
""fullscreenenter"",""0"",""3850""
","
","null","run_exp/static/audio/clip_3_items.m4a","null","","","","","","","",""
"","mop","199","252624","0.0-199.0","""event"",""trial"",""time""
""fullscreenenter"",""0"",""3850""
","
","
","""event"",""trial"",""time""
""fullscreenenter"",""0"",""3850""
","
","null","run_exp/static/audio/clip_4_mop.m4a","null","","","","","","","",""
"","baseball","200","256144","0.0-200.0","""event"",""trial"",""time""
""fullscreenenter"",""0"",""3850""
","
","
","""event"",""trial"",""time""
""fullscreenenter"",""0"",""3850""
","
","null","run_exp/static/audio/clip_5_baseball.m4a","null","","","","","","","",""
"","trumpet","201","259654","0.0-201.0","""event"",""trial"",""time""
""fullscreenenter"",""0"",""3850""
","
","
","""event"",""trial"",""time""
""fullscreenenter"",""0"",""3850""
","
","null","run_exp/static/audio/clip_6_trumpet.m4a","null","","","","","","","",""
"","gummies","202","263175","0.0-202.0","""event"",""trial"",""time""
""fullscreenenter"",""0"",""3850""
","
","
","""event"",""trial"",""time""
""fullscreenenter"",""0"",""3850""
","
","null","run_exp/static/audio/clip_7_gummies.m4a","null","","","","","","","",""
"","osn","203","267684","0.0-203.0","""event"",""trial"",""time""
""fullscreenenter"",""0"",""3850""
","
","
","""event"",""trial"",""time""
""fullscreenenter"",""0"",""3850""
","
","null","run_exp/static/audio/clip_8_osn.m4a","null","","","","","","","",""
"","old_1","204","274204","0.0-204.0","""event"",""trial"",""time""
""fullscreenenter"",""0"",""3850""
","
","
","""event"",""trial"",""time""
""fullscreenenter"",""0"",""3850""
","
","null","run_exp/static/audio/clip_9_old_trumpet.m4a","null","","","","","","","",""
"","new_1","205","281724","0.0-205.0","""event"",""trial"",""time""
""fullscreenenter"",""0"",""3850""
","
","
","""event"",""trial"",""time""
""fullscreenenter"",""0"",""3850""
","
","null","run_exp/static/audio/clip_10_new_balloon.m4a","null","","","","","","","",""
"","similar_1a","206","286244","0.0-206.0","""event"",""trial"",""time""
""fullscreenenter"",""0"",""3850""
","
","
","""event"",""trial"",""time""
""fullscreenenter"",""0"",""3850""
","
","null","run_exp/static/audio/clip_11a_similar_mop.m4a","null","","","","","","","",""
"","similar_1b","207","292764","0.0-207.0","""event"",""trial"",""time""
""fullscreenenter"",""0"",""3850""
","
","
","""event"",""trial"",""time""
""fullscreenenter"",""0"",""3850""
","
","null","run_exp/static/audio/clip_11b_similar_mop.m4a","null","","","","","","","",""
"","new_2","208","296274","0.0-208.0","""event"",""trial"",""time""
""fullscreenenter"",""0"",""3850""
","
","
","""event"",""trial"",""time""
""fullscreenenter"",""0"",""3850""
","
","null","run_exp/static/audio/clip_12_new_stoplight.m4a","null","","","","","","","",""
"","old_2","209","299795","0.0-209.0","""event"",""trial"",""time""
""fullscreenenter"",""0"",""3850""
","
","
","""event"",""trial"",""time""
""fullscreenenter"",""0"",""3850""
","
","null","run_exp/static/audio/clip_13_old_baseball.m4a","null","","","","","","","",""
"","similar_2a","210","303305","0.0-210.0","""event"",""trial"",""time""
""fullscreenenter"",""0"",""3850""
","
","
","""event"",""trial"",""time""
""fullscreenenter"",""0"",""3850""
","
","null","run_exp/static/audio/clip_14a_similar_gummies.m4a","null","","","","","","","",""
"","similar_2b","211","310815","0.0-211.0","""event"",""trial"",""time""
""fullscreenenter"",""0"",""3850""
","
","
","""event"",""trial"",""time""
""fullscreenenter"",""0"",""3850""
","
","null","run_exp/static/audio/clip_14b_similar_gummies.m4a","null","","","","","","","",""
"","practice","212","352936","0.0-212.0","""event"",""trial"",""time""
""fullscreenenter"",""0"",""3850""
","
","
","""event"",""trial"",""time""
""fullscreenenter"",""0"",""3850""
","
","null","run_exp/static/audio/clip_15_practice.m4a","null","","","","","<div class='center'><p>Lets practice a little to make sure you understand the difference between new, similar, and old. Lets say you saw these three items in the indoor/outdoor game.</p><p> Try your best to remember these images because youll soon be tested on them in a practice game. In the practice game, youll be shown images and youll have to say if they are old (one of the three images belows), similar (similar to one of the images below but not exactly the same), or new (are not one of the images below nor similar to them).</p><p>Once you press the space bar youll be shown these images again but one at time. Then youll begin the practice game.</p><p><img src='run_exp/static/images/tutorial/test/three_indoor_outdoor.png' height='300'></p></div>","","",""
"","html-keyboard-response","213","353584","0.0-213.0","""event"",""trial"",""time""
""fullscreenenter"",""0"",""3850""
","
","
","""event"",""trial"",""time""
""fullscreenenter"",""0"",""3850""
","
","646.2999999523163","<div class='center'><p>Lets practice a little to make sure you understand the difference between new, similar, and old. Lets say you saw these three items in the indoor/outdoor game.</p><p> Try your best to remember these images because youll soon be tested on them in a practice game. In the practice game, youll be shown images and youll have to say if they are old (one of the three images belows), similar (similar to one of the images below but not exactly the same), or new (are not one of the images below nor similar to them).</p><p>Once you press the space bar youll be shown these images again but one at time. Then youll begin the practice game.</p><p><img src='run_exp/static/images/tutorial/test/three_indoor_outdoor.png' height='300'></p><div><p><b>[Press the space bar to continue]</b></p></div>","32","","","","","","","",""
"","planet","214","355585","0.0-214.0","""event"",""trial"",""time""
""fullscreenenter"",""0"",""3850""
","
","
","""event"",""trial"",""time""
""fullscreenenter"",""0"",""3850""
","
","null","run_exp/static/images/tutorial/test/008a.jpg","null","","","","","","","",""
"","boot","215","357595","0.0-215.0","""event"",""trial"",""time""
""fullscreenenter"",""0"",""3850""
","
","
","""event"",""trial"",""time""
""fullscreenenter"",""0"",""3850""
","
","null","run_exp/static/images/tutorial/test/011a.jpg","null","","","","","","","",""
"","lemon","216","359616","0.0-216.0","""event"",""trial"",""time""
""fullscreenenter"",""0"",""3850""
","
","
","""event"",""trial"",""time""
""fullscreenenter"",""0"",""3850""
","
","null","run_exp/static/images/tutorial/test/018a.jpg","null","","","","","","","",""
"","practice_q1","217","361776","0.0-217.0","""event"",""trial"",""time""
""fullscreenenter"",""0"",""3850""
","
","
","""event"",""trial"",""time""
""fullscreenenter"",""0"",""3850""
","
","2159.5","run_exp/static/audio/clip_16_practice_question.m4a","78","","","","","","","",""
"","correct","218","363676","0.0-218.0-0.0","""event"",""trial"",""time""
""fullscreenenter"",""0"",""3850""
","
","
","""event"",""trial"",""time""
""fullscreenenter"",""0"",""3850""
","
","null","run_exp/static/audio/clip_17_correct.m4a","null","","","","","<div class='center'><p>That's correct!</p></div>","","",""
"","html-keyboard-response","219","364208","0.0-218.0-1.0","""event"",""trial"",""time""
""fullscreenenter"",""0"",""3850""
","
","
","""event"",""trial"",""time""
""fullscreenenter"",""0"",""3850""
","
","531","<div class='center'><p>That's correct!</p><div><p><b>[Press the space bar to continue]</b></p></div>","32","","","","","","","",""
"","practice_q2","220","365182","0.0-218.0-2.0","""event"",""trial"",""time""
""fullscreenenter"",""0"",""3850""
","
","
","""event"",""trial"",""time""
""fullscreenenter"",""0"",""3850""
","
","973","run_exp/static/audio/clip_16_practice_question.m4a","86","","","","","","","",""
"","correct","221","367075","0.0-219.0-0.0","""event"",""trial"",""time""
""fullscreenenter"",""0"",""3850""
","
","
","""event"",""trial"",""time""
""fullscreenenter"",""0"",""3850""
","
","null","run_exp/static/audio/clip_17_correct.m4a","null","","","","","<div class='center'><p>That's correct!</p></div>","","",""
"","html-keyboard-response","222","367454","0.0-219.0-1.0","""event"",""trial"",""time""
""fullscreenenter"",""0"",""3850""
","
","
","""event"",""trial"",""time""
""fullscreenenter"",""0"",""3850""
","
","378.2000000476837","<div class='center'><p>That's correct!</p><div><p><b>[Press the space bar to continue]</b></p></div>","32","","","","","","","",""
"","practice_q3","223","368519","0.0-219.0-2.0","""event"",""trial"",""time""
""fullscreenenter"",""0"",""3850""
","
","
","""event"",""trial"",""time""
""fullscreenenter"",""0"",""3850""
","
","1064.0999999046326","run_exp/static/audio/clip_16_practice_question.m4a","66","","","","","","","",""
"","correct","224","370516","0.0-220.0-0.0","""event"",""trial"",""time""
""fullscreenenter"",""0"",""3850""
","
","
","""event"",""trial"",""time""
""fullscreenenter"",""0"",""3850""
","
","null","run_exp/static/audio/clip_17_correct.m4a","null","","","","","<div class='center'><p>That's correct!</p></div>","","",""
"","html-keyboard-response","225","370884","0.0-220.0-1.0","""event"",""trial"",""time""
""fullscreenenter"",""0"",""3850""
","
","
","""event"",""trial"",""time""
""fullscreenenter"",""0"",""3850""
","
","367.1999999284744","<div class='center'><p>That's correct!</p><div><p><b>[Press the space bar to continue]</b></p></div>","32","","","","","","","",""
"","begin_text","226","389376","0.0-221.0-0.0","""event"",""trial"",""time""
""fullscreenenter"",""0"",""3850""
","
","
","""event"",""trial"",""time""
""fullscreenenter"",""0"",""3850""
","
","null","run_exp/static/audio/clip_22_begin_test.m4a","null","","","","","<div class='center'><p>On to the real game where well test your memory of items from the indoor/outdoor game. For each item, you need to indicate if the item is <b>old</b> by pressing the <b>v</b> key, <b>similar</b> by pressing the <b>b</b> key, or <b>new</b> by pressing the <b>n</b> key. </p></div>","","",""
"","html-keyboard-response","227","389947","0.0-221.0-1.0","""event"",""trial"",""time""
""fullscreenenter"",""0"",""3850""
","
","
","""event"",""trial"",""time""
""fullscreenenter"",""0"",""3850""
","
","570.3000000715256","<div class='center'><p>On to the real game where well test your memory of items from the indoor/outdoor game. For each item, you need to indicate if the item is <b>old</b> by pressing the <b>v</b> key, <b>similar</b> by pressing the <b>b</b> key, or <b>new</b> by pressing the <b>n</b> key. </p><div><p><b>[Press the space bar to continue]</b></p></div>","32","","","","","","","",""
"","image","228","390747","0.0-222.0-0.0","""event"",""trial"",""time""
""fullscreenenter"",""0"",""3850""
","
","
","""event"",""trial"",""time""
""fullscreenenter"",""0"",""3850""
","
","799.1000000238419","run_exp/static/images/Set 6_rs/085b.jpg","86","","","","","","test","TL","1"
"","show_choice","229","391264","0.0-222.0-1.0","""event"",""trial"",""time""
""fullscreenenter"",""0"",""3850""
","
","
","""event"",""trial"",""time""
""fullscreenenter"",""0"",""3850""
","
","null","run_exp/static/images/Set 6_rs/085b.jpg","null","","","","","","test","TL",""
"","html-keyboard-response","230","391784","0.0-222.0-2.0","""event"",""trial"",""time""
""fullscreenenter"",""0"",""3850""
","
","
","""event"",""trial"",""time""
""fullscreenenter"",""0"",""3850""
","
","null","<p></p>","null","","","","","","","",""
"","image","231","392496","0.0-223.0-0.0","""event"",""trial"",""time""
""fullscreenenter"",""0"",""3850""
","
","
","""event"",""trial"",""time""
""fullscreenenter"",""0"",""3850""
","
","711","run_exp/static/images/Set 6_rs/166a.jpg","86","","","","","","test","TR","1"
"","show_choice","232","393004","0.0-223.0-1.0","""event"",""trial"",""time""
""fullscreenenter"",""0"",""3850""
","
","
","""event"",""trial"",""time""
""fullscreenenter"",""0"",""3850""
","
","null","run_exp/static/images/Set 6_rs/166a.jpg","null","","","","","","test","TR",""
"","html-keyboard-response","233","393524","0.0-223.0-2.0","""event"",""trial"",""time""
""fullscreenenter"",""0"",""3850""
","
","
","""event"",""trial"",""time""
""fullscreenenter"",""0"",""3850""
","
","null","<p></p>","null","","","","","","","",""
"","image","234","394176","0.0-224.0-0.0","""event"",""trial"",""time""
""fullscreenenter"",""0"",""3850""
","
","
","""event"",""trial"",""time""
""fullscreenenter"",""0"",""3850""
","
","650.2000000476837","run_exp/static/images/Set 6_rs/178a.jpg","86","","","","","","test","TR","3"
"","show_choice","235","394694","0.0-224.0-1.0","""event"",""trial"",""time""
""fullscreenenter"",""0"",""3850""
","
","
","""event"",""trial"",""time""
""fullscreenenter"",""0"",""3850""
","
","null","run_exp/static/images/Set 6_rs/178a.jpg","null","","","","","","test","TR",""
"","html-keyboard-response","236","395215","0.0-224.0-2.0","""event"",""trial"",""time""
""fullscreenenter"",""0"",""3850""
","
","
","""event"",""trial"",""time""
""fullscreenenter"",""0"",""3850""
","
","null","<p></p>","null","","","","","","","",""
"","image","237","396381","0.0-225.0-0.0","""event"",""trial"",""time""
""fullscreenenter"",""0"",""3850""
","
","
","""event"",""trial"",""time""
""fullscreenenter"",""0"",""3850""
","
","1165.1000000238419","run_exp/static/images/Set 6_rs/052a.jpg","78","","","","","","test","TF","1"
"","show_choice","238","396894","0.0-225.0-1.0","""event"",""trial"",""time""
""fullscreenenter"",""0"",""3850""
","
","
","""event"",""trial"",""time""
""fullscreenenter"",""0"",""3850""
","
","null","run_exp/static/images/Set 6_rs/052a.jpg","null","","","","","","test","TF",""
"","html-keyboard-response","239","397415","0.0-225.0-2.0","""event"",""trial"",""time""
""fullscreenenter"",""0"",""3850""
","
","
","""event"",""trial"",""time""
""fullscreenenter"",""0"",""3850""
","
","null","<p></p>","null","","","","","","","",""
"","image","240","398232","0.0-226.0-0.0","""event"",""trial"",""time""
""fullscreenenter"",""0"",""3850""
","
","
","""event"",""trial"",""time""
""fullscreenenter"",""0"",""3850""
","
","816.2000000476837","run_exp/static/images/Set 6_rs/014b.jpg","86","","","","","","test","TL","5"
"","show_choice","241","398735","0.0-226.0-1.0","""event"",""trial"",""time""
""fullscreenenter"",""0"",""3850""
","
","
","""event"",""trial"",""time""
""fullscreenenter"",""0"",""3850""
","
","null","run_exp/static/images/Set 6_rs/014b.jpg","null","","","","","","test","TL",""
"","html-keyboard-response","242","399244","0.0-226.0-2.0","""event"",""trial"",""time""
""fullscreenenter"",""0"",""3850""
","
","
","""event"",""trial"",""time""
""fullscreenenter"",""0"",""3850""
","
","null","<p></p>","null","","","","","","","",""
"","image","243","400052","0.0-227.0-0.0","""event"",""trial"",""time""
""fullscreenenter"",""0"",""3850""
","
","
","""event"",""trial"",""time""
""fullscreenenter"",""0"",""3850""
","
","807","run_exp/static/images/Set 6_rs/075a.jpg","86","","","","","","test","TR","1"
"","show_choice","244","400554","0.0-227.0-1.0","""event"",""trial"",""time""
""fullscreenenter"",""0"",""3850""
","
","
","""event"",""trial"",""time""
""fullscreenenter"",""0"",""3850""
","
","null","run_exp/static/images/Set 6_rs/075a.jpg","null","","","","","","test","TR",""
"","html-keyboard-response","245","401062","0.0-227.0-2.0","""event"",""trial"",""time""
""fullscreenenter"",""0"",""3850""
","
","
","""event"",""trial"",""time""
""fullscreenenter"",""0"",""3850""
","
","null","<p></p>","null","","","","","","","",""
"","image","246","402083","0.0-228.0-0.0","""event"",""trial"",""time""
""fullscreenenter"",""0"",""3850""
","
","
","""event"",""trial"",""time""
""fullscreenenter"",""0"",""3850""
","
","1020.5","run_exp/static/images/Set 6_rs/066b.jpg","66","","","","","","test","TL","5"
"","show_choice","247","402590","0.0-228.0-1.0","""event"",""trial"",""time""
""fullscreenenter"",""0"",""3850""
","
","
","""event"",""trial"",""time""
""fullscreenenter"",""0"",""3850""
","
","null","run_exp/static/images/Set 6_rs/066b.jpg","null","","","","","","test","TL",""
"","html-keyboard-response","248","403095","0.0-228.0-2.0","""event"",""trial"",""time""
""fullscreenenter"",""0"",""3850""
","
","
","""event"",""trial"",""time""
""fullscreenenter"",""0"",""3850""
","
","null","<p></p>","null","","","","","","","",""
"","image","249","404398","0.0-229.0-0.0","""event"",""trial"",""time""
""fullscreenenter"",""0"",""3850""
","
","
","""event"",""trial"",""time""
""fullscreenenter"",""0"",""3850""
","
","1302.4000000953674","run_exp/static/images/Set 6_rs/050b.jpg","66","","","","","","test","TL","3"
"","show_choice","250","404900","0.0-229.0-1.0","""event"",""trial"",""time""
""fullscreenenter"",""0"",""3850""
","
","
","""event"",""trial"",""time""
""fullscreenenter"",""0"",""3850""
","
","null","run_exp/static/images/Set 6_rs/050b.jpg","null","","","","","","test","TL",""
"","html-keyboard-response","251","405412","0.0-229.0-2.0","""event"",""trial"",""time""
""fullscreenenter"",""0"",""3850""
","
","
","""event"",""trial"",""time""
""fullscreenenter"",""0"",""3850""
","
","null","<p></p>","null","","","","","","","",""
"","image","252","406276","0.0-230.0-0.0","""event"",""trial"",""time""
""fullscreenenter"",""0"",""3850""
","
","
","""event"",""trial"",""time""
""fullscreenenter"",""0"",""3850""
","
","863","run_exp/static/images/Set 6_rs/078a.jpg","78","","","","","","test","TF","1"
"","show_choice","253","406779","0.0-230.0-1.0","""event"",""trial"",""time""
""fullscreenenter"",""0"",""3850""
","
","
","""event"",""trial"",""time""
""fullscreenenter"",""0"",""3850""
","
","null","run_exp/static/images/Set 6_rs/078a.jpg","null","","","","","","test","TF",""
"","html-keyboard-response","254","407282","0.0-230.0-2.0","""event"",""trial"",""time""
""fullscreenenter"",""0"",""3850""
","
","
","""event"",""trial"",""time""
""fullscreenenter"",""0"",""3850""
","
","null","<p></p>","null","","","","","","","",""
"","image","255","408230","0.0-231.0-0.0","""event"",""trial"",""time""
""fullscreenenter"",""0"",""3850""
","
","
","""event"",""trial"",""time""
""fullscreenenter"",""0"",""3850""
","
","946.3999999761581","run_exp/static/images/Set 6_rs/108a.jpg","86","","","","","","test","TR","5"
"","show_choice","256","408733","0.0-231.0-1.0","""event"",""trial"",""time""
""fullscreenenter"",""0"",""3850""
","
","
","""event"",""trial"",""time""
""fullscreenenter"",""0"",""3850""
","
","null","run_exp/static/images/Set 6_rs/108a.jpg","null","","","","","","test","TR",""
"","html-keyboard-response","257","409248","0.0-231.0-2.0","""event"",""trial"",""time""
""fullscreenenter"",""0"",""3850""
","
","
","""event"",""trial"",""time""
""fullscreenenter"",""0"",""3850""
","
","null","<p></p>","null","","","","","","","",""
"","image","258","410830","0.0-232.0-0.0","""event"",""trial"",""time""
""fullscreenenter"",""0"",""3850""
","
","
","""event"",""trial"",""time""
""fullscreenenter"",""0"",""3850""
","
","1581.3000000715256","run_exp/static/images/Set 6_rs/086a.jpg","78","","","","","","test","TF","1"
"","show_choice","259","411334","0.0-232.0-1.0","""event"",""trial"",""time""
""fullscreenenter"",""0"",""3850""
","
","
","""event"",""trial"",""time""
""fullscreenenter"",""0"",""3850""
","
","null","run_exp/static/images/Set 6_rs/086a.jpg","null","","","","","","test","TF",""
"","html-keyboard-response","260","411844","0.0-232.0-2.0","""event"",""trial"",""time""
""fullscreenenter"",""0"",""3850""
","
","
","""event"",""trial"",""time""
""fullscreenenter"",""0"",""3850""
","
","null","<p></p>","null","","","","","","","",""
"","image","261","412806","0.0-233.0-0.0","""event"",""trial"",""time""
""fullscreenenter"",""0"",""3850""
","
","
","""event"",""trial"",""time""
""fullscreenenter"",""0"",""3850""
","
","961","run_exp/static/images/Set 6_rs/022a.jpg","78","","","","","","test","TF","4"
"","show_choice","262","413318","0.0-233.0-1.0","""event"",""trial"",""time""
""fullscreenenter"",""0"",""3850""
","
","
","""event"",""trial"",""time""
""fullscreenenter"",""0"",""3850""
","
","null","run_exp/static/images/Set 6_rs/022a.jpg","null","","","","","","test","TF",""
"","html-keyboard-response","263","413828","0.0-233.0-2.0","""event"",""trial"",""time""
""fullscreenenter"",""0"",""3850""
","
","
","""event"",""trial"",""time""
""fullscreenenter"",""0"",""3850""
","
","null","<p></p>","null","","","","","","","",""
"","image","264","414775","0.0-234.0-0.0","""event"",""trial"",""time""
""fullscreenenter"",""0"",""3850""
","
","
","""event"",""trial"",""time""
""fullscreenenter"",""0"",""3850""
","
","946","run_exp/static/images/Set 6_rs/152a.jpg","86","","","","","","test","TR","2"
"","show_choice","265","415286","0.0-234.0-1.0","""event"",""trial"",""time""
""fullscreenenter"",""0"",""3850""
","
","
","""event"",""trial"",""time""
""fullscreenenter"",""0"",""3850""
","
","null","run_exp/static/images/Set 6_rs/152a.jpg","null","","","","","","test","TR",""
"","html-keyboard-response","266","415796","0.0-234.0-2.0","""event"",""trial"",""time""
""fullscreenenter"",""0"",""3850""
","
","
","""event"",""trial"",""time""
""fullscreenenter"",""0"",""3850""
","
","null","<p></p>","null","","","","","","","",""
"","image","267","417041","0.0-235.0-0.0","""event"",""trial"",""time""
""fullscreenenter"",""0"",""3850""
","
","
","""event"",""trial"",""time""
""fullscreenenter"",""0"",""3850""
","
","1244.2999999523163","run_exp/static/images/Set 6_rs/100a.jpg","78","","","","","","test","TF","2"
"","show_choice","268","417553","0.0-235.0-1.0","""event"",""trial"",""time""
""fullscreenenter"",""0"",""3850""
","
","
","""event"",""trial"",""time""
""fullscreenenter"",""0"",""3850""
","
","null","run_exp/static/images/Set 6_rs/100a.jpg","null","","","","","","test","TF",""
"","html-keyboard-response","269","418064","0.0-235.0-2.0","""event"",""trial"",""time""
""fullscreenenter"",""0"",""3850""
","
","
","""event"",""trial"",""time""
""fullscreenenter"",""0"",""3850""
","
","null","<p></p>","null","","","","","","","",""
"","image","270","418889","0.0-236.0-0.0","""event"",""trial"",""time""
""fullscreenenter"",""0"",""3850""
","
","
","""event"",""trial"",""time""
""fullscreenenter"",""0"",""3850""
","
","824.4000000953674","run_exp/static/images/Set 6_rs/024a.jpg","66","","","","","","test","TR","5"
"","show_choice","271","419400","0.0-236.0-1.0","""event"",""trial"",""time""
""fullscreenenter"",""0"",""3850""
","
","
","""event"",""trial"",""time""
""fullscreenenter"",""0"",""3850""
","
","null","run_exp/static/images/Set 6_rs/024a.jpg","null","","","","","","test","TR",""
"","html-keyboard-response","272","419902","0.0-236.0-2.0","""event"",""trial"",""time""
""fullscreenenter"",""0"",""3850""
","
","
","""event"",""trial"",""time""
""fullscreenenter"",""0"",""3850""
","
","null","<p></p>","null","","","","","","","",""
"","image","273","420935","0.0-237.0-0.0","""event"",""trial"",""time""
""fullscreenenter"",""0"",""3850""
","
","
","""event"",""trial"",""time""
""fullscreenenter"",""0"",""3850""
","
","1031.4000000953674","run_exp/static/images/Set 6_rs/181b.jpg","86","","","","","","test","TL","1"
"","show_choice","274","421447","0.0-237.0-1.0","""event"",""trial"",""time""
""fullscreenenter"",""0"",""3850""
","
","
","""event"",""trial"",""time""
""fullscreenenter"",""0"",""3850""
","
","null","run_exp/static/images/Set 6_rs/181b.jpg","null","","","","","","test","TL",""
"","html-keyboard-response","275","421952","0.0-237.0-2.0","""event"",""trial"",""time""
""fullscreenenter"",""0"",""3850""
","
","
","""event"",""trial"",""time""
""fullscreenenter"",""0"",""3850""
","
","null","<p></p>","null","","","","","","","",""
"","image","276","422892","0.0-238.0-0.0","""event"",""trial"",""time""
""fullscreenenter"",""0"",""3850""
","
","
","""event"",""trial"",""time""
""fullscreenenter"",""0"",""3850""
","
","938.0999999046326","run_exp/static/images/Set 6_rs/070a.jpg","86","","","","","","test","TR","2"
"","show_choice","277","423403","0.0-238.0-1.0","""event"",""trial"",""time""
""fullscreenenter"",""0"",""3850""
","
","
","""event"",""trial"",""time""
""fullscreenenter"",""0"",""3850""
","
","null","run_exp/static/images/Set 6_rs/070a.jpg","null","","","","","","test","TR",""
"","html-keyboard-response","278","423914","0.0-238.0-2.0","""event"",""trial"",""time""
""fullscreenenter"",""0"",""3850""
","
","
","""event"",""trial"",""time""
""fullscreenenter"",""0"",""3850""
","
","null","<p></p>","null","","","","","","","",""
"","image","279","425251","0.0-239.0-0.0","""event"",""trial"",""time""
""fullscreenenter"",""0"",""3850""
","
","
","""event"",""trial"",""time""
""fullscreenenter"",""0"",""3850""
","
","1335.5","run_exp/static/images/Set 6_rs/095b.jpg","66","","","","","","test","TL","5"
"","show_choice","280","425763","0.0-239.0-1.0","""event"",""trial"",""time""
""fullscreenenter"",""0"",""3850""
","
","
","""event"",""trial"",""time""
""fullscreenenter"",""0"",""3850""
","
","null","run_exp/static/images/Set 6_rs/095b.jpg","null","","","","","","test","TL",""
"","html-keyboard-response","281","426266","0.0-239.0-2.0","""event"",""trial"",""time""
""fullscreenenter"",""0"",""3850""
","
","
","""event"",""trial"",""time""
""fullscreenenter"",""0"",""3850""
","
","null","<p></p>","null","","","","","","","",""
"","image","282","427252","0.0-240.0-0.0","""event"",""trial"",""time""
""fullscreenenter"",""0"",""3850""
","
","
","""event"",""trial"",""time""
""fullscreenenter"",""0"",""3850""
","
","985.1000000238419","run_exp/static/images/Set 6_rs/169a.jpg","86","","","","","","test","TR","4"
"","show_choice","283","427764","0.0-240.0-1.0","""event"",""trial"",""time""
""fullscreenenter"",""0"",""3850""
","
","
","""event"",""trial"",""time""
""fullscreenenter"",""0"",""3850""
","
","null","run_exp/static/images/Set 6_rs/169a.jpg","null","","","","","","test","TR",""
"","html-keyboard-response","284","428266","0.0-240.0-2.0","""event"",""trial"",""time""
""fullscreenenter"",""0"",""3850""
","
","
","""event"",""trial"",""time""
""fullscreenenter"",""0"",""3850""
","
","null","<p></p>","null","","","","","","","",""
"","image","285","429239","0.0-241.0-0.0","""event"",""trial"",""time""
""fullscreenenter"",""0"",""3850""
","
","
","""event"",""trial"",""time""
""fullscreenenter"",""0"",""3850""
","
","971.2999999523163","run_exp/static/images/Set 6_rs/001a.jpg","78","","","","","","test","TF","1"
"","show_choice","286","429748","0.0-241.0-1.0","""event"",""trial"",""time""
""fullscreenenter"",""0"",""3850""
","
","
","""event"",""trial"",""time""
""fullscreenenter"",""0"",""3850""
","
","null","run_exp/static/images/Set 6_rs/001a.jpg","null","","","","","","test","TF",""
"","html-keyboard-response","287","430250","0.0-241.0-2.0","""event"",""trial"",""time""
""fullscreenenter"",""0"",""3850""
","
","
","""event"",""trial"",""time""
""fullscreenenter"",""0"",""3850""
","
","null","<p></p>","null","","","","","","","",""
"","image","288","431306","0.0-242.0-0.0","""event"",""trial"",""time""
""fullscreenenter"",""0"",""3850""
","
","
","""event"",""trial"",""time""
""fullscreenenter"",""0"",""3850""
","
","1054.2000000476837","run_exp/static/images/Set 6_rs/122a.jpg","86","","","","","","test","TR","5"
"","show_choice","289","431815","0.0-242.0-1.0","""event"",""trial"",""time""
""fullscreenenter"",""0"",""3850""
","
","
","""event"",""trial"",""time""
""fullscreenenter"",""0"",""3850""
","
","null","run_exp/static/images/Set 6_rs/122a.jpg","null","","","","","","test","TR",""
"","html-keyboard-response","290","432318","0.0-242.0-2.0","""event"",""trial"",""time""
""fullscreenenter"",""0"",""3850""
","
","
","""event"",""trial"",""time""
""fullscreenenter"",""0"",""3850""
","
","null","<p></p>","null","","","","","","","",""
"","image","291","433447","0.0-243.0-0.0","""event"",""trial"",""time""
""fullscreenenter"",""0"",""3850""
","
","
","""event"",""trial"",""time""
""fullscreenenter"",""0"",""3850""
","
","1127.3999999761581","run_exp/static/images/Set 6_rs/109a.jpg","78","","","","","","test","TF","5"
"","show_choice","292","433958","0.0-243.0-1.0","""event"",""trial"",""time""
""fullscreenenter"",""0"",""3850""
","
","
","""event"",""trial"",""time""
""fullscreenenter"",""0"",""3850""
","
","null","run_exp/static/images/Set 6_rs/109a.jpg","null","","","","","","test","TF",""
"","html-keyboard-response","293","434472","0.0-243.0-2.0","""event"",""trial"",""time""
""fullscreenenter"",""0"",""3850""
","
","
","""event"",""trial"",""time""
""fullscreenenter"",""0"",""3850""
","
","null","<p></p>","null","","","","","","","",""
"","image","294","435198","0.0-244.0-0.0","""event"",""trial"",""time""
""fullscreenenter"",""0"",""3850""
","
","
","""event"",""trial"",""time""
""fullscreenenter"",""0"",""3850""
","
","724.8000000715256","run_exp/static/images/Set 6_rs/063a.jpg","86","","","","","","test","TR","2"
"","show_choice","295","435700","0.0-244.0-1.0","""event"",""trial"",""time""
""fullscreenenter"",""0"",""3850""
","
","
","""event"",""trial"",""time""
""fullscreenenter"",""0"",""3850""
","
","null","run_exp/static/images/Set 6_rs/063a.jpg","null","","","","","","test","TR",""
"","html-keyboard-response","296","436203","0.0-244.0-2.0","""event"",""trial"",""time""
""fullscreenenter"",""0"",""3850""
","
","
","""event"",""trial"",""time""
""fullscreenenter"",""0"",""3850""
","
","null","<p></p>","null","","","","","","","",""
"","image","297","437393","0.0-245.0-0.0","""event"",""trial"",""time""
""fullscreenenter"",""0"",""3850""
","
","
","""event"",""trial"",""time""
""fullscreenenter"",""0"",""3850""
","
","1189.0999999046326","run_exp/static/images/Set 6_rs/097a.jpg","78","","","","","","test","TF","5"
"","show_choice","298","437895","0.0-245.0-1.0","""event"",""trial"",""time""
""fullscreenenter"",""0"",""3850""
","
","
","""event"",""trial"",""time""
""fullscreenenter"",""0"",""3850""
","
","null","run_exp/static/images/Set 6_rs/097a.jpg","null","","","","","","test","TF",""
"","html-keyboard-response","299","438408","0.0-245.0-2.0","""event"",""trial"",""time""
""fullscreenenter"",""0"",""3850""
","
","
","""event"",""trial"",""time""
""fullscreenenter"",""0"",""3850""
","
","null","<p></p>","null","","","","","","","",""
"","image","300","439147","0.0-246.0-0.0","""event"",""trial"",""time""
""fullscreenenter"",""0"",""3850""
","
","
","""event"",""trial"",""time""
""fullscreenenter"",""0"",""3850""
","
","737.2999999523163","run_exp/static/images/Set 6_rs/010a.jpg","86","","","","","","test","TR","5"
"","show_choice","301","439660","0.0-246.0-1.0","""event"",""trial"",""time""
""fullscreenenter"",""0"",""3850""
","
","
","""event"",""trial"",""time""
""fullscreenenter"",""0"",""3850""
","
","null","run_exp/static/images/Set 6_rs/010a.jpg","null","","","","","","test","TR",""
"","html-keyboard-response","302","440167","0.0-246.0-2.0","""event"",""trial"",""time""
""fullscreenenter"",""0"",""3850""
","
","
","""event"",""trial"",""time""
""fullscreenenter"",""0"",""3850""
","
","null","<p></p>","null","","","","","","","",""
"","image","303","441088","0.0-247.0-0.0","""event"",""trial"",""time""
""fullscreenenter"",""0"",""3850""
","
","
","""event"",""trial"",""time""
""fullscreenenter"",""0"",""3850""
","
","918.7999999523163","run_exp/static/images/Set 6_rs/177a.jpg","86","","","","","","test","TR","5"
"","show_choice","304","441590","0.0-247.0-1.0","""event"",""trial"",""time""
""fullscreenenter"",""0"",""3850""
","
","
","""event"",""trial"",""time""
""fullscreenenter"",""0"",""3850""
","
","null","run_exp/static/images/Set 6_rs/177a.jpg","null","","","","","","test","TR",""
"","html-keyboard-response","305","442094","0.0-247.0-2.0","""event"",""trial"",""time""
""fullscreenenter"",""0"",""3850""
","
","
","""event"",""trial"",""time""
""fullscreenenter"",""0"",""3850""
","
","null","<p></p>","null","","","","","","","",""
"","image","306","443508","0.0-248.0-0.0","""event"",""trial"",""time""
""fullscreenenter"",""0"",""3850""
","
","
","""event"",""trial"",""time""
""fullscreenenter"",""0"",""3850""
","
","1413","run_exp/static/images/Set 6_rs/167b.jpg","66","","","","","","test","TL","2"
"","show_choice","307","444011","0.0-248.0-1.0","""event"",""trial"",""time""
""fullscreenenter"",""0"",""3850""
","
","
","""event"",""trial"",""time""
""fullscreenenter"",""0"",""3850""
","
","null","run_exp/static/images/Set 6_rs/167b.jpg","null","","","","","","test","TL",""
"","html-keyboard-response","308","444521","0.0-248.0-2.0","""event"",""trial"",""time""
""fullscreenenter"",""0"",""3850""
","
","
","""event"",""trial"",""time""
""fullscreenenter"",""0"",""3850""
","
","null","<p></p>","null","","","","","","","",""
"","image","309","445349","0.0-249.0-0.0","""event"",""trial"",""time""
""fullscreenenter"",""0"",""3850""
","
","
","""event"",""trial"",""time""
""fullscreenenter"",""0"",""3850""
","
","826.5999999046326","run_exp/static/images/Set 6_rs/007a.jpg","86","","","","","","test","TR","3"
"","show_choice","310","445854","0.0-249.0-1.0","""event"",""trial"",""time""
""fullscreenenter"",""0"",""3850""
","
","
","""event"",""trial"",""time""
""fullscreenenter"",""0"",""3850""
","
","null","run_exp/static/images/Set 6_rs/007a.jpg","null","","","","","","test","TR",""
"","html-keyboard-response","311","446356","0.0-249.0-2.0","""event"",""trial"",""time""
""fullscreenenter"",""0"",""3850""
","
","
","""event"",""trial"",""time""
""fullscreenenter"",""0"",""3850""
","
","null","<p></p>","null","","","","","","","",""
"","image","312","447445","0.0-250.0-0.0","""event"",""trial"",""time""
""fullscreenenter"",""0"",""3850""
","
","
","""event"",""trial"",""time""
""fullscreenenter"",""0"",""3850""
","
","1087.7999999523163","run_exp/static/images/Set 6_rs/047a.jpg","78","","","","","","test","TF","3"
"","show_choice","313","447956","0.0-250.0-1.0","""event"",""trial"",""time""
""fullscreenenter"",""0"",""3850""
","
","
","""event"",""trial"",""time""
""fullscreenenter"",""0"",""3850""
","
","null","run_exp/static/images/Set 6_rs/047a.jpg","null","","","","","","test","TF",""
"","html-keyboard-response","314","448459","0.0-250.0-2.0","""event"",""trial"",""time""
""fullscreenenter"",""0"",""3850""
","
","
","""event"",""trial"",""time""
""fullscreenenter"",""0"",""3850""
","
","null","<p></p>","null","","","","","","","",""
"","image","315","449487","0.0-251.0-0.0","""event"",""trial"",""time""
""fullscreenenter"",""0"",""3850""
","
","
","""event"",""trial"",""time""
""fullscreenenter"",""0"",""3850""
","
","1026.7999999523163","run_exp/static/images/Set 6_rs/118a.jpg","78","","","","","","test","TF","5"
"","show_choice","316","449989","0.0-251.0-1.0","""event"",""trial"",""time""
""fullscreenenter"",""0"",""3850""
","
","
","""event"",""trial"",""time""
""fullscreenenter"",""0"",""3850""
","
","null","run_exp/static/images/Set 6_rs/118a.jpg","null","","","","","","test","TF",""
"","html-keyboard-response","317","450492","0.0-251.0-2.0","""event"",""trial"",""time""
""fullscreenenter"",""0"",""3850""
","
","
","""event"",""trial"",""time""
""fullscreenenter"",""0"",""3850""
","
","null","<p></p>","null","","","","","","","",""
"","image","318","451877","0.0-252.0-0.0","""event"",""trial"",""time""
""fullscreenenter"",""0"",""3850""
","
","
","""event"",""trial"",""time""
""fullscreenenter"",""0"",""3850""
","
","1383","run_exp/static/images/Set 6_rs/111b.jpg","66","","","","","","test","TL","3"
"","show_choice","319","452388","0.0-252.0-1.0","""event"",""trial"",""time""
""fullscreenenter"",""0"",""3850""
","
","
","""event"",""trial"",""time""
""fullscreenenter"",""0"",""3850""
","
","null","run_exp/static/images/Set 6_rs/111b.jpg","null","","","","","","test","TL",""
"","html-keyboard-response","320","452890","0.0-252.0-2.0","""event"",""trial"",""time""
""fullscreenenter"",""0"",""3850""
","
","
","""event"",""trial"",""time""
""fullscreenenter"",""0"",""3850""
","
","null","<p></p>","null","","","","","","","",""
"","image","321","454377","0.0-253.0-0.0","""event"",""trial"",""time""
""fullscreenenter"",""0"",""3850""
","
","
","""event"",""trial"",""time""
""fullscreenenter"",""0"",""3850""
","
","1485.5999999046326","run_exp/static/images/Set 6_rs/140a.jpg","78","","","","","","test","TF","1"
"","show_choice","322","454885","0.0-253.0-1.0","""event"",""trial"",""time""
""fullscreenenter"",""0"",""3850""
","
","
","""event"",""trial"",""time""
""fullscreenenter"",""0"",""3850""
","
","null","run_exp/static/images/Set 6_rs/140a.jpg","null","","","","","","test","TF",""
"","html-keyboard-response","323","455397","0.0-253.0-2.0","""event"",""trial"",""time""
""fullscreenenter"",""0"",""3850""
","
","
","""event"",""trial"",""time""
""fullscreenenter"",""0"",""3850""
","
","null","<p></p>","null","","","","","","","",""
"","image","324","456600","0.0-254.0-0.0","""event"",""trial"",""time""
""fullscreenenter"",""0"",""3850""
","
","
","""event"",""trial"",""time""
""fullscreenenter"",""0"",""3850""
","
","1202.3000000715256","run_exp/static/images/Set 6_rs/035a.jpg","78","","","","","","test","TF","4"
"","show_choice","325","457107","0.0-254.0-1.0","""event"",""trial"",""time""
""fullscreenenter"",""0"",""3850""
","
","
","""event"",""trial"",""time""
""fullscreenenter"",""0"",""3850""
","
","null","run_exp/static/images/Set 6_rs/035a.jpg","null","","","","","","test","TF",""
"","html-keyboard-response","326","457609","0.0-254.0-2.0","""event"",""trial"",""time""
""fullscreenenter"",""0"",""3850""
","
","
","""event"",""trial"",""time""
""fullscreenenter"",""0"",""3850""
","
","null","<p></p>","null","","","","","","","",""
"","image","327","458829","0.0-255.0-0.0","""event"",""trial"",""time""
""fullscreenenter"",""0"",""3850""
","
","
","""event"",""trial"",""time""
""fullscreenenter"",""0"",""3850""
","
","1219.5","run_exp/static/images/Set 6_rs/089b.jpg","66","","","","","","test","TL","4"
"","show_choice","328","459339","0.0-255.0-1.0","""event"",""trial"",""time""
""fullscreenenter"",""0"",""3850""
","
","
","""event"",""trial"",""time""
""fullscreenenter"",""0"",""3850""
","
","null","run_exp/static/images/Set 6_rs/089b.jpg","null","","","","","","test","TL",""
"","html-keyboard-response","329","459842","0.0-255.0-2.0","""event"",""trial"",""time""
""fullscreenenter"",""0"",""3850""
","
","
","""event"",""trial"",""time""
""fullscreenenter"",""0"",""3850""
","
","null","<p></p>","null","","","","","","","",""
"","image","330","461025","0.0-256.0-0.0","""event"",""trial"",""time""
""fullscreenenter"",""0"",""3850""
","
","
","""event"",""trial"",""time""
""fullscreenenter"",""0"",""3850""
","
","1182.1000000238419","run_exp/static/images/Set 6_rs/168b.jpg","66","","","","","","test","TL","3"
"","show_choice","331","461527","0.0-256.0-1.0","""event"",""trial"",""time""
""fullscreenenter"",""0"",""3850""
","
","
","""event"",""trial"",""time""
""fullscreenenter"",""0"",""3850""
","
","null","run_exp/static/images/Set 6_rs/168b.jpg","null","","","","","","test","TL",""
"","html-keyboard-response","332","462030","0.0-256.0-2.0","""event"",""trial"",""time""
""fullscreenenter"",""0"",""3850""
","
","
","""event"",""trial"",""time""
""fullscreenenter"",""0"",""3850""
","
","null","<p></p>","null","","","","","","","",""
"","image","333","463021","0.0-257.0-0.0","""event"",""trial"",""time""
""fullscreenenter"",""0"",""3850""
","
","
","""event"",""trial"",""time""
""fullscreenenter"",""0"",""3850""
","
","990.2000000476837","run_exp/static/images/Set 6_rs/138b.jpg","66","","","","","","test","TL","1"
"","show_choice","334","463531","0.0-257.0-1.0","""event"",""trial"",""time""
""fullscreenenter"",""0"",""3850""
","
","
","""event"",""trial"",""time""
""fullscreenenter"",""0"",""3850""
","
","null","run_exp/static/images/Set 6_rs/138b.jpg","null","","","","","","test","TL",""
"","html-keyboard-response","335","464043","0.0-257.0-2.0","""event"",""trial"",""time""
""fullscreenenter"",""0"",""3850""
","
","
","""event"",""trial"",""time""
""fullscreenenter"",""0"",""3850""
","
","null","<p></p>","null","","","","","","","",""
"","image","336","464999","0.0-258.0-0.0","""event"",""trial"",""time""
""fullscreenenter"",""0"",""3850""
","
","
","""event"",""trial"",""time""
""fullscreenenter"",""0"",""3850""
","
","954.7999999523163","run_exp/static/images/Set 6_rs/190a.jpg","78","","","","","","test","TF","3"
"","show_choice","337","465506","0.0-258.0-1.0","""event"",""trial"",""time""
""fullscreenenter"",""0"",""3850""
","
","
","""event"",""trial"",""time""
""fullscreenenter"",""0"",""3850""
","
","null","run_exp/static/images/Set 6_rs/190a.jpg","null","","","","","","test","TF",""
"","html-keyboard-response","338","466015","0.0-258.0-2.0","""event"",""trial"",""time""
""fullscreenenter"",""0"",""3850""
","
","
","""event"",""trial"",""time""
""fullscreenenter"",""0"",""3850""
","
","null","<p></p>","null","","","","","","","",""
"","image","339","466782","0.0-259.0-0.0","""event"",""trial"",""time""
""fullscreenenter"",""0"",""3850""
","
","
","""event"",""trial"",""time""
""fullscreenenter"",""0"",""3850""
","
","766.3999999761581","run_exp/static/images/Set 6_rs/187a.jpg","86","","","","","","test","TR","3"
"","show_choice","340","467294","0.0-259.0-1.0","""event"",""trial"",""time""
""fullscreenenter"",""0"",""3850""
","
","
","""event"",""trial"",""time""
""fullscreenenter"",""0"",""3850""
","
","null","run_exp/static/images/Set 6_rs/187a.jpg","null","","","","","","test","TR",""
"","html-keyboard-response","341","467798","0.0-259.0-2.0","""event"",""trial"",""time""
""fullscreenenter"",""0"",""3850""
","
","
","""event"",""trial"",""time""
""fullscreenenter"",""0"",""3850""
