"success","trial_type","trial_index","time_elapsed","internal_node_id","interactions","blur_events","focus_events","fullscreenenter_events","fullscreenexit_events","rt","stimulus","key_press","subject_id","participant_id","age","gender","prompt","phase","condition","lure_bin"
"true","fullscreen","0","7620","0.0-0.0","""event"",""trial"",""time""
""fullscreenenter"",""0"",""6625""
","
","
","""event"",""trial"",""time""
""fullscreenenter"",""0"",""6625""
","
","","","","","","","","","","",""
"","pavlovia","1","7628","0.0-1.0","""event"",""trial"",""time""
""fullscreenenter"",""0"",""6625""
","
","
","""event"",""trial"",""time""
""fullscreenenter"",""0"",""6625""
","
","","","","","","","","","","",""
"","welcome","2","42649","0.0-2.0","""event"",""trial"",""time""
""fullscreenenter"",""0"",""6625""
","
","
","""event"",""trial"",""time""
""fullscreenenter"",""0"",""6625""
","
","null","run_exp/static/audio/clip_1_welcome.m4a","null","484","220","19","Female","<div class='center'><p>Welcome to the third part of the study! First, you'll be shown pictures of items one at a time. For each picture, you have to decide if the item is typically found indoors or outdoors.</p><p>If you think it's usually found indoors, then press <b>v</b> key on your keyboard. If you think it's usually found outdoors, then press the <b>n</b> key.There will be reminders on the screen to help you remember which keys to press. </p><p>If you're not sure whether the item is an indoor item or an outdoor item, go ahead and take a guess but try your best not to skip that choice. </p></div>","","",""
"","html-keyboard-response","3","47124","0.0-3.0","""event"",""trial"",""time""
""fullscreenenter"",""0"",""6625""
","
","
","""event"",""trial"",""time""
""fullscreenenter"",""0"",""6625""
","
","4471.399999999907","<div class='center'><p>Welcome to the third part of the study! First, you'll be shown pictures of items one at a time. For each picture, you have to decide if the item is typically found indoors or outdoors.</p><p>If you think it's usually found indoors, then press <b>v</b> key on your keyboard. If you think it's usually found outdoors, then press the <b>n</b> key.There will be reminders on the screen to help you remember which keys to press. </p><p>If you're not sure whether the item is an indoor item or an outdoor item, go ahead and take a guess but try your best not to skip that choice. </p><div><p><b>[Press the space bar to continue]</b></p></div>","32","","","","","","","",""
"","image","4","48572","0.0-4.0","""event"",""trial"",""time""
""fullscreenenter"",""0"",""6625""
","
","
","""event"",""trial"",""time""
""fullscreenenter"",""0"",""6625""
","
","1445.2000000001863","run_exp/static/images/Set 6_rs/070a.jpg","78","","","","","","learn","SR",""
"","show_choice","5","49146","0.0-5.0","""event"",""trial"",""time""
""fullscreenenter"",""0"",""6625""
","
","
","""event"",""trial"",""time""
""fullscreenenter"",""0"",""6625""
","
","null","run_exp/static/images/Set 6_rs/070a.jpg","null","","","","","","learn","SR",""
"","html-keyboard-response","6","49666","0.0-6.0","""event"",""trial"",""time""
""fullscreenenter"",""0"",""6625""
","
","
","""event"",""trial"",""time""
""fullscreenenter"",""0"",""6625""
","
","null","<p></p>","null","","","","","","","",""
"","image","7","51178","0.0-7.0","""event"",""trial"",""time""
""fullscreenenter"",""0"",""6625""
","
","
","""event"",""trial"",""time""
""fullscreenenter"",""0"",""6625""
","
","1510.7000000001863","run_exp/static/images/Set 6_rs/036a.jpg","86","","","","","","learn","SL",""
"","show_choice","8","51676","0.0-8.0","""event"",""trial"",""time""
""fullscreenenter"",""0"",""6625""
","
","
","""event"",""trial"",""time""
""fullscreenenter"",""0"",""6625""
","
","null","run_exp/static/images/Set 6_rs/036a.jpg","null","","","","","","learn","SL",""
"","html-keyboard-response","9","52195","0.0-9.0","""event"",""trial"",""time""
""fullscreenenter"",""0"",""6625""
","
","
","""event"",""trial"",""time""
""fullscreenenter"",""0"",""6625""
","
","null","<p></p>","null","","","","","","","",""
"","image","10","53067","0.0-10.0","""event"",""trial"",""time""
""fullscreenenter"",""0"",""6625""
","
","
","""event"",""trial"",""time""
""fullscreenenter"",""0"",""6625""
","
","870.3000000000466","run_exp/static/images/Set 6_rs/006a.jpg","86","","","","","","learn","SL",""
"","show_choice","11","54206","0.0-11.0","""event"",""trial"",""time""
""fullscreenenter"",""0"",""6625""
","
","
","""event"",""trial"",""time""
""fullscreenenter"",""0"",""6625""
","
","null","run_exp/static/images/Set 6_rs/006a.jpg","null","","","","","","learn","SL",""
"","html-keyboard-response","12","54707","0.0-12.0","""event"",""trial"",""time""
""fullscreenenter"",""0"",""6625""
","
","
","""event"",""trial"",""time""
""fullscreenenter"",""0"",""6625""
","
","null","<p></p>","null","","","","","","","",""
"","image","13","55493","0.0-13.0","""event"",""trial"",""time""
""fullscreenenter"",""0"",""6625""
","
","
","""event"",""trial"",""time""
""fullscreenenter"",""0"",""6625""
","
","783.8000000000466","run_exp/static/images/Set 6_rs/057a.jpg","86","","","","","","learn","SL",""
"","show_choice","14","56723","0.0-14.0","""event"",""trial"",""time""
""fullscreenenter"",""0"",""6625""
","
","
","""event"",""trial"",""time""
""fullscreenenter"",""0"",""6625""
","
","null","run_exp/static/images/Set 6_rs/057a.jpg","null","","","","","","learn","SL",""
"","html-keyboard-response","15","57229","0.0-15.0","""event"",""trial"",""time""
""fullscreenenter"",""0"",""6625""
","
","
","""event"",""trial"",""time""
""fullscreenenter"",""0"",""6625""
","
","null","<p></p>","null","","","","","","","",""
"","image","16","58016","0.0-16.0","""event"",""trial"",""time""
""fullscreenenter"",""0"",""6625""
","
","
","""event"",""trial"",""time""
""fullscreenenter"",""0"",""6625""
","
","786","run_exp/static/images/Set 6_rs/129a.jpg","86","","","","","","learn","SL",""
"","show_choice","17","59243","0.0-17.0","""event"",""trial"",""time""
""fullscreenenter"",""0"",""6625""
","
","
","""event"",""trial"",""time""
""fullscreenenter"",""0"",""6625""
","
","null","run_exp/static/images/Set 6_rs/129a.jpg","null","","","","","","learn","SL",""
"","html-keyboard-response","18","59756","0.0-18.0","""event"",""trial"",""time""
""fullscreenenter"",""0"",""6625""
","
","
","""event"",""trial"",""time""
""fullscreenenter"",""0"",""6625""
","
","null","<p></p>","null","","","","","","","",""
"","image","19","60468","0.0-19.0","""event"",""trial"",""time""
""fullscreenenter"",""0"",""6625""
","
","
","""event"",""trial"",""time""
""fullscreenenter"",""0"",""6625""
","
","710.3999999999069","run_exp/static/images/Set 6_rs/079a.jpg","86","","","","","","learn","SL",""
"","show_choice","20","61770","0.0-20.0","""event"",""trial"",""time""
""fullscreenenter"",""0"",""6625""
","
","
","""event"",""trial"",""time""
""fullscreenenter"",""0"",""6625""
","
","null","run_exp/static/images/Set 6_rs/079a.jpg","null","","","","","","learn","SL",""
"","html-keyboard-response","21","62274","0.0-21.0","""event"",""trial"",""time""
""fullscreenenter"",""0"",""6625""
","
","
","""event"",""trial"",""time""
""fullscreenenter"",""0"",""6625""
","
","null","<p></p>","null","","","","","","","",""
"","image","22","63057","0.0-22.0","""event"",""trial"",""time""
""fullscreenenter"",""0"",""6625""
","
","
","""event"",""trial"",""time""
""fullscreenenter"",""0"",""6625""
","
","781.5","run_exp/static/images/Set 6_rs/095a.jpg","86","","","","","","learn","SL",""
"","show_choice","23","64291","0.0-23.0","""event"",""trial"",""time""
""fullscreenenter"",""0"",""6625""
","
","
","""event"",""trial"",""time""
""fullscreenenter"",""0"",""6625""
","
","null","run_exp/static/images/Set 6_rs/095a.jpg","null","","","","","","learn","SL",""
"","html-keyboard-response","24","64793","0.0-24.0","""event"",""trial"",""time""
""fullscreenenter"",""0"",""6625""
","
","
","""event"",""trial"",""time""
""fullscreenenter"",""0"",""6625""
","
","null","<p></p>","null","","","","","","","",""
"","image","25","65740","0.0-25.0","""event"",""trial"",""time""
""fullscreenenter"",""0"",""6625""
","
","
","""event"",""trial"",""time""
""fullscreenenter"",""0"",""6625""
","
","945.3999999999069","run_exp/static/images/Set 6_rs/172a.jpg","78","","","","","","learn","SR",""
"","show_choice","26","66803","0.0-26.0","""event"",""trial"",""time""
""fullscreenenter"",""0"",""6625""
","
","
","""event"",""trial"",""time""
""fullscreenenter"",""0"",""6625""
","
","null","run_exp/static/images/Set 6_rs/172a.jpg","null","","","","","","learn","SR",""
"","html-keyboard-response","27","67307","0.0-27.0","""event"",""trial"",""time""
""fullscreenenter"",""0"",""6625""
","
","
","""event"",""trial"",""time""
""fullscreenenter"",""0"",""6625""
","
","null","<p></p>","null","","","","","","","",""
"","image","28","68100","0.0-28.0","""event"",""trial"",""time""
""fullscreenenter"",""0"",""6625""
","
","
","""event"",""trial"",""time""
""fullscreenenter"",""0"",""6625""
","
","792.5","run_exp/static/images/Set 6_rs/073a.jpg","86","","","","","","learn","SL",""
"","show_choice","29","69308","0.0-29.0","""event"",""trial"",""time""
""fullscreenenter"",""0"",""6625""
","
","
","""event"",""trial"",""time""
""fullscreenenter"",""0"",""6625""
","
","null","run_exp/static/images/Set 6_rs/073a.jpg","null","","","","","","learn","SL",""
"","html-keyboard-response","30","69823","0.0-30.0","""event"",""trial"",""time""
""fullscreenenter"",""0"",""6625""
","
","
","""event"",""trial"",""time""
""fullscreenenter"",""0"",""6625""
","
","null","<p></p>","null","","","","","","","",""
"","image","31","71831","0.0-31.0","""event"",""trial"",""time""
""fullscreenenter"",""0"",""6625""
","
","
","""event"",""trial"",""time""
""fullscreenenter"",""0"",""6625""
","
","null","run_exp/static/images/Set 6_rs/108a.jpg","null","","","","","","learn","SR",""
"","show_choice","32","73839","0.0-32.0","""event"",""trial"",""time""
""fullscreenenter"",""0"",""6625""
","
","
","""event"",""trial"",""time""
""fullscreenenter"",""0"",""6625""
","
","null","run_exp/static/images/blank.png","null","","","","","","learn","SR",""
"","html-keyboard-response","33","74341","0.0-33.0","""event"",""trial"",""time""
""fullscreenenter"",""0"",""6625""
","
","
","""event"",""trial"",""time""
""fullscreenenter"",""0"",""6625""
","
","null","<p></p>","null","","","","","","","",""
"","image","34","75080","0.0-34.0","""event"",""trial"",""time""
""fullscreenenter"",""0"",""6625""
","
","
","""event"",""trial"",""time""
""fullscreenenter"",""0"",""6625""
","
","737.1999999999534","run_exp/static/images/Set 6_rs/186a.jpg","86","","","","","","learn","SR",""
"","show_choice","35","76355","0.0-35.0","""event"",""trial"",""time""
""fullscreenenter"",""0"",""6625""
","
","
","""event"",""trial"",""time""
""fullscreenenter"",""0"",""6625""
","
","null","run_exp/static/images/Set 6_rs/186a.jpg","null","","","","","","learn","SR",""
"","html-keyboard-response","36","76858","0.0-36.0","""event"",""trial"",""time""
""fullscreenenter"",""0"",""6625""
","
","
","""event"",""trial"",""time""
""fullscreenenter"",""0"",""6625""
","
","null","<p></p>","null","","","","","","","",""
"","image","37","77793","0.0-37.0","""event"",""trial"",""time""
""fullscreenenter"",""0"",""6625""
","
","
","""event"",""trial"",""time""
""fullscreenenter"",""0"",""6625""
","
","933.0999999998603","run_exp/static/images/Set 6_rs/152a.jpg","86","","","","","","learn","SR",""
"","show_choice","38","78868","0.0-38.0","""event"",""trial"",""time""
""fullscreenenter"",""0"",""6625""
","
","
","""event"",""trial"",""time""
""fullscreenenter"",""0"",""6625""
","
","null","run_exp/static/images/Set 6_rs/152a.jpg","null","","","","","","learn","SR",""
"","html-keyboard-response","39","79373","0.0-39.0","""event"",""trial"",""time""
""fullscreenenter"",""0"",""6625""
","
","
","""event"",""trial"",""time""
""fullscreenenter"",""0"",""6625""
","
","null","<p></p>","null","","","","","","","",""
"","image","40","80105","0.0-40.0","""event"",""trial"",""time""
""fullscreenenter"",""0"",""6625""
","
","
","""event"",""trial"",""time""
""fullscreenenter"",""0"",""6625""
","
","731.5","run_exp/static/images/Set 6_rs/023a.jpg","86","","","","","","learn","SR",""
"","show_choice","41","81388","0.0-41.0","""event"",""trial"",""time""
""fullscreenenter"",""0"",""6625""
","
","
","""event"",""trial"",""time""
""fullscreenenter"",""0"",""6625""
","
","null","run_exp/static/images/Set 6_rs/023a.jpg","null","","","","","","learn","SR",""
"","html-keyboard-response","42","81900","0.0-42.0","""event"",""trial"",""time""
""fullscreenenter"",""0"",""6625""
","
","
","""event"",""trial"",""time""
""fullscreenenter"",""0"",""6625""
","
","null","<p></p>","null","","","","","","","",""
"","image","43","82874","0.0-43.0","""event"",""trial"",""time""
""fullscreenenter"",""0"",""6625""
","
","
","""event"",""trial"",""time""
""fullscreenenter"",""0"",""6625""
","
","972.7999999998137","run_exp/static/images/Set 6_rs/091a.jpg","78","","","","","","learn","SL",""
"","show_choice","44","83905","0.0-44.0","""event"",""trial"",""time""
""fullscreenenter"",""0"",""6625""
","
","
","""event"",""trial"",""time""
""fullscreenenter"",""0"",""6625""
","
","null","run_exp/static/images/Set 6_rs/091a.jpg","null","","","","","","learn","SL",""
"","html-keyboard-response","45","84408","0.0-45.0","""event"",""trial"",""time""
""fullscreenenter"",""0"",""6625""
","
","
","""event"",""trial"",""time""
""fullscreenenter"",""0"",""6625""
","
","null","<p></p>","null","","","","","","","",""
"","image","46","85096","0.0-46.0","""event"",""trial"",""time""
""fullscreenenter"",""0"",""6625""
","
","
","""event"",""trial"",""time""
""fullscreenenter"",""0"",""6625""
","
","686.5","run_exp/static/images/Set 6_rs/063a.jpg","86","","","","","","learn","SR",""
"","show_choice","47","86417","0.0-47.0","""event"",""trial"",""time""
""fullscreenenter"",""0"",""6625""
","
","
","""event"",""trial"",""time""
""fullscreenenter"",""0"",""6625""
","
","null","run_exp/static/images/Set 6_rs/063a.jpg","null","","","","","","learn","SR",""
"","html-keyboard-response","48","86923","0.0-48.0","""event"",""trial"",""time""
""fullscreenenter"",""0"",""6625""
","
","
","""event"",""trial"",""time""
""fullscreenenter"",""0"",""6625""
","
","null","<p></p>","null","","","","","","","",""
"","image","49","87564","0.0-49.0","""event"",""trial"",""time""
""fullscreenenter"",""0"",""6625""
","
","
","""event"",""trial"",""time""
""fullscreenenter"",""0"",""6625""
","
","639.8999999999069","run_exp/static/images/Set 6_rs/181a.jpg","78","","","","","","learn","SL",""
"","show_choice","50","88928","0.0-50.0","""event"",""trial"",""time""
""fullscreenenter"",""0"",""6625""
","
","
","""event"",""trial"",""time""
""fullscreenenter"",""0"",""6625""
","
","null","run_exp/static/images/Set 6_rs/181a.jpg","null","","","","","","learn","SL",""
"","html-keyboard-response","51","89438","0.0-51.0","""event"",""trial"",""time""
""fullscreenenter"",""0"",""6625""
","
","
","""event"",""trial"",""time""
""fullscreenenter"",""0"",""6625""
","
","null","<p></p>","null","","","","","","","",""
"","image","52","90228","0.0-52.0","""event"",""trial"",""time""
""fullscreenenter"",""0"",""6625""
","
","
","""event"",""trial"",""time""
""fullscreenenter"",""0"",""6625""
","
","788.3000000000466","run_exp/static/images/Set 6_rs/066a.jpg","86","","","","","","learn","SL",""
"","show_choice","53","91442","0.0-53.0","""event"",""trial"",""time""
""fullscreenenter"",""0"",""6625""
","
","
","""event"",""trial"",""time""
""fullscreenenter"",""0"",""6625""
","
","null","run_exp/static/images/Set 6_rs/066a.jpg","null","","","","","","learn","SL",""
"","html-keyboard-response","54","91954","0.0-54.0","""event"",""trial"",""time""
""fullscreenenter"",""0"",""6625""
","
","
","""event"",""trial"",""time""
""fullscreenenter"",""0"",""6625""
","
","null","<p></p>","null","","","","","","","",""
"","image","55","92602","0.0-55.0","""event"",""trial"",""time""
""fullscreenenter"",""0"",""6625""
","
","
","""event"",""trial"",""time""
""fullscreenenter"",""0"",""6625""
","
","646.4000000001397","run_exp/static/images/Set 6_rs/071a.jpg","78","","","","","","learn","SL",""
"","show_choice","56","93967","0.0-56.0","""event"",""trial"",""time""
""fullscreenenter"",""0"",""6625""
","
","
","""event"",""trial"",""time""
""fullscreenenter"",""0"",""6625""
","
","null","run_exp/static/images/Set 6_rs/071a.jpg","null","","","","","","learn","SL",""
"","html-keyboard-response","57","94472","0.0-57.0","""event"",""trial"",""time""
""fullscreenenter"",""0"",""6625""
","
","
","""event"",""trial"",""time""
""fullscreenenter"",""0"",""6625""
","
","null","<p></p>","null","","","","","","","",""
"","image","58","95227","0.0-58.0","""event"",""trial"",""time""
""fullscreenenter"",""0"",""6625""
","
","
","""event"",""trial"",""time""
""fullscreenenter"",""0"",""6625""
","
","753.3999999999069","run_exp/static/images/Set 6_rs/055a.jpg","86","","","","","","learn","SL",""
"","show_choice","59","96488","0.0-59.0","""event"",""trial"",""time""
""fullscreenenter"",""0"",""6625""
","
","
","""event"",""trial"",""time""
""fullscreenenter"",""0"",""6625""
","
","null","run_exp/static/images/Set 6_rs/055a.jpg","null","","","","","","learn","SL",""
"","html-keyboard-response","60","96989","0.0-60.0","""event"",""trial"",""time""
""fullscreenenter"",""0"",""6625""
","
","
","""event"",""trial"",""time""
""fullscreenenter"",""0"",""6625""
","
","null","<p></p>","null","","","","","","","",""
"","image","61","97975","0.0-61.0","""event"",""trial"",""time""
""fullscreenenter"",""0"",""6625""
","
","
","""event"",""trial"",""time""
""fullscreenenter"",""0"",""6625""
","
","985.3000000000466","run_exp/static/images/Set 6_rs/085a.jpg","78","","","","","","learn","SL",""
"","show_choice","62","99003","0.0-62.0","""event"",""trial"",""time""
""fullscreenenter"",""0"",""6625""
","
","
","""event"",""trial"",""time""
""fullscreenenter"",""0"",""6625""
","
","null","run_exp/static/images/Set 6_rs/085a.jpg","null","","","","","","learn","SL",""
"","html-keyboard-response","63","99506","0.0-63.0","""event"",""trial"",""time""
""fullscreenenter"",""0"",""6625""
","
","
","""event"",""trial"",""time""
""fullscreenenter"",""0"",""6625""
","
","null","<p></p>","null","","","","","","","",""
"","image","64","100288","0.0-64.0","""event"",""trial"",""time""
""fullscreenenter"",""0"",""6625""
","
","
","""event"",""trial"",""time""
""fullscreenenter"",""0"",""6625""
","
","780.3000000000466","run_exp/static/images/Set 6_rs/144a.jpg","86","","","","","","learn","SL",""
"","show_choice","65","101523","0.0-65.0","""event"",""trial"",""time""
""fullscreenenter"",""0"",""6625""
","
","
","""event"",""trial"",""time""
""fullscreenenter"",""0"",""6625""
","
","null","run_exp/static/images/Set 6_rs/144a.jpg","null","","","","","","learn","SL",""
"","html-keyboard-response","66","102039","0.0-66.0","""event"",""trial"",""time""
""fullscreenenter"",""0"",""6625""
","
","
","""event"",""trial"",""time""
""fullscreenenter"",""0"",""6625""
","
","null","<p></p>","null","","","","","","","",""
"","image","67","102826","0.0-67.0","""event"",""trial"",""time""
""fullscreenenter"",""0"",""6625""
","
","
","""event"",""trial"",""time""
""fullscreenenter"",""0"",""6625""
","
","785.8000000000466","run_exp/static/images/Set 6_rs/061a.jpg","78","","","","","","learn","SR",""
"","show_choice","68","104044","0.0-68.0","""event"",""trial"",""time""
""fullscreenenter"",""0"",""6625""
","
","
","""event"",""trial"",""time""
""fullscreenenter"",""0"",""6625""
","
","null","run_exp/static/images/Set 6_rs/061a.jpg","null","","","","","","learn","SR",""
"","html-keyboard-response","69","104554","0.0-69.0","""event"",""trial"",""time""
""fullscreenenter"",""0"",""6625""
","
","
","""event"",""trial"",""time""
""fullscreenenter"",""0"",""6625""
","
","null","<p></p>","null","","","","","","","",""
"","image","70","105450","0.0-70.0","""event"",""trial"",""time""
""fullscreenenter"",""0"",""6625""
","
","
","""event"",""trial"",""time""
""fullscreenenter"",""0"",""6625""
","
","894.3000000000466","run_exp/static/images/Set 6_rs/169a.jpg","78","","","","","","learn","SR",""
"","show_choice","71","106565","0.0-71.0","""event"",""trial"",""time""
""fullscreenenter"",""0"",""6625""
","
","
","""event"",""trial"",""time""
""fullscreenenter"",""0"",""6625""
","
","null","run_exp/static/images/Set 6_rs/169a.jpg","null","","","","","","learn","SR",""
"","html-keyboard-response","72","107071","0.0-72.0","""event"",""trial"",""time""
""fullscreenenter"",""0"",""6625""
","
","
","""event"",""trial"",""time""
""fullscreenenter"",""0"",""6625""
","
","null","<p></p>","null","","","","","","","",""
"","image","73","107862","0.0-73.0","""event"",""trial"",""time""
""fullscreenenter"",""0"",""6625""
","
","
","""event"",""trial"",""time""
""fullscreenenter"",""0"",""6625""
","
","789.6999999999534","run_exp/static/images/Set 6_rs/010a.jpg","86","","","","","","learn","SR",""
"","show_choice","74","109076","0.0-74.0","""event"",""trial"",""time""
""fullscreenenter"",""0"",""6625""
","
","
","""event"",""trial"",""time""
""fullscreenenter"",""0"",""6625""
","
","null","run_exp/static/images/Set 6_rs/010a.jpg","null","","","","","","learn","SR",""
"","html-keyboard-response","75","109587","0.0-75.0","""event"",""trial"",""time""
""fullscreenenter"",""0"",""6625""
","
","
","""event"",""trial"",""time""
""fullscreenenter"",""0"",""6625""
","
","null","<p></p>","null","","","","","","","",""
"","image","76","110325","0.0-76.0","""event"",""trial"",""time""
""fullscreenenter"",""0"",""6625""
","
","
","""event"",""trial"",""time""
""fullscreenenter"",""0"",""6625""
","
","736.6000000000931","run_exp/static/images/Set 6_rs/166a.jpg","86","","","","","","learn","SR",""
"","show_choice","77","111593","0.0-77.0","""event"",""trial"",""time""
""fullscreenenter"",""0"",""6625""
","
","
","""event"",""trial"",""time""
""fullscreenenter"",""0"",""6625""
","
","null","run_exp/static/images/Set 6_rs/166a.jpg","null","","","","","","learn","SR",""
"","html-keyboard-response","78","112103","0.0-78.0","""event"",""trial"",""time""
""fullscreenenter"",""0"",""6625""
","
","
","""event"",""trial"",""time""
""fullscreenenter"",""0"",""6625""
","
","null","<p></p>","null","","","","","","","",""
"","image","79","112964","0.0-79.0","""event"",""trial"",""time""
""fullscreenenter"",""0"",""6625""
","
","
","""event"",""trial"",""time""
""fullscreenenter"",""0"",""6625""
","
","859.4000000001397","run_exp/static/images/Set 6_rs/111a.jpg","86","","","","","","learn","SL",""
"","show_choice","80","114106","0.0-80.0","""event"",""trial"",""time""
""fullscreenenter"",""0"",""6625""
","
","
","""event"",""trial"",""time""
""fullscreenenter"",""0"",""6625""
","
","null","run_exp/static/images/Set 6_rs/111a.jpg","null","","","","","","learn","SL",""
"","html-keyboard-response","81","114621","0.0-81.0","""event"",""trial"",""time""
""fullscreenenter"",""0"",""6625""
","
","
","""event"",""trial"",""time""
""fullscreenenter"",""0"",""6625""
","
","null","<p></p>","null","","","","","","","",""
"","image","82","115393","0.0-82.0","""event"",""trial"",""time""
""fullscreenenter"",""0"",""6625""
","
","
","""event"",""trial"",""time""
""fullscreenenter"",""0"",""6625""
","
","771.5","run_exp/static/images/Set 6_rs/122a.jpg","86","","","","","","learn","SR",""
"","show_choice","83","116637","0.0-83.0","""event"",""trial"",""time""
""fullscreenenter"",""0"",""6625""
","
","
","""event"",""trial"",""time""
""fullscreenenter"",""0"",""6625""
","
","null","run_exp/static/images/Set 6_rs/122a.jpg","null","","","","","","learn","SR",""
"","html-keyboard-response","84","117152","0.0-84.0","""event"",""trial"",""time""
""fullscreenenter"",""0"",""6625""
","
","
","""event"",""trial"",""time""
""fullscreenenter"",""0"",""6625""
","
","null","<p></p>","null","","","","","","","",""
"","image","85","118518","0.0-85.0","""event"",""trial"",""time""
""fullscreenenter"",""0"",""6625""
","
","
","""event"",""trial"",""time""
""fullscreenenter"",""0"",""6625""
","
","1364.5","run_exp/static/images/Set 6_rs/167a.jpg","86","","","","","","learn","SL",""
"","show_choice","86","119161","0.0-86.0","""event"",""trial"",""time""
""fullscreenenter"",""0"",""6625""
","
","
","""event"",""trial"",""time""
""fullscreenenter"",""0"",""6625""
","
","null","run_exp/static/images/Set 6_rs/167a.jpg","null","","","","","","learn","SL",""
"","html-keyboard-response","87","119670","0.0-87.0","""event"",""trial"",""time""
""fullscreenenter"",""0"",""6625""
","
","
","""event"",""trial"",""time""
""fullscreenenter"",""0"",""6625""
","
","null","<p></p>","null","","","","","","","",""
"","image","88","120697","0.0-88.0","""event"",""trial"",""time""
""fullscreenenter"",""0"",""6625""
","
","
","""event"",""trial"",""time""
""fullscreenenter"",""0"",""6625""
","
","1025.5","run_exp/static/images/Set 6_rs/024a.jpg","86","","","","","","learn","SR",""
"","show_choice","89","121684","0.0-89.0","""event"",""trial"",""time""
""fullscreenenter"",""0"",""6625""
","
","
","""event"",""trial"",""time""
""fullscreenenter"",""0"",""6625""
","
","null","run_exp/static/images/Set 6_rs/024a.jpg","null","","","","","","learn","SR",""
"","html-keyboard-response","90","122200","0.0-90.0","""event"",""trial"",""time""
""fullscreenenter"",""0"",""6625""
","
","
","""event"",""trial"",""time""
""fullscreenenter"",""0"",""6625""
","
","null","<p></p>","null","","","","","","","",""
"","image","91","122889","0.0-91.0","""event"",""trial"",""time""
""fullscreenenter"",""0"",""6625""
","
","
","""event"",""trial"",""time""
""fullscreenenter"",""0"",""6625""
","
","687.1999999999534","run_exp/static/images/Set 6_rs/154a.jpg","78","","","","","","learn","SR",""
"","show_choice","92","124216","0.0-92.0","""event"",""trial"",""time""
""fullscreenenter"",""0"",""6625""
","
","
","""event"",""trial"",""time""
""fullscreenenter"",""0"",""6625""
","
","null","run_exp/static/images/Set 6_rs/154a.jpg","null","","","","","","learn","SR",""
"","html-keyboard-response","93","124721","0.0-93.0","""event"",""trial"",""time""
""fullscreenenter"",""0"",""6625""
","
","
","""event"",""trial"",""time""
""fullscreenenter"",""0"",""6625""
","
","null","<p></p>","null","","","","","","","",""
"","image","94","125491","0.0-94.0","""event"",""trial"",""time""
""fullscreenenter"",""0"",""6625""
","
","
","""event"",""trial"",""time""
""fullscreenenter"",""0"",""6625""
","
","768.2999999998137","run_exp/static/images/Set 6_rs/126a.jpg","78","","","","","","learn","SR",""
"","show_choice","95","126737","0.0-95.0","""event"",""trial"",""time""
""fullscreenenter"",""0"",""6625""
","
","
","""event"",""trial"",""time""
""fullscreenenter"",""0"",""6625""
","
","null","run_exp/static/images/Set 6_rs/126a.jpg","null","","","","","","learn","SR",""
"","html-keyboard-response","96","127253","0.0-96.0","""event"",""trial"",""time""
""fullscreenenter"",""0"",""6625""
","
","
","""event"",""trial"",""time""
""fullscreenenter"",""0"",""6625""
","
","null","<p></p>","null","","","","","","","",""
"","image","97","128332","0.0-97.0","""event"",""trial"",""time""
""fullscreenenter"",""0"",""6625""
","
","
","""event"",""trial"",""time""
""fullscreenenter"",""0"",""6625""
","
","1078.1000000000931","run_exp/static/images/Set 6_rs/076a.jpg","78","","","","","","learn","SR",""
"","show_choice","98","129269","0.0-98.0","""event"",""trial"",""time""
""fullscreenenter"",""0"",""6625""
","
","
","""event"",""trial"",""time""
""fullscreenenter"",""0"",""6625""
","
","null","run_exp/static/images/Set 6_rs/076a.jpg","null","","","","","","learn","SR",""
"","html-keyboard-response","99","129786","0.0-99.0","""event"",""trial"",""time""
""fullscreenenter"",""0"",""6625""
","
","
","""event"",""trial"",""time""
""fullscreenenter"",""0"",""6625""
","
","null","<p></p>","null","","","","","","","",""
"","image","100","130522","0.0-100.0","""event"",""trial"",""time""
""fullscreenenter"",""0"",""6625""
","
","
","""event"",""trial"",""time""
""fullscreenenter"",""0"",""6625""
","
","734.3999999999069","run_exp/static/images/Set 6_rs/075a.jpg","86","","","","","","learn","SR",""
"","show_choice","101","131801","0.0-101.0","""event"",""trial"",""time""
""fullscreenenter"",""0"",""6625""
","
","
","""event"",""trial"",""time""
""fullscreenenter"",""0"",""6625""
","
","null","run_exp/static/images/Set 6_rs/075a.jpg","null","","","","","","learn","SR",""
"","html-keyboard-response","102","132303","0.0-102.0","""event"",""trial"",""time""
""fullscreenenter"",""0"",""6625""
","
","
","""event"",""trial"",""time""
""fullscreenenter"",""0"",""6625""
","
","null","<p></p>","null","","","","","","","",""
"","image","103","133635","0.0-103.0","""event"",""trial"",""time""
""fullscreenenter"",""0"",""6625""
","
","
","""event"",""trial"",""time""
""fullscreenenter"",""0"",""6625""
","
","1330.2000000001863","run_exp/static/images/Set 6_rs/132a.jpg","78","","","","","","learn","SR",""
"","show_choice","104","134309","0.0-104.0","""event"",""trial"",""time""
""fullscreenenter"",""0"",""6625""
","
","
","""event"",""trial"",""time""
""fullscreenenter"",""0"",""6625""
","
","null","run_exp/static/images/Set 6_rs/132a.jpg","null","","","","","","learn","SR",""
"","html-keyboard-response","105","134819","0.0-105.0","""event"",""trial"",""time""
""fullscreenenter"",""0"",""6625""
","
","
","""event"",""trial"",""time""
""fullscreenenter"",""0"",""6625""
","
","null","<p></p>","null","","","","","","","",""
"","image","106","136014","0.0-106.0","""event"",""trial"",""time""
""fullscreenenter"",""0"",""6625""
","
","
","""event"",""trial"",""time""
""fullscreenenter"",""0"",""6625""
","
","1193.4000000001397","run_exp/static/images/Set 6_rs/014a.jpg","86","","","","","","learn","SL",""
"","show_choice","107","136832","0.0-107.0","""event"",""trial"",""time""
""fullscreenenter"",""0"",""6625""
","
","
","""event"",""trial"",""time""
""fullscreenenter"",""0"",""6625""
","
","null","run_exp/static/images/Set 6_rs/014a.jpg","null","","","","","","learn","SL",""
"","html-keyboard-response","108","137336","0.0-108.0","""event"",""trial"",""time""
""fullscreenenter"",""0"",""6625""
","
","
","""event"",""trial"",""time""
""fullscreenenter"",""0"",""6625""
","
","null","<p></p>","null","","","","","","","",""
"","image","109","138000","0.0-109.0","""event"",""trial"",""time""
""fullscreenenter"",""0"",""6625""
","
","
","""event"",""trial"",""time""
""fullscreenenter"",""0"",""6625""
","
","662.1999999999534","run_exp/static/images/Set 6_rs/007a.jpg","86","","","","","","learn","SR",""
"","show_choice","110","139350","0.0-110.0","""event"",""trial"",""time""
""fullscreenenter"",""0"",""6625""
","
","
","""event"",""trial"",""time""
""fullscreenenter"",""0"",""6625""
","
","null","run_exp/static/images/Set 6_rs/007a.jpg","null","","","","","","learn","SR",""
"","html-keyboard-response","111","139854","0.0-111.0","""event"",""trial"",""time""
""fullscreenenter"",""0"",""6625""
","
","
","""event"",""trial"",""time""
""fullscreenenter"",""0"",""6625""
","
","null","<p></p>","null","","","","","","","",""
"","image","112","140737","0.0-112.0","""event"",""trial"",""time""
""fullscreenenter"",""0"",""6625""
","
","
","""event"",""trial"",""time""
""fullscreenenter"",""0"",""6625""
","
","881.3999999999069","run_exp/static/images/Set 6_rs/016a.jpg","86","","","","","","learn","SL",""
"","show_choice","113","141861","0.0-113.0","""event"",""trial"",""time""
""fullscreenenter"",""0"",""6625""
","
","
","""event"",""trial"",""time""
""fullscreenenter"",""0"",""6625""
","
","null","run_exp/static/images/Set 6_rs/016a.jpg","null","","","","","","learn","SL",""
"","html-keyboard-response","114","142368","0.0-114.0","""event"",""trial"",""time""
""fullscreenenter"",""0"",""6625""
","
","
","""event"",""trial"",""time""
""fullscreenenter"",""0"",""6625""
","
","null","<p></p>","null","","","","","","","",""
"","image","115","144113","0.0-115.0","""event"",""trial"",""time""
""fullscreenenter"",""0"",""6625""
","
","
","""event"",""trial"",""time""
""fullscreenenter"",""0"",""6625""
","
","1743","run_exp/static/images/Set 6_rs/168a.jpg","86","","","","","","learn","SL",""
"","show_choice","116","144385","0.0-116.0","""event"",""trial"",""time""
""fullscreenenter"",""0"",""6625""
","
","
","""event"",""trial"",""time""
""fullscreenenter"",""0"",""6625""
","
","null","run_exp/static/images/Set 6_rs/168a.jpg","null","","","","","","learn","SL",""
"","html-keyboard-response","117","144887","0.0-117.0","""event"",""trial"",""time""
""fullscreenenter"",""0"",""6625""
","
","
","""event"",""trial"",""time""
""fullscreenenter"",""0"",""6625""
","
","null","<p></p>","null","","","","","","","",""
"","image","118","145772","0.0-118.0","""event"",""trial"",""time""
""fullscreenenter"",""0"",""6625""
","
","
","""event"",""trial"",""time""
""fullscreenenter"",""0"",""6625""
","
","883.9000000001397","run_exp/static/images/Set 6_rs/131a.jpg","86","","","","","","learn","SR",""
"","show_choice","119","146894","0.0-119.0","""event"",""trial"",""time""
""fullscreenenter"",""0"",""6625""
","
","
","""event"",""trial"",""time""
""fullscreenenter"",""0"",""6625""
","
","null","run_exp/static/images/Set 6_rs/131a.jpg","null","","","","","","learn","SR",""
"","html-keyboard-response","120","147402","0.0-120.0","""event"",""trial"",""time""
""fullscreenenter"",""0"",""6625""
","
","
","""event"",""trial"",""time""
""fullscreenenter"",""0"",""6625""
","
","null","<p></p>","null","","","","","","","",""
"","image","121","148167","0.0-121.0","""event"",""trial"",""time""
""fullscreenenter"",""0"",""6625""
","
","
","""event"",""trial"",""time""
""fullscreenenter"",""0"",""6625""
","
","763.8999999999069","run_exp/static/images/Set 6_rs/150a.jpg","86","","","","","","learn","SR",""
"","show_choice","122","149409","0.0-122.0","""event"",""trial"",""time""
""fullscreenenter"",""0"",""6625""
","
","
","""event"",""trial"",""time""
""fullscreenenter"",""0"",""6625""
","
","null","run_exp/static/images/Set 6_rs/150a.jpg","null","","","","","","learn","SR",""
"","html-keyboard-response","123","149918","0.0-123.0","""event"",""trial"",""time""
""fullscreenenter"",""0"",""6625""
","
","
","""event"",""trial"",""time""
""fullscreenenter"",""0"",""6625""
","
","null","<p></p>","null","","","","","","","",""
"","image","124","150734","0.0-124.0","""event"",""trial"",""time""
""fullscreenenter"",""0"",""6625""
","
","
","""event"",""trial"",""time""
""fullscreenenter"",""0"",""6625""
","
","815","run_exp/static/images/Set 6_rs/064a.jpg","78","","","","","","learn","SR",""
"","show_choice","125","151923","0.0-125.0","""event"",""trial"",""time""
""fullscreenenter"",""0"",""6625""
","
","
","""event"",""trial"",""time""
""fullscreenenter"",""0"",""6625""
","
","null","run_exp/static/images/Set 6_rs/064a.jpg","null","","","","","","learn","SR",""
"","html-keyboard-response","126","152435","0.0-126.0","""event"",""trial"",""time""
""fullscreenenter"",""0"",""6625""
","
","
","""event"",""trial"",""time""
""fullscreenenter"",""0"",""6625""
","
","null","<p></p>","null","","","","","","","",""
"","image","127","153243","0.0-127.0","""event"",""trial"",""time""
""fullscreenenter"",""0"",""6625""
","
","
","""event"",""trial"",""time""
""fullscreenenter"",""0"",""6625""
","
","806.8000000000466","run_exp/static/images/Set 6_rs/089a.jpg","86","","","","","","learn","SL",""
"","show_choice","128","154441","0.0-128.0","""event"",""trial"",""time""
""fullscreenenter"",""0"",""6625""
","
","
","""event"",""trial"",""time""
""fullscreenenter"",""0"",""6625""
","
","null","run_exp/static/images/Set 6_rs/089a.jpg","null","","","","","","learn","SL",""
"","html-keyboard-response","129","154951","0.0-129.0","""event"",""trial"",""time""
""fullscreenenter"",""0"",""6625""
","
","
","""event"",""trial"",""time""
""fullscreenenter"",""0"",""6625""
","
","null","<p></p>","null","","","","","","","",""
"","image","130","155695","0.0-130.0","""event"",""trial"",""time""
""fullscreenenter"",""0"",""6625""
","
","
","""event"",""trial"",""time""
""fullscreenenter"",""0"",""6625""
","
","742.7999999998137","run_exp/static/images/Set 6_rs/025a.jpg","86","","","","","","learn","SL",""
"","show_choice","131","156968","0.0-131.0","""event"",""trial"",""time""
""fullscreenenter"",""0"",""6625""
","
","
","""event"",""trial"",""time""
""fullscreenenter"",""0"",""6625""
","
","null","run_exp/static/images/Set 6_rs/025a.jpg","null","","","","","","learn","SL",""
"","html-keyboard-response","132","157484","0.0-132.0","""event"",""trial"",""time""
""fullscreenenter"",""0"",""6625""
","
","
","""event"",""trial"",""time""
""fullscreenenter"",""0"",""6625""
","
","null","<p></p>","null","","","","","","","",""
"","image","133","158180","0.0-133.0","""event"",""trial"",""time""
""fullscreenenter"",""0"",""6625""
","
","
","""event"",""trial"",""time""
""fullscreenenter"",""0"",""6625""
","
","694.7999999998137","run_exp/static/images/Set 6_rs/008a.jpg","86","","","","","","learn","SL",""
"","show_choice","134","159498","0.0-134.0","""event"",""trial"",""time""
""fullscreenenter"",""0"",""6625""
","
","
","""event"",""trial"",""time""
""fullscreenenter"",""0"",""6625""
","
","null","run_exp/static/images/Set 6_rs/008a.jpg","null","","","","","","learn","SL",""
"","html-keyboard-response","135","160014","0.0-135.0","""event"",""trial"",""time""
""fullscreenenter"",""0"",""6625""
","
","
","""event"",""trial"",""time""
""fullscreenenter"",""0"",""6625""
","
","null","<p></p>","null","","","","","","","",""
"","image","136","160732","0.0-136.0","""event"",""trial"",""time""
""fullscreenenter"",""0"",""6625""
","
","
","""event"",""trial"",""time""
""fullscreenenter"",""0"",""6625""
","
","717.4000000001397","run_exp/static/images/Set 6_rs/178a.jpg","78","","","","","","learn","SR",""
"","show_choice","137","162016","0.0-137.0","""event"",""trial"",""time""
""fullscreenenter"",""0"",""6625""
","
","
","""event"",""trial"",""time""
""fullscreenenter"",""0"",""6625""
","
","null","run_exp/static/images/Set 6_rs/178a.jpg","null","","","","","","learn","SR",""
"","html-keyboard-response","138","162519","0.0-138.0","""event"",""trial"",""time""
""fullscreenenter"",""0"",""6625""
","
","
","""event"",""trial"",""time""
""fullscreenenter"",""0"",""6625""
","
","null","<p></p>","null","","","","","","","",""
"","image","139","163642","0.0-139.0","""event"",""trial"",""time""
""fullscreenenter"",""0"",""6625""
","
","
","""event"",""trial"",""time""
""fullscreenenter"",""0"",""6625""
","
","1120.7000000001863","run_exp/static/images/Set 6_rs/045a.jpg","86","","","","","","learn","SR",""
"","show_choice","140","164526","0.0-140.0","""event"",""trial"",""time""
""fullscreenenter"",""0"",""6625""
","
","
","""event"",""trial"",""time""
""fullscreenenter"",""0"",""6625""
","
","null","run_exp/static/images/Set 6_rs/045a.jpg","null","","","","","","learn","SR",""
"","html-keyboard-response","141","165034","0.0-141.0","""event"",""trial"",""time""
""fullscreenenter"",""0"",""6625""
","
","
","""event"",""trial"",""time""
""fullscreenenter"",""0"",""6625""
","
","null","<p></p>","null","","","","","","","",""
"","image","142","165708","0.0-142.0","""event"",""trial"",""time""
""fullscreenenter"",""0"",""6625""
","
","
","""event"",""trial"",""time""
""fullscreenenter"",""0"",""6625""
","
","673.1000000000931","run_exp/static/images/Set 6_rs/062a.jpg","86","","","","","","learn","SL",""
"","show_choice","143","167040","0.0-143.0","""event"",""trial"",""time""
""fullscreenenter"",""0"",""6625""
","
","
","""event"",""trial"",""time""
""fullscreenenter"",""0"",""6625""
","
","null","run_exp/static/images/Set 6_rs/062a.jpg","null","","","","","","learn","SL",""
"","html-keyboard-response","144","167550","0.0-144.0","""event"",""trial"",""time""
""fullscreenenter"",""0"",""6625""
","
","
","""event"",""trial"",""time""
""fullscreenenter"",""0"",""6625""
","
","null","<p></p>","null","","","","","","","",""
"","image","145","168392","0.0-145.0","""event"",""trial"",""time""
""fullscreenenter"",""0"",""6625""
","
","
","""event"",""trial"",""time""
""fullscreenenter"",""0"",""6625""
","
","841.3999999999069","run_exp/static/images/Set 6_rs/012a.jpg","86","","","","","","learn","SR",""
"","show_choice","146","169557","0.0-146.0","""event"",""trial"",""time""
""fullscreenenter"",""0"",""6625""
","
","
","""event"",""trial"",""time""
""fullscreenenter"",""0"",""6625""
","
","null","run_exp/static/images/Set 6_rs/012a.jpg","null","","","","","","learn","SR",""
"","html-keyboard-response","147","170067","0.0-147.0","""event"",""trial"",""time""
""fullscreenenter"",""0"",""6625""
","
","
","""event"",""trial"",""time""
""fullscreenenter"",""0"",""6625""
","
","null","<p></p>","null","","","","","","","",""
"","image","148","171294","0.0-148.0","""event"",""trial"",""time""
""fullscreenenter"",""0"",""6625""
","
","
","""event"",""trial"",""time""
""fullscreenenter"",""0"",""6625""
","
","1225.5","run_exp/static/images/Set 6_rs/191a.jpg","78","","","","","","learn","SL",""
"","show_choice","149","172081","0.0-149.0","""event"",""trial"",""time""
""fullscreenenter"",""0"",""6625""
","
","
","""event"",""trial"",""time""
""fullscreenenter"",""0"",""6625""
","
","null","run_exp/static/images/Set 6_rs/191a.jpg","null","","","","","","learn","SL",""
"","html-keyboard-response","150","172585","0.0-150.0","""event"",""trial"",""time""
""fullscreenenter"",""0"",""6625""
","
","
","""event"",""trial"",""time""
""fullscreenenter"",""0"",""6625""
","
","null","<p></p>","null","","","","","","","",""
"","image","151","173225","0.0-151.0","""event"",""trial"",""time""
""fullscreenenter"",""0"",""6625""
","
","
","""event"",""trial"",""time""
""fullscreenenter"",""0"",""6625""
","
","639.2999999998137","run_exp/static/images/Set 6_rs/019a.jpg","86","","","","","","learn","SL",""
"","show_choice","152","174594","0.0-152.0","""event"",""trial"",""time""
""fullscreenenter"",""0"",""6625""
","
","
","""event"",""trial"",""time""
""fullscreenenter"",""0"",""6625""
","
","null","run_exp/static/images/Set 6_rs/019a.jpg","null","","","","","","learn","SL",""
"","html-keyboard-response","153","175097","0.0-153.0","""event"",""trial"",""time""
""fullscreenenter"",""0"",""6625""
","
","
","""event"",""trial"",""time""
""fullscreenenter"",""0"",""6625""
","
","null","<p></p>","null","","","","","","","",""
"","image","154","175781","0.0-154.0","""event"",""trial"",""time""
""fullscreenenter"",""0"",""6625""
","
","
","""event"",""trial"",""time""
""fullscreenenter"",""0"",""6625""
","
","682.2000000001863","run_exp/static/images/Set 6_rs/134a.jpg","86","","","","","","learn","SR",""
"","show_choice","155","177112","0.0-155.0","""event"",""trial"",""time""
""fullscreenenter"",""0"",""6625""
","
","
","""event"",""trial"",""time""
""fullscreenenter"",""0"",""6625""
","
","null","run_exp/static/images/Set 6_rs/134a.jpg","null","","","","","","learn","SR",""
"","html-keyboard-response","156","177621","0.0-156.0","""event"",""trial"",""time""
""fullscreenenter"",""0"",""6625""
","
","
","""event"",""trial"",""time""
""fullscreenenter"",""0"",""6625""
","
","null","<p></p>","null","","","","","","","",""
"","image","157","178443","0.0-157.0","""event"",""trial"",""time""
""fullscreenenter"",""0"",""6625""
","
","
","""event"",""trial"",""time""
""fullscreenenter"",""0"",""6625""
","
","820.6999999997206","run_exp/static/images/Set 6_rs/074a.jpg","78","","","","","","learn","SL",""
"","show_choice","158","179638","0.0-158.0","""event"",""trial"",""time""
""fullscreenenter"",""0"",""6625""
","
","
","""event"",""trial"",""time""
""fullscreenenter"",""0"",""6625""
","
","null","run_exp/static/images/Set 6_rs/074a.jpg","null","","","","","","learn","SL",""
"","html-keyboard-response","159","180149","0.0-159.0","""event"",""trial"",""time""
""fullscreenenter"",""0"",""6625""
","
","
","""event"",""trial"",""time""
""fullscreenenter"",""0"",""6625""
","
","null","<p></p>","null","","","","","","","",""
"","image","160","181295","0.0-160.0","""event"",""trial"",""time""
""fullscreenenter"",""0"",""6625""
","
","
","""event"",""trial"",""time""
""fullscreenenter"",""0"",""6625""
","
","1143.8000000002794","run_exp/static/images/Set 6_rs/141a.jpg","78","","","","","","learn","SR",""
"","show_choice","161","182161","0.0-161.0","""event"",""trial"",""time""
""fullscreenenter"",""0"",""6625""
","
","
","""event"",""trial"",""time""
""fullscreenenter"",""0"",""6625""
","
","null","run_exp/static/images/Set 6_rs/141a.jpg","null","","","","","","learn","SR",""
"","html-keyboard-response","162","182666","0.0-162.0","""event"",""trial"",""time""
""fullscreenenter"",""0"",""6625""
","
","
","""event"",""trial"",""time""
""fullscreenenter"",""0"",""6625""
","
","null","<p></p>","null","","","","","","","",""
"","image","163","183459","0.0-163.0","""event"",""trial"",""time""
""fullscreenenter"",""0"",""6625""
","
","
","""event"",""trial"",""time""
""fullscreenenter"",""0"",""6625""
","
","791.4000000003725","run_exp/static/images/Set 6_rs/123a.jpg","78","","","","","","learn","SL",""
"","show_choice","164","184669","0.0-164.0","""event"",""trial"",""time""
""fullscreenenter"",""0"",""6625""
","
","
","""event"",""trial"",""time""
""fullscreenenter"",""0"",""6625""
","
","null","run_exp/static/images/Set 6_rs/123a.jpg","null","","","","","","learn","SL",""
"","html-keyboard-response","165","185183","0.0-165.0","""event"",""trial"",""time""
""fullscreenenter"",""0"",""6625""
","
","
","""event"",""trial"",""time""
""fullscreenenter"",""0"",""6625""
","
","null","<p></p>","null","","","","","","","",""
"","image","166","186101","0.0-166.0","""event"",""trial"",""time""
""fullscreenenter"",""0"",""6625""
","
","
","""event"",""trial"",""time""
""fullscreenenter"",""0"",""6625""
","
","916","run_exp/static/images/Set 6_rs/117a.jpg","86","","","","","","learn","SL",""
"","show_choice","167","187192","0.0-167.0","""event"",""trial"",""time""
""fullscreenenter"",""0"",""6625""
","
","
","""event"",""trial"",""time""
""fullscreenenter"",""0"",""6625""
","
","null","run_exp/static/images/Set 6_rs/117a.jpg","null","","","","","","learn","SL",""
"","html-keyboard-response","168","187704","0.0-168.0","""event"",""trial"",""time""
""fullscreenenter"",""0"",""6625""
","
","
","""event"",""trial"",""time""
""fullscreenenter"",""0"",""6625""
","
","null","<p></p>","null","","","","","","","",""
"","image","169","188527","0.0-169.0","""event"",""trial"",""time""
""fullscreenenter"",""0"",""6625""
","
","
","""event"",""trial"",""time""
""fullscreenenter"",""0"",""6625""
","
","821.5","run_exp/static/images/Set 6_rs/138a.jpg","78","","","","","","learn","SL",""
"","show_choice","170","189721","0.0-170.0","""event"",""trial"",""time""
""fullscreenenter"",""0"",""6625""
","
","
","""event"",""trial"",""time""
""fullscreenenter"",""0"",""6625""
","
","null","run_exp/static/images/Set 6_rs/138a.jpg","null","","","","","","learn","SL",""
"","html-keyboard-response","171","190233","0.0-171.0","""event"",""trial"",""time""
""fullscreenenter"",""0"",""6625""
","
","
","""event"",""trial"",""time""
""fullscreenenter"",""0"",""6625""
","
","null","<p></p>","null","","","","","","","",""
"","image","172","191249","0.0-172.0","""event"",""trial"",""time""
""fullscreenenter"",""0"",""6625""
","
","
","""event"",""trial"",""time""
""fullscreenenter"",""0"",""6625""
","
","1014.3999999999069","run_exp/static/images/Set 6_rs/050a.jpg","86","","","","","","learn","SL",""
"","show_choice","173","192236","0.0-173.0","""event"",""trial"",""time""
""fullscreenenter"",""0"",""6625""
","
","
","""event"",""trial"",""time""
""fullscreenenter"",""0"",""6625""
","
","null","run_exp/static/images/Set 6_rs/050a.jpg","null","","","","","","learn","SL",""
"","html-keyboard-response","174","192739","0.0-174.0","""event"",""trial"",""time""
""fullscreenenter"",""0"",""6625""
","
","
","""event"",""trial"",""time""
""fullscreenenter"",""0"",""6625""
","
","null","<p></p>","null","","","","","","","",""
"","image","175","193799","0.0-175.0","""event"",""trial"",""time""
""fullscreenenter"",""0"",""6625""
","
","
","""event"",""trial"",""time""
""fullscreenenter"",""0"",""6625""
","
","1057.7999999998137","run_exp/static/images/Set 6_rs/116a.jpg","86","","","","","","learn","SL",""
"","show_choice","176","194749","0.0-176.0","""event"",""trial"",""time""
""fullscreenenter"",""0"",""6625""
","
","
","""event"",""trial"",""time""
""fullscreenenter"",""0"",""6625""
","
","null","run_exp/static/images/Set 6_rs/116a.jpg","null","","","","","","learn","SL",""
"","html-keyboard-response","177","195253","0.0-177.0","""event"",""trial"",""time""
""fullscreenenter"",""0"",""6625""
","
","
","""event"",""trial"",""time""
""fullscreenenter"",""0"",""6625""
","
","null","<p></p>","null","","","","","","","",""
"","image","178","196040","0.0-178.0","""event"",""trial"",""time""
""fullscreenenter"",""0"",""6625""
","
","
","""event"",""trial"",""time""
""fullscreenenter"",""0"",""6625""
","
","785.6999999997206","run_exp/static/images/Set 6_rs/187a.jpg","86","","","","","","learn","SR",""
"","show_choice","179","197268","0.0-179.0","""event"",""trial"",""time""
""fullscreenenter"",""0"",""6625""
","
","
","""event"",""trial"",""time""
""fullscreenenter"",""0"",""6625""
","
","null","run_exp/static/images/Set 6_rs/187a.jpg","null","","","","","","learn","SR",""
"","html-keyboard-response","180","197773","0.0-180.0","""event"",""trial"",""time""
""fullscreenenter"",""0"",""6625""
","
","
","""event"",""trial"",""time""
""fullscreenenter"",""0"",""6625""
","
","null","<p></p>","null","","","","","","","",""
"","image","181","199043","0.0-181.0","""event"",""trial"",""time""
""fullscreenenter"",""0"",""6625""
","
","
","""event"",""trial"",""time""
""fullscreenenter"",""0"",""6625""
","
","1267.6000000000931","run_exp/static/images/Set 6_rs/121a.jpg","86","","","","","","learn","SR",""
"","show_choice","182","199785","0.0-182.0","""event"",""trial"",""time""
""fullscreenenter"",""0"",""6625""
","
","
","""event"",""trial"",""time""
""fullscreenenter"",""0"",""6625""
","
","null","run_exp/static/images/Set 6_rs/121a.jpg","null","","","","","","learn","SR",""
"","html-keyboard-response","183","200299","0.0-183.0","""event"",""trial"",""time""
""fullscreenenter"",""0"",""6625""
","
","
","""event"",""trial"",""time""
""fullscreenenter"",""0"",""6625""
","
","null","<p></p>","null","","","","","","","",""
"","image","184","201595","0.0-184.0","""event"",""trial"",""time""
""fullscreenenter"",""0"",""6625""
","
","
","""event"",""trial"",""time""
""fullscreenenter"",""0"",""6625""
","
","1294","run_exp/static/images/Set 6_rs/017a.jpg","86","","","","","","learn","SL",""
"","show_choice","185","202303","0.0-185.0","""event"",""trial"",""time""
""fullscreenenter"",""0"",""6625""
","
","
","""event"",""trial"",""time""
""fullscreenenter"",""0"",""6625""
","
","null","run_exp/static/images/Set 6_rs/017a.jpg","null","","","","","","learn","SL",""
"","html-keyboard-response","186","202806","0.0-186.0","""event"",""trial"",""time""
""fullscreenenter"",""0"",""6625""
","
","
","""event"",""trial"",""time""
""fullscreenenter"",""0"",""6625""
","
","null","<p></p>","null","","","","","","","",""
"","image","187","203584","0.0-187.0","""event"",""trial"",""time""
""fullscreenenter"",""0"",""6625""
","
","
","""event"",""trial"",""time""
""fullscreenenter"",""0"",""6625""
","
","776.8999999999069","run_exp/static/images/Set 6_rs/088a.jpg","86","","","","","","learn","SR",""
"","show_choice","188","204818","0.0-188.0","""event"",""trial"",""time""
""fullscreenenter"",""0"",""6625""
","
","
","""event"",""trial"",""time""
""fullscreenenter"",""0"",""6625""
","
","null","run_exp/static/images/Set 6_rs/088a.jpg","null","","","","","","learn","SR",""
"","html-keyboard-response","189","205333","0.0-189.0","""event"",""trial"",""time""
""fullscreenenter"",""0"",""6625""
","
","
","""event"",""trial"",""time""
""fullscreenenter"",""0"",""6625""
","
","null","<p></p>","null","","","","","","","",""
"","image","190","205835","0.0-190.0","""event"",""trial"",""time""
""fullscreenenter"",""0"",""6625""
","
","
","""event"",""trial"",""time""
""fullscreenenter"",""0"",""6625""
","
","501.39999999990687","run_exp/static/images/Set 6_rs/112a.jpg","86","","","","","","learn","SR",""
"","show_choice","191","207347","0.0-191.0","""event"",""trial"",""time""
""fullscreenenter"",""0"",""6625""
","
","
","""event"",""trial"",""time""
""fullscreenenter"",""0"",""6625""
","
","null","run_exp/static/images/Set 6_rs/112a.jpg","null","","","","","","learn","SR",""
"","html-keyboard-response","192","207856","0.0-192.0","""event"",""trial"",""time""
""fullscreenenter"",""0"",""6625""
","
","
","""event"",""trial"",""time""
""fullscreenenter"",""0"",""6625""
","
","null","<p></p>","null","","","","","","","",""
"","image","193","208824","0.0-193.0","""event"",""trial"",""time""
""fullscreenenter"",""0"",""6625""
","
","
","""event"",""trial"",""time""
""fullscreenenter"",""0"",""6625""
","
","966.3999999999069","run_exp/static/images/Set 6_rs/177a.jpg","78","","","","","","learn","SR",""
"","show_choice","194","209864","0.0-194.0","""event"",""trial"",""time""
""fullscreenenter"",""0"",""6625""
","
","
","""event"",""trial"",""time""
""fullscreenenter"",""0"",""6625""
","
","null","run_exp/static/images/Set 6_rs/177a.jpg","null","","","","","","learn","SR",""
"","html-keyboard-response","195","210367","0.0-195.0","""event"",""trial"",""time""
""fullscreenenter"",""0"",""6625""
","
","
","""event"",""trial"",""time""
""fullscreenenter"",""0"",""6625""
","
","null","<p></p>","null","","","","","","","",""
"","test_intro","196","247520","0.0-196.0","""event"",""trial"",""time""
""fullscreenenter"",""0"",""6625""
","
","
","""event"",""trial"",""time""
""fullscreenenter"",""0"",""6625""
","
","null","run_exp/static/audio/clip_2_memory.m4a","null","","","","","<div class='center'><p>Now, lets see how much you remember about the items you just saw.  For each item, you need to indicate if it was <b>old</b> by pressing the <b>v</b> key, <b>similar</b> by pressing the <b>b</b> key, or <b>new</b> by pressing the <b>n</b> key.</p><p>Old refers to an item that you saw before in the indoor/outdoor game that you just played, new refers to an item you have <b>not</b> seen before within the indoor/outdoor game, and similar refers to an item that is similar to an item youve seen before but is not exactly the same. </p><p>Before we begin, lets go over some brief demonstrations to make sure you understand.</p></div>","","",""
"","html-keyboard-response","197","248125","0.0-197.0","""event"",""trial"",""time""
""fullscreenenter"",""0"",""6625""
","
","
","""event"",""trial"",""time""
""fullscreenenter"",""0"",""6625""
","
","602.8999999999069","<div class='center'><p>Now, lets see how much you remember about the items you just saw.  For each item, you need to indicate if it was <b>old</b> by pressing the <b>v</b> key, <b>similar</b> by pressing the <b>b</b> key, or <b>new</b> by pressing the <b>n</b> key.</p><p>Old refers to an item that you saw before in the indoor/outdoor game that you just played, new refers to an item you have <b>not</b> seen before within the indoor/outdoor game, and similar refers to an item that is similar to an item youve seen before but is not exactly the same. </p><p>Before we begin, lets go over some brief demonstrations to make sure you understand.</p><div><p><b>[Press the space bar to continue]</b></p></div>","32","","","","","","","",""
"","items","198","255638","0.0-198.0","""event"",""trial"",""time""
""fullscreenenter"",""0"",""6625""
","
","
","""event"",""trial"",""time""
""fullscreenenter"",""0"",""6625""
","
","null","run_exp/static/audio/clip_3_items.m4a","null","","","","","","","",""
"","mop","199","260149","0.0-199.0","""event"",""trial"",""time""
""fullscreenenter"",""0"",""6625""
","
","
","""event"",""trial"",""time""
""fullscreenenter"",""0"",""6625""
","
","null","run_exp/static/audio/clip_4_mop.m4a","null","","","","","","","",""
"","baseball","200","263669","0.0-200.0","""event"",""trial"",""time""
""fullscreenenter"",""0"",""6625""
","
","
","""event"",""trial"",""time""
""fullscreenenter"",""0"",""6625""
","
","null","run_exp/static/audio/clip_5_baseball.m4a","null","","","","","","","",""
"","trumpet","201","267188","0.0-201.0","""event"",""trial"",""time""
""fullscreenenter"",""0"",""6625""
","
","
","""event"",""trial"",""time""
""fullscreenenter"",""0"",""6625""
","
","null","run_exp/static/audio/clip_6_trumpet.m4a","null","","","","","","","",""
"","gummies","202","270698","0.0-202.0","""event"",""trial"",""time""
""fullscreenenter"",""0"",""6625""
","
","
","""event"",""trial"",""time""
""fullscreenenter"",""0"",""6625""
","
","null","run_exp/static/audio/clip_7_gummies.m4a","null","","","","","","","",""
"","osn","203","275218","0.0-203.0","""event"",""trial"",""time""
""fullscreenenter"",""0"",""6625""
","
","
","""event"",""trial"",""time""
""fullscreenenter"",""0"",""6625""
","
","null","run_exp/static/audio/clip_8_osn.m4a","null","","","","","","","",""
"","old_1","204","281739","0.0-204.0","""event"",""trial"",""time""
""fullscreenenter"",""0"",""6625""
","
","
","""event"",""trial"",""time""
""fullscreenenter"",""0"",""6625""
","
","null","run_exp/static/audio/clip_9_old_trumpet.m4a","null","","","","","","","",""
"","new_1","205","289259","0.0-205.0","""event"",""trial"",""time""
""fullscreenenter"",""0"",""6625""
","
","
","""event"",""trial"",""time""
""fullscreenenter"",""0"",""6625""
","
","null","run_exp/static/audio/clip_10_new_balloon.m4a","null","","","","","","","",""
"","similar_1a","206","293768","0.0-206.0","""event"",""trial"",""time""
""fullscreenenter"",""0"",""6625""
","
","
","""event"",""trial"",""time""
""fullscreenenter"",""0"",""6625""
","
","null","run_exp/static/audio/clip_11a_similar_mop.m4a","null","","","","","","","",""
"","similar_1b","207","300289","0.0-207.0","""event"",""trial"",""time""
""fullscreenenter"",""0"",""6625""
","
","
","""event"",""trial"",""time""
""fullscreenenter"",""0"",""6625""
","
","null","run_exp/static/audio/clip_11b_similar_mop.m4a","null","","","","","","","",""
"","new_2","208","303798","0.0-208.0","""event"",""trial"",""time""
""fullscreenenter"",""0"",""6625""
","
","
","""event"",""trial"",""time""
""fullscreenenter"",""0"",""6625""
","
","null","run_exp/static/audio/clip_12_new_stoplight.m4a","null","","","","","","","",""
"","old_2","209","307308","0.0-209.0","""event"",""trial"",""time""
""fullscreenenter"",""0"",""6625""
","
","
","""event"",""trial"",""time""
""fullscreenenter"",""0"",""6625""
","
","null","run_exp/static/audio/clip_13_old_baseball.m4a","null","","","","","","","",""
"","similar_2a","210","310818","0.0-210.0","""event"",""trial"",""time""
""fullscreenenter"",""0"",""6625""
","
","
","""event"",""trial"",""time""
""fullscreenenter"",""0"",""6625""
","
","null","run_exp/static/audio/clip_14a_similar_gummies.m4a","null","","","","","","","",""
"","similar_2b","211","318338","0.0-211.0","""event"",""trial"",""time""
""fullscreenenter"",""0"",""6625""
","
","
","""event"",""trial"",""time""
""fullscreenenter"",""0"",""6625""
","
","null","run_exp/static/audio/clip_14b_similar_gummies.m4a","null","","","","","","","",""
"","practice","212","360481","0.0-212.0","""event"",""trial"",""time""
""fullscreenenter"",""0"",""6625""
","
","
","""event"",""trial"",""time""
""fullscreenenter"",""0"",""6625""
","
","null","run_exp/static/audio/clip_15_practice.m4a","null","","","","","<div class='center'><p>Lets practice a little to make sure you understand the difference between new, similar, and old. Lets say you saw these three items in the indoor/outdoor game.</p><p> Try your best to remember these images because youll soon be tested on them in a practice game. In the practice game, youll be shown images and youll have to say if they are old (one of the three images belows), similar (similar to one of the images below but not exactly the same), or new (are not one of the images below nor similar to them).</p><p>Once you press the space bar youll be shown these images again but one at time. Then youll begin the practice game.</p><p><img src='run_exp/static/images/tutorial/test/three_indoor_outdoor.png' height='300'></p></div>","","",""
"","html-keyboard-response","213","360486","0.0-213.0","""event"",""trial"",""time""
""fullscreenenter"",""0"",""6625""
","
","
","""event"",""trial"",""time""
""fullscreenenter"",""0"",""6625""
","
","3","<div class='center'><p>Lets practice a little to make sure you understand the difference between new, similar, and old. Lets say you saw these three items in the indoor/outdoor game.</p><p> Try your best to remember these images because youll soon be tested on them in a practice game. In the practice game, youll be shown images and youll have to say if they are old (one of the three images belows), similar (similar to one of the images below but not exactly the same), or new (are not one of the images below nor similar to them).</p><p>Once you press the space bar youll be shown these images again but one at time. Then youll begin the practice game.</p><p><img src='run_exp/static/images/tutorial/test/three_indoor_outdoor.png' height='300'></p><div><p><b>[Press the space bar to continue]</b></p></div>","32","","","","","","","",""
"","planet","214","362499","0.0-214.0","""event"",""trial"",""time""
""fullscreenenter"",""0"",""6625""
","
","
","""event"",""trial"",""time""
""fullscreenenter"",""0"",""6625""
","
","null","run_exp/static/images/tutorial/test/008a.jpg","null","","","","","","","",""
"","boot","215","364519","0.0-215.0","""event"",""trial"",""time""
""fullscreenenter"",""0"",""6625""
","
","
","""event"",""trial"",""time""
""fullscreenenter"",""0"",""6625""
","
","null","run_exp/static/images/tutorial/test/011a.jpg","null","","","","","","","",""
"","lemon","216","366539","0.0-216.0","""event"",""trial"",""time""
""fullscreenenter"",""0"",""6625""
","
","
","""event"",""trial"",""time""
""fullscreenenter"",""0"",""6625""
","
","null","run_exp/static/images/tutorial/test/018a.jpg","null","","","","","","","",""
"","practice_q1","217","370762","0.0-217.0","""event"",""trial"",""time""
""fullscreenenter"",""0"",""6625""
","
","
","""event"",""trial"",""time""
""fullscreenenter"",""0"",""6625""
","
","4220.200000000186","run_exp/static/audio/clip_16_practice_question.m4a","78","","","","","","","",""
"","correct","218","372680","0.0-218.0-0.0","""event"",""trial"",""time""
""fullscreenenter"",""0"",""6625""
","
","
","""event"",""trial"",""time""
""fullscreenenter"",""0"",""6625""
","
","null","run_exp/static/audio/clip_17_correct.m4a","null","","","","","<div class='center'><p>That's correct!</p></div>","","",""
"","html-keyboard-response","219","373471","0.0-218.0-1.0","""event"",""trial"",""time""
""fullscreenenter"",""0"",""6625""
","
","
","""event"",""trial"",""time""
""fullscreenenter"",""0"",""6625""
","
","789.2999999998137","<div class='center'><p>That's correct!</p><div><p><b>[Press the space bar to continue]</b></p></div>","32","","","","","","","",""
"","practice_q2","220","374715","0.0-218.0-2.0","""event"",""trial"",""time""
""fullscreenenter"",""0"",""6625""
","
","
","""event"",""trial"",""time""
""fullscreenenter"",""0"",""6625""
","
","1242","run_exp/static/audio/clip_16_practice_question.m4a","86","","","","","","","",""
"","correct","221","376620","0.0-219.0-0.0","""event"",""trial"",""time""
""fullscreenenter"",""0"",""6625""
","
","
","""event"",""trial"",""time""
""fullscreenenter"",""0"",""6625""
","
","null","run_exp/static/audio/clip_17_correct.m4a","null","","","","","<div class='center'><p>That's correct!</p></div>","","",""
"","html-keyboard-response","222","376922","0.0-219.0-1.0","""event"",""trial"",""time""
""fullscreenenter"",""0"",""6625""
","
","
","""event"",""trial"",""time""
""fullscreenenter"",""0"",""6625""
","
","300.29999999981374","<div class='center'><p>That's correct!</p><div><p><b>[Press the space bar to continue]</b></p></div>","32","","","","","","","",""
"","practice_q3","223","378205","0.0-219.0-2.0","""event"",""trial"",""time""
""fullscreenenter"",""0"",""6625""
","
","
","""event"",""trial"",""time""
""fullscreenenter"",""0"",""6625""
","
","1281.1999999997206","run_exp/static/audio/clip_16_practice_question.m4a","66","","","","","","","",""
"","correct","224","380198","0.0-220.0-0.0","""event"",""trial"",""time""
""fullscreenenter"",""0"",""6625""
","
","
","""event"",""trial"",""time""
""fullscreenenter"",""0"",""6625""
","
","null","run_exp/static/audio/clip_17_correct.m4a","null","","","","","<div class='center'><p>That's correct!</p></div>","","",""
"","html-keyboard-response","225","380632","0.0-220.0-1.0","""event"",""trial"",""time""
""fullscreenenter"",""0"",""6625""
","
","
","""event"",""trial"",""time""
""fullscreenenter"",""0"",""6625""
","
","431.89999999990687","<div class='center'><p>That's correct!</p><div><p><b>[Press the space bar to continue]</b></p></div>","32","","","","","","","",""
"","begin_text","226","399139","0.0-221.0-0.0","""event"",""trial"",""time""
""fullscreenenter"",""0"",""6625""
","
","
","""event"",""trial"",""time""
""fullscreenenter"",""0"",""6625""
","
","null","run_exp/static/audio/clip_22_begin_test.m4a","null","","","","","<div class='center'><p>On to the real game where well test your memory of items from the indoor/outdoor game. For each item, you need to indicate if the item is <b>old</b> by pressing the <b>v</b> key, <b>similar</b> by pressing the <b>b</b> key, or <b>new</b> by pressing the <b>n</b> key. </p></div>","","",""
"","html-keyboard-response","227","400031","0.0-221.0-1.0","""event"",""trial"",""time""
""fullscreenenter"",""0"",""6625""
","
","
","""event"",""trial"",""time""
""fullscreenenter"",""0"",""6625""
","
","890.6000000000931","<div class='center'><p>On to the real game where well test your memory of items from the indoor/outdoor game. For each item, you need to indicate if the item is <b>old</b> by pressing the <b>v</b> key, <b>similar</b> by pressing the <b>b</b> key, or <b>new</b> by pressing the <b>n</b> key. </p><div><p><b>[Press the space bar to continue]</b></p></div>","32","","","","","","","",""
"","image","228","401674","0.0-222.0-0.0","""event"",""trial"",""time""
""fullscreenenter"",""0"",""6625""
","
","
","""event"",""trial"",""time""
""fullscreenenter"",""0"",""6625""
","
","1640.6999999997206","run_exp/static/images/Set 6_rs/154a.jpg","78","","","","","","test","TR","3"
"","show_choice","229","402177","0.0-222.0-1.0","""event"",""trial"",""time""
""fullscreenenter"",""0"",""6625""
","
","
","""event"",""trial"",""time""
""fullscreenenter"",""0"",""6625""
","
","null","run_exp/static/images/Set 6_rs/154a.jpg","null","","","","","","test","TR",""
"","html-keyboard-response","230","402679","0.0-222.0-2.0","""event"",""trial"",""time""
""fullscreenenter"",""0"",""6625""
","
","
","""event"",""trial"",""time""
""fullscreenenter"",""0"",""6625""
","
","null","<p></p>","null","","","","","","","",""
"","image","231","403985","0.0-223.0-0.0","""event"",""trial"",""time""
""fullscreenenter"",""0"",""6625""
","
","
","""event"",""trial"",""time""
""fullscreenenter"",""0"",""6625""
","
","1304.1000000000931","run_exp/static/images/Set 6_rs/073b.jpg","66","","","","","","test","TL","3"
"","show_choice","232","404496","0.0-223.0-1.0","""event"",""trial"",""time""
""fullscreenenter"",""0"",""6625""
","
","
","""event"",""trial"",""time""
""fullscreenenter"",""0"",""6625""
","
","null","run_exp/static/images/Set 6_rs/073b.jpg","null","","","","","","test","TL",""
"","html-keyboard-response","233","405017","0.0-223.0-2.0","""event"",""trial"",""time""
""fullscreenenter"",""0"",""6625""
","
","
","""event"",""trial"",""time""
""fullscreenenter"",""0"",""6625""
","
","null","<p></p>","null","","","","","","","",""
"","image","234","406231","0.0-224.0-0.0","""event"",""trial"",""time""
""fullscreenenter"",""0"",""6625""
","
","
","""event"",""trial"",""time""
""fullscreenenter"",""0"",""6625""
","
","1212.6000000000931","run_exp/static/images/Set 6_rs/140a.jpg","78","","","","","","test","TF","1"
"","show_choice","235","406746","0.0-224.0-1.0","""event"",""trial"",""time""
""fullscreenenter"",""0"",""6625""
","
","
","""event"",""trial"",""time""
""fullscreenenter"",""0"",""6625""
","
","null","run_exp/static/images/Set 6_rs/140a.jpg","null","","","","","","test","TF",""
"","html-keyboard-response","236","407267","0.0-224.0-2.0","""event"",""trial"",""time""
""fullscreenenter"",""0"",""6625""
","
","
","""event"",""trial"",""time""
""fullscreenenter"",""0"",""6625""
","
","null","<p></p>","null","","","","","","","",""
"","image","237","408503","0.0-225.0-0.0","""event"",""trial"",""time""
""fullscreenenter"",""0"",""6625""
","
","
","""event"",""trial"",""time""
""fullscreenenter"",""0"",""6625""
","
","1234.2999999998137","run_exp/static/images/Set 6_rs/141a.jpg","86","","","","","","test","TR","2"
"","show_choice","238","409007","0.0-225.0-1.0","""event"",""trial"",""time""
""fullscreenenter"",""0"",""6625""
","
","
","""event"",""trial"",""time""
""fullscreenenter"",""0"",""6625""
","
","null","run_exp/static/images/Set 6_rs/141a.jpg","null","","","","","","test","TR",""
"","html-keyboard-response","239","409517","0.0-225.0-2.0","""event"",""trial"",""time""
""fullscreenenter"",""0"",""6625""
","
","
","""event"",""trial"",""time""
""fullscreenenter"",""0"",""6625""
","
","null","<p></p>","null","","","","","","","",""
"","image","240","411177","0.0-226.0-0.0","""event"",""trial"",""time""
""fullscreenenter"",""0"",""6625""
","
","
","""event"",""trial"",""time""
""fullscreenenter"",""0"",""6625""
","
","1658","run_exp/static/images/Set 6_rs/090a.jpg","78","","","","","","test","TF","5"
"","show_choice","241","411683","0.0-226.0-1.0","""event"",""trial"",""time""
""fullscreenenter"",""0"",""6625""
","
","
","""event"",""trial"",""time""
""fullscreenenter"",""0"",""6625""
","
","null","run_exp/static/images/Set 6_rs/090a.jpg","null","","","","","","test","TF",""
"","html-keyboard-response","242","412192","0.0-226.0-2.0","""event"",""trial"",""time""
""fullscreenenter"",""0"",""6625""
","
","
","""event"",""trial"",""time""
""fullscreenenter"",""0"",""6625""
","
","null","<p></p>","null","","","","","","","",""
"","image","243","413308","0.0-227.0-0.0","""event"",""trial"",""time""
""fullscreenenter"",""0"",""6625""
","
","
","""event"",""trial"",""time""
""fullscreenenter"",""0"",""6625""
","
","1115.7999999998137","run_exp/static/images/Set 6_rs/023a.jpg","86","","","","","","test","TR","3"
"","show_choice","244","413822","0.0-227.0-1.0","""event"",""trial"",""time""
""fullscreenenter"",""0"",""6625""
","
","
","""event"",""trial"",""time""
""fullscreenenter"",""0"",""6625""
","
","null","run_exp/static/images/Set 6_rs/023a.jpg","null","","","","","","test","TR",""
"","html-keyboard-response","245","414325","0.0-227.0-2.0","""event"",""trial"",""time""
""fullscreenenter"",""0"",""6625""
","
","
","""event"",""trial"",""time""
""fullscreenenter"",""0"",""6625""
","
","null","<p></p>","null","","","","","","","",""
"","image","246","415195","0.0-228.0-0.0","""event"",""trial"",""time""
""fullscreenenter"",""0"",""6625""
","
","
","""event"",""trial"",""time""
""fullscreenenter"",""0"",""6625""
","
","868.3000000002794","run_exp/static/images/Set 6_rs/121a.jpg","86","","","","","","test","TR","4"
"","show_choice","247","415703","0.0-228.0-1.0","""event"",""trial"",""time""
""fullscreenenter"",""0"",""6625""
","
","
","""event"",""trial"",""time""
""fullscreenenter"",""0"",""6625""
","
","null","run_exp/static/images/Set 6_rs/121a.jpg","null","","","","","","test","TR",""
"","html-keyboard-response","248","416218","0.0-228.0-2.0","""event"",""trial"",""time""
""fullscreenenter"",""0"",""6625""
","
","
","""event"",""trial"",""time""
""fullscreenenter"",""0"",""6625""
","
","null","<p></p>","null","","","","","","","",""
"","image","249","417694","0.0-229.0-0.0","""event"",""trial"",""time""
""fullscreenenter"",""0"",""6625""
","
","
","""event"",""trial"",""time""
""fullscreenenter"",""0"",""6625""
","
","1474.2000000001863","run_exp/static/images/Set 6_rs/133a.jpg","78","","","","","","test","TF","4"
"","show_choice","250","418203","0.0-229.0-1.0","""event"",""trial"",""time""
""fullscreenenter"",""0"",""6625""
","
","
","""event"",""trial"",""time""
""fullscreenenter"",""0"",""6625""
","
","null","run_exp/static/images/Set 6_rs/133a.jpg","null","","","","","","test","TF",""
"","html-keyboard-response","251","418712","0.0-229.0-2.0","""event"",""trial"",""time""
""fullscreenenter"",""0"",""6625""
","
","
","""event"",""trial"",""time""
""fullscreenenter"",""0"",""6625""
","
","null","<p></p>","null","","","","","","","",""
"","image","252","420706","0.0-230.0-0.0","""event"",""trial"",""time""
""fullscreenenter"",""0"",""6625""
","
","
","""event"",""trial"",""time""
""fullscreenenter"",""0"",""6625""
","
","1992.3999999999069","run_exp/static/images/Set 6_rs/152a.jpg","86","","","","","","test","TR","2"
"","show_choice","253","421212","0.0-230.0-1.0","""event"",""trial"",""time""
""fullscreenenter"",""0"",""6625""
","
","
","""event"",""trial"",""time""
""fullscreenenter"",""0"",""6625""
","
","null","run_exp/static/images/Set 6_rs/152a.jpg","null","","","","","","test","TR",""
"","html-keyboard-response","254","421714","0.0-230.0-2.0","""event"",""trial"",""time""
""fullscreenenter"",""0"",""6625""
","
","
","""event"",""trial"",""time""
""fullscreenenter"",""0"",""6625""
","
","null","<p></p>","null","","","","","","","",""
"","image","255","422821","0.0-231.0-0.0","""event"",""trial"",""time""
""fullscreenenter"",""0"",""6625""
","
","
","""event"",""trial"",""time""
""fullscreenenter"",""0"",""6625""
","
","1104.7999999998137","run_exp/static/images/Set 6_rs/074b.jpg","66","","","","","","test","TL","4"
"","show_choice","256","423327","0.0-231.0-1.0","""event"",""trial"",""time""
""fullscreenenter"",""0"",""6625""
","
","
","""event"",""trial"",""time""
""fullscreenenter"",""0"",""6625""
","
","null","run_exp/static/images/Set 6_rs/074b.jpg","null","","","","","","test","TL",""
"","html-keyboard-response","257","423833","0.0-231.0-2.0","""event"",""trial"",""time""
""fullscreenenter"",""0"",""6625""
","
","
","""event"",""trial"",""time""
""fullscreenenter"",""0"",""6625""
","
","null","<p></p>","null","","","","","","","",""
"","image","258","424813","0.0-232.0-0.0","""event"",""trial"",""time""
""fullscreenenter"",""0"",""6625""
","
","
","""event"",""trial"",""time""
""fullscreenenter"",""0"",""6625""
","
","978.1000000000931","run_exp/static/images/Set 6_rs/078a.jpg","78","","","","","","test","TF","1"
"","show_choice","259","425324","0.0-232.0-1.0","""event"",""trial"",""time""
""fullscreenenter"",""0"",""6625""
","
","
","""event"",""trial"",""time""
""fullscreenenter"",""0"",""6625""
","
","null","run_exp/static/images/Set 6_rs/078a.jpg","null","","","","","","test","TF",""
"","html-keyboard-response","260","425826","0.0-232.0-2.0","""event"",""trial"",""time""
""fullscreenenter"",""0"",""6625""
","
","
","""event"",""trial"",""time""
""fullscreenenter"",""0"",""6625""
","
","null","<p></p>","null","","","","","","","",""
"","image","261","427047","0.0-233.0-0.0","""event"",""trial"",""time""
""fullscreenenter"",""0"",""6625""
","
","
","""event"",""trial"",""time""
""fullscreenenter"",""0"",""6625""
","
","1219.6000000000931","run_exp/static/images/Set 6_rs/112a.jpg","86","","","","","","test","TR","5"
"","show_choice","262","427551","0.0-233.0-1.0","""event"",""trial"",""time""
""fullscreenenter"",""0"",""6625""
","
","
","""event"",""trial"",""time""
""fullscreenenter"",""0"",""6625""
","
","null","run_exp/static/images/Set 6_rs/112a.jpg","null","","","","","","test","TR",""
"","html-keyboard-response","263","428067","0.0-233.0-2.0","""event"",""trial"",""time""
""fullscreenenter"",""0"",""6625""
","
","
","""event"",""trial"",""time""
""fullscreenenter"",""0"",""6625""
","
","null","<p></p>","null","","","","","","","",""
"","image","264","429271","0.0-234.0-0.0","""event"",""trial"",""time""
""fullscreenenter"",""0"",""6625""
","
","
","""event"",""trial"",""time""
""fullscreenenter"",""0"",""6625""
","
","1203.1000000000931","run_exp/static/images/Set 6_rs/017b.jpg","66","","","","","","test","TL","3"
"","show_choice","265","429784","0.0-234.0-1.0","""event"",""trial"",""time""
""fullscreenenter"",""0"",""6625""
","
","
","""event"",""trial"",""time""
""fullscreenenter"",""0"",""6625""
","
","null","run_exp/static/images/Set 6_rs/017b.jpg","null","","","","","","test","TL",""
"","html-keyboard-response","266","430301","0.0-234.0-2.0","""event"",""trial"",""time""
""fullscreenenter"",""0"",""6625""
","
","
","""event"",""trial"",""time""
""fullscreenenter"",""0"",""6625""
","
","null","<p></p>","null","","","","","","","",""
"","image","267","432283","0.0-235.0-0.0","""event"",""trial"",""time""
""fullscreenenter"",""0"",""6625""
","
","
","""event"",""trial"",""time""
""fullscreenenter"",""0"",""6625""
","
","1981.2999999998137","run_exp/static/images/Set 6_rs/132a.jpg","86","","","","","","test","TR","5"
"","show_choice","268","432786","0.0-235.0-1.0","""event"",""trial"",""time""
""fullscreenenter"",""0"",""6625""
","
","
","""event"",""trial"",""time""
""fullscreenenter"",""0"",""6625""
","
","null","run_exp/static/images/Set 6_rs/132a.jpg","null","","","","","","test","TR",""
"","html-keyboard-response","269","433291","0.0-235.0-2.0","""event"",""trial"",""time""
""fullscreenenter"",""0"",""6625""
","
","
","""event"",""trial"",""time""
""fullscreenenter"",""0"",""6625""
","
","null","<p></p>","null","","","","","","","",""
"","image","270","434314","0.0-236.0-0.0","""event"",""trial"",""time""
""fullscreenenter"",""0"",""6625""
","
","
","""event"",""trial"",""time""
""fullscreenenter"",""0"",""6625""
","
","1021.2000000001863","run_exp/static/images/Set 6_rs/088a.jpg","86","","","","","","test","TR","2"
"","show_choice","271","434819","0.0-236.0-1.0","""event"",""trial"",""time""
""fullscreenenter"",""0"",""6625""
","
","
","""event"",""trial"",""time""
""fullscreenenter"",""0"",""6625""
","
","null","run_exp/static/images/Set 6_rs/088a.jpg","null","","","","","","test","TR",""
"","html-keyboard-response","272","435335","0.0-236.0-2.0","""event"",""trial"",""time""
""fullscreenenter"",""0"",""6625""
","
","
","""event"",""trial"",""time""
""fullscreenenter"",""0"",""6625""
","
","null","<p></p>","null","","","","","","","",""
"","image","273","436572","0.0-237.0-0.0","""event"",""trial"",""time""
""fullscreenenter"",""0"",""6625""
","
","
","""event"",""trial"",""time""
""fullscreenenter"",""0"",""6625""
","
","1235.6999999997206","run_exp/static/images/Set 6_rs/190a.jpg","78","","","","","","test","TF","3"
"","show_choice","274","437084","0.0-237.0-1.0","""event"",""trial"",""time""
""fullscreenenter"",""0"",""6625""
","
","
","""event"",""trial"",""time""
""fullscreenenter"",""0"",""6625""
","
","null","run_exp/static/images/Set 6_rs/190a.jpg","null","","","","","","test","TF",""
"","html-keyboard-response","275","437601","0.0-237.0-2.0","""event"",""trial"",""time""
""fullscreenenter"",""0"",""6625""
","
","
","""event"",""trial"",""time""
""fullscreenenter"",""0"",""6625""
","
","null","<p></p>","null","","","","","","","",""
"","image","276","438765","0.0-238.0-0.0","""event"",""trial"",""time""
""fullscreenenter"",""0"",""6625""
","
","
","""event"",""trial"",""time""
""fullscreenenter"",""0"",""6625""
","
","1163.5","run_exp/static/images/Set 6_rs/168b.jpg","66","","","","","","test","TL","3"
"","show_choice","277","439279","0.0-238.0-1.0","""event"",""trial"",""time""
""fullscreenenter"",""0"",""6625""
","
","
","""event"",""trial"",""time""
""fullscreenenter"",""0"",""6625""
","
","null","run_exp/static/images/Set 6_rs/168b.jpg","null","","","","","","test","TL",""
"","html-keyboard-response","278","439785","0.0-238.0-2.0","""event"",""trial"",""time""
""fullscreenenter"",""0"",""6625""
","
","
","""event"",""trial"",""time""
""fullscreenenter"",""0"",""6625""
","
","null","<p></p>","null","","","","","","","",""
"","image","279","441208","0.0-239.0-0.0","""event"",""trial"",""time""
""fullscreenenter"",""0"",""6625""
","
","
","""event"",""trial"",""time""
""fullscreenenter"",""0"",""6625""
","
","1424.3000000002794","run_exp/static/images/Set 6_rs/022a.jpg","78","","","","","","test","TF","4"
"","show_choice","280","441716","0.0-239.0-1.0","""event"",""trial"",""time""
""fullscreenenter"",""0"",""6625""
","
","
","""event"",""trial"",""time""
""fullscreenenter"",""0"",""6625""
","
","null","run_exp/static/images/Set 6_rs/022a.jpg","null","","","","","","test","TF",""
"","html-keyboard-response","281","442231","0.0-239.0-2.0","""event"",""trial"",""time""
""fullscreenenter"",""0"",""6625""
","
","
","""event"",""trial"",""time""
""fullscreenenter"",""0"",""6625""
","
","null","<p></p>","null","","","","","","","",""
"","image","282","443459","0.0-240.0-0.0","""event"",""trial"",""time""
""fullscreenenter"",""0"",""6625""
","
","
","""event"",""trial"",""time""
""fullscreenenter"",""0"",""6625""
","
","1226.8999999999069","run_exp/static/images/Set 6_rs/097a.jpg","78","","","","","","test","TF","5"
"","show_choice","283","443965","0.0-240.0-1.0","""event"",""trial"",""time""
""fullscreenenter"",""0"",""6625""
","
","
","""event"",""trial"",""time""
""fullscreenenter"",""0"",""6625""
","
","null","run_exp/static/images/Set 6_rs/097a.jpg","null","","","","","","test","TF",""
"","html-keyboard-response","284","444481","0.0-240.0-2.0","""event"",""trial"",""time""
""fullscreenenter"",""0"",""6625""
","
","
","""event"",""trial"",""time""
""fullscreenenter"",""0"",""6625""
","
","null","<p></p>","null","","","","","","","",""
"","image","285","445581","0.0-241.0-0.0","""event"",""trial"",""time""
""fullscreenenter"",""0"",""6625""
","
","
","""event"",""trial"",""time""
""fullscreenenter"",""0"",""6625""
","
","1098.5","run_exp/static/images/Set 6_rs/085b.jpg","66","","","","","","test","TL","1"
"","show_choice","286","446083","0.0-241.0-1.0","""event"",""trial"",""time""
""fullscreenenter"",""0"",""6625""
","
","
","""event"",""trial"",""time""
""fullscreenenter"",""0"",""6625""
","
","null","run_exp/static/images/Set 6_rs/085b.jpg","null","","","","","","test","TL",""
"","html-keyboard-response","287","446599","0.0-241.0-2.0","""event"",""trial"",""time""
""fullscreenenter"",""0"",""6625""
","
","
","""event"",""trial"",""time""
""fullscreenenter"",""0"",""6625""
","
","null","<p></p>","null","","","","","","","",""
"","image","288","448003","0.0-242.0-0.0","""event"",""trial"",""time""
""fullscreenenter"",""0"",""6625""
","
","
","""event"",""trial"",""time""
""fullscreenenter"",""0"",""6625""
","
","1402.6999999997206","run_exp/static/images/Set 6_rs/070a.jpg","86","","","","","","test","TR","2"
"","show_choice","289","448520","0.0-242.0-1.0","""event"",""trial"",""time""
""fullscreenenter"",""0"",""6625""
","
","
","""event"",""trial"",""time""
""fullscreenenter"",""0"",""6625""
","
","null","run_exp/static/images/Set 6_rs/070a.jpg","null","","","","","","test","TR",""
"","html-keyboard-response","290","449031","0.0-242.0-2.0","""event"",""trial"",""time""
""fullscreenenter"",""0"",""6625""
","
","
","""event"",""trial"",""time""
""fullscreenenter"",""0"",""6625""
","
","null","<p></p>","null","","","","","","","",""
"","image","291","449770","0.0-243.0-0.0","""event"",""trial"",""time""
""fullscreenenter"",""0"",""6625""
","
","
","""event"",""trial"",""time""
""fullscreenenter"",""0"",""6625""
","
","737.5","run_exp/static/images/Set 6_rs/007a.jpg","86","","","","","","test","TR","3"
"","show_choice","292","450281","0.0-243.0-1.0","""event"",""trial"",""time""
""fullscreenenter"",""0"",""6625""
","
","
","""event"",""trial"",""time""
""fullscreenenter"",""0"",""6625""
","
","null","run_exp/static/images/Set 6_rs/007a.jpg","null","","","","","","test","TR",""
"","html-keyboard-response","293","450798","0.0-243.0-2.0","""event"",""trial"",""time""
""fullscreenenter"",""0"",""6625""
","
","
","""event"",""trial"",""time""
""fullscreenenter"",""0"",""6625""
","
","null","<p></p>","null","","","","","","","",""
"","image","294","451954","0.0-244.0-0.0","""event"",""trial"",""time""
""fullscreenenter"",""0"",""6625""
","
","
","""event"",""trial"",""time""
""fullscreenenter"",""0"",""6625""
","
","1153.8999999999069","run_exp/static/images/Set 6_rs/001a.jpg","78","","","","","","test","TF","1"
"","show_choice","295","452464","0.0-244.0-1.0","""event"",""trial"",""time""
""fullscreenenter"",""0"",""6625""
","
","
","""event"",""trial"",""time""
""fullscreenenter"",""0"",""6625""
","
","null","run_exp/static/images/Set 6_rs/001a.jpg","null","","","","","","test","TF",""
"","html-keyboard-response","296","452966","0.0-244.0-2.0","""event"",""trial"",""time""
""fullscreenenter"",""0"",""6625""
","
","
","""event"",""trial"",""time""
""fullscreenenter"",""0"",""6625""
","
","null","<p></p>","null","","","","","","","",""
"","image","297","453880","0.0-245.0-0.0","""event"",""trial"",""time""
""fullscreenenter"",""0"",""6625""
","
","
","""event"",""trial"",""time""
""fullscreenenter"",""0"",""6625""
","
","912.3999999999069","run_exp/static/images/Set 6_rs/056a.jpg","78","","","","","","test","TF","3"
"","show_choice","298","454397","0.0-245.0-1.0","""event"",""trial"",""time""
""fullscreenenter"",""0"",""6625""
","
","
","""event"",""trial"",""time""
""fullscreenenter"",""0"",""6625""
","
","null","run_exp/static/images/Set 6_rs/056a.jpg","null","","","","","","test","TF",""
"","html-keyboard-response","299","454914","0.0-245.0-2.0","""event"",""trial"",""time""
""fullscreenenter"",""0"",""6625""
","
","
","""event"",""trial"",""time""
""fullscreenenter"",""0"",""6625""
","
","null","<p></p>","null","","","","","","","",""
"","image","300","456669","0.0-246.0-0.0","""event"",""trial"",""time""
""fullscreenenter"",""0"",""6625""
","
","
","""event"",""trial"",""time""
""fullscreenenter"",""0"",""6625""
","
","1754.1999999997206","run_exp/static/images/Set 6_rs/122a.jpg","86","","","","","","test","TR","5"
"","show_choice","301","457180","0.0-246.0-1.0","""event"",""trial"",""time""
""fullscreenenter"",""0"",""6625""
","
","
","""event"",""trial"",""time""
""fullscreenenter"",""0"",""6625""
","
","null","run_exp/static/images/Set 6_rs/122a.jpg","null","","","","","","test","TR",""
"","html-keyboard-response","302","457696","0.0-246.0-2.0","""event"",""trial"",""time""
""fullscreenenter"",""0"",""6625""
","
","
","""event"",""trial"",""time""
""fullscreenenter"",""0"",""6625""
","
","null","<p></p>","null","","","","","","","",""
"","image","303","459893","0.0-247.0-0.0","""event"",""trial"",""time""
""fullscreenenter"",""0"",""6625""
","
","
","""event"",""trial"",""time""
""fullscreenenter"",""0"",""6625""
","
","2194.7000000001863","run_exp/static/images/Set 6_rs/111b.jpg","66","","","","","","test","TL","3"
"","show_choice","304","460398","0.0-247.0-1.0","""event"",""trial"",""time""
""fullscreenenter"",""0"",""6625""
","
","
","""event"",""trial"",""time""
""fullscreenenter"",""0"",""6625""
","
","null","run_exp/static/images/Set 6_rs/111b.jpg","null","","","","","","test","TL",""
"","html-keyboard-response","305","460914","0.0-247.0-2.0","""event"",""trial"",""time""
""fullscreenenter"",""0"",""6625""
","
","
","""event"",""trial"",""time""
""fullscreenenter"",""0"",""6625""
","
","null","<p></p>","null","","","","","","","",""
"","image","306","461949","0.0-248.0-0.0","""event"",""trial"",""time""
""fullscreenenter"",""0"",""6625""
","
","
","""event"",""trial"",""time""
""fullscreenenter"",""0"",""6625""
","
","1032.8999999999069","run_exp/static/images/Set 6_rs/008b.jpg","86","","","","","","test","TL","2"
"","show_choice","307","462457","0.0-248.0-1.0","""event"",""trial"",""time""
""fullscreenenter"",""0"",""6625""
","
","
","""event"",""trial"",""time""
""fullscreenenter"",""0"",""6625""
","
","null","run_exp/static/images/Set 6_rs/008b.jpg","null","","","","","","test","TL",""
"","html-keyboard-response","308","462962","0.0-248.0-2.0","""event"",""trial"",""time""
""fullscreenenter"",""0"",""6625""
","
","
","""event"",""trial"",""time""
""fullscreenenter"",""0"",""6625""
","
","null","<p></p>","null","","","","","","","",""
"","image","309","463664","0.0-249.0-0.0","""event"",""trial"",""time""
""fullscreenenter"",""0"",""6625""
","
","
","""event"",""trial"",""time""
""fullscreenenter"",""0"",""6625""
","
","699.9000000003725","run_exp/static/images/Set 6_rs/063a.jpg","86","","","","","","test","TR","2"
"","show_choice","310","464166","0.0-249.0-1.0","""event"",""trial"",""time""
""fullscreenenter"",""0"",""6625""
","
","
","""event"",""trial"",""time""
""fullscreenenter"",""0"",""6625""
","
","null","run_exp/static/images/Set 6_rs/063a.jpg","null","","","","","","test","TR",""
"","html-keyboard-response","311","464681","0.0-249.0-2.0","""event"",""trial"",""time""
""fullscreenenter"",""0"",""6625""
","
","
","""event"",""trial"",""time""
""fullscreenenter"",""0"",""6625""
","
","null","<p></p>","null","","","","","","","",""
"","image","312","465735","0.0-250.0-0.0","""event"",""trial"",""time""
""fullscreenenter"",""0"",""6625""
","
","
","""event"",""trial"",""time""
""fullscreenenter"",""0"",""6625""
","
","1052.6000000000931","run_exp/static/images/Set 6_rs/136a.jpg","78","","","","","","test","TF","4"
"","show_choice","313","466247","0.0-250.0-1.0","""event"",""trial"",""time""
""fullscreenenter"",""0"",""6625""
","
","
","""event"",""trial"",""time""
""fullscreenenter"",""0"",""6625""
","
","null","run_exp/static/images/Set 6_rs/136a.jpg","null","","","","","","test","TF",""
"","html-keyboard-response","314","466763","0.0-250.0-2.0","""event"",""trial"",""time""
""fullscreenenter"",""0"",""6625""
","
","
","""event"",""trial"",""time""
""fullscreenenter"",""0"",""6625""
","
","null","<p></p>","null","","","","","","","",""
"","image","315","468056","0.0-251.0-0.0","""event"",""trial"",""time""
""fullscreenenter"",""0"",""6625""
","
","
","""event"",""trial"",""time""
""fullscreenenter"",""0"",""6625""
","
","1292.3000000002794","run_exp/static/images/Set 6_rs/129b.jpg","66","","","","","","test","TL","1"
"","show_choice","316","468570","0.0-251.0-1.0","""event"",""trial"",""time""
""fullscreenenter"",""0"",""6625""
","
","
","""event"",""trial"",""time""
""fullscreenenter"",""0"",""6625""
","
","null","run_exp/static/images/Set 6_rs/129b.jpg","null","","","","","","test","TL",""
"","html-keyboard-response","317","469079","0.0-251.0-2.0","""event"",""trial"",""time""
""fullscreenenter"",""0"",""6625""
","
","
","""event"",""trial"",""time""
""fullscreenenter"",""0"",""6625""
","
","null","<p></p>","null","","","","","","","",""
"","image","318","470134","0.0-252.0-0.0","""event"",""trial"",""time""
""fullscreenenter"",""0"",""6625""
","
","
","""event"",""trial"",""time""
""fullscreenenter"",""0"",""6625""
","
","1052.8999999999069","run_exp/static/images/Set 6_rs/076a.jpg","66","","","","","","test","TR","4"
"","show_choice","319","470646","0.0-252.0-1.0","""event"",""trial"",""time""
""fullscreenenter"",""0"",""6625""
","
","
","""event"",""trial"",""time""
""fullscreenenter"",""0"",""6625""
","
","null","run_exp/static/images/Set 6_rs/076a.jpg","null","","","","","","test","TR",""
"","html-keyboard-response","320","471148","0.0-252.0-2.0","""event"",""trial"",""time""
""fullscreenenter"",""0"",""6625""
","
","
","""event"",""trial"",""time""
""fullscreenenter"",""0"",""6625""
","
","null","<p></p>","null","","","","","","","",""
"","image","321","472230","0.0-253.0-0.0","""event"",""trial"",""time""
""fullscreenenter"",""0"",""6625""
","
","
","""event"",""trial"",""time""
""fullscreenenter"",""0"",""6625""
","
","1080.8000000002794","run_exp/static/images/Set 6_rs/057b.jpg","86","","","","","","test","TL","1"
"","show_choice","322","472747","0.0-253.0-1.0","""event"",""trial"",""time""
""fullscreenenter"",""0"",""6625""
","
","
","""event"",""trial"",""time""
""fullscreenenter"",""0"",""6625""
","
","null","run_exp/static/images/Set 6_rs/057b.jpg","null","","","","","","test","TL",""
"","html-keyboard-response","323","473263","0.0-253.0-2.0","""event"",""trial"",""time""
""fullscreenenter"",""0"",""6625""
","
","
","""event"",""trial"",""time""
""fullscreenenter"",""0"",""6625""
","
","null","<p></p>","null","","","","","","","",""
"","image","324","474634","0.0-254.0-0.0","""event"",""trial"",""time""
""fullscreenenter"",""0"",""6625""
","
","
","""event"",""trial"",""time""
""fullscreenenter"",""0"",""6625""
","
","1369.5999999996275","run_exp/static/images/Set 6_rs/105a.jpg","78","","","","","","test","TF","5"
"","show_choice","325","475145","0.0-254.0-1.0","""event"",""trial"",""time""
""fullscreenenter"",""0"",""6625""
","
","
","""event"",""trial"",""time""
""fullscreenenter"",""0"",""6625""
","
","null","run_exp/static/images/Set 6_rs/105a.jpg","null","","","","","","test","TF",""
"","html-keyboard-response","326","475648","0.0-254.0-2.0","""event"",""trial"",""time""
""fullscreenenter"",""0"",""6625""
","
","
","""event"",""trial"",""time""
""fullscreenenter"",""0"",""6625""
","
","null","<p></p>","null","","","","","","","",""
"","image","327","477310","0.0-255.0-0.0","""event"",""trial"",""time""
""fullscreenenter"",""0"",""6625""
","
","
","""event"",""trial"",""time""
""fullscreenenter"",""0"",""6625""
","
","1660.6000000000931","run_exp/static/images/Set 6_rs/187a.jpg","86","","","","","","test","TR","3"
"","show_choice","328","477814","0.0-255.0-1.0","""event"",""trial"",""time""
""fullscreenenter"",""0"",""6625""
","
","
","""event"",""trial"",""time""
""fullscreenenter"",""0"",""6625""
","
","null","run_exp/static/images/Set 6_rs/187a.jpg","null","","","","","","test","TR",""
"","html-keyboard-response","329","478330","0.0-255.0-2.0","""event"",""trial"",""time""
""fullscreenenter"",""0"",""6625""
","
","
","""event"",""trial"",""time""
""fullscreenenter"",""0"",""6625""
","
","null","<p></p>","null","","","","","","","",""
"","image","330","479452","0.0-256.0-0.0","""event"",""trial"",""time""
""fullscreenenter"",""0"",""6625""
","
","
","""event"",""trial"",""time""
""fullscreenenter"",""0"",""6625""
","
","1120.6999999997206","run_exp/static/images/Set 6_rs/171a.jpg","78","","","","","","test","TF","1"
"","show_choice","331","479962","0.0-256.0-1.0","""event"",""trial"",""time""
""fullscreenenter"",""0"",""6625""
","
","
","""event"",""trial"",""time""
""fullscreenenter"",""0"",""6625""
","
","null","run_exp/static/images/Set 6_rs/171a.jpg","null","","","","","","test","TF",""
"","html-keyboard-response","332","480465","0.0-256.0-2.0","""event"",""trial"",""time""
""fullscreenenter"",""0"",""6625""
","
","
","""event"",""trial"",""time""
""fullscreenenter"",""0"",""6625""
","
","null","<p></p>","null","","","","","","","",""
"","image","333","481583","0.0-257.0-0.0","""event"",""trial"",""time""
""fullscreenenter"",""0"",""6625""
","
","
","""event"",""trial"",""time""
""fullscreenenter"",""0"",""6625""
","
","1115.8999999999069","run_exp/static/images/Set 6_rs/016b.jpg","66","","","","","","test","TL","1"
"","show_choice","334","482096","0.0-257.0-1.0","""event"",""trial"",""time""
""fullscreenenter"",""0"",""6625""
","
","
","""event"",""trial"",""time""
""fullscreenenter"",""0"",""6625""
","
","null","run_exp/static/images/Set 6_rs/016b.jpg","null","","","","","","test","TL",""
"","html-keyboard-response","335","482600","0.0-257.0-2.0","""event"",""trial"",""time""
""fullscreenenter"",""0"",""6625""
","
","
","""event"",""trial"",""time""
""fullscreenenter"",""0"",""6625""
","
","null","<p></p>","null","","","","","","","",""
"","image","336","483629","0.0-258.0-0.0","""event"",""trial"",""time""
""fullscreenenter"",""0"",""6625""
","
","
","""event"",""trial"",""time""
""fullscreenenter"",""0"",""6625""
","
","1027.7999999998137","run_exp/static/images/Set 6_rs/134a.jpg","86","","","","","","test","TR","3"
"","show_choice","337","484145","0.0-258.0-1.0","""event"",""trial"",""time""
""fullscreenenter"",""0"",""6625""
","
","
","""event"",""trial"",""time""
""fullscreenenter"",""0"",""6625""
","
","null","run_exp/static/images/Set 6_rs/134a.jpg","null","","","","","","test","TR",""
"","html-keyboard-response","338","484648","0.0-258.0-2.0","""event"",""trial"",""time""
""fullscreenenter"",""0"",""6625""
","
","
","""event"",""trial"",""time""
""fullscreenenter"",""0"",""6625""
","
","null","<p></p>","null","","","","","","","",""
"","image","339","485893","0.0-259.0-0.0","""event"",""trial"",""time""
""fullscreenenter"",""0"",""6625""
","
","
","""event"",""trial"",""time""
""fullscreenenter"",""0"",""6625""
","
","1243.4000000003725","run_exp/static/images/Set 6_rs/014b.jpg","66","","","","","","test","TL","5"
"","show_choice","340","486397","0.0-259.0-1.0","""event"",""trial"",""time""
""fullscreenenter"",""0"",""6625""
","
","
","""event"",""trial"",""time""
""fullscreenenter"",""0"",""6625""
","
","null","run_exp/static/images/Set 6_rs/014b.jpg","null","","","","","","test","TL",""
