"success","trial_type","trial_index","time_elapsed","internal_node_id","interactions","blur_events","focus_events","fullscreenenter_events","fullscreenexit_events","rt","stimulus","key_press","subject_id","participant_id","age","gender","prompt","phase","condition","lure_bin"
"true","fullscreen","0","4268","0.0-0.0","""event"",""trial"",""time""
""fullscreenenter"",""0"",""3274""
","
","
","""event"",""trial"",""time""
""fullscreenenter"",""0"",""3274""
","
","","","","","","","","","","",""
"","pavlovia","1","4272","0.0-1.0","""event"",""trial"",""time""
""fullscreenenter"",""0"",""3274""
","
","
","""event"",""trial"",""time""
""fullscreenenter"",""0"",""3274""
","
","","","","","","","","","","",""
"","welcome","2","39140","0.0-2.0","""event"",""trial"",""time""
""fullscreenenter"",""0"",""3274""
","
","
","""event"",""trial"",""time""
""fullscreenenter"",""0"",""3274""
","
","null","run_exp/static/audio/clip_1_welcome.m4a","null","640","592","23","Male","<div class='center'><p>Welcome to the third part of the study! First, you'll be shown pictures of items one at a time. For each picture, you have to decide if the item is typically found indoors or outdoors.</p><p>If you think it's usually found indoors, then press <b>v</b> key on your keyboard. If you think it's usually found outdoors, then press the <b>n</b> key.There will be reminders on the screen to help you remember which keys to press. </p><p>If you're not sure whether the item is an indoor item or an outdoor item, go ahead and take a guess but try your best not to skip that choice. </p></div>","","",""
"","html-keyboard-response","3","40352","0.0-3.0","""event"",""trial"",""time""
""fullscreenenter"",""0"",""3274""
","
","
","""event"",""trial"",""time""
""fullscreenenter"",""0"",""3274""
","
","1210.5","<div class='center'><p>Welcome to the third part of the study! First, you'll be shown pictures of items one at a time. For each picture, you have to decide if the item is typically found indoors or outdoors.</p><p>If you think it's usually found indoors, then press <b>v</b> key on your keyboard. If you think it's usually found outdoors, then press the <b>n</b> key.There will be reminders on the screen to help you remember which keys to press. </p><p>If you're not sure whether the item is an indoor item or an outdoor item, go ahead and take a guess but try your best not to skip that choice. </p><div><p><b>[Press the space bar to continue]</b></p></div>","32","","","","","","","",""
"","image","4","42358","0.0-4.0","""event"",""trial"",""time""
""fullscreenenter"",""0"",""3274""
","
","
","""event"",""trial"",""time""
""fullscreenenter"",""0"",""3274""
","
","null","run_exp/static/images/Set 6_rs/045a.jpg","null","","","","","","learn","SR",""
"","show_choice","5","44365","0.0-5.0","""event"",""trial"",""time""
""fullscreenenter"",""0"",""3274""
","
","
","""event"",""trial"",""time""
""fullscreenenter"",""0"",""3274""
","
","null","run_exp/static/images/blank.png","null","","","","","","learn","SR",""
"","html-keyboard-response","6","44871","0.0-6.0","""event"",""trial"",""time""
""fullscreenenter"",""0"",""3274""
","
","
","""event"",""trial"",""time""
""fullscreenenter"",""0"",""3274""
","
","null","<p></p>","null","","","","","","","",""
"","image","7","46336","0.0-7.0","""event"",""trial"",""time""
""fullscreenenter"",""0"",""3274""
","
","
","""event"",""trial"",""time""
""fullscreenenter"",""0"",""3274""
","
","1464","run_exp/static/images/Set 6_rs/187a.jpg","86","","","","","","learn","SR",""
"","show_choice","8","46879","0.0-8.0","""event"",""trial"",""time""
""fullscreenenter"",""0"",""3274""
","
","
","""event"",""trial"",""time""
""fullscreenenter"",""0"",""3274""
","
","null","run_exp/static/images/Set 6_rs/187a.jpg","null","","","","","","learn","SR",""
"","html-keyboard-response","9","47381","0.0-9.0","""event"",""trial"",""time""
""fullscreenenter"",""0"",""3274""
","
","
","""event"",""trial"",""time""
""fullscreenenter"",""0"",""3274""
","
","null","<p></p>","null","","","","","","","",""
"","image","10","48833","0.0-10.0","""event"",""trial"",""time""
""fullscreenenter"",""0"",""3274""
","
","
","""event"",""trial"",""time""
""fullscreenenter"",""0"",""3274""
","
","1450.2999999998137","run_exp/static/images/Set 6_rs/091a.jpg","78","","","","","","learn","SL",""
"","show_choice","11","49384","0.0-11.0","""event"",""trial"",""time""
""fullscreenenter"",""0"",""3274""
","
","
","""event"",""trial"",""time""
""fullscreenenter"",""0"",""3274""
","
","null","run_exp/static/images/Set 6_rs/091a.jpg","null","","","","","","learn","SL",""
"","html-keyboard-response","12","49885","0.0-12.0","""event"",""trial"",""time""
""fullscreenenter"",""0"",""3274""
","
","
","""event"",""trial"",""time""
""fullscreenenter"",""0"",""3274""
","
","null","<p></p>","null","","","","","","","",""
"","image","13","50655","0.0-13.0","""event"",""trial"",""time""
""fullscreenenter"",""0"",""3274""
","
","
","""event"",""trial"",""time""
""fullscreenenter"",""0"",""3274""
","
","768.5","run_exp/static/images/Set 6_rs/112a.jpg","86","","","","","","learn","SR",""
"","show_choice","14","51892","0.0-14.0","""event"",""trial"",""time""
""fullscreenenter"",""0"",""3274""
","
","
","""event"",""trial"",""time""
""fullscreenenter"",""0"",""3274""
","
","null","run_exp/static/images/Set 6_rs/112a.jpg","null","","","","","","learn","SR",""
"","html-keyboard-response","15","52398","0.0-15.0","""event"",""trial"",""time""
""fullscreenenter"",""0"",""3274""
","
","
","""event"",""trial"",""time""
""fullscreenenter"",""0"",""3274""
","
","null","<p></p>","null","","","","","","","",""
"","image","16","53651","0.0-16.0","""event"",""trial"",""time""
""fullscreenenter"",""0"",""3274""
","
","
","""event"",""trial"",""time""
""fullscreenenter"",""0"",""3274""
","
","1252.1000000005588","run_exp/static/images/Set 6_rs/129a.jpg","86","","","","","","learn","SL",""
"","show_choice","17","54403","0.0-17.0","""event"",""trial"",""time""
""fullscreenenter"",""0"",""3274""
","
","
","""event"",""trial"",""time""
""fullscreenenter"",""0"",""3274""
","
","null","run_exp/static/images/Set 6_rs/129a.jpg","null","","","","","","learn","SL",""
"","html-keyboard-response","18","54909","0.0-18.0","""event"",""trial"",""time""
""fullscreenenter"",""0"",""3274""
","
","
","""event"",""trial"",""time""
""fullscreenenter"",""0"",""3274""
","
","null","<p></p>","null","","","","","","","",""
"","image","19","56172","0.0-19.0","""event"",""trial"",""time""
""fullscreenenter"",""0"",""3274""
","
","
","""event"",""trial"",""time""
""fullscreenenter"",""0"",""3274""
","
","1262.3999999994412","run_exp/static/images/Set 6_rs/121a.jpg","78","","","","","","learn","SR",""
"","show_choice","20","56915","0.0-20.0","""event"",""trial"",""time""
""fullscreenenter"",""0"",""3274""
","
","
","""event"",""trial"",""time""
""fullscreenenter"",""0"",""3274""
","
","null","run_exp/static/images/Set 6_rs/121a.jpg","null","","","","","","learn","SR",""
"","html-keyboard-response","21","57418","0.0-21.0","""event"",""trial"",""time""
""fullscreenenter"",""0"",""3274""
","
","
","""event"",""trial"",""time""
""fullscreenenter"",""0"",""3274""
","
","null","<p></p>","null","","","","","","","",""
"","image","22","58952","0.0-22.0","""event"",""trial"",""time""
""fullscreenenter"",""0"",""3274""
","
","
","""event"",""trial"",""time""
""fullscreenenter"",""0"",""3274""
","
","1532.6000000005588","run_exp/static/images/Set 6_rs/062a.jpg","78","","","","","","learn","SL",""
"","show_choice","23","59425","0.0-23.0","""event"",""trial"",""time""
""fullscreenenter"",""0"",""3274""
","
","
","""event"",""trial"",""time""
""fullscreenenter"",""0"",""3274""
","
","null","run_exp/static/images/Set 6_rs/062a.jpg","null","","","","","","learn","SL",""
"","html-keyboard-response","24","59927","0.0-24.0","""event"",""trial"",""time""
""fullscreenenter"",""0"",""3274""
","
","
","""event"",""trial"",""time""
""fullscreenenter"",""0"",""3274""
","
","null","<p></p>","null","","","","","","","",""
"","image","25","61455","0.0-25.0","""event"",""trial"",""time""
""fullscreenenter"",""0"",""3274""
","
","
","""event"",""trial"",""time""
""fullscreenenter"",""0"",""3274""
","
","1526.2000000001863","run_exp/static/images/Set 6_rs/017a.jpg","78","","","","","","learn","SL",""
"","show_choice","26","61934","0.0-26.0","""event"",""trial"",""time""
""fullscreenenter"",""0"",""3274""
","
","
","""event"",""trial"",""time""
""fullscreenenter"",""0"",""3274""
","
","null","run_exp/static/images/Set 6_rs/017a.jpg","null","","","","","","learn","SL",""
"","html-keyboard-response","27","62435","0.0-27.0","""event"",""trial"",""time""
""fullscreenenter"",""0"",""3274""
","
","
","""event"",""trial"",""time""
""fullscreenenter"",""0"",""3274""
","
","null","<p></p>","null","","","","","","","",""
"","image","28","63493","0.0-28.0","""event"",""trial"",""time""
""fullscreenenter"",""0"",""3274""
","
","
","""event"",""trial"",""time""
""fullscreenenter"",""0"",""3274""
","
","1056","run_exp/static/images/Set 6_rs/055a.jpg","86","","","","","","learn","SL",""
"","show_choice","29","64443","0.0-29.0","""event"",""trial"",""time""
""fullscreenenter"",""0"",""3274""
","
","
","""event"",""trial"",""time""
""fullscreenenter"",""0"",""3274""
","
","null","run_exp/static/images/Set 6_rs/055a.jpg","null","","","","","","learn","SL",""
"","html-keyboard-response","30","64949","0.0-30.0","""event"",""trial"",""time""
""fullscreenenter"",""0"",""3274""
","
","
","""event"",""trial"",""time""
""fullscreenenter"",""0"",""3274""
","
","null","<p></p>","null","","","","","","","",""
"","image","31","66305","0.0-31.0","""event"",""trial"",""time""
""fullscreenenter"",""0"",""3274""
","
","
","""event"",""trial"",""time""
""fullscreenenter"",""0"",""3274""
","
","1355.7000000001863","run_exp/static/images/Set 6_rs/138a.jpg","78","","","","","","learn","SL",""
"","show_choice","32","66955","0.0-32.0","""event"",""trial"",""time""
""fullscreenenter"",""0"",""3274""
","
","
","""event"",""trial"",""time""
""fullscreenenter"",""0"",""3274""
","
","null","run_exp/static/images/Set 6_rs/138a.jpg","null","","","","","","learn","SL",""
"","html-keyboard-response","33","67458","0.0-33.0","""event"",""trial"",""time""
""fullscreenenter"",""0"",""3274""
","
","
","""event"",""trial"",""time""
""fullscreenenter"",""0"",""3274""
","
","null","<p></p>","null","","","","","","","",""
"","image","34","68381","0.0-34.0","""event"",""trial"",""time""
""fullscreenenter"",""0"",""3274""
","
","
","""event"",""trial"",""time""
""fullscreenenter"",""0"",""3274""
","
","921.6000000005588","run_exp/static/images/Set 6_rs/036a.jpg","78","","","","","","learn","SL",""
"","show_choice","35","69465","0.0-35.0","""event"",""trial"",""time""
""fullscreenenter"",""0"",""3274""
","
","
","""event"",""trial"",""time""
""fullscreenenter"",""0"",""3274""
","
","null","run_exp/static/images/Set 6_rs/036a.jpg","null","","","","","","learn","SL",""
"","html-keyboard-response","36","69971","0.0-36.0","""event"",""trial"",""time""
""fullscreenenter"",""0"",""3274""
","
","
","""event"",""trial"",""time""
""fullscreenenter"",""0"",""3274""
","
","null","<p></p>","null","","","","","","","",""
"","image","37","70905","0.0-37.0","""event"",""trial"",""time""
""fullscreenenter"",""0"",""3274""
","
","
","""event"",""trial"",""time""
""fullscreenenter"",""0"",""3274""
","
","933.4000000003725","run_exp/static/images/Set 6_rs/071a.jpg","78","","","","","","learn","SL",""
"","show_choice","38","71977","0.0-38.0","""event"",""trial"",""time""
""fullscreenenter"",""0"",""3274""
","
","
","""event"",""trial"",""time""
""fullscreenenter"",""0"",""3274""
","
","null","run_exp/static/images/Set 6_rs/071a.jpg","null","","","","","","learn","SL",""
"","html-keyboard-response","39","72483","0.0-39.0","""event"",""trial"",""time""
""fullscreenenter"",""0"",""3274""
","
","
","""event"",""trial"",""time""
""fullscreenenter"",""0"",""3274""
","
","null","<p></p>","null","","","","","","","",""
"","image","40","73885","0.0-40.0","""event"",""trial"",""time""
""fullscreenenter"",""0"",""3274""
","
","
","""event"",""trial"",""time""
""fullscreenenter"",""0"",""3274""
","
","1400.7000000001863","run_exp/static/images/Set 6_rs/066a.jpg","86","","","","","","learn","SL",""
"","show_choice","41","74490","0.0-41.0","""event"",""trial"",""time""
""fullscreenenter"",""0"",""3274""
","
","
","""event"",""trial"",""time""
""fullscreenenter"",""0"",""3274""
","
","null","run_exp/static/images/Set 6_rs/066a.jpg","null","","","","","","learn","SL",""
"","html-keyboard-response","42","74996","0.0-42.0","""event"",""trial"",""time""
""fullscreenenter"",""0"",""3274""
","
","
","""event"",""trial"",""time""
""fullscreenenter"",""0"",""3274""
","
","null","<p></p>","null","","","","","","","",""
"","image","43","76171","0.0-43.0","""event"",""trial"",""time""
""fullscreenenter"",""0"",""3274""
","
","
","""event"",""trial"",""time""
""fullscreenenter"",""0"",""3274""
","
","1174.2999999998137","run_exp/static/images/Set 6_rs/191a.jpg","78","","","","","","learn","SL",""
"","show_choice","44","77002","0.0-44.0","""event"",""trial"",""time""
""fullscreenenter"",""0"",""3274""
","
","
","""event"",""trial"",""time""
""fullscreenenter"",""0"",""3274""
","
","null","run_exp/static/images/Set 6_rs/191a.jpg","null","","","","","","learn","SL",""
"","html-keyboard-response","45","77505","0.0-45.0","""event"",""trial"",""time""
""fullscreenenter"",""0"",""3274""
","
","
","""event"",""trial"",""time""
""fullscreenenter"",""0"",""3274""
","
","null","<p></p>","null","","","","","","","",""
"","image","46","79147","0.0-46.0","""event"",""trial"",""time""
""fullscreenenter"",""0"",""3274""
","
","
","""event"",""trial"",""time""
""fullscreenenter"",""0"",""3274""
","
","1640.6000000005588","run_exp/static/images/Set 6_rs/089a.jpg","86","","","","","","learn","SL",""
"","show_choice","47","79512","0.0-47.0","""event"",""trial"",""time""
""fullscreenenter"",""0"",""3274""
","
","
","""event"",""trial"",""time""
""fullscreenenter"",""0"",""3274""
","
","null","run_exp/static/images/Set 6_rs/089a.jpg","null","","","","","","learn","SL",""
"","html-keyboard-response","48","80018","0.0-48.0","""event"",""trial"",""time""
""fullscreenenter"",""0"",""3274""
","
","
","""event"",""trial"",""time""
""fullscreenenter"",""0"",""3274""
","
","null","<p></p>","null","","","","","","","",""
"","image","49","81130","0.0-49.0","""event"",""trial"",""time""
""fullscreenenter"",""0"",""3274""
","
","
","""event"",""trial"",""time""
""fullscreenenter"",""0"",""3274""
","
","1111.300000000745","run_exp/static/images/Set 6_rs/154a.jpg","86","","","","","","learn","SR",""
"","show_choice","50","82024","0.0-50.0","""event"",""trial"",""time""
""fullscreenenter"",""0"",""3274""
","
","
","""event"",""trial"",""time""
""fullscreenenter"",""0"",""3274""
","
","null","run_exp/static/images/Set 6_rs/154a.jpg","null","","","","","","learn","SR",""
"","html-keyboard-response","51","82530","0.0-51.0","""event"",""trial"",""time""
""fullscreenenter"",""0"",""3274""
","
","
","""event"",""trial"",""time""
""fullscreenenter"",""0"",""3274""
","
","null","<p></p>","null","","","","","","","",""
"","image","52","83832","0.0-52.0","""event"",""trial"",""time""
""fullscreenenter"",""0"",""3274""
","
","
","""event"",""trial"",""time""
""fullscreenenter"",""0"",""3274""
","
","1300.7000000001863","run_exp/static/images/Set 6_rs/008a.jpg","78","","","","","","learn","SL",""
"","show_choice","53","84535","0.0-53.0","""event"",""trial"",""time""
""fullscreenenter"",""0"",""3274""
","
","
","""event"",""trial"",""time""
""fullscreenenter"",""0"",""3274""
","
","null","run_exp/static/images/Set 6_rs/008a.jpg","null","","","","","","learn","SL",""
"","html-keyboard-response","54","85037","0.0-54.0","""event"",""trial"",""time""
""fullscreenenter"",""0"",""3274""
","
","
","""event"",""trial"",""time""
""fullscreenenter"",""0"",""3274""
","
","null","<p></p>","null","","","","","","","",""
"","image","55","86268","0.0-55.0","""event"",""trial"",""time""
""fullscreenenter"",""0"",""3274""
","
","
","""event"",""trial"",""time""
""fullscreenenter"",""0"",""3274""
","
","1229.5","run_exp/static/images/Set 6_rs/122a.jpg","86","","","","","","learn","SR",""
"","show_choice","56","87044","0.0-56.0","""event"",""trial"",""time""
""fullscreenenter"",""0"",""3274""
","
","
","""event"",""trial"",""time""
""fullscreenenter"",""0"",""3274""
","
","null","run_exp/static/images/Set 6_rs/122a.jpg","null","","","","","","learn","SR",""
"","html-keyboard-response","57","87548","0.0-57.0","""event"",""trial"",""time""
""fullscreenenter"",""0"",""3274""
","
","
","""event"",""trial"",""time""
""fullscreenenter"",""0"",""3274""
","
","null","<p></p>","null","","","","","","","",""
"","image","58","89001","0.0-58.0","""event"",""trial"",""time""
""fullscreenenter"",""0"",""3274""
","
","
","""event"",""trial"",""time""
""fullscreenenter"",""0"",""3274""
","
","1451","run_exp/static/images/Set 6_rs/117a.jpg","78","","","","","","learn","SL",""
"","show_choice","59","89556","0.0-59.0","""event"",""trial"",""time""
""fullscreenenter"",""0"",""3274""
","
","
","""event"",""trial"",""time""
""fullscreenenter"",""0"",""3274""
","
","null","run_exp/static/images/Set 6_rs/117a.jpg","null","","","","","","learn","SL",""
"","html-keyboard-response","60","90061","0.0-60.0","""event"",""trial"",""time""
""fullscreenenter"",""0"",""3274""
","
","
","""event"",""trial"",""time""
""fullscreenenter"",""0"",""3274""
","
","null","<p></p>","null","","","","","","","",""
"","image","61","91316","0.0-61.0","""event"",""trial"",""time""
""fullscreenenter"",""0"",""3274""
","
","
","""event"",""trial"",""time""
""fullscreenenter"",""0"",""3274""
","
","1254.2999999998137","run_exp/static/images/Set 6_rs/150a.jpg","86","","","","","","learn","SR",""
"","show_choice","62","92067","0.0-62.0","""event"",""trial"",""time""
""fullscreenenter"",""0"",""3274""
","
","
","""event"",""trial"",""time""
""fullscreenenter"",""0"",""3274""
","
","null","run_exp/static/images/Set 6_rs/150a.jpg","null","","","","","","learn","SR",""
"","html-keyboard-response","63","92571","0.0-63.0","""event"",""trial"",""time""
""fullscreenenter"",""0"",""3274""
","
","
","""event"",""trial"",""time""
""fullscreenenter"",""0"",""3274""
","
","null","<p></p>","null","","","","","","","",""
"","image","64","93625","0.0-64.0","""event"",""trial"",""time""
""fullscreenenter"",""0"",""3274""
","
","
","""event"",""trial"",""time""
""fullscreenenter"",""0"",""3274""
","
","1053.5","run_exp/static/images/Set 6_rs/057a.jpg","86","","","","","","learn","SL",""
"","show_choice","65","94577","0.0-65.0","""event"",""trial"",""time""
""fullscreenenter"",""0"",""3274""
","
","
","""event"",""trial"",""time""
""fullscreenenter"",""0"",""3274""
","
","null","run_exp/static/images/Set 6_rs/057a.jpg","null","","","","","","learn","SL",""
"","html-keyboard-response","66","95079","0.0-66.0","""event"",""trial"",""time""
""fullscreenenter"",""0"",""3274""
","
","
","""event"",""trial"",""time""
""fullscreenenter"",""0"",""3274""
","
","null","<p></p>","null","","","","","","","",""
"","image","67","96588","0.0-67.0","""event"",""trial"",""time""
""fullscreenenter"",""0"",""3274""
","
","
","""event"",""trial"",""time""
""fullscreenenter"",""0"",""3274""
","
","1508.1000000005588","run_exp/static/images/Set 6_rs/085a.jpg","78","","","","","","learn","SL",""
"","show_choice","68","97085","0.0-68.0","""event"",""trial"",""time""
""fullscreenenter"",""0"",""3274""
","
","
","""event"",""trial"",""time""
""fullscreenenter"",""0"",""3274""
","
","null","run_exp/static/images/Set 6_rs/085a.jpg","null","","","","","","learn","SL",""
"","html-keyboard-response","69","97588","0.0-69.0","""event"",""trial"",""time""
""fullscreenenter"",""0"",""3274""
","
","
","""event"",""trial"",""time""
""fullscreenenter"",""0"",""3274""
","
","null","<p></p>","null","","","","","","","",""
"","image","70","98563","0.0-70.0","""event"",""trial"",""time""
""fullscreenenter"",""0"",""3274""
","
","
","""event"",""trial"",""time""
""fullscreenenter"",""0"",""3274""
","
","973.9000000003725","run_exp/static/images/Set 6_rs/079a.jpg","86","","","","","","learn","SL",""
"","show_choice","71","99595","0.0-71.0","""event"",""trial"",""time""
""fullscreenenter"",""0"",""3274""
","
","
","""event"",""trial"",""time""
""fullscreenenter"",""0"",""3274""
","
","null","run_exp/static/images/Set 6_rs/079a.jpg","null","","","","","","learn","SL",""
"","html-keyboard-response","72","100098","0.0-72.0","""event"",""trial"",""time""
""fullscreenenter"",""0"",""3274""
","
","
","""event"",""trial"",""time""
""fullscreenenter"",""0"",""3274""
","
","null","<p></p>","null","","","","","","","",""
"","image","73","101377","0.0-73.0","""event"",""trial"",""time""
""fullscreenenter"",""0"",""3274""
","
","
","""event"",""trial"",""time""
""fullscreenenter"",""0"",""3274""
","
","1277.6000000005588","run_exp/static/images/Set 6_rs/172a.jpg","78","","","","","","learn","SR",""
"","show_choice","74","102105","0.0-74.0","""event"",""trial"",""time""
""fullscreenenter"",""0"",""3274""
","
","
","""event"",""trial"",""time""
""fullscreenenter"",""0"",""3274""
","
","null","run_exp/static/images/Set 6_rs/172a.jpg","null","","","","","","learn","SR",""
"","html-keyboard-response","75","102606","0.0-75.0","""event"",""trial"",""time""
""fullscreenenter"",""0"",""3274""
","
","
","""event"",""trial"",""time""
""fullscreenenter"",""0"",""3274""
","
","null","<p></p>","null","","","","","","","",""
"","image","76","104019","0.0-76.0","""event"",""trial"",""time""
""fullscreenenter"",""0"",""3274""
","
","
","""event"",""trial"",""time""
""fullscreenenter"",""0"",""3274""
","
","1411.2000000001863","run_exp/static/images/Set 6_rs/088a.jpg","86","","","","","","learn","SR",""
"","show_choice","77","104613","0.0-77.0","""event"",""trial"",""time""
""fullscreenenter"",""0"",""3274""
","
","
","""event"",""trial"",""time""
""fullscreenenter"",""0"",""3274""
","
","null","run_exp/static/images/Set 6_rs/088a.jpg","null","","","","","","learn","SR",""
"","html-keyboard-response","78","105114","0.0-78.0","""event"",""trial"",""time""
""fullscreenenter"",""0"",""3274""
","
","
","""event"",""trial"",""time""
""fullscreenenter"",""0"",""3274""
","
","null","<p></p>","null","","","","","","","",""
"","image","79","106568","0.0-79.0","""event"",""trial"",""time""
""fullscreenenter"",""0"",""3274""
","
","
","""event"",""trial"",""time""
""fullscreenenter"",""0"",""3274""
","
","1452.5999999996275","run_exp/static/images/Set 6_rs/024a.jpg","86","","","","","","learn","SR",""
"","show_choice","80","107121","0.0-80.0","""event"",""trial"",""time""
""fullscreenenter"",""0"",""3274""
","
","
","""event"",""trial"",""time""
""fullscreenenter"",""0"",""3274""
","
","null","run_exp/static/images/Set 6_rs/024a.jpg","null","","","","","","learn","SR",""
"","html-keyboard-response","81","107627","0.0-81.0","""event"",""trial"",""time""
""fullscreenenter"",""0"",""3274""
","
","
","""event"",""trial"",""time""
""fullscreenenter"",""0"",""3274""
","
","null","<p></p>","null","","","","","","","",""
"","image","82","108970","0.0-82.0","""event"",""trial"",""time""
""fullscreenenter"",""0"",""3274""
","
","
","""event"",""trial"",""time""
""fullscreenenter"",""0"",""3274""
","
","1341.7000000001863","run_exp/static/images/Set 6_rs/064a.jpg","78","","","","","","learn","SR",""
"","show_choice","83","109634","0.0-83.0","""event"",""trial"",""time""
""fullscreenenter"",""0"",""3274""
","
","
","""event"",""trial"",""time""
""fullscreenenter"",""0"",""3274""
","
","null","run_exp/static/images/Set 6_rs/064a.jpg","null","","","","","","learn","SR",""
"","html-keyboard-response","84","110139","0.0-84.0","""event"",""trial"",""time""
""fullscreenenter"",""0"",""3274""
","
","
","""event"",""trial"",""time""
""fullscreenenter"",""0"",""3274""
","
","null","<p></p>","null","","","","","","","",""
"","image","85","111271","0.0-85.0","""event"",""trial"",""time""
""fullscreenenter"",""0"",""3274""
","
","
","""event"",""trial"",""time""
""fullscreenenter"",""0"",""3274""
","
","1130.800000000745","run_exp/static/images/Set 6_rs/177a.jpg","78","","","","","","learn","SR",""
"","show_choice","86","112143","0.0-86.0","""event"",""trial"",""time""
""fullscreenenter"",""0"",""3274""
","
","
","""event"",""trial"",""time""
""fullscreenenter"",""0"",""3274""
","
","null","run_exp/static/images/Set 6_rs/177a.jpg","null","","","","","","learn","SR",""
"","html-keyboard-response","87","112648","0.0-87.0","""event"",""trial"",""time""
""fullscreenenter"",""0"",""3274""
","
","
","""event"",""trial"",""time""
""fullscreenenter"",""0"",""3274""
","
","null","<p></p>","null","","","","","","","",""
"","image","88","113836","0.0-88.0","""event"",""trial"",""time""
""fullscreenenter"",""0"",""3274""
","
","
","""event"",""trial"",""time""
""fullscreenenter"",""0"",""3274""
","
","1186.7000000001863","run_exp/static/images/Set 6_rs/070a.jpg","86","","","","","","learn","SR",""
"","show_choice","89","114654","0.0-89.0","""event"",""trial"",""time""
""fullscreenenter"",""0"",""3274""
","
","
","""event"",""trial"",""time""
""fullscreenenter"",""0"",""3274""
","
","null","run_exp/static/images/Set 6_rs/070a.jpg","null","","","","","","learn","SR",""
"","html-keyboard-response","90","115154","0.0-90.0","""event"",""trial"",""time""
""fullscreenenter"",""0"",""3274""
","
","
","""event"",""trial"",""time""
""fullscreenenter"",""0"",""3274""
","
","null","<p></p>","null","","","","","","","",""
"","image","91","116389","0.0-91.0","""event"",""trial"",""time""
""fullscreenenter"",""0"",""3274""
","
","
","""event"",""trial"",""time""
""fullscreenenter"",""0"",""3274""
","
","1234","run_exp/static/images/Set 6_rs/166a.jpg","86","","","","","","learn","SR",""
"","show_choice","92","117159","0.0-92.0","""event"",""trial"",""time""
""fullscreenenter"",""0"",""3274""
","
","
","""event"",""trial"",""time""
""fullscreenenter"",""0"",""3274""
","
","null","run_exp/static/images/Set 6_rs/166a.jpg","null","","","","","","learn","SR",""
"","html-keyboard-response","93","117663","0.0-93.0","""event"",""trial"",""time""
""fullscreenenter"",""0"",""3274""
","
","
","""event"",""trial"",""time""
""fullscreenenter"",""0"",""3274""
","
","null","<p></p>","null","","","","","","","",""
"","image","94","118641","0.0-94.0","""event"",""trial"",""time""
""fullscreenenter"",""0"",""3274""
","
","
","""event"",""trial"",""time""
""fullscreenenter"",""0"",""3274""
","
","977.2000000001863","run_exp/static/images/Set 6_rs/131a.jpg","86","","","","","","learn","SR",""
"","show_choice","95","119668","0.0-95.0","""event"",""trial"",""time""
""fullscreenenter"",""0"",""3274""
","
","
","""event"",""trial"",""time""
""fullscreenenter"",""0"",""3274""
","
","null","run_exp/static/images/Set 6_rs/131a.jpg","null","","","","","","learn","SR",""
"","html-keyboard-response","96","120174","0.0-96.0","""event"",""trial"",""time""
""fullscreenenter"",""0"",""3274""
","
","
","""event"",""trial"",""time""
""fullscreenenter"",""0"",""3274""
","
","null","<p></p>","null","","","","","","","",""
"","image","97","121678","0.0-97.0","""event"",""trial"",""time""
""fullscreenenter"",""0"",""3274""
","
","
","""event"",""trial"",""time""
""fullscreenenter"",""0"",""3274""
","
","1503.2999999998137","run_exp/static/images/Set 6_rs/095a.jpg","86","","","","","","learn","SL",""
"","show_choice","98","122180","0.0-98.0","""event"",""trial"",""time""
""fullscreenenter"",""0"",""3274""
","
","
","""event"",""trial"",""time""
""fullscreenenter"",""0"",""3274""
","
","null","run_exp/static/images/Set 6_rs/095a.jpg","null","","","","","","learn","SL",""
"","html-keyboard-response","99","122686","0.0-99.0","""event"",""trial"",""time""
""fullscreenenter"",""0"",""3274""
","
","
","""event"",""trial"",""time""
""fullscreenenter"",""0"",""3274""
","
","null","<p></p>","null","","","","","","","",""
"","image","100","123578","0.0-100.0","""event"",""trial"",""time""
""fullscreenenter"",""0"",""3274""
","
","
","""event"",""trial"",""time""
""fullscreenenter"",""0"",""3274""
","
","891","run_exp/static/images/Set 6_rs/126a.jpg","78","","","","","","learn","SR",""
"","show_choice","101","124693","0.0-101.0","""event"",""trial"",""time""
""fullscreenenter"",""0"",""3274""
","
","
","""event"",""trial"",""time""
""fullscreenenter"",""0"",""3274""
","
","null","run_exp/static/images/Set 6_rs/126a.jpg","null","","","","","","learn","SR",""
"","html-keyboard-response","102","125198","0.0-102.0","""event"",""trial"",""time""
""fullscreenenter"",""0"",""3274""
","
","
","""event"",""trial"",""time""
""fullscreenenter"",""0"",""3274""
","
","null","<p></p>","null","","","","","","","",""
"","image","103","126042","0.0-103.0","""event"",""trial"",""time""
""fullscreenenter"",""0"",""3274""
","
","
","""event"",""trial"",""time""
""fullscreenenter"",""0"",""3274""
","
","842.7999999998137","run_exp/static/images/Set 6_rs/006a.jpg","86","","","","","","learn","SL",""
"","show_choice","104","127205","0.0-104.0","""event"",""trial"",""time""
""fullscreenenter"",""0"",""3274""
","
","
","""event"",""trial"",""time""
""fullscreenenter"",""0"",""3274""
","
","null","run_exp/static/images/Set 6_rs/006a.jpg","null","","","","","","learn","SL",""
"","html-keyboard-response","105","127711","0.0-105.0","""event"",""trial"",""time""
""fullscreenenter"",""0"",""3274""
","
","
","""event"",""trial"",""time""
""fullscreenenter"",""0"",""3274""
","
","null","<p></p>","null","","","","","","","",""
"","image","106","128523","0.0-106.0","""event"",""trial"",""time""
""fullscreenenter"",""0"",""3274""
","
","
","""event"",""trial"",""time""
""fullscreenenter"",""0"",""3274""
","
","811.0999999996275","run_exp/static/images/Set 6_rs/178a.jpg","78","","","","","","learn","SR",""
"","show_choice","107","129717","0.0-107.0","""event"",""trial"",""time""
""fullscreenenter"",""0"",""3274""
","
","
","""event"",""trial"",""time""
""fullscreenenter"",""0"",""3274""
","
","null","run_exp/static/images/Set 6_rs/178a.jpg","null","","","","","","learn","SR",""
"","html-keyboard-response","108","130223","0.0-108.0","""event"",""trial"",""time""
""fullscreenenter"",""0"",""3274""
","
","
","""event"",""trial"",""time""
""fullscreenenter"",""0"",""3274""
","
","null","<p></p>","null","","","","","","","",""
"","image","109","131464","0.0-109.0","""event"",""trial"",""time""
""fullscreenenter"",""0"",""3274""
","
","
","""event"",""trial"",""time""
""fullscreenenter"",""0"",""3274""
","
","1240.5","run_exp/static/images/Set 6_rs/012a.jpg","86","","","","","","learn","SR",""
"","show_choice","110","132229","0.0-110.0","""event"",""trial"",""time""
""fullscreenenter"",""0"",""3274""
","
","
","""event"",""trial"",""time""
""fullscreenenter"",""0"",""3274""
","
","null","run_exp/static/images/Set 6_rs/012a.jpg","null","","","","","","learn","SR",""
"","html-keyboard-response","111","132730","0.0-111.0","""event"",""trial"",""time""
""fullscreenenter"",""0"",""3274""
","
","
","""event"",""trial"",""time""
""fullscreenenter"",""0"",""3274""
","
","null","<p></p>","null","","","","","","","",""
"","image","112","133932","0.0-112.0","""event"",""trial"",""time""
""fullscreenenter"",""0"",""3274""
","
","
","""event"",""trial"",""time""
""fullscreenenter"",""0"",""3274""
","
","1200.8999999994412","run_exp/static/images/Set 6_rs/023a.jpg","86","","","","","","learn","SR",""
"","show_choice","113","134734","0.0-113.0","""event"",""trial"",""time""
""fullscreenenter"",""0"",""3274""
","
","
","""event"",""trial"",""time""
""fullscreenenter"",""0"",""3274""
","
","null","run_exp/static/images/Set 6_rs/023a.jpg","null","","","","","","learn","SR",""
"","html-keyboard-response","114","135240","0.0-114.0","""event"",""trial"",""time""
""fullscreenenter"",""0"",""3274""
","
","
","""event"",""trial"",""time""
""fullscreenenter"",""0"",""3274""
","
","null","<p></p>","null","","","","","","","",""
"","image","115","136215","0.0-115.0","""event"",""trial"",""time""
""fullscreenenter"",""0"",""3274""
","
","
","""event"",""trial"",""time""
""fullscreenenter"",""0"",""3274""
","
","974.1000000005588","run_exp/static/images/Set 6_rs/116a.jpg","86","","","","","","learn","SL",""
"","show_choice","116","137243","0.0-116.0","""event"",""trial"",""time""
""fullscreenenter"",""0"",""3274""
","
","
","""event"",""trial"",""time""
""fullscreenenter"",""0"",""3274""
","
","null","run_exp/static/images/Set 6_rs/116a.jpg","null","","","","","","learn","SL",""
"","html-keyboard-response","117","137746","0.0-117.0","""event"",""trial"",""time""
""fullscreenenter"",""0"",""3274""
","
","
","""event"",""trial"",""time""
""fullscreenenter"",""0"",""3274""
","
","null","<p></p>","null","","","","","","","",""
"","image","118","138509","0.0-118.0","""event"",""trial"",""time""
""fullscreenenter"",""0"",""3274""
","
","
","""event"",""trial"",""time""
""fullscreenenter"",""0"",""3274""
","
","762","run_exp/static/images/Set 6_rs/141a.jpg","78","","","","","","learn","SR",""
"","show_choice","119","139753","0.0-119.0","""event"",""trial"",""time""
""fullscreenenter"",""0"",""3274""
","
","
","""event"",""trial"",""time""
""fullscreenenter"",""0"",""3274""
","
","null","run_exp/static/images/Set 6_rs/141a.jpg","null","","","","","","learn","SR",""
"","html-keyboard-response","120","140259","0.0-120.0","""event"",""trial"",""time""
""fullscreenenter"",""0"",""3274""
","
","
","""event"",""trial"",""time""
""fullscreenenter"",""0"",""3274""
","
","null","<p></p>","null","","","","","","","",""
"","image","121","141278","0.0-121.0","""event"",""trial"",""time""
""fullscreenenter"",""0"",""3274""
","
","
","""event"",""trial"",""time""
""fullscreenenter"",""0"",""3274""
","
","1018.5","run_exp/static/images/Set 6_rs/144a.jpg","86","","","","","","learn","SL",""
"","show_choice","122","142265","0.0-122.0","""event"",""trial"",""time""
""fullscreenenter"",""0"",""3274""
","
","
","""event"",""trial"",""time""
""fullscreenenter"",""0"",""3274""
","
","null","run_exp/static/images/Set 6_rs/144a.jpg","null","","","","","","learn","SL",""
"","html-keyboard-response","123","142771","0.0-123.0","""event"",""trial"",""time""
""fullscreenenter"",""0"",""3274""
","
","
","""event"",""trial"",""time""
""fullscreenenter"",""0"",""3274""
","
","null","<p></p>","null","","","","","","","",""
"","image","124","144485","0.0-124.0","""event"",""trial"",""time""
""fullscreenenter"",""0"",""3274""
","
","
","""event"",""trial"",""time""
""fullscreenenter"",""0"",""3274""
","
","1712.2999999998137","run_exp/static/images/Set 6_rs/123a.jpg","86","","","","","","learn","SL",""
"","show_choice","125","144778","0.0-125.0","""event"",""trial"",""time""
""fullscreenenter"",""0"",""3274""
","
","
","""event"",""trial"",""time""
""fullscreenenter"",""0"",""3274""
","
","null","run_exp/static/images/Set 6_rs/123a.jpg","null","","","","","","learn","SL",""
"","html-keyboard-response","126","145279","0.0-126.0","""event"",""trial"",""time""
""fullscreenenter"",""0"",""3274""
","
","
","""event"",""trial"",""time""
""fullscreenenter"",""0"",""3274""
","
","null","<p></p>","null","","","","","","","",""
"","image","127","146631","0.0-127.0","""event"",""trial"",""time""
""fullscreenenter"",""0"",""3274""
","
","
","""event"",""trial"",""time""
""fullscreenenter"",""0"",""3274""
","
","1351.2999999998137","run_exp/static/images/Set 6_rs/134a.jpg","86","","","","","","learn","SR",""
"","show_choice","128","147285","0.0-128.0","""event"",""trial"",""time""
""fullscreenenter"",""0"",""3274""
","
","
","""event"",""trial"",""time""
""fullscreenenter"",""0"",""3274""
","
","null","run_exp/static/images/Set 6_rs/134a.jpg","null","","","","","","learn","SR",""
"","html-keyboard-response","129","147790","0.0-129.0","""event"",""trial"",""time""
""fullscreenenter"",""0"",""3274""
","
","
","""event"",""trial"",""time""
""fullscreenenter"",""0"",""3274""
","
","null","<p></p>","null","","","","","","","",""
"","image","130","148772","0.0-130.0","""event"",""trial"",""time""
""fullscreenenter"",""0"",""3274""
","
","
","""event"",""trial"",""time""
""fullscreenenter"",""0"",""3274""
","
","981","run_exp/static/images/Set 6_rs/108a.jpg","78","","","","","","learn","SR",""
"","show_choice","131","149797","0.0-131.0","""event"",""trial"",""time""
""fullscreenenter"",""0"",""3274""
","
","
","""event"",""trial"",""time""
""fullscreenenter"",""0"",""3274""
","
","null","run_exp/static/images/Set 6_rs/108a.jpg","null","","","","","","learn","SR",""
"","html-keyboard-response","132","150300","0.0-132.0","""event"",""trial"",""time""
""fullscreenenter"",""0"",""3274""
","
","
","""event"",""trial"",""time""
""fullscreenenter"",""0"",""3274""
","
","null","<p></p>","null","","","","","","","",""
"","image","133","151325","0.0-133.0","""event"",""trial"",""time""
""fullscreenenter"",""0"",""3274""
","
","
","""event"",""trial"",""time""
""fullscreenenter"",""0"",""3274""
","
","1023.7999999998137","run_exp/static/images/Set 6_rs/025a.jpg","78","","","","","","learn","SL",""
"","show_choice","134","152307","0.0-134.0","""event"",""trial"",""time""
""fullscreenenter"",""0"",""3274""
","
","
","""event"",""trial"",""time""
""fullscreenenter"",""0"",""3274""
","
","null","run_exp/static/images/Set 6_rs/025a.jpg","null","","","","","","learn","SL",""
"","html-keyboard-response","135","152812","0.0-135.0","""event"",""trial"",""time""
""fullscreenenter"",""0"",""3274""
","
","
","""event"",""trial"",""time""
""fullscreenenter"",""0"",""3274""
","
","null","<p></p>","null","","","","","","","",""
"","image","136","153613","0.0-136.0","""event"",""trial"",""time""
""fullscreenenter"",""0"",""3274""
","
","
","""event"",""trial"",""time""
""fullscreenenter"",""0"",""3274""
","
","800","run_exp/static/images/Set 6_rs/186a.jpg","86","","","","","","learn","SR",""
"","show_choice","137","154819","0.0-137.0","""event"",""trial"",""time""
""fullscreenenter"",""0"",""3274""
","
","
","""event"",""trial"",""time""
""fullscreenenter"",""0"",""3274""
","
","null","run_exp/static/images/Set 6_rs/186a.jpg","null","","","","","","learn","SR",""
"","html-keyboard-response","138","155321","0.0-138.0","""event"",""trial"",""time""
""fullscreenenter"",""0"",""3274""
","
","
","""event"",""trial"",""time""
""fullscreenenter"",""0"",""3274""
","
","null","<p></p>","null","","","","","","","",""
"","image","139","156547","0.0-139.0","""event"",""trial"",""time""
""fullscreenenter"",""0"",""3274""
","
","
","""event"",""trial"",""time""
""fullscreenenter"",""0"",""3274""
","
","1224.5","run_exp/static/images/Set 6_rs/075a.jpg","86","","","","","","learn","SR",""
"","show_choice","140","157328","0.0-140.0","""event"",""trial"",""time""
""fullscreenenter"",""0"",""3274""
","
","
","""event"",""trial"",""time""
""fullscreenenter"",""0"",""3274""
","
","null","run_exp/static/images/Set 6_rs/075a.jpg","null","","","","","","learn","SR",""
"","html-keyboard-response","141","157834","0.0-141.0","""event"",""trial"",""time""
""fullscreenenter"",""0"",""3274""
","
","
","""event"",""trial"",""time""
""fullscreenenter"",""0"",""3274""
","
","null","<p></p>","null","","","","","","","",""
"","image","142","158610","0.0-142.0","""event"",""trial"",""time""
""fullscreenenter"",""0"",""3274""
","
","
","""event"",""trial"",""time""
""fullscreenenter"",""0"",""3274""
","
","775.5999999996275","run_exp/static/images/Set 6_rs/169a.jpg","78","","","","","","learn","SR",""
"","show_choice","143","159840","0.0-143.0","""event"",""trial"",""time""
""fullscreenenter"",""0"",""3274""
","
","
","""event"",""trial"",""time""
""fullscreenenter"",""0"",""3274""
","
","null","run_exp/static/images/Set 6_rs/169a.jpg","null","","","","","","learn","SR",""
"","html-keyboard-response","144","160343","0.0-144.0","""event"",""trial"",""time""
""fullscreenenter"",""0"",""3274""
","
","
","""event"",""trial"",""time""
""fullscreenenter"",""0"",""3274""
","
","null","<p></p>","null","","","","","","","",""
"","image","145","161751","0.0-145.0","""event"",""trial"",""time""
""fullscreenenter"",""0"",""3274""
","
","
","""event"",""trial"",""time""
""fullscreenenter"",""0"",""3274""
","
","1406.3999999994412","run_exp/static/images/Set 6_rs/132a.jpg","78","","","","","","learn","SR",""
"","show_choice","146","162349","0.0-146.0","""event"",""trial"",""time""
""fullscreenenter"",""0"",""3274""
","
","
","""event"",""trial"",""time""
""fullscreenenter"",""0"",""3274""
","
","null","run_exp/static/images/Set 6_rs/132a.jpg","null","","","","","","learn","SR",""
"","html-keyboard-response","147","162855","0.0-147.0","""event"",""trial"",""time""
""fullscreenenter"",""0"",""3274""
","
","
","""event"",""trial"",""time""
""fullscreenenter"",""0"",""3274""
","
","null","<p></p>","null","","","","","","","",""
"","image","148","163736","0.0-148.0","""event"",""trial"",""time""
""fullscreenenter"",""0"",""3274""
","
","
","""event"",""trial"",""time""
""fullscreenenter"",""0"",""3274""
","
","880.4000000003725","run_exp/static/images/Set 6_rs/073a.jpg","86","","","","","","learn","SL",""
"","show_choice","149","164861","0.0-149.0","""event"",""trial"",""time""
""fullscreenenter"",""0"",""3274""
","
","
","""event"",""trial"",""time""
""fullscreenenter"",""0"",""3274""
","
","null","run_exp/static/images/Set 6_rs/073a.jpg","null","","","","","","learn","SL",""
"","html-keyboard-response","150","165362","0.0-150.0","""event"",""trial"",""time""
""fullscreenenter"",""0"",""3274""
","
","
","""event"",""trial"",""time""
""fullscreenenter"",""0"",""3274""
","
","null","<p></p>","null","","","","","","","",""
"","image","151","166316","0.0-151.0","""event"",""trial"",""time""
""fullscreenenter"",""0"",""3274""
","
","
","""event"",""trial"",""time""
""fullscreenenter"",""0"",""3274""
","
","952.6999999992549","run_exp/static/images/Set 6_rs/014a.jpg","86","","","","","","learn","SL",""
"","show_choice","152","167367","0.0-152.0","""event"",""trial"",""time""
""fullscreenenter"",""0"",""3274""
","
","
","""event"",""trial"",""time""
""fullscreenenter"",""0"",""3274""
","
","null","run_exp/static/images/Set 6_rs/014a.jpg","null","","","","","","learn","SL",""
"","html-keyboard-response","153","167873","0.0-153.0","""event"",""trial"",""time""
""fullscreenenter"",""0"",""3274""
","
","
","""event"",""trial"",""time""
""fullscreenenter"",""0"",""3274""
","
","null","<p></p>","null","","","","","","","",""
"","image","154","169441","0.0-154.0","""event"",""trial"",""time""
""fullscreenenter"",""0"",""3274""
","
","
","""event"",""trial"",""time""
""fullscreenenter"",""0"",""3274""
","
","1566.7000000001863","run_exp/static/images/Set 6_rs/152a.jpg","86","","","","","","learn","SR",""
"","show_choice","155","169880","0.0-155.0","""event"",""trial"",""time""
""fullscreenenter"",""0"",""3274""
","
","
","""event"",""trial"",""time""
""fullscreenenter"",""0"",""3274""
","
","null","run_exp/static/images/Set 6_rs/152a.jpg","null","","","","","","learn","SR",""
"","html-keyboard-response","156","170386","0.0-156.0","""event"",""trial"",""time""
""fullscreenenter"",""0"",""3274""
","
","
","""event"",""trial"",""time""
""fullscreenenter"",""0"",""3274""
","
","null","<p></p>","null","","","","","","","",""
"","image","157","171762","0.0-157.0","""event"",""trial"",""time""
""fullscreenenter"",""0"",""3274""
","
","
","""event"",""trial"",""time""
""fullscreenenter"",""0"",""3274""
","
","1375","run_exp/static/images/Set 6_rs/074a.jpg","86","","","","","","learn","SL",""
"","show_choice","158","172393","0.0-158.0","""event"",""trial"",""time""
""fullscreenenter"",""0"",""3274""
","
","
","""event"",""trial"",""time""
""fullscreenenter"",""0"",""3274""
","
","null","run_exp/static/images/Set 6_rs/074a.jpg","null","","","","","","learn","SL",""
"","html-keyboard-response","159","172898","0.0-159.0","""event"",""trial"",""time""
""fullscreenenter"",""0"",""3274""
","
","
","""event"",""trial"",""time""
""fullscreenenter"",""0"",""3274""
","
","null","<p></p>","null","","","","","","","",""
"","image","160","173935","0.0-160.0","""event"",""trial"",""time""
""fullscreenenter"",""0"",""3274""
","
","
","""event"",""trial"",""time""
""fullscreenenter"",""0"",""3274""
","
","1036.1000000005588","run_exp/static/images/Set 6_rs/010a.jpg","86","","","","","","learn","SR",""
"","show_choice","161","174904","0.0-161.0","""event"",""trial"",""time""
""fullscreenenter"",""0"",""3274""
","
","
","""event"",""trial"",""time""
""fullscreenenter"",""0"",""3274""
","
","null","run_exp/static/images/Set 6_rs/010a.jpg","null","","","","","","learn","SR",""
"","html-keyboard-response","162","175407","0.0-162.0","""event"",""trial"",""time""
""fullscreenenter"",""0"",""3274""
","
","
","""event"",""trial"",""time""
""fullscreenenter"",""0"",""3274""
","
","null","<p></p>","null","","","","","","","",""
"","image","163","176428","0.0-163.0","""event"",""trial"",""time""
""fullscreenenter"",""0"",""3274""
","
","
","""event"",""trial"",""time""
""fullscreenenter"",""0"",""3274""
","
","1020.6999999992549","run_exp/static/images/Set 6_rs/050a.jpg","86","","","","","","learn","SL",""
"","show_choice","164","177413","0.0-164.0","""event"",""trial"",""time""
""fullscreenenter"",""0"",""3274""
","
","
","""event"",""trial"",""time""
""fullscreenenter"",""0"",""3274""
","
","null","run_exp/static/images/Set 6_rs/050a.jpg","null","","","","","","learn","SL",""
"","html-keyboard-response","165","177919","0.0-165.0","""event"",""trial"",""time""
""fullscreenenter"",""0"",""3274""
","
","
","""event"",""trial"",""time""
""fullscreenenter"",""0"",""3274""
","
","null","<p></p>","null","","","","","","","",""
"","image","166","179714","0.0-166.0","""event"",""trial"",""time""
""fullscreenenter"",""0"",""3274""
","
","
","""event"",""trial"",""time""
""fullscreenenter"",""0"",""3274""
","
","1793.0999999996275","run_exp/static/images/Set 6_rs/168a.jpg","86","","","","","","learn","SL",""
"","show_choice","167","179924","0.0-167.0","""event"",""trial"",""time""
""fullscreenenter"",""0"",""3274""
","
","
","""event"",""trial"",""time""
""fullscreenenter"",""0"",""3274""
","
","null","run_exp/static/images/Set 6_rs/168a.jpg","null","","","","","","learn","SL",""
"","html-keyboard-response","168","180429","0.0-168.0","""event"",""trial"",""time""
""fullscreenenter"",""0"",""3274""
","
","
","""event"",""trial"",""time""
""fullscreenenter"",""0"",""3274""
","
","null","<p></p>","null","","","","","","","",""
"","image","169","181480","0.0-169.0","""event"",""trial"",""time""
""fullscreenenter"",""0"",""3274""
","
","
","""event"",""trial"",""time""
""fullscreenenter"",""0"",""3274""
","
","1049.8999999994412","run_exp/static/images/Set 6_rs/076a.jpg","78","","","","","","learn","SR",""
"","show_choice","170","182433","0.0-170.0","""event"",""trial"",""time""
""fullscreenenter"",""0"",""3274""
","
","
","""event"",""trial"",""time""
""fullscreenenter"",""0"",""3274""
","
","null","run_exp/static/images/Set 6_rs/076a.jpg","null","","","","","","learn","SR",""
"","html-keyboard-response","171","182939","0.0-171.0","""event"",""trial"",""time""
""fullscreenenter"",""0"",""3274""
","
","
","""event"",""trial"",""time""
""fullscreenenter"",""0"",""3274""
","
","null","<p></p>","null","","","","","","","",""
"","image","172","183781","0.0-172.0","""event"",""trial"",""time""
""fullscreenenter"",""0"",""3274""
","
","
","""event"",""trial"",""time""
""fullscreenenter"",""0"",""3274""
","
","841.5999999996275","run_exp/static/images/Set 6_rs/181a.jpg","78","","","","","","learn","SL",""
"","show_choice","173","184940","0.0-173.0","""event"",""trial"",""time""
""fullscreenenter"",""0"",""3274""
","
","
","""event"",""trial"",""time""
""fullscreenenter"",""0"",""3274""
","
","null","run_exp/static/images/Set 6_rs/181a.jpg","null","","","","","","learn","SL",""
"","html-keyboard-response","174","185445","0.0-174.0","""event"",""trial"",""time""
""fullscreenenter"",""0"",""3274""
","
","
","""event"",""trial"",""time""
""fullscreenenter"",""0"",""3274""
","
","null","<p></p>","null","","","","","","","",""
"","image","175","186707","0.0-175.0","""event"",""trial"",""time""
""fullscreenenter"",""0"",""3274""
","
","
","""event"",""trial"",""time""
""fullscreenenter"",""0"",""3274""
","
","1261.4000000003725","run_exp/static/images/Set 6_rs/007a.jpg","86","","","","","","learn","SR",""
"","show_choice","176","187451","0.0-176.0","""event"",""trial"",""time""
""fullscreenenter"",""0"",""3274""
","
","
","""event"",""trial"",""time""
""fullscreenenter"",""0"",""3274""
","
","null","run_exp/static/images/Set 6_rs/007a.jpg","null","","","","","","learn","SR",""
"","html-keyboard-response","177","187957","0.0-177.0","""event"",""trial"",""time""
""fullscreenenter"",""0"",""3274""
","
","
","""event"",""trial"",""time""
""fullscreenenter"",""0"",""3274""
","
","null","<p></p>","null","","","","","","","",""
"","image","178","189384","0.0-178.0","""event"",""trial"",""time""
""fullscreenenter"",""0"",""3274""
","
","
","""event"",""trial"",""time""
""fullscreenenter"",""0"",""3274""
","
","1425.9000000003725","run_exp/static/images/Set 6_rs/061a.jpg","78","","","","","","learn","SR",""
"","show_choice","179","189964","0.0-179.0","""event"",""trial"",""time""
""fullscreenenter"",""0"",""3274""
","
","
","""event"",""trial"",""time""
""fullscreenenter"",""0"",""3274""
","
","null","run_exp/static/images/Set 6_rs/061a.jpg","null","","","","","","learn","SR",""
"","html-keyboard-response","180","190468","0.0-180.0","""event"",""trial"",""time""
""fullscreenenter"",""0"",""3274""
","
","
","""event"",""trial"",""time""
""fullscreenenter"",""0"",""3274""
","
","null","<p></p>","null","","","","","","","",""
"","image","181","191312","0.0-181.0","""event"",""trial"",""time""
""fullscreenenter"",""0"",""3274""
","
","
","""event"",""trial"",""time""
""fullscreenenter"",""0"",""3274""
","
","842.7999999998137","run_exp/static/images/Set 6_rs/111a.jpg","86","","","","","","learn","SL",""
"","show_choice","182","192475","0.0-182.0","""event"",""trial"",""time""
""fullscreenenter"",""0"",""3274""
","
","
","""event"",""trial"",""time""
""fullscreenenter"",""0"",""3274""
","
","null","run_exp/static/images/Set 6_rs/111a.jpg","null","","","","","","learn","SL",""
"","html-keyboard-response","183","192980","0.0-183.0","""event"",""trial"",""time""
""fullscreenenter"",""0"",""3274""
","
","
","""event"",""trial"",""time""
""fullscreenenter"",""0"",""3274""
","
","null","<p></p>","null","","","","","","","",""
"","image","184","194867","0.0-184.0","""event"",""trial"",""time""
""fullscreenenter"",""0"",""3274""
","
","
","""event"",""trial"",""time""
""fullscreenenter"",""0"",""3274""
","
","1885.2000000001863","run_exp/static/images/Set 6_rs/063a.jpg","86","","","","","","learn","SR",""
"","show_choice","185","194984","0.0-185.0","""event"",""trial"",""time""
""fullscreenenter"",""0"",""3274""
","
","
","""event"",""trial"",""time""
""fullscreenenter"",""0"",""3274""
","
","null","run_exp/static/images/Set 6_rs/063a.jpg","null","","","","","","learn","SR",""
"","html-keyboard-response","186","195488","0.0-186.0","""event"",""trial"",""time""
""fullscreenenter"",""0"",""3274""
","
","
","""event"",""trial"",""time""
""fullscreenenter"",""0"",""3274""
","
","null","<p></p>","null","","","","","","","",""
"","image","187","196889","0.0-187.0","""event"",""trial"",""time""
""fullscreenenter"",""0"",""3274""
","
","
","""event"",""trial"",""time""
""fullscreenenter"",""0"",""3274""
","
","1399.7999999998137","run_exp/static/images/Set 6_rs/016a.jpg","86","","","","","","learn","SL",""
"","show_choice","188","197495","0.0-188.0","""event"",""trial"",""time""
""fullscreenenter"",""0"",""3274""
","
","
","""event"",""trial"",""time""
""fullscreenenter"",""0"",""3274""
","
","null","run_exp/static/images/Set 6_rs/016a.jpg","null","","","","","","learn","SL",""
"","html-keyboard-response","189","197999","0.0-189.0","""event"",""trial"",""time""
""fullscreenenter"",""0"",""3274""
","
","
","""event"",""trial"",""time""
""fullscreenenter"",""0"",""3274""
","
","null","<p></p>","null","","","","","","","",""
"","image","190","199219","0.0-190.0","""event"",""trial"",""time""
""fullscreenenter"",""0"",""3274""
","
","
","""event"",""trial"",""time""
""fullscreenenter"",""0"",""3274""
","
","1218.8999999994412","run_exp/static/images/Set 6_rs/019a.jpg","86","","","","","","learn","SL",""
"","show_choice","191","200006","0.0-191.0","""event"",""trial"",""time""
""fullscreenenter"",""0"",""3274""
","
","
","""event"",""trial"",""time""
""fullscreenenter"",""0"",""3274""
","
","null","run_exp/static/images/Set 6_rs/019a.jpg","null","","","","","","learn","SL",""
"","html-keyboard-response","192","200511","0.0-192.0","""event"",""trial"",""time""
""fullscreenenter"",""0"",""3274""
","
","
","""event"",""trial"",""time""
""fullscreenenter"",""0"",""3274""
","
","null","<p></p>","null","","","","","","","",""
"","image","193","201979","0.0-193.0","""event"",""trial"",""time""
""fullscreenenter"",""0"",""3274""
","
","
","""event"",""trial"",""time""
""fullscreenenter"",""0"",""3274""
","
","1466.4000000003725","run_exp/static/images/Set 6_rs/167a.jpg","78","","","","","","learn","SL",""
"","show_choice","194","202513","0.0-194.0","""event"",""trial"",""time""
""fullscreenenter"",""0"",""3274""
","
","
","""event"",""trial"",""time""
""fullscreenenter"",""0"",""3274""
","
","null","run_exp/static/images/Set 6_rs/167a.jpg","null","","","","","","learn","SL",""
"","html-keyboard-response","195","203017","0.0-195.0","""event"",""trial"",""time""
""fullscreenenter"",""0"",""3274""
","
","
","""event"",""trial"",""time""
""fullscreenenter"",""0"",""3274""
","
","null","<p></p>","null","","","","","","","",""
"","test_intro","196","239889","0.0-196.0","""event"",""trial"",""time""
""fullscreenenter"",""0"",""3274""
","
","
","""event"",""trial"",""time""
""fullscreenenter"",""0"",""3274""
","
","null","run_exp/static/audio/clip_2_memory.m4a","null","","","","","<div class='center'><p>Now, lets see how much you remember about the items you just saw.  For each item, you need to indicate if it was <b>old</b> by pressing the <b>v</b> key, <b>similar</b> by pressing the <b>b</b> key, or <b>new</b> by pressing the <b>n</b> key.</p><p>Old refers to an item that you saw before in the indoor/outdoor game that you just played, new refers to an item you have <b>not</b> seen before within the indoor/outdoor game, and similar refers to an item that is similar to an item youve seen before but is not exactly the same. </p><p>Before we begin, lets go over some brief demonstrations to make sure you understand.</p></div>","","",""
"","html-keyboard-response","197","240971","0.0-197.0","""event"",""trial"",""time""
""fullscreenenter"",""0"",""3274""
","
","
","""event"",""trial"",""time""
""fullscreenenter"",""0"",""3274""
","
","1080.7999999998137","<div class='center'><p>Now, lets see how much you remember about the items you just saw.  For each item, you need to indicate if it was <b>old</b> by pressing the <b>v</b> key, <b>similar</b> by pressing the <b>b</b> key, or <b>new</b> by pressing the <b>n</b> key.</p><p>Old refers to an item that you saw before in the indoor/outdoor game that you just played, new refers to an item you have <b>not</b> seen before within the indoor/outdoor game, and similar refers to an item that is similar to an item youve seen before but is not exactly the same. </p><p>Before we begin, lets go over some brief demonstrations to make sure you understand.</p><div><p><b>[Press the space bar to continue]</b></p></div>","32","","","","","","","",""
"","items","198","248477","0.0-198.0","""event"",""trial"",""time""
""fullscreenenter"",""0"",""3274""
","
","
","""event"",""trial"",""time""
""fullscreenenter"",""0"",""3274""
","
","null","run_exp/static/audio/clip_3_items.m4a","null","","","","","","","",""
"","mop","199","252984","0.0-199.0","""event"",""trial"",""time""
""fullscreenenter"",""0"",""3274""
","
","
","""event"",""trial"",""time""
""fullscreenenter"",""0"",""3274""
","
","null","run_exp/static/audio/clip_4_mop.m4a","null","","","","","","","",""
"","baseball","200","256486","0.0-200.0","""event"",""trial"",""time""
""fullscreenenter"",""0"",""3274""
","
","
","""event"",""trial"",""time""
""fullscreenenter"",""0"",""3274""
","
","null","run_exp/static/audio/clip_5_baseball.m4a","null","","","","","","","",""
"","trumpet","201","259993","0.0-201.0","""event"",""trial"",""time""
""fullscreenenter"",""0"",""3274""
","
","
","""event"",""trial"",""time""
""fullscreenenter"",""0"",""3274""
","
","null","run_exp/static/audio/clip_6_trumpet.m4a","null","","","","","","","",""
"","gummies","202","263497","0.0-202.0","""event"",""trial"",""time""
""fullscreenenter"",""0"",""3274""
","
","
","""event"",""trial"",""time""
""fullscreenenter"",""0"",""3274""
","
","null","run_exp/static/audio/clip_7_gummies.m4a","null","","","","","","","",""
"","osn","203","268003","0.0-203.0","""event"",""trial"",""time""
""fullscreenenter"",""0"",""3274""
","
","
","""event"",""trial"",""time""
""fullscreenenter"",""0"",""3274""
","
","null","run_exp/static/audio/clip_8_osn.m4a","null","","","","","","","",""
"","old_1","204","274510","0.0-204.0","""event"",""trial"",""time""
""fullscreenenter"",""0"",""3274""
","
","
","""event"",""trial"",""time""
""fullscreenenter"",""0"",""3274""
","
","null","run_exp/static/audio/clip_9_old_trumpet.m4a","null","","","","","","","",""
"","new_1","205","282017","0.0-205.0","""event"",""trial"",""time""
""fullscreenenter"",""0"",""3274""
","
","
","""event"",""trial"",""time""
""fullscreenenter"",""0"",""3274""
","
","null","run_exp/static/audio/clip_10_new_balloon.m4a","null","","","","","","","",""
"","similar_1a","206","286523","0.0-206.0","""event"",""trial"",""time""
""fullscreenenter"",""0"",""3274""
","
","
","""event"",""trial"",""time""
""fullscreenenter"",""0"",""3274""
","
","null","run_exp/static/audio/clip_11a_similar_mop.m4a","null","","","","","","","",""
"","similar_1b","207","293028","0.0-207.0","""event"",""trial"",""time""
""fullscreenenter"",""0"",""3274""
","
","
","""event"",""trial"",""time""
""fullscreenenter"",""0"",""3274""
","
","null","run_exp/static/audio/clip_11b_similar_mop.m4a","null","","","","","","","",""
"","new_2","208","296535","0.0-208.0","""event"",""trial"",""time""
""fullscreenenter"",""0"",""3274""
","
","
","""event"",""trial"",""time""
""fullscreenenter"",""0"",""3274""
","
","null","run_exp/static/audio/clip_12_new_stoplight.m4a","null","","","","","","","",""
"","old_2","209","300041","0.0-209.0","""event"",""trial"",""time""
""fullscreenenter"",""0"",""3274""
","
","
","""event"",""trial"",""time""
""fullscreenenter"",""0"",""3274""
","
","null","run_exp/static/audio/clip_13_old_baseball.m4a","null","","","","","","","",""
"","similar_2a","210","303547","0.0-210.0","""event"",""trial"",""time""
""fullscreenenter"",""0"",""3274""
","
","
","""event"",""trial"",""time""
""fullscreenenter"",""0"",""3274""
","
","null","run_exp/static/audio/clip_14a_similar_gummies.m4a","null","","","","","","","",""
"","similar_2b","211","311054","0.0-211.0","""event"",""trial"",""time""
""fullscreenenter"",""0"",""3274""
","
","
","""event"",""trial"",""time""
""fullscreenenter"",""0"",""3274""
","
","null","run_exp/static/audio/clip_14b_similar_gummies.m4a","null","","","","","","","",""
"","practice","212","353170","0.0-212.0","""event"",""trial"",""time""
""fullscreenenter"",""0"",""3274""
","
","
","""event"",""trial"",""time""
""fullscreenenter"",""0"",""3274""
","
","null","run_exp/static/audio/clip_15_practice.m4a","null","","","","","<div class='center'><p>Lets practice a little to make sure you understand the difference between new, similar, and old. Lets say you saw these three items in the indoor/outdoor game.</p><p> Try your best to remember these images because youll soon be tested on them in a practice game. In the practice game, youll be shown images and youll have to say if they are old (one of the three images belows), similar (similar to one of the images below but not exactly the same), or new (are not one of the images below nor similar to them).</p><p>Once you press the space bar youll be shown these images again but one at time. Then youll begin the practice game.</p><p><img src='run_exp/static/images/tutorial/test/three_indoor_outdoor.png' height='300'></p></div>","","",""
"","html-keyboard-response","213","354483","0.0-213.0","""event"",""trial"",""time""
""fullscreenenter"",""0"",""3274""
","
","
","""event"",""trial"",""time""
""fullscreenenter"",""0"",""3274""
","
","1311.7000000001863","<div class='center'><p>Lets practice a little to make sure you understand the difference between new, similar, and old. Lets say you saw these three items in the indoor/outdoor game.</p><p> Try your best to remember these images because youll soon be tested on them in a practice game. In the practice game, youll be shown images and youll have to say if they are old (one of the three images belows), similar (similar to one of the images below but not exactly the same), or new (are not one of the images below nor similar to them).</p><p>Once you press the space bar youll be shown these images again but one at time. Then youll begin the practice game.</p><p><img src='run_exp/static/images/tutorial/test/three_indoor_outdoor.png' height='300'></p><div><p><b>[Press the space bar to continue]</b></p></div>","32","","","","","","","",""
"","planet","214","356487","0.0-214.0","""event"",""trial"",""time""
""fullscreenenter"",""0"",""3274""
","
","
","""event"",""trial"",""time""
""fullscreenenter"",""0"",""3274""
","
","null","run_exp/static/images/tutorial/test/008a.jpg","null","","","","","","","",""
"","boot","215","358491","0.0-215.0","""event"",""trial"",""time""
""fullscreenenter"",""0"",""3274""
","
","
","""event"",""trial"",""time""
""fullscreenenter"",""0"",""3274""
","
","null","run_exp/static/images/tutorial/test/011a.jpg","null","","","","","","","",""
"","lemon","216","360494","0.0-216.0","""event"",""trial"",""time""
""fullscreenenter"",""0"",""3274""
","
","
","""event"",""trial"",""time""
""fullscreenenter"",""0"",""3274""
","
","null","run_exp/static/images/tutorial/test/018a.jpg","null","","","","","","","",""
"","practice_q1","217","365363","0.0-217.0","""event"",""trial"",""time""
""fullscreenenter"",""0"",""3274""
","
","
","""event"",""trial"",""time""
""fullscreenenter"",""0"",""3274""
","
","4868.299999999814","run_exp/static/audio/clip_16_practice_question.m4a","66","","","","","","","",""
"","incorrect_q1","218","368210","0.0-218.0-0.0","""event"",""trial"",""time""
""fullscreenenter"",""0"",""3274""
","
","
","""event"",""trial"",""time""
""fullscreenenter"",""0"",""3274""
","
","null","run_exp/static/audio/clip_18_incorrect_new.m4a","null","","","","","<div class='center'><p>Thats incorrect. Its new.</p></div>","","",""
"","html-keyboard-response","219","369092","0.0-218.0-1.0","""event"",""trial"",""time""
""fullscreenenter"",""0"",""3274""
","
","
","""event"",""trial"",""time""
""fullscreenenter"",""0"",""3274""
","
","881.2999999998137","<div class='center'><p>Thats incorrect. Its new.</p><div><p><b>[Press the space bar to continue]</b></p></div>","32","","","","","","","",""
"","practice_q2","220","371030","0.0-218.0-2.0","""event"",""trial"",""time""
""fullscreenenter"",""0"",""3274""
","
","
","""event"",""trial"",""time""
""fullscreenenter"",""0"",""3274""
","
","1937.1000000005588","run_exp/static/audio/clip_16_practice_question.m4a","78","","","","","","","",""
"","incorrect_q2","221","374077","0.0-219.0-0.0","""event"",""trial"",""time""
""fullscreenenter"",""0"",""3274""
","
","
","""event"",""trial"",""time""
""fullscreenenter"",""0"",""3274""
","
","null","run_exp/static/audio/clip_19_incorrect_old.m4a","null","","","","","<div class='center'><p>Thats incorrect. Its old.</p></div>","","",""
"","html-keyboard-response","222","374987","0.0-219.0-1.0","""event"",""trial"",""time""
""fullscreenenter"",""0"",""3274""
","
","
","""event"",""trial"",""time""
""fullscreenenter"",""0"",""3274""
","
","909.3999999994412","<div class='center'><p>Thats incorrect. Its old.</p><div><p><b>[Press the space bar to continue]</b></p></div>","32","","","","","","","",""
"","practice_q3","223","377414","0.0-219.0-2.0","""event"",""trial"",""time""
""fullscreenenter"",""0"",""3274""
","
","
","""event"",""trial"",""time""
""fullscreenenter"",""0"",""3274""
","
","2426.2000000001863","run_exp/static/audio/clip_16_practice_question.m4a","66","","","","","","","",""
"","correct","224","379303","0.0-220.0-0.0","""event"",""trial"",""time""
""fullscreenenter"",""0"",""3274""
","
","
","""event"",""trial"",""time""
""fullscreenenter"",""0"",""3274""
","
","null","run_exp/static/audio/clip_17_correct.m4a","null","","","","","<div class='center'><p>That's correct!</p></div>","","",""
"","html-keyboard-response","225","380123","0.0-220.0-1.0","""event"",""trial"",""time""
""fullscreenenter"",""0"",""3274""
","
","
","""event"",""trial"",""time""
""fullscreenenter"",""0"",""3274""
","
","818.6999999992549","<div class='center'><p>That's correct!</p><div><p><b>[Press the space bar to continue]</b></p></div>","32","","","","","","","",""
"","repeat","226","384850","0.0-221.0-0.0","""event"",""trial"",""time""
""fullscreenenter"",""0"",""3274""
","
","
","""event"",""trial"",""time""
""fullscreenenter"",""0"",""3274""
","
","null","run_exp/static/audio/clip_21_practice_again.m4a","null","","","","","<div class='center'><p>Oops. you missed at least one of these questions. Let's try practicing again. </p></div>","","",""
"","html-keyboard-response","227","385482","0.0-221.0-1.0","""event"",""trial"",""time""
""fullscreenenter"",""0"",""3274""
","
","
","""event"",""trial"",""time""
""fullscreenenter"",""0"",""3274""
","
","631.2000000001863","<div class='center'><p>Oops. you missed at least one of these questions. Let's try practicing again. </p><div><p><b>[Press the space bar to continue]</b></p></div>","32","","","","","","","",""
"","practice_q1","228","388340","0.0-221.0-2.0","""event"",""trial"",""time""
""fullscreenenter"",""0"",""3274""
","
","
","""event"",""trial"",""time""
""fullscreenenter"",""0"",""3274""
","
","2856.7000000001863","run_exp/static/audio/clip_16_practice_question.m4a","78","","","","","","","",""
"","correct","229","390226","0.0-222.0-0.0","""event"",""trial"",""time""
""fullscreenenter"",""0"",""3274""
","
","
","""event"",""trial"",""time""
""fullscreenenter"",""0"",""3274""
","
","null","run_exp/static/audio/clip_17_correct.m4a","null","","","","","<div class='center'><p>That's correct!</p></div>","","",""
"","html-keyboard-response","230","391005","0.0-222.0-1.0","""event"",""trial"",""time""
""fullscreenenter"",""0"",""3274""
","
","
","""event"",""trial"",""time""
""fullscreenenter"",""0"",""3274""
","
","778.2000000001863","<div class='center'><p>That's correct!</p><div><p><b>[Press the space bar to continue]</b></p></div>","32","","","","","","","",""
"","practice_q2","231","392895","0.0-222.0-2.0","""event"",""trial"",""time""
""fullscreenenter"",""0"",""3274""
","
","
","""event"",""trial"",""time""
""fullscreenenter"",""0"",""3274""
","
","1889.1000000005588","run_exp/static/audio/clip_16_practice_question.m4a","86","","","","","","","",""
"","correct","232","394791","0.0-223.0-0.0","""event"",""trial"",""time""
""fullscreenenter"",""0"",""3274""
","
","
","""event"",""trial"",""time""
""fullscreenenter"",""0"",""3274""
","
","null","run_exp/static/audio/clip_17_correct.m4a","null","","","","","<div class='center'><p>That's correct!</p></div>","","",""
"","html-keyboard-response","233","395386","0.0-223.0-1.0","""event"",""trial"",""time""
""fullscreenenter"",""0"",""3274""
","
","
","""event"",""trial"",""time""
""fullscreenenter"",""0"",""3274""
","
","593.7999999998137","<div class='center'><p>That's correct!</p><div><p><b>[Press the space bar to continue]</b></p></div>","32","","","","","","","",""
"","practice_q3","234","396171","0.0-223.0-2.0","""event"",""trial"",""time""
""fullscreenenter"",""0"",""3274""
","
","
","""event"",""trial"",""time""
""fullscreenenter"",""0"",""3274""
","
","784.0999999996275","run_exp/static/audio/clip_16_practice_question.m4a","66","","","","","","","",""
"","correct","235","398184","0.0-224.0-0.0","""event"",""trial"",""time""
""fullscreenenter"",""0"",""3274""
","
","
","""event"",""trial"",""time""
""fullscreenenter"",""0"",""3274""
","
","null","run_exp/static/audio/clip_17_correct.m4a","null","","","","","<div class='center'><p>That's correct!</p></div>","","",""
"","html-keyboard-response","236","398864","0.0-224.0-1.0","""event"",""trial"",""time""
""fullscreenenter"",""0"",""3274""
","
","
","""event"",""trial"",""time""
""fullscreenenter"",""0"",""3274""
","
","679.4000000003725","<div class='center'><p>That's correct!</p><div><p><b>[Press the space bar to continue]</b></p></div>","32","","","","","","","",""
"","begin_text","237","417341","0.0-225.0-0.0","""event"",""trial"",""time""
""fullscreenenter"",""0"",""3274""
","
","
","""event"",""trial"",""time""
""fullscreenenter"",""0"",""3274""
","
","null","run_exp/static/audio/clip_22_begin_test.m4a","null","","","","","<div class='center'><p>On to the real game where well test your memory of items from the indoor/outdoor game. For each item, you need to indicate if the item is <b>old</b> by pressing the <b>v</b> key, <b>similar</b> by pressing the <b>b</b> key, or <b>new</b> by pressing the <b>n</b> key. </p></div>","","",""
"","html-keyboard-response","238","418641","0.0-225.0-1.0","""event"",""trial"",""time""
""fullscreenenter"",""0"",""3274""
","
","
","""event"",""trial"",""time""
""fullscreenenter"",""0"",""3274""
","
","1298.699999999255","<div class='center'><p>On to the real game where well test your memory of items from the indoor/outdoor game. For each item, you need to indicate if the item is <b>old</b> by pressing the <b>v</b> key, <b>similar</b> by pressing the <b>b</b> key, or <b>new</b> by pressing the <b>n</b> key. </p><div><p><b>[Press the space bar to continue]</b></p></div>","32","","","","","","","",""
"","image","239","420250","0.0-226.0-0.0","""event"",""trial"",""time""
""fullscreenenter"",""0"",""3274""
","
","
","""event"",""trial"",""time""
""fullscreenenter"",""0"",""3274""
","
","1607.7000000001863","run_exp/static/images/Set 6_rs/190a.jpg","66","","","","","","test","TF","3"
"","show_choice","240","420755","0.0-226.0-1.0","""event"",""trial"",""time""
""fullscreenenter"",""0"",""3274""
","
","
","""event"",""trial"",""time""
""fullscreenenter"",""0"",""3274""
","
","null","run_exp/static/images/Set 6_rs/190a.jpg","null","","","","","","test","TF",""
"","html-keyboard-response","241","421261","0.0-226.0-2.0","""event"",""trial"",""time""
""fullscreenenter"",""0"",""3274""
","
","
","""event"",""trial"",""time""
""fullscreenenter"",""0"",""3274""
","
","null","<p></p>","null","","","","","","","",""
"","image","242","422767","0.0-227.0-0.0","""event"",""trial"",""time""
""fullscreenenter"",""0"",""3274""
","
","
","""event"",""trial"",""time""
""fullscreenenter"",""0"",""3274""
","
","1504.7999999998137","run_exp/static/images/Set 6_rs/022a.jpg","78","","","","","","test","TF","4"
"","show_choice","243","423268","0.0-227.0-1.0","""event"",""trial"",""time""
""fullscreenenter"",""0"",""3274""
","
","
","""event"",""trial"",""time""
""fullscreenenter"",""0"",""3274""
","
","null","run_exp/static/images/Set 6_rs/022a.jpg","null","","","","","","test","TF",""
"","html-keyboard-response","244","423774","0.0-227.0-2.0","""event"",""trial"",""time""
""fullscreenenter"",""0"",""3274""
","
","
","""event"",""trial"",""time""
""fullscreenenter"",""0"",""3274""
","
","null","<p></p>","null","","","","","","","",""
"","image","245","425855","0.0-228.0-0.0","""event"",""trial"",""time""
""fullscreenenter"",""0"",""3274""
","
","
","""event"",""trial"",""time""
""fullscreenenter"",""0"",""3274""
","
","2079.399999999441","run_exp/static/images/Set 6_rs/006b.jpg","86","","","","","","test","TL","2"
"","show_choice","246","426360","0.0-228.0-1.0","""event"",""trial"",""time""
""fullscreenenter"",""0"",""3274""
","
","
","""event"",""trial"",""time""
""fullscreenenter"",""0"",""3274""
","
","null","run_exp/static/images/Set 6_rs/006b.jpg","null","","","","","","test","TL",""
"","html-keyboard-response","247","426861","0.0-228.0-2.0","""event"",""trial"",""time""
""fullscreenenter"",""0"",""3274""
","
","
","""event"",""trial"",""time""
""fullscreenenter"",""0"",""3274""
","
","null","<p></p>","null","","","","","","","",""
"","image","248","428722","0.0-229.0-0.0","""event"",""trial"",""time""
""fullscreenenter"",""0"",""3274""
","
","
","""event"",""trial"",""time""
""fullscreenenter"",""0"",""3274""
","
","1859.5999999996275","run_exp/static/images/Set 6_rs/181b.jpg","86","","","","","","test","TL","1"
"","show_choice","249","429227","0.0-229.0-1.0","""event"",""trial"",""time""
""fullscreenenter"",""0"",""3274""
","
","
","""event"",""trial"",""time""
""fullscreenenter"",""0"",""3274""
","
","null","run_exp/static/images/Set 6_rs/181b.jpg","null","","","","","","test","TL",""
"","html-keyboard-response","250","429729","0.0-229.0-2.0","""event"",""trial"",""time""
""fullscreenenter"",""0"",""3274""
","
","
","""event"",""trial"",""time""
""fullscreenenter"",""0"",""3274""
","
","null","<p></p>","null","","","","","","","",""
"","image","251","431109","0.0-230.0-0.0","""event"",""trial"",""time""
""fullscreenenter"",""0"",""3274""
","
","
","""event"",""trial"",""time""
""fullscreenenter"",""0"",""3274""
","
","1378.4000000003725","run_exp/static/images/Set 6_rs/176a.jpg","78","","","","","","test","TF","4"
"","show_choice","252","431612","0.0-230.0-1.0","""event"",""trial"",""time""
""fullscreenenter"",""0"",""3274""
","
","
","""event"",""trial"",""time""
""fullscreenenter"",""0"",""3274""
","
","null","run_exp/static/images/Set 6_rs/176a.jpg","null","","","","","","test","TF",""
"","html-keyboard-response","253","432115","0.0-230.0-2.0","""event"",""trial"",""time""
""fullscreenenter"",""0"",""3274""
","
","
","""event"",""trial"",""time""
""fullscreenenter"",""0"",""3274""
","
","null","<p></p>","null","","","","","","","",""
"","image","254","433584","0.0-231.0-0.0","""event"",""trial"",""time""
""fullscreenenter"",""0"",""3274""
","
","
","""event"",""trial"",""time""
""fullscreenenter"",""0"",""3274""
","
","1467.6000000005588","run_exp/static/images/Set 6_rs/108a.jpg","86","","","","","","test","TR","5"
"","show_choice","255","434087","0.0-231.0-1.0","""event"",""trial"",""time""
""fullscreenenter"",""0"",""3274""
","
","
","""event"",""trial"",""time""
""fullscreenenter"",""0"",""3274""
","
","null","run_exp/static/images/Set 6_rs/108a.jpg","null","","","","","","test","TR",""
"","html-keyboard-response","256","434593","0.0-231.0-2.0","""event"",""trial"",""time""
""fullscreenenter"",""0"",""3274""
","
","
","""event"",""trial"",""time""
""fullscreenenter"",""0"",""3274""
","
","null","<p></p>","null","","","","","","","",""
"","image","257","436165","0.0-232.0-0.0","""event"",""trial"",""time""
""fullscreenenter"",""0"",""3274""
","
","
","""event"",""trial"",""time""
""fullscreenenter"",""0"",""3274""
","
","1570.5","run_exp/static/images/Set 6_rs/109a.jpg","66","","","","","","test","TF","5"
"","show_choice","258","436670","0.0-232.0-1.0","""event"",""trial"",""time""
""fullscreenenter"",""0"",""3274""
","
","
","""event"",""trial"",""time""
""fullscreenenter"",""0"",""3274""
","
","null","run_exp/static/images/Set 6_rs/109a.jpg","null","","","","","","test","TF",""
"","html-keyboard-response","259","437172","0.0-232.0-2.0","""event"",""trial"",""time""
""fullscreenenter"",""0"",""3274""
","
","
","""event"",""trial"",""time""
""fullscreenenter"",""0"",""3274""
","
","null","<p></p>","null","","","","","","","",""
"","image","260","438596","0.0-233.0-0.0","""event"",""trial"",""time""
""fullscreenenter"",""0"",""3274""
","
","
","""event"",""trial"",""time""
""fullscreenenter"",""0"",""3274""
","
","1422.6000000005588","run_exp/static/images/Set 6_rs/088a.jpg","86","","","","","","test","TR","2"
"","show_choice","261","439101","0.0-233.0-1.0","""event"",""trial"",""time""
""fullscreenenter"",""0"",""3274""
","
","
","""event"",""trial"",""time""
""fullscreenenter"",""0"",""3274""
","
","null","run_exp/static/images/Set 6_rs/088a.jpg","null","","","","","","test","TR",""
"","html-keyboard-response","262","439607","0.0-233.0-2.0","""event"",""trial"",""time""
""fullscreenenter"",""0"",""3274""
","
","
","""event"",""trial"",""time""
""fullscreenenter"",""0"",""3274""
","
","null","<p></p>","null","","","","","","","",""
"","image","263","440755","0.0-234.0-0.0","""event"",""trial"",""time""
""fullscreenenter"",""0"",""3274""
","
","
","""event"",""trial"",""time""
""fullscreenenter"",""0"",""3274""
","
","1146.2999999998137","run_exp/static/images/Set 6_rs/117b.jpg","86","","","","","","test","TL","5"
"","show_choice","264","441260","0.0-234.0-1.0","""event"",""trial"",""time""
""fullscreenenter"",""0"",""3274""
","
","
","""event"",""trial"",""time""
""fullscreenenter"",""0"",""3274""
","
","null","run_exp/static/images/Set 6_rs/117b.jpg","null","","","","","","test","TL",""
"","html-keyboard-response","265","441766","0.0-234.0-2.0","""event"",""trial"",""time""
""fullscreenenter"",""0"",""3274""
","
","
","""event"",""trial"",""time""
""fullscreenenter"",""0"",""3274""
","
","null","<p></p>","null","","","","","","","",""
"","image","266","442751","0.0-235.0-0.0","""event"",""trial"",""time""
""fullscreenenter"",""0"",""3274""
","
","
","""event"",""trial"",""time""
""fullscreenenter"",""0"",""3274""
","
","983.9000000003725","run_exp/static/images/Set 6_rs/116b.jpg","86","","","","","","test","TL","2"
"","show_choice","267","443256","0.0-235.0-1.0","""event"",""trial"",""time""
""fullscreenenter"",""0"",""3274""
","
","
","""event"",""trial"",""time""
""fullscreenenter"",""0"",""3274""
","
","null","run_exp/static/images/Set 6_rs/116b.jpg","null","","","","","","test","TL",""
"","html-keyboard-response","268","443762","0.0-235.0-2.0","""event"",""trial"",""time""
""fullscreenenter"",""0"",""3274""
","
","
","""event"",""trial"",""time""
""fullscreenenter"",""0"",""3274""
","
","null","<p></p>","null","","","","","","","",""
"","image","269","445367","0.0-236.0-0.0","""event"",""trial"",""time""
""fullscreenenter"",""0"",""3274""
","
","
","""event"",""trial"",""time""
""fullscreenenter"",""0"",""3274""
","
","1603.5","run_exp/static/images/Set 6_rs/149a.jpg","66","","","","","","test","TF","1"
"","show_choice","270","445869","0.0-236.0-1.0","""event"",""trial"",""time""
""fullscreenenter"",""0"",""3274""
","
","
","""event"",""trial"",""time""
""fullscreenenter"",""0"",""3274""
","
","null","run_exp/static/images/Set 6_rs/149a.jpg","null","","","","","","test","TF",""
"","html-keyboard-response","271","446374","0.0-236.0-2.0","""event"",""trial"",""time""
""fullscreenenter"",""0"",""3274""
","
","
","""event"",""trial"",""time""
""fullscreenenter"",""0"",""3274""
","
","null","<p></p>","null","","","","","","","",""
"","image","272","447759","0.0-237.0-0.0","""event"",""trial"",""time""
""fullscreenenter"",""0"",""3274""
","
","
","""event"",""trial"",""time""
""fullscreenenter"",""0"",""3274""
","
","1383.3999999994412","run_exp/static/images/Set 6_rs/091b.jpg","86","","","","","","test","TL","3"
"","show_choice","273","448264","0.0-237.0-1.0","""event"",""trial"",""time""
""fullscreenenter"",""0"",""3274""
","
","
","""event"",""trial"",""time""
""fullscreenenter"",""0"",""3274""
","
","null","run_exp/static/images/Set 6_rs/091b.jpg","null","","","","","","test","TL",""
"","html-keyboard-response","274","448770","0.0-237.0-2.0","""event"",""trial"",""time""
""fullscreenenter"",""0"",""3274""
","
","
","""event"",""trial"",""time""
""fullscreenenter"",""0"",""3274""
","
","null","<p></p>","null","","","","","","","",""
"","image","275","449921","0.0-238.0-0.0","""event"",""trial"",""time""
""fullscreenenter"",""0"",""3274""
","
","
","""event"",""trial"",""time""
""fullscreenenter"",""0"",""3274""
","
","1150","run_exp/static/images/Set 6_rs/010a.jpg","86","","","","","","test","TR","5"
"","show_choice","276","450427","0.0-238.0-1.0","""event"",""trial"",""time""
""fullscreenenter"",""0"",""3274""
","
","
","""event"",""trial"",""time""
""fullscreenenter"",""0"",""3274""
","
","null","run_exp/static/images/Set 6_rs/010a.jpg","null","","","","","","test","TR",""
"","html-keyboard-response","277","450933","0.0-238.0-2.0","""event"",""trial"",""time""
""fullscreenenter"",""0"",""3274""
","
","
","""event"",""trial"",""time""
""fullscreenenter"",""0"",""3274""
","
","null","<p></p>","null","","","","","","","",""
"","image","278","452411","0.0-239.0-0.0","""event"",""trial"",""time""
""fullscreenenter"",""0"",""3274""
","
","
","""event"",""trial"",""time""
""fullscreenenter"",""0"",""3274""
","
","1477.5","run_exp/static/images/Set 6_rs/078a.jpg","66","","","","","","test","TF","1"
"","show_choice","279","452916","0.0-239.0-1.0","""event"",""trial"",""time""
""fullscreenenter"",""0"",""3274""
","
","
","""event"",""trial"",""time""
""fullscreenenter"",""0"",""3274""
","
","null","run_exp/static/images/Set 6_rs/078a.jpg","null","","","","","","test","TF",""
"","html-keyboard-response","280","453418","0.0-239.0-2.0","""event"",""trial"",""time""
""fullscreenenter"",""0"",""3274""
","
","
","""event"",""trial"",""time""
""fullscreenenter"",""0"",""3274""
","
","null","<p></p>","null","","","","","","","",""
"","image","281","454764","0.0-240.0-0.0","""event"",""trial"",""time""
""fullscreenenter"",""0"",""3274""
","
","
","""event"",""trial"",""time""
""fullscreenenter"",""0"",""3274""
","
","1343.9000000003725","run_exp/static/images/Set 6_rs/017b.jpg","86","","","","","","test","TL","3"
"","show_choice","282","455269","0.0-240.0-1.0","""event"",""trial"",""time""
""fullscreenenter"",""0"",""3274""
","
","
","""event"",""trial"",""time""
""fullscreenenter"",""0"",""3274""
","
","null","run_exp/static/images/Set 6_rs/017b.jpg","null","","","","","","test","TL",""
"","html-keyboard-response","283","455775","0.0-240.0-2.0","""event"",""trial"",""time""
""fullscreenenter"",""0"",""3274""
","
","
","""event"",""trial"",""time""
""fullscreenenter"",""0"",""3274""
","
","null","<p></p>","null","","","","","","","",""
"","image","284","457087","0.0-241.0-0.0","""event"",""trial"",""time""
""fullscreenenter"",""0"",""3274""
","
","
","""event"",""trial"",""time""
""fullscreenenter"",""0"",""3274""
","
","1311.1000000005588","run_exp/static/images/Set 6_rs/025b.jpg","86","","","","","","test","TL","5"
"","show_choice","285","457592","0.0-241.0-1.0","""event"",""trial"",""time""
""fullscreenenter"",""0"",""3274""
","
","
","""event"",""trial"",""time""
""fullscreenenter"",""0"",""3274""
","
","null","run_exp/static/images/Set 6_rs/025b.jpg","null","","","","","","test","TL",""
"","html-keyboard-response","286","458098","0.0-241.0-2.0","""event"",""trial"",""time""
""fullscreenenter"",""0"",""3274""
","
","
","""event"",""trial"",""time""
""fullscreenenter"",""0"",""3274""
","
","null","<p></p>","null","","","","","","","",""
"","image","287","459335","0.0-242.0-0.0","""event"",""trial"",""time""
""fullscreenenter"",""0"",""3274""
","
","
","""event"",""trial"",""time""
""fullscreenenter"",""0"",""3274""
","
","1235.7999999998137","run_exp/static/images/Set 6_rs/047a.jpg","66","","","","","","test","TF","3"
"","show_choice","288","459841","0.0-242.0-1.0","""event"",""trial"",""time""
""fullscreenenter"",""0"",""3274""
","
","
","""event"",""trial"",""time""
""fullscreenenter"",""0"",""3274""
","
","null","run_exp/static/images/Set 6_rs/047a.jpg","null","","","","","","test","TF",""
"","html-keyboard-response","289","460347","0.0-242.0-2.0","""event"",""trial"",""time""
""fullscreenenter"",""0"",""3274""
","
","
","""event"",""trial"",""time""
""fullscreenenter"",""0"",""3274""
","
","null","<p></p>","null","","","","","","","",""
"","image","290","461479","0.0-243.0-0.0","""event"",""trial"",""time""
""fullscreenenter"",""0"",""3274""
","
","
","""event"",""trial"",""time""
""fullscreenenter"",""0"",""3274""
","
","1131.4000000003725","run_exp/static/images/Set 6_rs/172a.jpg","86","","","","","","test","TR","1"
"","show_choice","291","461984","0.0-243.0-1.0","""event"",""trial"",""time""
""fullscreenenter"",""0"",""3274""
","
","
","""event"",""trial"",""time""
""fullscreenenter"",""0"",""3274""
","
","null","run_exp/static/images/Set 6_rs/172a.jpg","null","","","","","","test","TR",""
"","html-keyboard-response","292","462486","0.0-243.0-2.0","""event"",""trial"",""time""
""fullscreenenter"",""0"",""3274""
","
","
","""event"",""trial"",""time""
""fullscreenenter"",""0"",""3274""
","
","null","<p></p>","null","","","","","","","",""
"","image","293","463357","0.0-244.0-0.0","""event"",""trial"",""time""
""fullscreenenter"",""0"",""3274""
","
","
","""event"",""trial"",""time""
""fullscreenenter"",""0"",""3274""
","
","869.4000000003725","run_exp/static/images/Set 6_rs/024a.jpg","86","","","","","","test","TR","5"
"","show_choice","294","463858","0.0-244.0-1.0","""event"",""trial"",""time""
""fullscreenenter"",""0"",""3274""
","
","
","""event"",""trial"",""time""
""fullscreenenter"",""0"",""3274""
","
","null","run_exp/static/images/Set 6_rs/024a.jpg","null","","","","","","test","TR",""
"","html-keyboard-response","295","464363","0.0-244.0-2.0","""event"",""trial"",""time""
""fullscreenenter"",""0"",""3274""
","
","
","""event"",""trial"",""time""
""fullscreenenter"",""0"",""3274""
","
","null","<p></p>","null","","","","","","","",""
"","image","296","465322","0.0-245.0-0.0","""event"",""trial"",""time""
""fullscreenenter"",""0"",""3274""
","
","
","""event"",""trial"",""time""
""fullscreenenter"",""0"",""3274""
","
","957.4000000003725","run_exp/static/images/Set 6_rs/144b.jpg","86","","","","","","test","TL","4"
"","show_choice","297","465827","0.0-245.0-1.0","""event"",""trial"",""time""
""fullscreenenter"",""0"",""3274""
","
","
","""event"",""trial"",""time""
""fullscreenenter"",""0"",""3274""
","
","null","run_exp/static/images/Set 6_rs/144b.jpg","null","","","","","","test","TL",""
"","html-keyboard-response","298","466333","0.0-245.0-2.0","""event"",""trial"",""time""
""fullscreenenter"",""0"",""3274""
","
","
","""event"",""trial"",""time""
""fullscreenenter"",""0"",""3274""
","
","null","<p></p>","null","","","","","","","",""
"","image","299","467571","0.0-246.0-0.0","""event"",""trial"",""time""
""fullscreenenter"",""0"",""3274""
","
","
","""event"",""trial"",""time""
""fullscreenenter"",""0"",""3274""
","
","1236.699999999255","run_exp/static/images/Set 6_rs/170a.jpg","78","","","","","","test","TF","2"
"","show_choice","300","468076","0.0-246.0-1.0","""event"",""trial"",""time""
""fullscreenenter"",""0"",""3274""
","
","
","""event"",""trial"",""time""
""fullscreenenter"",""0"",""3274""
","
","null","run_exp/static/images/Set 6_rs/170a.jpg","null","","","","","","test","TF",""
"","html-keyboard-response","301","468578","0.0-246.0-2.0","""event"",""trial"",""time""
""fullscreenenter"",""0"",""3274""
","
","
","""event"",""trial"",""time""
""fullscreenenter"",""0"",""3274""
","
","null","<p></p>","null","","","","","","","",""
"","image","302","469943","0.0-247.0-0.0","""event"",""trial"",""time""
""fullscreenenter"",""0"",""3274""
","
","
","""event"",""trial"",""time""
""fullscreenenter"",""0"",""3274""
","
","1363.2000000001863","run_exp/static/images/Set 6_rs/079b.jpg","66","","","","","","test","TL","5"
"","show_choice","303","470447","0.0-247.0-1.0","""event"",""trial"",""time""
""fullscreenenter"",""0"",""3274""
","
","
","""event"",""trial"",""time""
""fullscreenenter"",""0"",""3274""
","
","null","run_exp/static/images/Set 6_rs/079b.jpg","null","","","","","","test","TL",""
"","html-keyboard-response","304","470953","0.0-247.0-2.0","""event"",""trial"",""time""
""fullscreenenter"",""0"",""3274""
","
","
","""event"",""trial"",""time""
""fullscreenenter"",""0"",""3274""
","
","null","<p></p>","null","","","","","","","",""
"","image","305","472325","0.0-248.0-0.0","""event"",""trial"",""time""
""fullscreenenter"",""0"",""3274""
","
","
","""event"",""trial"",""time""
""fullscreenenter"",""0"",""3274""
","
","1371.4000000003725","run_exp/static/images/Set 6_rs/011a.jpg","66","","","","","","test","TF","3"
"","show_choice","306","472829","0.0-248.0-1.0","""event"",""trial"",""time""
""fullscreenenter"",""0"",""3274""
","
","
","""event"",""trial"",""time""
""fullscreenenter"",""0"",""3274""
","
","null","run_exp/static/images/Set 6_rs/011a.jpg","null","","","","","","test","TF",""
"","html-keyboard-response","307","473336","0.0-248.0-2.0","""event"",""trial"",""time""
""fullscreenenter"",""0"",""3274""
","
","
","""event"",""trial"",""time""
""fullscreenenter"",""0"",""3274""
","
","null","<p></p>","null","","","","","","","",""
"","image","308","474377","0.0-249.0-0.0","""event"",""trial"",""time""
""fullscreenenter"",""0"",""3274""
","
","
","""event"",""trial"",""time""
""fullscreenenter"",""0"",""3274""
","
","1039.8999999994412","run_exp/static/images/Set 6_rs/057b.jpg","86","","","","","","test","TL","1"
"","show_choice","309","474882","0.0-249.0-1.0","""event"",""trial"",""time""
""fullscreenenter"",""0"",""3274""
","
","
","""event"",""trial"",""time""
""fullscreenenter"",""0"",""3274""
","
","null","run_exp/static/images/Set 6_rs/057b.jpg","null","","","","","","test","TL",""
"","html-keyboard-response","310","475388","0.0-249.0-2.0","""event"",""trial"",""time""
""fullscreenenter"",""0"",""3274""
","
","
","""event"",""trial"",""time""
""fullscreenenter"",""0"",""3274""
","
","null","<p></p>","null","","","","","","","",""
"","image","311","476562","0.0-250.0-0.0","""event"",""trial"",""time""
""fullscreenenter"",""0"",""3274""
","
","
","""event"",""trial"",""time""
""fullscreenenter"",""0"",""3274""
","
","1172.5999999996275","run_exp/static/images/Set 6_rs/126a.jpg","86","","","","","","test","TR","2"
"","show_choice","312","477067","0.0-250.0-1.0","""event"",""trial"",""time""
""fullscreenenter"",""0"",""3274""
","
","
","""event"",""trial"",""time""
""fullscreenenter"",""0"",""3274""
","
","null","run_exp/static/images/Set 6_rs/126a.jpg","null","","","","","","test","TR",""
"","html-keyboard-response","313","477572","0.0-250.0-2.0","""event"",""trial"",""time""
""fullscreenenter"",""0"",""3274""
","
","
","""event"",""trial"",""time""
""fullscreenenter"",""0"",""3274""
","
","null","<p></p>","null","","","","","","","",""
"","image","314","478986","0.0-251.0-0.0","""event"",""trial"",""time""
""fullscreenenter"",""0"",""3274""
","
","
","""event"",""trial"",""time""
""fullscreenenter"",""0"",""3274""
","
","1412.5","run_exp/static/images/Set 6_rs/066b.jpg","66","","","","","","test","TL","5"
"","show_choice","315","479491","0.0-251.0-1.0","""event"",""trial"",""time""
""fullscreenenter"",""0"",""3274""
","
","
","""event"",""trial"",""time""
""fullscreenenter"",""0"",""3274""
","
","null","run_exp/static/images/Set 6_rs/066b.jpg","null","","","","","","test","TL",""
"","html-keyboard-response","316","479993","0.0-251.0-2.0","""event"",""trial"",""time""
""fullscreenenter"",""0"",""3274""
","
","
","""event"",""trial"",""time""
""fullscreenenter"",""0"",""3274""
","
","null","<p></p>","null","","","","","","","",""
"","image","317","481250","0.0-252.0-0.0","""event"",""trial"",""time""
""fullscreenenter"",""0"",""3274""
","
","
","""event"",""trial"",""time""
""fullscreenenter"",""0"",""3274""
","
","1256.5999999996275","run_exp/static/images/Set 6_rs/050b.jpg","86","","","","","","test","TL","3"
"","show_choice","318","481754","0.0-252.0-1.0","""event"",""trial"",""time""
""fullscreenenter"",""0"",""3274""
","
","
","""event"",""trial"",""time""
""fullscreenenter"",""0"",""3274""
","
","null","run_exp/static/images/Set 6_rs/050b.jpg","null","","","","","","test","TL",""
"","html-keyboard-response","319","482258","0.0-252.0-2.0","""event"",""trial"",""time""
""fullscreenenter"",""0"",""3274""
","
","
","""event"",""trial"",""time""
""fullscreenenter"",""0"",""3274""
","
","null","<p></p>","null","","","","","","","",""
"","image","320","483244","0.0-253.0-0.0","""event"",""trial"",""time""
""fullscreenenter"",""0"",""3274""
","
","
","""event"",""trial"",""time""
""fullscreenenter"",""0"",""3274""
","
","984.7999999998137","run_exp/static/images/Set 6_rs/118a.jpg","66","","","","","","test","TF","5"
"","show_choice","321","483749","0.0-253.0-1.0","""event"",""trial"",""time""
""fullscreenenter"",""0"",""3274""
","
","
","""event"",""trial"",""time""
""fullscreenenter"",""0"",""3274""
","
","null","run_exp/static/images/Set 6_rs/118a.jpg","null","","","","","","test","TF",""
"","html-keyboard-response","322","484255","0.0-253.0-2.0","""event"",""trial"",""time""
""fullscreenenter"",""0"",""3274""
","
","
","""event"",""trial"",""time""
""fullscreenenter"",""0"",""3274""
","
","null","<p></p>","null","","","","","","","",""
"","image","323","485528","0.0-254.0-0.0","""event"",""trial"",""time""
""fullscreenenter"",""0"",""3274""
","
","
","""event"",""trial"",""time""
""fullscreenenter"",""0"",""3274""
","
","1271.7999999998137","run_exp/static/images/Set 6_rs/097a.jpg","78","","","","","","test","TF","5"
"","show_choice","324","486034","0.0-254.0-1.0","""event"",""trial"",""time""
""fullscreenenter"",""0"",""3274""
","
","
","""event"",""trial"",""time""
""fullscreenenter"",""0"",""3274""
","
","null","run_exp/static/images/Set 6_rs/097a.jpg","null","","","","","","test","TF",""
"","html-keyboard-response","325","486537","0.0-254.0-2.0","""event"",""trial"",""time""
""fullscreenenter"",""0"",""3274""
","
","
","""event"",""trial"",""time""
""fullscreenenter"",""0"",""3274""
","
","null","<p></p>","null","","","","","","","",""
"","image","326","487659","0.0-255.0-0.0","""event"",""trial"",""time""
""fullscreenenter"",""0"",""3274""
","
","
","""event"",""trial"",""time""
""fullscreenenter"",""0"",""3274""
","
","1121.4000000003725","run_exp/static/images/Set 6_rs/155a.jpg","66","","","","","","test","TF","4"
"","show_choice","327","488164","0.0-255.0-1.0","""event"",""trial"",""time""
""fullscreenenter"",""0"",""3274""
","
","
","""event"",""trial"",""time""
""fullscreenenter"",""0"",""3274""
","
","null","run_exp/static/images/Set 6_rs/155a.jpg","null","","","","","","test","TF",""
"","html-keyboard-response","328","488667","0.0-255.0-2.0","""event"",""trial"",""time""
""fullscreenenter"",""0"",""3274""
","
","
","""event"",""trial"",""time""
""fullscreenenter"",""0"",""3274""
","
","null","<p></p>","null","","","","","","","",""
"","image","329","489675","0.0-256.0-0.0","""event"",""trial"",""time""
""fullscreenenter"",""0"",""3274""
","
","
","""event"",""trial"",""time""
""fullscreenenter"",""0"",""3274""
","
","1006.7999999998137","run_exp/static/images/Set 6_rs/186a.jpg","86","","","","","","test","TR","5"
"","show_choice","330","490180","0.0-256.0-1.0","""event"",""trial"",""time""
""fullscreenenter"",""0"",""3274""
","
","
","""event"",""trial"",""time""
""fullscreenenter"",""0"",""3274""
","
","null","run_exp/static/images/Set 6_rs/186a.jpg","null","","","","","","test","TR",""
"","html-keyboard-response","331","490685","0.0-256.0-2.0","""event"",""trial"",""time""
""fullscreenenter"",""0"",""3274""
","
","
","""event"",""trial"",""time""
""fullscreenenter"",""0"",""3274""
","
","null","<p></p>","null","","","","","","","",""
"","image","332","492199","0.0-257.0-0.0","""event"",""trial"",""time""
""fullscreenenter"",""0"",""3274""
","
","
","""event"",""trial"",""time""
""fullscreenenter"",""0"",""3274""
","
","1512.7999999998137","run_exp/static/images/Set 6_rs/140a.jpg","66","","","","","","test","TF","1"
"","show_choice","333","492700","0.0-257.0-1.0","""event"",""trial"",""time""
""fullscreenenter"",""0"",""3274""
","
","
","""event"",""trial"",""time""
""fullscreenenter"",""0"",""3274""
","
","null","run_exp/static/images/Set 6_rs/140a.jpg","null","","","","","","test","TF",""
"","html-keyboard-response","334","493206","0.0-257.0-2.0","""event"",""trial"",""time""
""fullscreenenter"",""0"",""3274""
","
","
","""event"",""trial"",""time""
""fullscreenenter"",""0"",""3274""
","
","null","<p></p>","null","","","","","","","",""
"","image","335","494337","0.0-258.0-0.0","""event"",""trial"",""time""
""fullscreenenter"",""0"",""3274""
","
","
","""event"",""trial"",""time""
""fullscreenenter"",""0"",""3274""
","
","1130.2000000001863","run_exp/static/images/Set 6_rs/121a.jpg","86","","","","","","test","TR","4"
"","show_choice","336","494843","0.0-258.0-1.0","""event"",""trial"",""time""
""fullscreenenter"",""0"",""3274""
","
","
","""event"",""trial"",""time""
""fullscreenenter"",""0"",""3274""
","
","null","run_exp/static/images/Set 6_rs/121a.jpg","null","","","","","","test","TR",""
"","html-keyboard-response","337","495349","0.0-258.0-2.0","""event"",""trial"",""time""
""fullscreenenter"",""0"",""3274""
","
","
","""event"",""trial"",""time""
""fullscreenenter"",""0"",""3274""
","
","null","<p></p>","null","","","","","","","",""
"","image","338","496642","0.0-259.0-0.0","""event"",""trial"",""time""
""fullscreenenter"",""0"",""3274""
","
