"success","trial_type","trial_index","time_elapsed","internal_node_id","interactions","blur_events","focus_events","fullscreenenter_events","fullscreenexit_events","rt","stimulus","key_press","subject_id","participant_id","age","gender","prompt","phase","condition","lure_bin"
"true","fullscreen","0","7554","0.0-0.0","""event"",""trial"",""time""
""fullscreenenter"",""0"",""6588""
","
","
","""event"",""trial"",""time""
""fullscreenenter"",""0"",""6588""
","
","","","","","","","","","","",""
"","pavlovia","1","7558","0.0-1.0","""event"",""trial"",""time""
""fullscreenenter"",""0"",""6588""
","
","
","""event"",""trial"",""time""
""fullscreenenter"",""0"",""6588""
","
","","","","","","","","","","",""
"","welcome","2","42590","0.0-2.0","""event"",""trial"",""time""
""fullscreenenter"",""0"",""6588""
","
","
","""event"",""trial"",""time""
""fullscreenenter"",""0"",""6588""
","
","null","run_exp/static/audio/clip_1_welcome.m4a","null","682","401","9","Female","<div class='center'><p>Welcome to the third part of the study! First, you'll be shown pictures of items one at a time. For each picture, you have to decide if the item is typically found indoors or outdoors.</p><p>If you think it's usually found indoors, then press <b>v</b> key on your keyboard. If you think it's usually found outdoors, then press the <b>n</b> key.There will be reminders on the screen to help you remember which keys to press. </p><p>If you're not sure whether the item is an indoor item or an outdoor item, go ahead and take a guess but try your best not to skip that choice. </p></div>","","",""
"","html-keyboard-response","3","44879","0.0-3.0","""event"",""trial"",""time""
""fullscreenenter"",""0"",""6588""
","
","
","""event"",""trial"",""time""
""fullscreenenter"",""0"",""6588""
","
","2287.7000000029802","<div class='center'><p>Welcome to the third part of the study! First, you'll be shown pictures of items one at a time. For each picture, you have to decide if the item is typically found indoors or outdoors.</p><p>If you think it's usually found indoors, then press <b>v</b> key on your keyboard. If you think it's usually found outdoors, then press the <b>n</b> key.There will be reminders on the screen to help you remember which keys to press. </p><p>If you're not sure whether the item is an indoor item or an outdoor item, go ahead and take a guess but try your best not to skip that choice. </p><div><p><b>[Press the space bar to continue]</b></p></div>","32","","","","","","","",""
"","image","4","46099","0.0-4.0","""event"",""trial"",""time""
""fullscreenenter"",""0"",""6588""
","
","
","""event"",""trial"",""time""
""fullscreenenter"",""0"",""6588""
","
","1218.3999999985099","run_exp/static/images/Set 6_rs/045a.jpg","78","","","","","","learn","SR",""
"","show_choice","5","46885","0.0-5.0","""event"",""trial"",""time""
""fullscreenenter"",""0"",""6588""
","
","
","""event"",""trial"",""time""
""fullscreenenter"",""0"",""6588""
","
","null","run_exp/static/images/Set 6_rs/045a.jpg","null","","","","","","learn","SR",""
"","html-keyboard-response","6","47389","0.0-6.0","""event"",""trial"",""time""
""fullscreenenter"",""0"",""6588""
","
","
","""event"",""trial"",""time""
""fullscreenenter"",""0"",""6588""
","
","null","<p></p>","null","","","","","","","",""
"","image","7","48715","0.0-7.0","""event"",""trial"",""time""
""fullscreenenter"",""0"",""6588""
","
","
","""event"",""trial"",""time""
""fullscreenenter"",""0"",""6588""
","
","1325","run_exp/static/images/Set 6_rs/024a.jpg","86","","","","","","learn","SR",""
"","show_choice","8","49393","0.0-8.0","""event"",""trial"",""time""
""fullscreenenter"",""0"",""6588""
","
","
","""event"",""trial"",""time""
""fullscreenenter"",""0"",""6588""
","
","null","run_exp/static/images/Set 6_rs/024a.jpg","null","","","","","","learn","SR",""
"","html-keyboard-response","9","49895","0.0-9.0","""event"",""trial"",""time""
""fullscreenenter"",""0"",""6588""
","
","
","""event"",""trial"",""time""
""fullscreenenter"",""0"",""6588""
","
","null","<p></p>","null","","","","","","","",""
"","image","10","50796","0.0-10.0","""event"",""trial"",""time""
""fullscreenenter"",""0"",""6588""
","
","
","""event"",""trial"",""time""
""fullscreenenter"",""0"",""6588""
","
","899.3000000007451","run_exp/static/images/Set 6_rs/178a.jpg","78","","","","","","learn","SR",""
"","show_choice","11","51900","0.0-11.0","""event"",""trial"",""time""
""fullscreenenter"",""0"",""6588""
","
","
","""event"",""trial"",""time""
""fullscreenenter"",""0"",""6588""
","
","null","run_exp/static/images/Set 6_rs/178a.jpg","null","","","","","","learn","SR",""
"","html-keyboard-response","12","52402","0.0-12.0","""event"",""trial"",""time""
""fullscreenenter"",""0"",""6588""
","
","
","""event"",""trial"",""time""
""fullscreenenter"",""0"",""6588""
","
","null","<p></p>","null","","","","","","","",""
"","image","13","53919","0.0-13.0","""event"",""trial"",""time""
""fullscreenenter"",""0"",""6588""
","
","
","""event"",""trial"",""time""
""fullscreenenter"",""0"",""6588""
","
","1514.8999999985099","run_exp/static/images/Set 6_rs/036a.jpg","86","","","","","","learn","SL",""
"","show_choice","14","54410","0.0-14.0","""event"",""trial"",""time""
""fullscreenenter"",""0"",""6588""
","
","
","""event"",""trial"",""time""
""fullscreenenter"",""0"",""6588""
","
","null","run_exp/static/images/Set 6_rs/036a.jpg","null","","","","","","learn","SL",""
"","html-keyboard-response","15","54916","0.0-15.0","""event"",""trial"",""time""
""fullscreenenter"",""0"",""6588""
","
","
","""event"",""trial"",""time""
""fullscreenenter"",""0"",""6588""
","
","null","<p></p>","null","","","","","","","",""
"","image","16","55983","0.0-16.0","""event"",""trial"",""time""
""fullscreenenter"",""0"",""6588""
","
","
","""event"",""trial"",""time""
""fullscreenenter"",""0"",""6588""
","
","1066.300000000745","run_exp/static/images/Set 6_rs/063a.jpg","86","","","","","","learn","SR",""
"","show_choice","17","56918","0.0-17.0","""event"",""trial"",""time""
""fullscreenenter"",""0"",""6588""
","
","
","""event"",""trial"",""time""
""fullscreenenter"",""0"",""6588""
","
","null","run_exp/static/images/Set 6_rs/063a.jpg","null","","","","","","learn","SR",""
"","html-keyboard-response","18","57418","0.0-18.0","""event"",""trial"",""time""
""fullscreenenter"",""0"",""6588""
","
","
","""event"",""trial"",""time""
""fullscreenenter"",""0"",""6588""
","
","null","<p></p>","null","","","","","","","",""
"","image","19","58623","0.0-19.0","""event"",""trial"",""time""
""fullscreenenter"",""0"",""6588""
","
","
","""event"",""trial"",""time""
""fullscreenenter"",""0"",""6588""
","
","1203.699999999255","run_exp/static/images/Set 6_rs/186a.jpg","86","","","","","","learn","SR",""
"","show_choice","20","59420","0.0-20.0","""event"",""trial"",""time""
""fullscreenenter"",""0"",""6588""
","
","
","""event"",""trial"",""time""
""fullscreenenter"",""0"",""6588""
","
","null","run_exp/static/images/Set 6_rs/186a.jpg","null","","","","","","learn","SR",""
"","html-keyboard-response","21","59924","0.0-21.0","""event"",""trial"",""time""
""fullscreenenter"",""0"",""6588""
","
","
","""event"",""trial"",""time""
""fullscreenenter"",""0"",""6588""
","
","null","<p></p>","null","","","","","","","",""
"","image","22","61174","0.0-22.0","""event"",""trial"",""time""
""fullscreenenter"",""0"",""6588""
","
","
","""event"",""trial"",""time""
""fullscreenenter"",""0"",""6588""
","
","1249","run_exp/static/images/Set 6_rs/112a.jpg","86","","","","","","learn","SR",""
"","show_choice","23","61929","0.0-23.0","""event"",""trial"",""time""
""fullscreenenter"",""0"",""6588""
","
","
","""event"",""trial"",""time""
""fullscreenenter"",""0"",""6588""
","
","null","run_exp/static/images/Set 6_rs/112a.jpg","null","","","","","","learn","SR",""
"","html-keyboard-response","24","62436","0.0-24.0","""event"",""trial"",""time""
""fullscreenenter"",""0"",""6588""
","
","
","""event"",""trial"",""time""
""fullscreenenter"",""0"",""6588""
","
","null","<p></p>","null","","","","","","","",""
"","image","25","64334","0.0-25.0","""event"",""trial"",""time""
""fullscreenenter"",""0"",""6588""
","
","
","""event"",""trial"",""time""
""fullscreenenter"",""0"",""6588""
","
","1897.199999999255","run_exp/static/images/Set 6_rs/091a.jpg","86","","","","","","learn","SL",""
"","show_choice","26","64437","0.0-26.0","""event"",""trial"",""time""
""fullscreenenter"",""0"",""6588""
","
","
","""event"",""trial"",""time""
""fullscreenenter"",""0"",""6588""
","
","null","run_exp/static/images/Set 6_rs/091a.jpg","null","","","","","","learn","SL",""
"","html-keyboard-response","27","64939","0.0-27.0","""event"",""trial"",""time""
""fullscreenenter"",""0"",""6588""
","
","
","""event"",""trial"",""time""
""fullscreenenter"",""0"",""6588""
","
","null","<p></p>","null","","","","","","","",""
"","image","28","66480","0.0-28.0","""event"",""trial"",""time""
""fullscreenenter"",""0"",""6588""
","
","
","""event"",""trial"",""time""
""fullscreenenter"",""0"",""6588""
","
","1540.199999999255","run_exp/static/images/Set 6_rs/141a.jpg","86","","","","","","learn","SR",""
"","show_choice","29","66945","0.0-29.0","""event"",""trial"",""time""
""fullscreenenter"",""0"",""6588""
","
","
","""event"",""trial"",""time""
""fullscreenenter"",""0"",""6588""
","
","null","run_exp/static/images/Set 6_rs/141a.jpg","null","","","","","","learn","SR",""
"","html-keyboard-response","30","67451","0.0-30.0","""event"",""trial"",""time""
""fullscreenenter"",""0"",""6588""
","
","
","""event"",""trial"",""time""
""fullscreenenter"",""0"",""6588""
","
","null","<p></p>","null","","","","","","","",""
"","image","31","68579","0.0-31.0","""event"",""trial"",""time""
""fullscreenenter"",""0"",""6588""
","
","
","""event"",""trial"",""time""
""fullscreenenter"",""0"",""6588""
","
","1126.300000000745","run_exp/static/images/Set 6_rs/154a.jpg","86","","","","","","learn","SR",""
"","show_choice","32","69453","0.0-32.0","""event"",""trial"",""time""
""fullscreenenter"",""0"",""6588""
","
","
","""event"",""trial"",""time""
""fullscreenenter"",""0"",""6588""
","
","null","run_exp/static/images/Set 6_rs/154a.jpg","null","","","","","","learn","SR",""
"","html-keyboard-response","33","69959","0.0-33.0","""event"",""trial"",""time""
""fullscreenenter"",""0"",""6588""
","
","
","""event"",""trial"",""time""
""fullscreenenter"",""0"",""6588""
","
","null","<p></p>","null","","","","","","","",""
"","image","34","70924","0.0-34.0","""event"",""trial"",""time""
""fullscreenenter"",""0"",""6588""
","
","
","""event"",""trial"",""time""
""fullscreenenter"",""0"",""6588""
","
","963.1999999992549","run_exp/static/images/Set 6_rs/076a.jpg","78","","","","","","learn","SR",""
"","show_choice","35","71961","0.0-35.0","""event"",""trial"",""time""
""fullscreenenter"",""0"",""6588""
","
","
","""event"",""trial"",""time""
""fullscreenenter"",""0"",""6588""
","
","null","run_exp/static/images/Set 6_rs/076a.jpg","null","","","","","","learn","SR",""
"","html-keyboard-response","36","72462","0.0-36.0","""event"",""trial"",""time""
""fullscreenenter"",""0"",""6588""
","
","
","""event"",""trial"",""time""
""fullscreenenter"",""0"",""6588""
","
","null","<p></p>","null","","","","","","","",""
"","image","37","74269","0.0-37.0","""event"",""trial"",""time""
""fullscreenenter"",""0"",""6588""
","
","
","""event"",""trial"",""time""
""fullscreenenter"",""0"",""6588""
","
","1806.4000000022352","run_exp/static/images/Set 6_rs/117a.jpg","86","","","","","","learn","SL",""
"","show_choice","38","74465","0.0-38.0","""event"",""trial"",""time""
""fullscreenenter"",""0"",""6588""
","
","
","""event"",""trial"",""time""
""fullscreenenter"",""0"",""6588""
","
","null","run_exp/static/images/Set 6_rs/117a.jpg","null","","","","","","learn","SL",""
"","html-keyboard-response","39","74969","0.0-39.0","""event"",""trial"",""time""
""fullscreenenter"",""0"",""6588""
","
","
","""event"",""trial"",""time""
""fullscreenenter"",""0"",""6588""
","
","null","<p></p>","null","","","","","","","",""
"","image","40","76076","0.0-40.0","""event"",""trial"",""time""
""fullscreenenter"",""0"",""6588""
","
","
","""event"",""trial"",""time""
""fullscreenenter"",""0"",""6588""
","
","1106.1000000014901","run_exp/static/images/Set 6_rs/055a.jpg","86","","","","","","learn","SL",""
"","show_choice","41","76975","0.0-41.0","""event"",""trial"",""time""
""fullscreenenter"",""0"",""6588""
","
","
","""event"",""trial"",""time""
""fullscreenenter"",""0"",""6588""
","
","null","run_exp/static/images/Set 6_rs/055a.jpg","null","","","","","","learn","SL",""
"","html-keyboard-response","42","77482","0.0-42.0","""event"",""trial"",""time""
""fullscreenenter"",""0"",""6588""
","
","
","""event"",""trial"",""time""
""fullscreenenter"",""0"",""6588""
","
","null","<p></p>","null","","","","","","","",""
"","image","43","78664","0.0-43.0","""event"",""trial"",""time""
""fullscreenenter"",""0"",""6588""
","
","
","""event"",""trial"",""time""
""fullscreenenter"",""0"",""6588""
","
","1180.800000000745","run_exp/static/images/Set 6_rs/062a.jpg","86","","","","","","learn","SL",""
"","show_choice","44","79488","0.0-44.0","""event"",""trial"",""time""
""fullscreenenter"",""0"",""6588""
","
","
","""event"",""trial"",""time""
""fullscreenenter"",""0"",""6588""
","
","null","run_exp/static/images/Set 6_rs/062a.jpg","null","","","","","","learn","SL",""
"","html-keyboard-response","45","79992","0.0-45.0","""event"",""trial"",""time""
""fullscreenenter"",""0"",""6588""
","
","
","""event"",""trial"",""time""
""fullscreenenter"",""0"",""6588""
","
","null","<p></p>","null","","","","","","","",""
"","image","46","81634","0.0-46.0","""event"",""trial"",""time""
""fullscreenenter"",""0"",""6588""
","
","
","""event"",""trial"",""time""
""fullscreenenter"",""0"",""6588""
","
","1641.7999999970198","run_exp/static/images/Set 6_rs/010a.jpg","86","","","","","","learn","SR",""
"","show_choice","47","81998","0.0-47.0","""event"",""trial"",""time""
""fullscreenenter"",""0"",""6588""
","
","
","""event"",""trial"",""time""
""fullscreenenter"",""0"",""6588""
","
","null","run_exp/static/images/Set 6_rs/010a.jpg","null","","","","","","learn","SR",""
"","html-keyboard-response","48","82503","0.0-48.0","""event"",""trial"",""time""
""fullscreenenter"",""0"",""6588""
","
","
","""event"",""trial"",""time""
""fullscreenenter"",""0"",""6588""
","
","null","<p></p>","null","","","","","","","",""
"","image","49","84454","0.0-49.0","""event"",""trial"",""time""
""fullscreenenter"",""0"",""6588""
","
","
","""event"",""trial"",""time""
""fullscreenenter"",""0"",""6588""
","
","1949.8999999985099","run_exp/static/images/Set 6_rs/071a.jpg","86","","","","","","learn","SL",""
"","show_choice","50","84507","0.0-50.0","""event"",""trial"",""time""
""fullscreenenter"",""0"",""6588""
","
","
","""event"",""trial"",""time""
""fullscreenenter"",""0"",""6588""
","
","null","run_exp/static/images/Set 6_rs/071a.jpg","null","","","","","","learn","SL",""
"","html-keyboard-response","51","85013","0.0-51.0","""event"",""trial"",""time""
""fullscreenenter"",""0"",""6588""
","
","
","""event"",""trial"",""time""
""fullscreenenter"",""0"",""6588""
","
","null","<p></p>","null","","","","","","","",""
"","image","52","86079","0.0-52.0","""event"",""trial"",""time""
""fullscreenenter"",""0"",""6588""
","
","
","""event"",""trial"",""time""
""fullscreenenter"",""0"",""6588""
","
","1065.2999999970198","run_exp/static/images/Set 6_rs/111a.jpg","86","","","","","","learn","SL",""
"","show_choice","53","87019","0.0-53.0","""event"",""trial"",""time""
""fullscreenenter"",""0"",""6588""
","
","
","""event"",""trial"",""time""
""fullscreenenter"",""0"",""6588""
","
","null","run_exp/static/images/Set 6_rs/111a.jpg","null","","","","","","learn","SL",""
"","html-keyboard-response","54","87521","0.0-54.0","""event"",""trial"",""time""
""fullscreenenter"",""0"",""6588""
","
","
","""event"",""trial"",""time""
""fullscreenenter"",""0"",""6588""
","
","null","<p></p>","null","","","","","","","",""
"","image","55","88680","0.0-55.0","""event"",""trial"",""time""
""fullscreenenter"",""0"",""6588""
","
","
","""event"",""trial"",""time""
""fullscreenenter"",""0"",""6588""
","
","1157.7000000029802","run_exp/static/images/Set 6_rs/138a.jpg","78","","","","","","learn","SL",""
"","show_choice","56","89523","0.0-56.0","""event"",""trial"",""time""
""fullscreenenter"",""0"",""6588""
","
","
","""event"",""trial"",""time""
""fullscreenenter"",""0"",""6588""
","
","null","run_exp/static/images/Set 6_rs/138a.jpg","null","","","","","","learn","SL",""
"","html-keyboard-response","57","90026","0.0-57.0","""event"",""trial"",""time""
""fullscreenenter"",""0"",""6588""
","
","
","""event"",""trial"",""time""
""fullscreenenter"",""0"",""6588""
","
","null","<p></p>","null","","","","","","","",""
"","image","58","92031","0.0-58.0","""event"",""trial"",""time""
""fullscreenenter"",""0"",""6588""
","
","
","""event"",""trial"",""time""
""fullscreenenter"",""0"",""6588""
","
","null","run_exp/static/images/Set 6_rs/150a.jpg","null","","","","","","learn","SR",""
"","show_choice","59","94034","0.0-59.0","""event"",""trial"",""time""
""fullscreenenter"",""0"",""6588""
","
","
","""event"",""trial"",""time""
""fullscreenenter"",""0"",""6588""
","
","null","run_exp/static/images/blank.png","null","","","","","","learn","SR",""
"","html-keyboard-response","60","94537","0.0-60.0","""event"",""trial"",""time""
""fullscreenenter"",""0"",""6588""
","
","
","""event"",""trial"",""time""
""fullscreenenter"",""0"",""6588""
","
","null","<p></p>","null","","","","","","","",""
"","image","61","96544","0.0-61.0","""event"",""trial"",""time""
""fullscreenenter"",""0"",""6588""
","
","
","""event"",""trial"",""time""
""fullscreenenter"",""0"",""6588""
","
","null","run_exp/static/images/Set 6_rs/167a.jpg","null","","","","","","learn","SL",""
"","show_choice","62","98548","0.0-62.0","""event"",""trial"",""time""
""fullscreenenter"",""0"",""6588""
","
","
","""event"",""trial"",""time""
""fullscreenenter"",""0"",""6588""
","
","null","run_exp/static/images/blank.png","null","","","","","","learn","SL",""
"","html-keyboard-response","63","99052","0.0-63.0","""event"",""trial"",""time""
""fullscreenenter"",""0"",""6588""
","
","
","""event"",""trial"",""time""
""fullscreenenter"",""0"",""6588""
","
","null","<p></p>","null","","","","","","","",""
"","image","64","99653","0.0-64.0","""event"",""trial"",""time""
""fullscreenenter"",""0"",""6588""
","
","
","""event"",""trial"",""time""
""fullscreenenter"",""0"",""6588""
","
","600","run_exp/static/images/Set 6_rs/012a.jpg","86","","","","","","learn","SR",""
"","show_choice","65","101058","0.0-65.0","""event"",""trial"",""time""
""fullscreenenter"",""0"",""6588""
","
","
","""event"",""trial"",""time""
""fullscreenenter"",""0"",""6588""
","
","null","run_exp/static/images/Set 6_rs/012a.jpg","null","","","","","","learn","SR",""
"","html-keyboard-response","66","101564","0.0-66.0","""event"",""trial"",""time""
""fullscreenenter"",""0"",""6588""
","
","
","""event"",""trial"",""time""
""fullscreenenter"",""0"",""6588""
","
","null","<p></p>","null","","","","","","","",""
"","image","67","103481","0.0-67.0","""event"",""trial"",""time""
""fullscreenenter"",""0"",""6588""
","
","
","""event"",""trial"",""time""
""fullscreenenter"",""0"",""6588""
","
","1916.6000000014901","run_exp/static/images/Set 6_rs/075a.jpg","86","","","","","","learn","SR",""
"","show_choice","68","103565","0.0-68.0","""event"",""trial"",""time""
""fullscreenenter"",""0"",""6588""
","
","
","""event"",""trial"",""time""
""fullscreenenter"",""0"",""6588""
","
","null","run_exp/static/images/Set 6_rs/075a.jpg","null","","","","","","learn","SR",""
"","html-keyboard-response","69","104067","0.0-69.0","""event"",""trial"",""time""
""fullscreenenter"",""0"",""6588""
","
","
","""event"",""trial"",""time""
""fullscreenenter"",""0"",""6588""
","
","null","<p></p>","null","","","","","","","",""
"","image","70","106069","0.0-70.0","""event"",""trial"",""time""
""fullscreenenter"",""0"",""6588""
","
","
","""event"",""trial"",""time""
""fullscreenenter"",""0"",""6588""
","
","null","run_exp/static/images/Set 6_rs/019a.jpg","null","","","","","","learn","SL",""
"","show_choice","71","108076","0.0-71.0","""event"",""trial"",""time""
""fullscreenenter"",""0"",""6588""
","
","
","""event"",""trial"",""time""
""fullscreenenter"",""0"",""6588""
","
","null","run_exp/static/images/blank.png","null","","","","","","learn","SL",""
"","html-keyboard-response","72","108580","0.0-72.0","""event"",""trial"",""time""
""fullscreenenter"",""0"",""6588""
","
","
","""event"",""trial"",""time""
""fullscreenenter"",""0"",""6588""
","
","null","<p></p>","null","","","","","","","",""
"","image","73","109458","0.0-73.0","""event"",""trial"",""time""
""fullscreenenter"",""0"",""6588""
","
","
","""event"",""trial"",""time""
""fullscreenenter"",""0"",""6588""
","
","876.5999999977648","run_exp/static/images/Set 6_rs/008a.jpg","86","","","","","","learn","SL",""
"","show_choice","74","110585","0.0-74.0","""event"",""trial"",""time""
""fullscreenenter"",""0"",""6588""
","
","
","""event"",""trial"",""time""
""fullscreenenter"",""0"",""6588""
","
","null","run_exp/static/images/Set 6_rs/008a.jpg","null","","","","","","learn","SL",""
"","html-keyboard-response","75","111088","0.0-75.0","""event"",""trial"",""time""
""fullscreenenter"",""0"",""6588""
","
","
","""event"",""trial"",""time""
""fullscreenenter"",""0"",""6588""
","
","null","<p></p>","null","","","","","","","",""
"","image","76","112441","0.0-76.0","""event"",""trial"",""time""
""fullscreenenter"",""0"",""6588""
","
","
","""event"",""trial"",""time""
""fullscreenenter"",""0"",""6588""
","
","1352","run_exp/static/images/Set 6_rs/177a.jpg","78","","","","","","learn","SR",""
"","show_choice","77","113093","0.0-77.0","""event"",""trial"",""time""
""fullscreenenter"",""0"",""6588""
","
","
","""event"",""trial"",""time""
""fullscreenenter"",""0"",""6588""
","
","null","run_exp/static/images/Set 6_rs/177a.jpg","null","","","","","","learn","SR",""
"","html-keyboard-response","78","113596","0.0-78.0","""event"",""trial"",""time""
""fullscreenenter"",""0"",""6588""
","
","
","""event"",""trial"",""time""
""fullscreenenter"",""0"",""6588""
","
","null","<p></p>","null","","","","","","","",""
"","image","79","114466","0.0-79.0","""event"",""trial"",""time""
""fullscreenenter"",""0"",""6588""
","
","
","""event"",""trial"",""time""
""fullscreenenter"",""0"",""6588""
","
","868.8999999985099","run_exp/static/images/Set 6_rs/152a.jpg","86","","","","","","learn","SR",""
"","show_choice","80","115599","0.0-80.0","""event"",""trial"",""time""
""fullscreenenter"",""0"",""6588""
","
","
","""event"",""trial"",""time""
""fullscreenenter"",""0"",""6588""
","
","null","run_exp/static/images/Set 6_rs/152a.jpg","null","","","","","","learn","SR",""
"","html-keyboard-response","81","116103","0.0-81.0","""event"",""trial"",""time""
""fullscreenenter"",""0"",""6588""
","
","
","""event"",""trial"",""time""
""fullscreenenter"",""0"",""6588""
","
","null","<p></p>","null","","","","","","","",""
"","image","82","117106","0.0-82.0","""event"",""trial"",""time""
""fullscreenenter"",""0"",""6588""
","
","
","""event"",""trial"",""time""
""fullscreenenter"",""0"",""6588""
","
","1002","run_exp/static/images/Set 6_rs/129a.jpg","86","","","","","","learn","SL",""
"","show_choice","83","118110","0.0-83.0","""event"",""trial"",""time""
""fullscreenenter"",""0"",""6588""
","
","
","""event"",""trial"",""time""
""fullscreenenter"",""0"",""6588""
","
","null","run_exp/static/images/Set 6_rs/129a.jpg","null","","","","","","learn","SL",""
"","html-keyboard-response","84","118612","0.0-84.0","""event"",""trial"",""time""
""fullscreenenter"",""0"",""6588""
","
","
","""event"",""trial"",""time""
""fullscreenenter"",""0"",""6588""
","
","null","<p></p>","null","","","","","","","",""
"","image","85","119500","0.0-85.0","""event"",""trial"",""time""
""fullscreenenter"",""0"",""6588""
","
","
","""event"",""trial"",""time""
""fullscreenenter"",""0"",""6588""
","
","887.5","run_exp/static/images/Set 6_rs/014a.jpg","86","","","","","","learn","SL",""
"","show_choice","86","120618","0.0-86.0","""event"",""trial"",""time""
""fullscreenenter"",""0"",""6588""
","
","
","""event"",""trial"",""time""
""fullscreenenter"",""0"",""6588""
","
","null","run_exp/static/images/Set 6_rs/014a.jpg","null","","","","","","learn","SL",""
"","html-keyboard-response","87","121122","0.0-87.0","""event"",""trial"",""time""
""fullscreenenter"",""0"",""6588""
","
","
","""event"",""trial"",""time""
""fullscreenenter"",""0"",""6588""
","
","null","<p></p>","null","","","","","","","",""
"","image","88","121912","0.0-88.0","""event"",""trial"",""time""
""fullscreenenter"",""0"",""6588""
","
","
","""event"",""trial"",""time""
""fullscreenenter"",""0"",""6588""
","
","788.6000000014901","run_exp/static/images/Set 6_rs/073a.jpg","86","","","","","","learn","SL",""
"","show_choice","89","123129","0.0-89.0","""event"",""trial"",""time""
""fullscreenenter"",""0"",""6588""
","
","
","""event"",""trial"",""time""
""fullscreenenter"",""0"",""6588""
","
","null","run_exp/static/images/Set 6_rs/073a.jpg","null","","","","","","learn","SL",""
"","html-keyboard-response","90","123631","0.0-90.0","""event"",""trial"",""time""
""fullscreenenter"",""0"",""6588""
","
","
","""event"",""trial"",""time""
""fullscreenenter"",""0"",""6588""
","
","null","<p></p>","null","","","","","","","",""
"","image","91","125303","0.0-91.0","""event"",""trial"",""time""
""fullscreenenter"",""0"",""6588""
","
","
","""event"",""trial"",""time""
""fullscreenenter"",""0"",""6588""
","
","1670.699999999255","run_exp/static/images/Set 6_rs/017a.jpg","86","","","","","","learn","SL",""
"","show_choice","92","125634","0.0-92.0","""event"",""trial"",""time""
""fullscreenenter"",""0"",""6588""
","
","
","""event"",""trial"",""time""
""fullscreenenter"",""0"",""6588""
","
","null","run_exp/static/images/Set 6_rs/017a.jpg","null","","","","","","learn","SL",""
"","html-keyboard-response","93","126139","0.0-93.0","""event"",""trial"",""time""
""fullscreenenter"",""0"",""6588""
","
","
","""event"",""trial"",""time""
""fullscreenenter"",""0"",""6588""
","
","null","<p></p>","null","","","","","","","",""
"","image","94","126791","0.0-94.0","""event"",""trial"",""time""
""fullscreenenter"",""0"",""6588""
","
","
","""event"",""trial"",""time""
""fullscreenenter"",""0"",""6588""
","
","651.4000000022352","run_exp/static/images/Set 6_rs/064a.jpg","86","","","","","","learn","SR",""
"","show_choice","95","128145","0.0-95.0","""event"",""trial"",""time""
""fullscreenenter"",""0"",""6588""
","
","
","""event"",""trial"",""time""
""fullscreenenter"",""0"",""6588""
","
","null","run_exp/static/images/Set 6_rs/064a.jpg","null","","","","","","learn","SR",""
"","html-keyboard-response","96","128648","0.0-96.0","""event"",""trial"",""time""
""fullscreenenter"",""0"",""6588""
","
","
","""event"",""trial"",""time""
""fullscreenenter"",""0"",""6588""
","
","null","<p></p>","null","","","","","","","",""
"","image","97","129710","0.0-97.0","""event"",""trial"",""time""
""fullscreenenter"",""0"",""6588""
","
","
","""event"",""trial"",""time""
""fullscreenenter"",""0"",""6588""
","
","1060.800000000745","run_exp/static/images/Set 6_rs/061a.jpg","78","","","","","","learn","SR",""
"","show_choice","98","130654","0.0-98.0","""event"",""trial"",""time""
""fullscreenenter"",""0"",""6588""
","
","
","""event"",""trial"",""time""
""fullscreenenter"",""0"",""6588""
","
","null","run_exp/static/images/Set 6_rs/061a.jpg","null","","","","","","learn","SR",""
"","html-keyboard-response","99","131159","0.0-99.0","""event"",""trial"",""time""
""fullscreenenter"",""0"",""6588""
","
","
","""event"",""trial"",""time""
""fullscreenenter"",""0"",""6588""
","
","null","<p></p>","null","","","","","","","",""
"","image","100","132455","0.0-100.0","""event"",""trial"",""time""
""fullscreenenter"",""0"",""6588""
","
","
","""event"",""trial"",""time""
""fullscreenenter"",""0"",""6588""
","
","1294.699999999255","run_exp/static/images/Set 6_rs/144a.jpg","86","","","","","","learn","SL",""
"","show_choice","101","133165","0.0-101.0","""event"",""trial"",""time""
""fullscreenenter"",""0"",""6588""
","
","
","""event"",""trial"",""time""
""fullscreenenter"",""0"",""6588""
","
","null","run_exp/static/images/Set 6_rs/144a.jpg","null","","","","","","learn","SL",""
"","html-keyboard-response","102","133665","0.0-102.0","""event"",""trial"",""time""
""fullscreenenter"",""0"",""6588""
","
","
","""event"",""trial"",""time""
""fullscreenenter"",""0"",""6588""
","
","null","<p></p>","null","","","","","","","",""
"","image","103","134803","0.0-103.0","""event"",""trial"",""time""
""fullscreenenter"",""0"",""6588""
","
","
","""event"",""trial"",""time""
""fullscreenenter"",""0"",""6588""
","
","1136.7000000029802","run_exp/static/images/Set 6_rs/088a.jpg","86","","","","","","learn","SR",""
"","show_choice","104","135672","0.0-104.0","""event"",""trial"",""time""
""fullscreenenter"",""0"",""6588""
","
","
","""event"",""trial"",""time""
""fullscreenenter"",""0"",""6588""
","
","null","run_exp/static/images/Set 6_rs/088a.jpg","null","","","","","","learn","SR",""
"","html-keyboard-response","105","136173","0.0-105.0","""event"",""trial"",""time""
""fullscreenenter"",""0"",""6588""
","
","
","""event"",""trial"",""time""
""fullscreenenter"",""0"",""6588""
","
","null","<p></p>","null","","","","","","","",""
"","image","106","138177","0.0-106.0","""event"",""trial"",""time""
""fullscreenenter"",""0"",""6588""
","
","
","""event"",""trial"",""time""
""fullscreenenter"",""0"",""6588""
","
","null","run_exp/static/images/Set 6_rs/121a.jpg","null","","","","","","learn","SR",""
"","show_choice","107","140183","0.0-107.0","""event"",""trial"",""time""
""fullscreenenter"",""0"",""6588""
","
","
","""event"",""trial"",""time""
""fullscreenenter"",""0"",""6588""
","
","null","run_exp/static/images/blank.png","null","","","","","","learn","SR",""
"","html-keyboard-response","108","140688","0.0-108.0","""event"",""trial"",""time""
""fullscreenenter"",""0"",""6588""
","
","
","""event"",""trial"",""time""
""fullscreenenter"",""0"",""6588""
","
","null","<p></p>","null","","","","","","","",""
"","image","109","141515","0.0-109.0","""event"",""trial"",""time""
""fullscreenenter"",""0"",""6588""
","
","
","""event"",""trial"",""time""
""fullscreenenter"",""0"",""6588""
","
","824.9000000022352","run_exp/static/images/Set 6_rs/172a.jpg","78","","","","","","learn","SR",""
"","show_choice","110","142695","0.0-110.0","""event"",""trial"",""time""
""fullscreenenter"",""0"",""6588""
","
","
","""event"",""trial"",""time""
""fullscreenenter"",""0"",""6588""
","
","null","run_exp/static/images/Set 6_rs/172a.jpg","null","","","","","","learn","SR",""
"","html-keyboard-response","111","143200","0.0-111.0","""event"",""trial"",""time""
""fullscreenenter"",""0"",""6588""
","
","
","""event"",""trial"",""time""
""fullscreenenter"",""0"",""6588""
","
","null","<p></p>","null","","","","","","","",""
"","image","112","144311","0.0-112.0","""event"",""trial"",""time""
""fullscreenenter"",""0"",""6588""
","
","
","""event"",""trial"",""time""
""fullscreenenter"",""0"",""6588""
","
","1109.6000000014901","run_exp/static/images/Set 6_rs/006a.jpg","86","","","","","","learn","SL",""
"","show_choice","113","145203","0.0-113.0","""event"",""trial"",""time""
""fullscreenenter"",""0"",""6588""
","
","
","""event"",""trial"",""time""
""fullscreenenter"",""0"",""6588""
","
","null","run_exp/static/images/Set 6_rs/006a.jpg","null","","","","","","learn","SL",""
"","html-keyboard-response","114","145705","0.0-114.0","""event"",""trial"",""time""
""fullscreenenter"",""0"",""6588""
","
","
","""event"",""trial"",""time""
""fullscreenenter"",""0"",""6588""
","
","null","<p></p>","null","","","","","","","",""
"","image","115","146751","0.0-115.0","""event"",""trial"",""time""
""fullscreenenter"",""0"",""6588""
","
","
","""event"",""trial"",""time""
""fullscreenenter"",""0"",""6588""
","
","1044.0999999977648","run_exp/static/images/Set 6_rs/085a.jpg","78","","","","","","learn","SL",""
"","show_choice","116","147708","0.0-116.0","""event"",""trial"",""time""
""fullscreenenter"",""0"",""6588""
","
","
","""event"",""trial"",""time""
""fullscreenenter"",""0"",""6588""
","
","null","run_exp/static/images/Set 6_rs/085a.jpg","null","","","","","","learn","SL",""
"","html-keyboard-response","117","148211","0.0-117.0","""event"",""trial"",""time""
""fullscreenenter"",""0"",""6588""
","
","
","""event"",""trial"",""time""
""fullscreenenter"",""0"",""6588""
","
","null","<p></p>","null","","","","","","","",""
"","image","118","149481","0.0-118.0","""event"",""trial"",""time""
""fullscreenenter"",""0"",""6588""
","
","
","""event"",""trial"",""time""
""fullscreenenter"",""0"",""6588""
","
","1268.3999999985099","run_exp/static/images/Set 6_rs/089a.jpg","86","","","","","","learn","SL",""
"","show_choice","119","150214","0.0-119.0","""event"",""trial"",""time""
""fullscreenenter"",""0"",""6588""
","
","
","""event"",""trial"",""time""
""fullscreenenter"",""0"",""6588""
","
","null","run_exp/static/images/Set 6_rs/089a.jpg","null","","","","","","learn","SL",""
"","html-keyboard-response","120","150716","0.0-120.0","""event"",""trial"",""time""
""fullscreenenter"",""0"",""6588""
","
","
","""event"",""trial"",""time""
""fullscreenenter"",""0"",""6588""
","
","null","<p></p>","null","","","","","","","",""
"","image","121","152002","0.0-121.0","""event"",""trial"",""time""
""fullscreenenter"",""0"",""6588""
","
","
","""event"",""trial"",""time""
""fullscreenenter"",""0"",""6588""
","
","1284.6000000014901","run_exp/static/images/Set 6_rs/016a.jpg","86","","","","","","learn","SL",""
"","show_choice","122","152718","0.0-122.0","""event"",""trial"",""time""
""fullscreenenter"",""0"",""6588""
","
","
","""event"",""trial"",""time""
""fullscreenenter"",""0"",""6588""
","
","null","run_exp/static/images/Set 6_rs/016a.jpg","null","","","","","","learn","SL",""
"","html-keyboard-response","123","153224","0.0-123.0","""event"",""trial"",""time""
""fullscreenenter"",""0"",""6588""
","
","
","""event"",""trial"",""time""
""fullscreenenter"",""0"",""6588""
","
","null","<p></p>","null","","","","","","","",""
"","image","124","155229","0.0-124.0","""event"",""trial"",""time""
""fullscreenenter"",""0"",""6588""
","
","
","""event"",""trial"",""time""
""fullscreenenter"",""0"",""6588""
","
","null","run_exp/static/images/Set 6_rs/066a.jpg","null","","","","","","learn","SL",""
"","show_choice","125","157233","0.0-125.0","""event"",""trial"",""time""
""fullscreenenter"",""0"",""6588""
","
","
","""event"",""trial"",""time""
""fullscreenenter"",""0"",""6588""
","
","null","run_exp/static/images/blank.png","null","","","","","","learn","SL",""
"","html-keyboard-response","126","157739","0.0-126.0","""event"",""trial"",""time""
""fullscreenenter"",""0"",""6588""
","
","
","""event"",""trial"",""time""
""fullscreenenter"",""0"",""6588""
","
","null","<p></p>","null","","","","","","","",""
"","image","127","158497","0.0-127.0","""event"",""trial"",""time""
""fullscreenenter"",""0"",""6588""
","
","
","""event"",""trial"",""time""
""fullscreenenter"",""0"",""6588""
","
","757.1999999992549","run_exp/static/images/Set 6_rs/187a.jpg","86","","","","","","learn","SR",""
"","show_choice","128","159745","0.0-128.0","""event"",""trial"",""time""
""fullscreenenter"",""0"",""6588""
","
","
","""event"",""trial"",""time""
""fullscreenenter"",""0"",""6588""
","
","null","run_exp/static/images/Set 6_rs/187a.jpg","null","","","","","","learn","SR",""
"","html-keyboard-response","129","160249","0.0-129.0","""event"",""trial"",""time""
""fullscreenenter"",""0"",""6588""
","
","
","""event"",""trial"",""time""
""fullscreenenter"",""0"",""6588""
","
","null","<p></p>","null","","","","","","","",""
"","image","130","162256","0.0-130.0","""event"",""trial"",""time""
""fullscreenenter"",""0"",""6588""
","
","
","""event"",""trial"",""time""
""fullscreenenter"",""0"",""6588""
","
","null","run_exp/static/images/Set 6_rs/070a.jpg","null","","","","","","learn","SR",""
"","show_choice","131","164262","0.0-131.0","""event"",""trial"",""time""
""fullscreenenter"",""0"",""6588""
","
","
","""event"",""trial"",""time""
""fullscreenenter"",""0"",""6588""
","
","null","run_exp/static/images/blank.png","null","","","","","","learn","SR",""
"","html-keyboard-response","132","164766","0.0-132.0","""event"",""trial"",""time""
""fullscreenenter"",""0"",""6588""
","
","
","""event"",""trial"",""time""
""fullscreenenter"",""0"",""6588""
","
","null","<p></p>","null","","","","","","","",""
"","image","133","166197","0.0-133.0","""event"",""trial"",""time""
""fullscreenenter"",""0"",""6588""
","
","
","""event"",""trial"",""time""
""fullscreenenter"",""0"",""6588""
","
","1430.3999999985099","run_exp/static/images/Set 6_rs/126a.jpg","78","","","","","","learn","SR",""
"","show_choice","134","166772","0.0-134.0","""event"",""trial"",""time""
""fullscreenenter"",""0"",""6588""
","
","
","""event"",""trial"",""time""
""fullscreenenter"",""0"",""6588""
","
","null","run_exp/static/images/Set 6_rs/126a.jpg","null","","","","","","learn","SR",""
"","html-keyboard-response","135","167273","0.0-135.0","""event"",""trial"",""time""
""fullscreenenter"",""0"",""6588""
","
","
","""event"",""trial"",""time""
""fullscreenenter"",""0"",""6588""
","
","null","<p></p>","null","","","","","","","",""
"","image","136","168420","0.0-136.0","""event"",""trial"",""time""
""fullscreenenter"",""0"",""6588""
","
","
","""event"",""trial"",""time""
""fullscreenenter"",""0"",""6588""
","
","1146.2000000029802","run_exp/static/images/Set 6_rs/181a.jpg","86","","","","","","learn","SL",""
"","show_choice","137","169278","0.0-137.0","""event"",""trial"",""time""
""fullscreenenter"",""0"",""6588""
","
","
","""event"",""trial"",""time""
""fullscreenenter"",""0"",""6588""
","
","null","run_exp/static/images/Set 6_rs/181a.jpg","null","","","","","","learn","SL",""
"","html-keyboard-response","138","169783","0.0-138.0","""event"",""trial"",""time""
""fullscreenenter"",""0"",""6588""
","
","
","""event"",""trial"",""time""
""fullscreenenter"",""0"",""6588""
","
","null","<p></p>","null","","","","","","","",""
"","image","139","171114","0.0-139.0","""event"",""trial"",""time""
""fullscreenenter"",""0"",""6588""
","
","
","""event"",""trial"",""time""
""fullscreenenter"",""0"",""6588""
","
","1329.9000000022352","run_exp/static/images/Set 6_rs/074a.jpg","78","","","","","","learn","SL",""
"","show_choice","140","171789","0.0-140.0","""event"",""trial"",""time""
""fullscreenenter"",""0"",""6588""
","
","
","""event"",""trial"",""time""
""fullscreenenter"",""0"",""6588""
","
","null","run_exp/static/images/Set 6_rs/074a.jpg","null","","","","","","learn","SL",""
"","html-keyboard-response","141","172295","0.0-141.0","""event"",""trial"",""time""
""fullscreenenter"",""0"",""6588""
","
","
","""event"",""trial"",""time""
""fullscreenenter"",""0"",""6588""
","
","null","<p></p>","null","","","","","","","",""
"","image","142","173703","0.0-142.0","""event"",""trial"",""time""
""fullscreenenter"",""0"",""6588""
","
","
","""event"",""trial"",""time""
""fullscreenenter"",""0"",""6588""
","
","1407.4000000022352","run_exp/static/images/Set 6_rs/123a.jpg","78","","","","","","learn","SL",""
"","show_choice","143","174299","0.0-143.0","""event"",""trial"",""time""
""fullscreenenter"",""0"",""6588""
","
","
","""event"",""trial"",""time""
""fullscreenenter"",""0"",""6588""
","
","null","run_exp/static/images/Set 6_rs/123a.jpg","null","","","","","","learn","SL",""
"","html-keyboard-response","144","174800","0.0-144.0","""event"",""trial"",""time""
""fullscreenenter"",""0"",""6588""
","
","
","""event"",""trial"",""time""
""fullscreenenter"",""0"",""6588""
","
","null","<p></p>","null","","","","","","","",""
"","image","145","176182","0.0-145.0","""event"",""trial"",""time""
""fullscreenenter"",""0"",""6588""
","
","
","""event"",""trial"",""time""
""fullscreenenter"",""0"",""6588""
","
","1381.4000000022352","run_exp/static/images/Set 6_rs/122a.jpg","78","","","","","","learn","SR",""
"","show_choice","146","176803","0.0-146.0","""event"",""trial"",""time""
""fullscreenenter"",""0"",""6588""
","
","
","""event"",""trial"",""time""
""fullscreenenter"",""0"",""6588""
","
","null","run_exp/static/images/Set 6_rs/122a.jpg","null","","","","","","learn","SR",""
"","html-keyboard-response","147","177306","0.0-147.0","""event"",""trial"",""time""
""fullscreenenter"",""0"",""6588""
","
","
","""event"",""trial"",""time""
""fullscreenenter"",""0"",""6588""
","
","null","<p></p>","null","","","","","","","",""
"","image","148","177412","0.0-148.0","""event"",""trial"",""time""
""fullscreenenter"",""0"",""6588""
","
","
","""event"",""trial"",""time""
""fullscreenenter"",""0"",""6588""
","
","104.69999999925494","run_exp/static/images/Set 6_rs/132a.jpg","86","","","","","","learn","SR",""
"","show_choice","149","179313","0.0-149.0","""event"",""trial"",""time""
""fullscreenenter"",""0"",""6588""
","
","
","""event"",""trial"",""time""
""fullscreenenter"",""0"",""6588""
","
","null","run_exp/static/images/Set 6_rs/132a.jpg","null","","","","","","learn","SR",""
"","html-keyboard-response","150","179815","0.0-150.0","""event"",""trial"",""time""
""fullscreenenter"",""0"",""6588""
","
","
","""event"",""trial"",""time""
""fullscreenenter"",""0"",""6588""
","
","null","<p></p>","null","","","","","","","",""
"","image","151","181143","0.0-151.0","""event"",""trial"",""time""
""fullscreenenter"",""0"",""6588""
","
","
","""event"",""trial"",""time""
""fullscreenenter"",""0"",""6588""
","
","1327.199999999255","run_exp/static/images/Set 6_rs/057a.jpg","86","","","","","","learn","SL",""
"","show_choice","152","181816","0.0-152.0","""event"",""trial"",""time""
""fullscreenenter"",""0"",""6588""
","
","
","""event"",""trial"",""time""
""fullscreenenter"",""0"",""6588""
","
","null","run_exp/static/images/Set 6_rs/057a.jpg","null","","","","","","learn","SL",""
"","html-keyboard-response","153","182319","0.0-153.0","""event"",""trial"",""time""
""fullscreenenter"",""0"",""6588""
","
","
","""event"",""trial"",""time""
""fullscreenenter"",""0"",""6588""
","
","null","<p></p>","null","","","","","","","",""
"","image","154","183604","0.0-154.0","""event"",""trial"",""time""
""fullscreenenter"",""0"",""6588""
","
","
","""event"",""trial"",""time""
""fullscreenenter"",""0"",""6588""
","
","1284.6000000014901","run_exp/static/images/Set 6_rs/169a.jpg","78","","","","","","learn","SR",""
"","show_choice","155","184321","0.0-155.0","""event"",""trial"",""time""
""fullscreenenter"",""0"",""6588""
","
","
","""event"",""trial"",""time""
""fullscreenenter"",""0"",""6588""
","
","null","run_exp/static/images/Set 6_rs/169a.jpg","null","","","","","","learn","SR",""
"","html-keyboard-response","156","184824","0.0-156.0","""event"",""trial"",""time""
""fullscreenenter"",""0"",""6588""
","
","
","""event"",""trial"",""time""
""fullscreenenter"",""0"",""6588""
","
","null","<p></p>","null","","","","","","","",""
"","image","157","186161","0.0-157.0","""event"",""trial"",""time""
""fullscreenenter"",""0"",""6588""
","
","
","""event"",""trial"",""time""
""fullscreenenter"",""0"",""6588""
","
","1336.300000000745","run_exp/static/images/Set 6_rs/025a.jpg","78","","","","","","learn","SL",""
"","show_choice","158","186828","0.0-158.0","""event"",""trial"",""time""
""fullscreenenter"",""0"",""6588""
","
","
","""event"",""trial"",""time""
""fullscreenenter"",""0"",""6588""
","
","null","run_exp/static/images/Set 6_rs/025a.jpg","null","","","","","","learn","SL",""
"","html-keyboard-response","159","187330","0.0-159.0","""event"",""trial"",""time""
""fullscreenenter"",""0"",""6588""
","
","
","""event"",""trial"",""time""
""fullscreenenter"",""0"",""6588""
","
","null","<p></p>","null","","","","","","","",""
"","image","160","189209","0.0-160.0","""event"",""trial"",""time""
""fullscreenenter"",""0"",""6588""
","
","
","""event"",""trial"",""time""
""fullscreenenter"",""0"",""6588""
","
","1877.199999999255","run_exp/static/images/Set 6_rs/168a.jpg","86","","","","","","learn","SL",""
"","show_choice","161","189332","0.0-161.0","""event"",""trial"",""time""
""fullscreenenter"",""0"",""6588""
","
","
","""event"",""trial"",""time""
""fullscreenenter"",""0"",""6588""
","
","null","run_exp/static/images/Set 6_rs/168a.jpg","null","","","","","","learn","SL",""
"","html-keyboard-response","162","189833","0.0-162.0","""event"",""trial"",""time""
""fullscreenenter"",""0"",""6588""
","
","
","""event"",""trial"",""time""
""fullscreenenter"",""0"",""6588""
","
","null","<p></p>","null","","","","","","","",""
"","image","163","191839","0.0-163.0","""event"",""trial"",""time""
""fullscreenenter"",""0"",""6588""
","
","
","""event"",""trial"",""time""
""fullscreenenter"",""0"",""6588""
","
","null","run_exp/static/images/Set 6_rs/108a.jpg","null","","","","","","learn","SR",""
"","show_choice","164","193842","0.0-164.0","""event"",""trial"",""time""
""fullscreenenter"",""0"",""6588""
","
","
","""event"",""trial"",""time""
""fullscreenenter"",""0"",""6588""
","
","null","run_exp/static/images/blank.png","null","","","","","","learn","SR",""
"","html-keyboard-response","165","194348","0.0-165.0","""event"",""trial"",""time""
""fullscreenenter"",""0"",""6588""
","
","
","""event"",""trial"",""time""
""fullscreenenter"",""0"",""6588""
","
","null","<p></p>","null","","","","","","","",""
"","image","166","195351","0.0-166.0","""event"",""trial"",""time""
""fullscreenenter"",""0"",""6588""
","
","
","""event"",""trial"",""time""
""fullscreenenter"",""0"",""6588""
","
","1002","run_exp/static/images/Set 6_rs/050a.jpg","86","","","","","","learn","SL",""
"","show_choice","167","196350","0.0-167.0","""event"",""trial"",""time""
""fullscreenenter"",""0"",""6588""
","
","
","""event"",""trial"",""time""
""fullscreenenter"",""0"",""6588""
","
","null","run_exp/static/images/Set 6_rs/050a.jpg","null","","","","","","learn","SL",""
"","html-keyboard-response","168","196853","0.0-168.0","""event"",""trial"",""time""
""fullscreenenter"",""0"",""6588""
","
","
","""event"",""trial"",""time""
""fullscreenenter"",""0"",""6588""
","
","null","<p></p>","null","","","","","","","",""
"","image","169","198136","0.0-169.0","""event"",""trial"",""time""
""fullscreenenter"",""0"",""6588""
","
","
","""event"",""trial"",""time""
""fullscreenenter"",""0"",""6588""
","
","1281.7000000029802","run_exp/static/images/Set 6_rs/191a.jpg","86","","","","","","learn","SL",""
"","show_choice","170","198855","0.0-170.0","""event"",""trial"",""time""
""fullscreenenter"",""0"",""6588""
","
","
","""event"",""trial"",""time""
""fullscreenenter"",""0"",""6588""
","
","null","run_exp/static/images/Set 6_rs/191a.jpg","null","","","","","","learn","SL",""
"","html-keyboard-response","171","199356","0.0-171.0","""event"",""trial"",""time""
""fullscreenenter"",""0"",""6588""
","
","
","""event"",""trial"",""time""
""fullscreenenter"",""0"",""6588""
","
","null","<p></p>","null","","","","","","","",""
"","image","172","200207","0.0-172.0","""event"",""trial"",""time""
""fullscreenenter"",""0"",""6588""
","
","
","""event"",""trial"",""time""
""fullscreenenter"",""0"",""6588""
","
","850.6000000014901","run_exp/static/images/Set 6_rs/095a.jpg","86","","","","","","learn","SL",""
"","show_choice","173","201362","0.0-173.0","""event"",""trial"",""time""
""fullscreenenter"",""0"",""6588""
","
","
","""event"",""trial"",""time""
""fullscreenenter"",""0"",""6588""
","
","null","run_exp/static/images/Set 6_rs/095a.jpg","null","","","","","","learn","SL",""
"","html-keyboard-response","174","201864","0.0-174.0","""event"",""trial"",""time""
""fullscreenenter"",""0"",""6588""
","
","
","""event"",""trial"",""time""
""fullscreenenter"",""0"",""6588""
","
","null","<p></p>","null","","","","","","","",""
"","image","175","203044","0.0-175.0","""event"",""trial"",""time""
""fullscreenenter"",""0"",""6588""
","
","
","""event"",""trial"",""time""
""fullscreenenter"",""0"",""6588""
","
","1178.5999999977648","run_exp/static/images/Set 6_rs/023a.jpg","86","","","","","","learn","SR",""
"","show_choice","176","203870","0.0-176.0","""event"",""trial"",""time""
""fullscreenenter"",""0"",""6588""
","
","
","""event"",""trial"",""time""
""fullscreenenter"",""0"",""6588""
","
","null","run_exp/static/images/Set 6_rs/023a.jpg","null","","","","","","learn","SR",""
"","html-keyboard-response","177","204376","0.0-177.0","""event"",""trial"",""time""
""fullscreenenter"",""0"",""6588""
","
","
","""event"",""trial"",""time""
""fullscreenenter"",""0"",""6588""
","
","null","<p></p>","null","","","","","","","",""
"","image","178","205398","0.0-178.0","""event"",""trial"",""time""
""fullscreenenter"",""0"",""6588""
","
","
","""event"",""trial"",""time""
""fullscreenenter"",""0"",""6588""
","
","1020.2000000029802","run_exp/static/images/Set 6_rs/079a.jpg","86","","","","","","learn","SL",""
"","show_choice","179","206379","0.0-179.0","""event"",""trial"",""time""
""fullscreenenter"",""0"",""6588""
","
","
","""event"",""trial"",""time""
""fullscreenenter"",""0"",""6588""
","
","null","run_exp/static/images/Set 6_rs/079a.jpg","null","","","","","","learn","SL",""
"","html-keyboard-response","180","206880","0.0-180.0","""event"",""trial"",""time""
""fullscreenenter"",""0"",""6588""
","
","
","""event"",""trial"",""time""
""fullscreenenter"",""0"",""6588""
","
","null","<p></p>","null","","","","","","","",""
"","image","181","207918","0.0-181.0","""event"",""trial"",""time""
""fullscreenenter"",""0"",""6588""
","
","
","""event"",""trial"",""time""
""fullscreenenter"",""0"",""6588""
","
","1036","run_exp/static/images/Set 6_rs/007a.jpg","86","","","","","","learn","SR",""
"","show_choice","182","208885","0.0-182.0","""event"",""trial"",""time""
""fullscreenenter"",""0"",""6588""
","
","
","""event"",""trial"",""time""
""fullscreenenter"",""0"",""6588""
","
","null","run_exp/static/images/Set 6_rs/007a.jpg","null","","","","","","learn","SR",""
"","html-keyboard-response","183","209391","0.0-183.0","""event"",""trial"",""time""
""fullscreenenter"",""0"",""6588""
","
","
","""event"",""trial"",""time""
""fullscreenenter"",""0"",""6588""
","
","null","<p></p>","null","","","","","","","",""
"","image","184","210515","0.0-184.0","""event"",""trial"",""time""
""fullscreenenter"",""0"",""6588""
","
","
","""event"",""trial"",""time""
""fullscreenenter"",""0"",""6588""
","
","1122.800000000745","run_exp/static/images/Set 6_rs/166a.jpg","86","","","","","","learn","SR",""
"","show_choice","185","211394","0.0-185.0","""event"",""trial"",""time""
""fullscreenenter"",""0"",""6588""
","
","
","""event"",""trial"",""time""
""fullscreenenter"",""0"",""6588""
","
","null","run_exp/static/images/Set 6_rs/166a.jpg","null","","","","","","learn","SR",""
"","html-keyboard-response","186","211898","0.0-186.0","""event"",""trial"",""time""
""fullscreenenter"",""0"",""6588""
","
","
","""event"",""trial"",""time""
""fullscreenenter"",""0"",""6588""
","
","null","<p></p>","null","","","","","","","",""
"","image","187","213126","0.0-187.0","""event"",""trial"",""time""
""fullscreenenter"",""0"",""6588""
","
","
","""event"",""trial"",""time""
""fullscreenenter"",""0"",""6588""
","
","1227.5","run_exp/static/images/Set 6_rs/131a.jpg","86","","","","","","learn","SR",""
"","show_choice","188","213904","0.0-188.0","""event"",""trial"",""time""
""fullscreenenter"",""0"",""6588""
","
","
","""event"",""trial"",""time""
""fullscreenenter"",""0"",""6588""
","
","null","run_exp/static/images/Set 6_rs/131a.jpg","null","","","","","","learn","SR",""
"","html-keyboard-response","189","214406","0.0-189.0","""event"",""trial"",""time""
""fullscreenenter"",""0"",""6588""
","
","
","""event"",""trial"",""time""
""fullscreenenter"",""0"",""6588""
","
","null","<p></p>","null","","","","","","","",""
"","image","190","215481","0.0-190.0","""event"",""trial"",""time""
""fullscreenenter"",""0"",""6588""
","
","
","""event"",""trial"",""time""
""fullscreenenter"",""0"",""6588""
","
","1073.4000000022352","run_exp/static/images/Set 6_rs/116a.jpg","86","","","","","","learn","SL",""
"","show_choice","191","216413","0.0-191.0","""event"",""trial"",""time""
""fullscreenenter"",""0"",""6588""
","
","
","""event"",""trial"",""time""
""fullscreenenter"",""0"",""6588""
","
","null","run_exp/static/images/Set 6_rs/116a.jpg","null","","","","","","learn","SL",""
"","html-keyboard-response","192","216914","0.0-192.0","""event"",""trial"",""time""
""fullscreenenter"",""0"",""6588""
","
","
","""event"",""trial"",""time""
""fullscreenenter"",""0"",""6588""
","
","null","<p></p>","null","","","","","","","",""
"","image","193","218303","0.0-193.0","""event"",""trial"",""time""
""fullscreenenter"",""0"",""6588""
","
","
","""event"",""trial"",""time""
""fullscreenenter"",""0"",""6588""
","
","1388.0999999977648","run_exp/static/images/Set 6_rs/134a.jpg","86","","","","","","learn","SR",""
"","show_choice","194","218920","0.0-194.0","""event"",""trial"",""time""
""fullscreenenter"",""0"",""6588""
","
","
","""event"",""trial"",""time""
""fullscreenenter"",""0"",""6588""
","
","null","run_exp/static/images/Set 6_rs/134a.jpg","null","","","","","","learn","SR",""
"","html-keyboard-response","195","219426","0.0-195.0","""event"",""trial"",""time""
""fullscreenenter"",""0"",""6588""
","
","
","""event"",""trial"",""time""
""fullscreenenter"",""0"",""6588""
","
","null","<p></p>","null","","","","","","","",""
"","test_intro","196","256463","0.0-196.0","""event"",""trial"",""time""
""fullscreenenter"",""0"",""6588""
","
","
","""event"",""trial"",""time""
""fullscreenenter"",""0"",""6588""
","
","null","run_exp/static/audio/clip_2_memory.m4a","null","","","","","<div class='center'><p>Now, lets see how much you remember about the items you just saw.  For each item, you need to indicate if it was <b>old</b> by pressing the <b>v</b> key, <b>similar</b> by pressing the <b>b</b> key, or <b>new</b> by pressing the <b>n</b> key.</p><p>Old refers to an item that you saw before in the indoor/outdoor game that you just played, new refers to an item you have <b>not</b> seen before within the indoor/outdoor game, and similar refers to an item that is similar to an item youve seen before but is not exactly the same. </p><p>Before we begin, lets go over some brief demonstrations to make sure you understand.</p></div>","","",""
"","html-keyboard-response","197","257360","0.0-197.0","""event"",""trial"",""time""
""fullscreenenter"",""0"",""6588""
","
","
","""event"",""trial"",""time""
""fullscreenenter"",""0"",""6588""
","
","895.8999999985099","<div class='center'><p>Now, lets see how much you remember about the items you just saw.  For each item, you need to indicate if it was <b>old</b> by pressing the <b>v</b> key, <b>similar</b> by pressing the <b>b</b> key, or <b>new</b> by pressing the <b>n</b> key.</p><p>Old refers to an item that you saw before in the indoor/outdoor game that you just played, new refers to an item you have <b>not</b> seen before within the indoor/outdoor game, and similar refers to an item that is similar to an item youve seen before but is not exactly the same. </p><p>Before we begin, lets go over some brief demonstrations to make sure you understand.</p><div><p><b>[Press the space bar to continue]</b></p></div>","32","","","","","","","",""
"","items","198","264862","0.0-198.0","""event"",""trial"",""time""
""fullscreenenter"",""0"",""6588""
","
","
","""event"",""trial"",""time""
""fullscreenenter"",""0"",""6588""
","
","null","run_exp/static/audio/clip_3_items.m4a","null","","","","","","","",""
"","mop","199","269368","0.0-199.0","""event"",""trial"",""time""
""fullscreenenter"",""0"",""6588""
","
","
","""event"",""trial"",""time""
""fullscreenenter"",""0"",""6588""
","
","null","run_exp/static/audio/clip_4_mop.m4a","null","","","","","","","",""
"","baseball","200","272875","0.0-200.0","""event"",""trial"",""time""
""fullscreenenter"",""0"",""6588""
","
","
","""event"",""trial"",""time""
""fullscreenenter"",""0"",""6588""
","
","null","run_exp/static/audio/clip_5_baseball.m4a","null","","","","","","","",""
"","trumpet","201","276378","0.0-201.0","""event"",""trial"",""time""
""fullscreenenter"",""0"",""6588""
","
","
","""event"",""trial"",""time""
""fullscreenenter"",""0"",""6588""
","
","null","run_exp/static/audio/clip_6_trumpet.m4a","null","","","","","","","",""
"","gummies","202","279884","0.0-202.0","""event"",""trial"",""time""
""fullscreenenter"",""0"",""6588""
","
","
","""event"",""trial"",""time""
""fullscreenenter"",""0"",""6588""
","
","null","run_exp/static/audio/clip_7_gummies.m4a","null","","","","","","","",""
"","osn","203","284386","0.0-203.0","""event"",""trial"",""time""
""fullscreenenter"",""0"",""6588""
","
","
","""event"",""trial"",""time""
""fullscreenenter"",""0"",""6588""
","
","null","run_exp/static/audio/clip_8_osn.m4a","null","","","","","","","",""
"","old_1","204","290890","0.0-204.0","""event"",""trial"",""time""
""fullscreenenter"",""0"",""6588""
","
","
","""event"",""trial"",""time""
""fullscreenenter"",""0"",""6588""
","
","null","run_exp/static/audio/clip_9_old_trumpet.m4a","null","","","","","","","",""
"","new_1","205","298394","0.0-205.0","""event"",""trial"",""time""
""fullscreenenter"",""0"",""6588""
","
","
","""event"",""trial"",""time""
""fullscreenenter"",""0"",""6588""
","
","null","run_exp/static/audio/clip_10_new_balloon.m4a","null","","","","","","","",""
"","similar_1a","206","302900","0.0-206.0","""event"",""trial"",""time""
""fullscreenenter"",""0"",""6588""
","
","
","""event"",""trial"",""time""
""fullscreenenter"",""0"",""6588""
","
","null","run_exp/static/audio/clip_11a_similar_mop.m4a","null","","","","","","","",""
"","similar_1b","207","309404","0.0-207.0","""event"",""trial"",""time""
""fullscreenenter"",""0"",""6588""
","
","
","""event"",""trial"",""time""
""fullscreenenter"",""0"",""6588""
","
","null","run_exp/static/audio/clip_11b_similar_mop.m4a","null","","","","","","","",""
"","new_2","208","312907","0.0-208.0","""event"",""trial"",""time""
""fullscreenenter"",""0"",""6588""
","
","
","""event"",""trial"",""time""
""fullscreenenter"",""0"",""6588""
","
","null","run_exp/static/audio/clip_12_new_stoplight.m4a","null","","","","","","","",""
"","old_2","209","316410","0.0-209.0","""event"",""trial"",""time""
""fullscreenenter"",""0"",""6588""
","
","
","""event"",""trial"",""time""
""fullscreenenter"",""0"",""6588""
","
","null","run_exp/static/audio/clip_13_old_baseball.m4a","null","","","","","","","",""
"","similar_2a","210","319916","0.0-210.0","""event"",""trial"",""time""
""fullscreenenter"",""0"",""6588""
","
","
","""event"",""trial"",""time""
""fullscreenenter"",""0"",""6588""
","
","null","run_exp/static/audio/clip_14a_similar_gummies.m4a","null","","","","","","","",""
"","similar_2b","211","327422","0.0-211.0","""event"",""trial"",""time""
""fullscreenenter"",""0"",""6588""
","
","
","""event"",""trial"",""time""
""fullscreenenter"",""0"",""6588""
","
","null","run_exp/static/audio/clip_14b_similar_gummies.m4a","null","","","","","","","",""
"","practice","212","369521","0.0-212.0","""event"",""trial"",""time""
""fullscreenenter"",""0"",""6588""
","
","
","""event"",""trial"",""time""
""fullscreenenter"",""0"",""6588""
","
","null","run_exp/static/audio/clip_15_practice.m4a","null","","","","","<div class='center'><p>Lets practice a little to make sure you understand the difference between new, similar, and old. Lets say you saw these three items in the indoor/outdoor game.</p><p> Try your best to remember these images because youll soon be tested on them in a practice game. In the practice game, youll be shown images and youll have to say if they are old (one of the three images belows), similar (similar to one of the images below but not exactly the same), or new (are not one of the images below nor similar to them).</p><p>Once you press the space bar youll be shown these images again but one at time. Then youll begin the practice game.</p><p><img src='run_exp/static/images/tutorial/test/three_indoor_outdoor.png' height='300'></p></div>","","",""
"","html-keyboard-response","213","370376","0.0-213.0","""event"",""trial"",""time""
""fullscreenenter"",""0"",""6588""
","
","
","""event"",""trial"",""time""
""fullscreenenter"",""0"",""6588""
","
","853.1000000014901","<div class='center'><p>Lets practice a little to make sure you understand the difference between new, similar, and old. Lets say you saw these three items in the indoor/outdoor game.</p><p> Try your best to remember these images because youll soon be tested on them in a practice game. In the practice game, youll be shown images and youll have to say if they are old (one of the three images belows), similar (similar to one of the images below but not exactly the same), or new (are not one of the images below nor similar to them).</p><p>Once you press the space bar youll be shown these images again but one at time. Then youll begin the practice game.</p><p><img src='run_exp/static/images/tutorial/test/three_indoor_outdoor.png' height='300'></p><div><p><b>[Press the space bar to continue]</b></p></div>","32","","","","","","","",""
"","planet","214","372381","0.0-214.0","""event"",""trial"",""time""
""fullscreenenter"",""0"",""6588""
","
","
","""event"",""trial"",""time""
""fullscreenenter"",""0"",""6588""
","
","null","run_exp/static/images/tutorial/test/008a.jpg","null","","","","","","","",""
"","boot","215","374383","0.0-215.0","""event"",""trial"",""time""
""fullscreenenter"",""0"",""6588""
","
","
","""event"",""trial"",""time""
""fullscreenenter"",""0"",""6588""
","
","null","run_exp/static/images/tutorial/test/011a.jpg","null","","","","","","","",""
"","lemon","216","376384","0.0-216.0","""event"",""trial"",""time""
""fullscreenenter"",""0"",""6588""
","
","
","""event"",""trial"",""time""
""fullscreenenter"",""0"",""6588""
","
","null","run_exp/static/images/tutorial/test/018a.jpg","null","","","","","","","",""
"","practice_q1","217","381534","0.0-217.0","""event"",""trial"",""time""
""fullscreenenter"",""0"",""6588""
","
","
","""event"",""trial"",""time""
""fullscreenenter"",""0"",""6588""
","
","5149.199999999255","run_exp/static/audio/clip_16_practice_question.m4a","78","","","","","","","",""
"","correct","218","383407","0.0-218.0-0.0","""event"",""trial"",""time""
""fullscreenenter"",""0"",""6588""
","
","
","""event"",""trial"",""time""
""fullscreenenter"",""0"",""6588""
","
","null","run_exp/static/audio/clip_17_correct.m4a","null","","","","","<div class='center'><p>That's correct!</p></div>","","",""
"","html-keyboard-response","219","384939","0.0-218.0-1.0","""event"",""trial"",""time""
""fullscreenenter"",""0"",""6588""
","
","
","""event"",""trial"",""time""
""fullscreenenter"",""0"",""6588""
","
","1531.5","<div class='center'><p>That's correct!</p><div><p><b>[Press the space bar to continue]</b></p></div>","32","","","","","","","",""
"","practice_q2","220","386519","0.0-218.0-2.0","""event"",""trial"",""time""
""fullscreenenter"",""0"",""6588""
","
","
","""event"",""trial"",""time""
""fullscreenenter"",""0"",""6588""
","
","1578.800000000745","run_exp/static/audio/clip_16_practice_question.m4a","86","","","","","","","",""
"","correct","221","388399","0.0-219.0-0.0","""event"",""trial"",""time""
""fullscreenenter"",""0"",""6588""
","
","
","""event"",""trial"",""time""
""fullscreenenter"",""0"",""6588""
","
","null","run_exp/static/audio/clip_17_correct.m4a","null","","","","","<div class='center'><p>That's correct!</p></div>","","",""
"","html-keyboard-response","222","389119","0.0-219.0-1.0","""event"",""trial"",""time""
""fullscreenenter"",""0"",""6588""
","
","
","""event"",""trial"",""time""
""fullscreenenter"",""0"",""6588""
","
","719.1000000014901","<div class='center'><p>That's correct!</p><div><p><b>[Press the space bar to continue]</b></p></div>","32","","","","","","","",""
"","practice_q3","223","390039","0.0-219.0-2.0","""event"",""trial"",""time""
""fullscreenenter"",""0"",""6588""
","
","
","""event"",""trial"",""time""
""fullscreenenter"",""0"",""6588""
","
","919.1000000014901","run_exp/static/audio/clip_16_practice_question.m4a","86","","","","","","","",""
"","incorrect_q3","224","392764","0.0-220.0-0.0","""event"",""trial"",""time""
""fullscreenenter"",""0"",""6588""
","
","
","""event"",""trial"",""time""
""fullscreenenter"",""0"",""6588""
","
","null","run_exp/static/audio/clip_20_incorrect_similar.m4a","null","","","","","<div class='center'><p>Thats incorrect. Its similar.</p><p><img src='run_exp/static/images/tutorial/test/boot_comparison.png' height='300'></p></div>","","",""
"","html-keyboard-response","225","394270","0.0-220.0-1.0","""event"",""trial"",""time""
""fullscreenenter"",""0"",""6588""
","
","
","""event"",""trial"",""time""
""fullscreenenter"",""0"",""6588""
","
","1504.199999999255","<div class='center'><p>Thats incorrect. Its similar.</p><p><img src='run_exp/static/images/tutorial/test/boot_comparison.png' height='300'></p><div><p><b>[Press the space bar to continue]</b></p></div>","32","","","","","","","",""
"","repeat","226","399010","0.0-221.0-0.0","""event"",""trial"",""time""
""fullscreenenter"",""0"",""6588""
","
","
","""event"",""trial"",""time""
""fullscreenenter"",""0"",""6588""
","
","null","run_exp/static/audio/clip_21_practice_again.m4a","null","","","","","<div class='center'><p>Oops. you missed at least one of these questions. Let's try practicing again. </p></div>","","",""
"","html-keyboard-response","227","399938","0.0-221.0-1.0","""event"",""trial"",""time""
""fullscreenenter"",""0"",""6588""
","
","
","""event"",""trial"",""time""
""fullscreenenter"",""0"",""6588""
","
","926.6999999992549","<div class='center'><p>Oops. you missed at least one of these questions. Let's try practicing again. </p><div><p><b>[Press the space bar to continue]</b></p></div>","32","","","","","","","",""
"","practice_q1","228","401949","0.0-221.0-2.0","""event"",""trial"",""time""
""fullscreenenter"",""0"",""6588""
","
","
","""event"",""trial"",""time""
""fullscreenenter"",""0"",""6588""
","
","2009.6000000014901","run_exp/static/audio/clip_16_practice_question.m4a","86","","","","","","","",""
"","incorrect_q1","229","404769","0.0-222.0-0.0","""event"",""trial"",""time""
""fullscreenenter"",""0"",""6588""
","
","
","""event"",""trial"",""time""
""fullscreenenter"",""0"",""6588""
","
","null","run_exp/static/audio/clip_18_incorrect_new.m4a","null","","","","","<div class='center'><p>Thats incorrect. Its new.</p></div>","","",""
"","html-keyboard-response","230","405549","0.0-222.0-1.0","""event"",""trial"",""time""
""fullscreenenter"",""0"",""6588""
","
","
","""event"",""trial"",""time""
""fullscreenenter"",""0"",""6588""
","
","778.3999999985099","<div class='center'><p>Thats incorrect. Its new.</p><div><p><b>[Press the space bar to continue]</b></p></div>","32","","","","","","","",""
"","practice_q2","231","406639","0.0-222.0-2.0","""event"",""trial"",""time""
""fullscreenenter"",""0"",""6588""
","
","
","""event"",""trial"",""time""
""fullscreenenter"",""0"",""6588""
","
","1089.9000000022352","run_exp/static/audio/clip_16_practice_question.m4a","86","","","","","","","",""
"","correct","232","408508","0.0-223.0-0.0","""event"",""trial"",""time""
""fullscreenenter"",""0"",""6588""
","
","
","""event"",""trial"",""time""
""fullscreenenter"",""0"",""6588""
","
","null","run_exp/static/audio/clip_17_correct.m4a","null","","","","","<div class='center'><p>That's correct!</p></div>","","",""
"","html-keyboard-response","233","409252","0.0-223.0-1.0","""event"",""trial"",""time""
""fullscreenenter"",""0"",""6588""
","
","
","""event"",""trial"",""time""
""fullscreenenter"",""0"",""6588""
","
","743.1000000014901","<div class='center'><p>That's correct!</p><div><p><b>[Press the space bar to continue]</b></p></div>","32","","","","","","","",""
"","practice_q3","234","410848","0.0-223.0-2.0","""event"",""trial"",""time""
""fullscreenenter"",""0"",""6588""
","
","
","""event"",""trial"",""time""
""fullscreenenter"",""0"",""6588""
","
","1595.1000000014901","run_exp/static/audio/clip_16_practice_question.m4a","66","","","","","","","",""
"","correct","235","412710","0.0-224.0-0.0","""event"",""trial"",""time""
""fullscreenenter"",""0"",""6588""
","
","
","""event"",""trial"",""time""
""fullscreenenter"",""0"",""6588""
","
","null","run_exp/static/audio/clip_17_correct.m4a","null","","","","","<div class='center'><p>That's correct!</p></div>","","",""
"","html-keyboard-response","236","413470","0.0-224.0-1.0","""event"",""trial"",""time""
""fullscreenenter"",""0"",""6588""
","
","
","""event"",""trial"",""time""
""fullscreenenter"",""0"",""6588""
","
","758.5999999977648","<div class='center'><p>That's correct!</p><div><p><b>[Press the space bar to continue]</b></p></div>","32","","","","","","","",""
"","repeat","237","418190","0.0-225.0-0.0","""event"",""trial"",""time""
""fullscreenenter"",""0"",""6588""
","
","
","""event"",""trial"",""time""
""fullscreenenter"",""0"",""6588""
","
","null","run_exp/static/audio/clip_21_practice_again.m4a","null","","","","","<div class='center'><p>Oops. you missed at least one of these questions. Let's try practicing again. </p></div>","","",""
"","html-keyboard-response","238","418668","0.0-225.0-1.0","""event"",""trial"",""time""
""fullscreenenter"",""0"",""6588""
","
","
","""event"",""trial"",""time""
""fullscreenenter"",""0"",""6588""
","
","477","<div class='center'><p>Oops. you missed at least one of these questions. Let's try practicing again. </p><div><p><b>[Press the space bar to continue]</b></p></div>","32","","","","","","","",""
"","practice_q1","239","420355","0.0-225.0-2.0","""event"",""trial"",""time""
""fullscreenenter"",""0"",""6588""
","
","
","""event"",""trial"",""time""
""fullscreenenter"",""0"",""6588""
","
","1685.5999999977648","run_exp/static/audio/clip_16_practice_question.m4a","78","","","","","","","",""
"","correct","240","422231","0.0-226.0-0.0","""event"",""trial"",""time""
""fullscreenenter"",""0"",""6588""
","
","
","""event"",""trial"",""time""
""fullscreenenter"",""0"",""6588""
","
","null","run_exp/static/audio/clip_17_correct.m4a","null","","","","","<div class='center'><p>That's correct!</p></div>","","",""
"","html-keyboard-response","241","423027","0.0-226.0-1.0","""event"",""trial"",""time""
""fullscreenenter"",""0"",""6588""
","
","
","""event"",""trial"",""time""
""fullscreenenter"",""0"",""6588""
","
","795.3999999985099","<div class='center'><p>That's correct!</p><div><p><b>[Press the space bar to continue]</b></p></div>","32","","","","","","","",""
"","practice_q2","242","423927","0.0-226.0-2.0","""event"",""trial"",""time""
""fullscreenenter"",""0"",""6588""
","
","
","""event"",""trial"",""time""
""fullscreenenter"",""0"",""6588""
","
","899.2000000029802","run_exp/static/audio/clip_16_practice_question.m4a","86","","","","","","","",""
"","correct","243","425806","0.0-227.0-0.0","""event"",""trial"",""time""
""fullscreenenter"",""0"",""6588""
","
","
","""event"",""trial"",""time""
""fullscreenenter"",""0"",""6588""
","
","null","run_exp/static/audio/clip_17_correct.m4a","null","","","","","<div class='center'><p>That's correct!</p></div>","","",""
"","html-keyboard-response","244","426203","0.0-227.0-1.0","""event"",""trial"",""time""
""fullscreenenter"",""0"",""6588""
","
","
","""event"",""trial"",""time""
""fullscreenenter"",""0"",""6588""
","
","395.30000000074506","<div class='center'><p>That's correct!</p><div><p><b>[Press the space bar to continue]</b></p></div>","32","","","","","","","",""
"","practice_q3","245","426843","0.0-227.0-2.0","""event"",""trial"",""time""
""fullscreenenter"",""0"",""6588""
","
","
","""event"",""trial"",""time""
""fullscreenenter"",""0"",""6588""
","
","639.4000000022352","run_exp/static/audio/clip_16_practice_question.m4a","66","","","","","","","",""
"","correct","246","428848","0.0-228.0-0.0","""event"",""trial"",""time""
""fullscreenenter"",""0"",""6588""
","
","
","""event"",""trial"",""time""
""fullscreenenter"",""0"",""6588""
","
","null","run_exp/static/audio/clip_17_correct.m4a","null","","","","","<div class='center'><p>That's correct!</p></div>","","",""
"","html-keyboard-response","247","429289","0.0-228.0-1.0","""event"",""trial"",""time""
""fullscreenenter"",""0"",""6588""
","
","
","""event"",""trial"",""time""
""fullscreenenter"",""0"",""6588""
","
","439.69999999925494","<div class='center'><p>That's correct!</p><div><p><b>[Press the space bar to continue]</b></p></div>","32","","","","","","","",""
"","begin_text","248","447749","0.0-229.0-0.0","""event"",""trial"",""time""
""fullscreenenter"",""0"",""6588""
","
","
","""event"",""trial"",""time""
""fullscreenenter"",""0"",""6588""
","
","null","run_exp/static/audio/clip_22_begin_test.m4a","null","","","","","<div class='center'><p>On to the real game where well test your memory of items from the indoor/outdoor game. For each item, you need to indicate if the item is <b>old</b> by pressing the <b>v</b> key, <b>similar</b> by pressing the <b>b</b> key, or <b>new</b> by pressing the <b>n</b> key. </p></div>","","",""
"","html-keyboard-response","249","448203","0.0-229.0-1.0","""event"",""trial"",""time""
""fullscreenenter"",""0"",""6588""
","
","
","""event"",""trial"",""time""
""fullscreenenter"",""0"",""6588""
","
","452.5999999977648","<div class='center'><p>On to the real game where well test your memory of items from the indoor/outdoor game. For each item, you need to indicate if the item is <b>old</b> by pressing the <b>v</b> key, <b>similar</b> by pressing the <b>b</b> key, or <b>new</b> by pressing the <b>n</b> key. </p><div><p><b>[Press the space bar to continue]</b></p></div>","32","","","","","","","",""
"","image","250","449370","0.0-230.0-0.0","""event"",""trial"",""time""
""fullscreenenter"",""0"",""6588""
","
","
","""event"",""trial"",""time""
""fullscreenenter"",""0"",""6588""
","
","1166.2000000029802","run_exp/static/images/Set 6_rs/109a.jpg","78","","","","","","test","TF","5"
"","show_choice","251","449872","0.0-230.0-1.0","""event"",""trial"",""time""
""fullscreenenter"",""0"",""6588""
","
","
","""event"",""trial"",""time""
""fullscreenenter"",""0"",""6588""
","
","null","run_exp/static/images/Set 6_rs/109a.jpg","null","","","","","","test","TF",""
"","html-keyboard-response","252","450378","0.0-230.0-2.0","""event"",""trial"",""time""
""fullscreenenter"",""0"",""6588""
","
","
","""event"",""trial"",""time""
""fullscreenenter"",""0"",""6588""
","
","null","<p></p>","null","","","","","","","",""
"","image","253","451711","0.0-231.0-0.0","""event"",""trial"",""time""
""fullscreenenter"",""0"",""6588""
","
","
","""event"",""trial"",""time""
""fullscreenenter"",""0"",""6588""
","
","1332.8999999985099","run_exp/static/images/Set 6_rs/025b.jpg","66","","","","","","test","TL","5"
"","show_choice","254","452215","0.0-231.0-1.0","""event"",""trial"",""time""
""fullscreenenter"",""0"",""6588""
","
","
","""event"",""trial"",""time""
""fullscreenenter"",""0"",""6588""
","
","null","run_exp/static/images/Set 6_rs/025b.jpg","null","","","","","","test","TL",""
"","html-keyboard-response","255","452718","0.0-231.0-2.0","""event"",""trial"",""time""
""fullscreenenter"",""0"",""6588""
","
","
","""event"",""trial"",""time""
""fullscreenenter"",""0"",""6588""
","
","null","<p></p>","null","","","","","","","",""
"","image","256","454416","0.0-232.0-0.0","""event"",""trial"",""time""
""fullscreenenter"",""0"",""6588""
","
","
","""event"",""trial"",""time""
""fullscreenenter"",""0"",""6588""
","
","1697.0999999977648","run_exp/static/images/Set 6_rs/188a.jpg","78","","","","","","test","TF","3"
"","show_choice","257","454922","0.0-232.0-1.0","""event"",""trial"",""time""
""fullscreenenter"",""0"",""6588""
","
","
","""event"",""trial"",""time""
""fullscreenenter"",""0"",""6588""
","
","null","run_exp/static/images/Set 6_rs/188a.jpg","null","","","","","","test","TF",""
"","html-keyboard-response","258","455423","0.0-232.0-2.0","""event"",""trial"",""time""
""fullscreenenter"",""0"",""6588""
","
","
","""event"",""trial"",""time""
""fullscreenenter"",""0"",""6588""
","
","null","<p></p>","null","","","","","","","",""
"","image","259","456287","0.0-233.0-0.0","""event"",""trial"",""time""
""fullscreenenter"",""0"",""6588""
","
","
","""event"",""trial"",""time""
""fullscreenenter"",""0"",""6588""
","
","862.3999999985099","run_exp/static/images/Set 6_rs/079b.jpg","86","","","","","","test","TL","5"
"","show_choice","260","456788","0.0-233.0-1.0","""event"",""trial"",""time""
""fullscreenenter"",""0"",""6588""
","
","
","""event"",""trial"",""time""
""fullscreenenter"",""0"",""6588""
","
","null","run_exp/static/images/Set 6_rs/079b.jpg","null","","","","","","test","TL",""
"","html-keyboard-response","261","457292","0.0-233.0-2.0","""event"",""trial"",""time""
""fullscreenenter"",""0"",""6588""
","
","
","""event"",""trial"",""time""
""fullscreenenter"",""0"",""6588""
","
","null","<p></p>","null","","","","","","","",""
"","image","262","458730","0.0-234.0-0.0","""event"",""trial"",""time""
""fullscreenenter"",""0"",""6588""
","
","
","""event"",""trial"",""time""
""fullscreenenter"",""0"",""6588""
","
","1436.5","run_exp/static/images/Set 6_rs/117b.jpg","66","","","","","","test","TL","5"
"","show_choice","263","459235","0.0-234.0-1.0","""event"",""trial"",""time""
""fullscreenenter"",""0"",""6588""
","
","
","""event"",""trial"",""time""
""fullscreenenter"",""0"",""6588""
","
","null","run_exp/static/images/Set 6_rs/117b.jpg","null","","","","","","test","TL",""
"","html-keyboard-response","264","459736","0.0-234.0-2.0","""event"",""trial"",""time""
""fullscreenenter"",""0"",""6588""
","
","
","""event"",""trial"",""time""
""fullscreenenter"",""0"",""6588""
","
","null","<p></p>","null","","","","","","","",""
"","image","265","461062","0.0-235.0-0.0","""event"",""trial"",""time""
""fullscreenenter"",""0"",""6588""
","
","
","""event"",""trial"",""time""
""fullscreenenter"",""0"",""6588""
","
","1325","run_exp/static/images/Set 6_rs/036b.jpg","66","","","","","","test","TL","4"
"","show_choice","266","461563","0.0-235.0-1.0","""event"",""trial"",""time""
""fullscreenenter"",""0"",""6588""
","
","
","""event"",""trial"",""time""
""fullscreenenter"",""0"",""6588""
","
","null","run_exp/static/images/Set 6_rs/036b.jpg","null","","","","","","test","TL",""
"","html-keyboard-response","267","462069","0.0-235.0-2.0","""event"",""trial"",""time""
""fullscreenenter"",""0"",""6588""
","
","
","""event"",""trial"",""time""
""fullscreenenter"",""0"",""6588""
","
","null","<p></p>","null","","","","","","","",""
"","image","268","463353","0.0-236.0-0.0","""event"",""trial"",""time""
""fullscreenenter"",""0"",""6588""
","
","
","""event"",""trial"",""time""
""fullscreenenter"",""0"",""6588""
","
","1282.199999999255","run_exp/static/images/Set 6_rs/076a.jpg","86","","","","","","test","TR","4"
"","show_choice","269","463854","0.0-236.0-1.0","""event"",""trial"",""time""
""fullscreenenter"",""0"",""6588""
","
","
","""event"",""trial"",""time""
""fullscreenenter"",""0"",""6588""
","
","null","run_exp/static/images/Set 6_rs/076a.jpg","null","","","","","","test","TR",""
"","html-keyboard-response","270","464357","0.0-236.0-2.0","""event"",""trial"",""time""
""fullscreenenter"",""0"",""6588""
","
","
","""event"",""trial"",""time""
""fullscreenenter"",""0"",""6588""
","
","null","<p></p>","null","","","","","","","",""
"","image","271","465797","0.0-237.0-0.0","""event"",""trial"",""time""
""fullscreenenter"",""0"",""6588""
","
","
","""event"",""trial"",""time""
""fullscreenenter"",""0"",""6588""
","
","1438.1000000014901","run_exp/static/images/Set 6_rs/074b.jpg","66","","","","","","test","TL","4"
"","show_choice","272","466302","0.0-237.0-1.0","""event"",""trial"",""time""
""fullscreenenter"",""0"",""6588""
","
","
","""event"",""trial"",""time""
""fullscreenenter"",""0"",""6588""
","
","null","run_exp/static/images/Set 6_rs/074b.jpg","null","","","","","","test","TL",""
"","html-keyboard-response","273","466804","0.0-237.0-2.0","""event"",""trial"",""time""
""fullscreenenter"",""0"",""6588""
","
","
","""event"",""trial"",""time""
""fullscreenenter"",""0"",""6588""
","
","null","<p></p>","null","","","","","","","",""
"","image","274","467944","0.0-238.0-0.0","""event"",""trial"",""time""
""fullscreenenter"",""0"",""6588""
","
","
","""event"",""trial"",""time""
""fullscreenenter"",""0"",""6588""
","
","1138.699999999255","run_exp/static/images/Set 6_rs/131a.jpg","86","","","","","","test","TR","5"
"","show_choice","275","468449","0.0-238.0-1.0","""event"",""trial"",""time""
""fullscreenenter"",""0"",""6588""
","
","
","""event"",""trial"",""time""
""fullscreenenter"",""0"",""6588""
","
","null","run_exp/static/images/Set 6_rs/131a.jpg","null","","","","","","test","TR",""
"","html-keyboard-response","276","468951","0.0-238.0-2.0","""event"",""trial"",""time""
""fullscreenenter"",""0"",""6588""
","
","
","""event"",""trial"",""time""
""fullscreenenter"",""0"",""6588""
","
","null","<p></p>","null","","","","","","","",""
"","image","277","469847","0.0-239.0-0.0","""event"",""trial"",""time""
""fullscreenenter"",""0"",""6588""
","
","
","""event"",""trial"",""time""
""fullscreenenter"",""0"",""6588""
","
","895.1000000014901","run_exp/static/images/Set 6_rs/169a.jpg","86","","","","","","test","TR","4"
"","show_choice","278","470353","0.0-239.0-1.0","""event"",""trial"",""time""
""fullscreenenter"",""0"",""6588""
","
","
","""event"",""trial"",""time""
""fullscreenenter"",""0"",""6588""
","
","null","run_exp/static/images/Set 6_rs/169a.jpg","null","","","","","","test","TR",""
"","html-keyboard-response","279","470855","0.0-239.0-2.0","""event"",""trial"",""time""
""fullscreenenter"",""0"",""6588""
","
","
","""event"",""trial"",""time""
""fullscreenenter"",""0"",""6588""
","
","null","<p></p>","null","","","","","","","",""
"","image","280","471747","0.0-240.0-0.0","""event"",""trial"",""time""
""fullscreenenter"",""0"",""6588""
","
","
","""event"",""trial"",""time""
""fullscreenenter"",""0"",""6588""
","
","890.8000000007451","run_exp/static/images/Set 6_rs/181b.jpg","86","","","","","","test","TL","1"
"","show_choice","281","472252","0.0-240.0-1.0","""event"",""trial"",""time""
""fullscreenenter"",""0"",""6588""
","
","
","""event"",""trial"",""time""
""fullscreenenter"",""0"",""6588""
","
","null","run_exp/static/images/Set 6_rs/181b.jpg","null","","","","","","test","TL",""
"","html-keyboard-response","282","472758","0.0-240.0-2.0","""event"",""trial"",""time""
""fullscreenenter"",""0"",""6588""
","
","
","""event"",""trial"",""time""
""fullscreenenter"",""0"",""6588""
","
","null","<p></p>","null","","","","","","","",""
"","image","283","473702","0.0-241.0-0.0","""event"",""trial"",""time""
""fullscreenenter"",""0"",""6588""
","
","
","""event"",""trial"",""time""
""fullscreenenter"",""0"",""6588""
","
","942.8999999985099","run_exp/static/images/Set 6_rs/063a.jpg","86","","","","","","test","TR","2"
"","show_choice","284","474204","0.0-241.0-1.0","""event"",""trial"",""time""
""fullscreenenter"",""0"",""6588""
","
","
","""event"",""trial"",""time""
""fullscreenenter"",""0"",""6588""
","
","null","run_exp/static/images/Set 6_rs/063a.jpg","null","","","","","","test","TR",""
"","html-keyboard-response","285","474710","0.0-241.0-2.0","""event"",""trial"",""time""
""fullscreenenter"",""0"",""6588""
","
","
","""event"",""trial"",""time""
""fullscreenenter"",""0"",""6588""
","
","null","<p></p>","null","","","","","","","",""
"","image","286","475707","0.0-242.0-0.0","""event"",""trial"",""time""
""fullscreenenter"",""0"",""6588""
","
","
","""event"",""trial"",""time""
""fullscreenenter"",""0"",""6588""
","
","995","run_exp/static/images/Set 6_rs/065a.jpg","66","","","","","","test","TF","3"
"","show_choice","287","476210","0.0-242.0-1.0","""event"",""trial"",""time""
""fullscreenenter"",""0"",""6588""
","
","
","""event"",""trial"",""time""
""fullscreenenter"",""0"",""6588""
","
","null","run_exp/static/images/Set 6_rs/065a.jpg","null","","","","","","test","TF",""
"","html-keyboard-response","288","476716","0.0-242.0-2.0","""event"",""trial"",""time""
""fullscreenenter"",""0"",""6588""
","
","
","""event"",""trial"",""time""
""fullscreenenter"",""0"",""6588""
","
","null","<p></p>","null","","","","","","","",""
"","image","289","478177","0.0-243.0-0.0","""event"",""trial"",""time""
""fullscreenenter"",""0"",""6588""
","
","
","""event"",""trial"",""time""
""fullscreenenter"",""0"",""6588""
","
","1459.699999999255","run_exp/static/images/Set 6_rs/005a.jpg","86","","","","","","test","TF","5"
"","show_choice","290","478682","0.0-243.0-1.0","""event"",""trial"",""time""
""fullscreenenter"",""0"",""6588""
","
","
","""event"",""trial"",""time""
""fullscreenenter"",""0"",""6588""
","
","null","run_exp/static/images/Set 6_rs/005a.jpg","null","","","","","","test","TF",""
"","html-keyboard-response","291","479183","0.0-243.0-2.0","""event"",""trial"",""time""
""fullscreenenter"",""0"",""6588""
","
","
","""event"",""trial"",""time""
""fullscreenenter"",""0"",""6588""
","
","null","<p></p>","null","","","","","","","",""
"","image","292","481074","0.0-244.0-0.0","""event"",""trial"",""time""
""fullscreenenter"",""0"",""6588""
","
","
","""event"",""trial"",""time""
""fullscreenenter"",""0"",""6588""
","
","1889.699999999255","run_exp/static/images/Set 6_rs/133a.jpg","78","","","","","","test","TF","4"
"","show_choice","293","481580","0.0-244.0-1.0","""event"",""trial"",""time""
""fullscreenenter"",""0"",""6588""
","
","
","""event"",""trial"",""time""
""fullscreenenter"",""0"",""6588""
","
","null","run_exp/static/images/Set 6_rs/133a.jpg","null","","","","","","test","TF",""
"","html-keyboard-response","294","482086","0.0-244.0-2.0","""event"",""trial"",""time""
""fullscreenenter"",""0"",""6588""
","
","
","""event"",""trial"",""time""
""fullscreenenter"",""0"",""6588""
","
","null","<p></p>","null","","","","","","","",""
"","image","295","483232","0.0-245.0-0.0","""event"",""trial"",""time""
""fullscreenenter"",""0"",""6588""
","
","
","""event"",""trial"",""time""
""fullscreenenter"",""0"",""6588""
","
","1144.8999999985099","run_exp/static/images/Set 6_rs/061a.jpg","86","","","","","","test","TR","5"
"","show_choice","296","483736","0.0-245.0-1.0","""event"",""trial"",""time""
""fullscreenenter"",""0"",""6588""
","
","
","""event"",""trial"",""time""
""fullscreenenter"",""0"",""6588""
","
","null","run_exp/static/images/Set 6_rs/061a.jpg","null","","","","","","test","TR",""
"","html-keyboard-response","297","484239","0.0-245.0-2.0","""event"",""trial"",""time""
""fullscreenenter"",""0"",""6588""
","
","
","""event"",""trial"",""time""
""fullscreenenter"",""0"",""6588""
","
","null","<p></p>","null","","","","","","","",""
"","image","298","485508","0.0-246.0-0.0","""event"",""trial"",""time""
""fullscreenenter"",""0"",""6588""
","
","
","""event"",""trial"",""time""
""fullscreenenter"",""0"",""6588""
","
","1267.699999999255","run_exp/static/images/Set 6_rs/116b.jpg","66","","","","","","test","TL","2"
"","show_choice","299","486014","0.0-246.0-1.0","""event"",""trial"",""time""
""fullscreenenter"",""0"",""6588""
","
","
","""event"",""trial"",""time""
""fullscreenenter"",""0"",""6588""
","
","null","run_exp/static/images/Set 6_rs/116b.jpg","null","","","","","","test","TL",""
"","html-keyboard-response","300","486520","0.0-246.0-2.0","""event"",""trial"",""time""
""fullscreenenter"",""0"",""6588""
","
","
","""event"",""trial"",""time""
""fullscreenenter"",""0"",""6588""
","
","null","<p></p>","null","","","","","","","",""
"","image","301","487989","0.0-247.0-0.0","""event"",""trial"",""time""
""fullscreenenter"",""0"",""6588""
","
","
","""event"",""trial"",""time""
""fullscreenenter"",""0"",""6588""
","
","1468.199999999255","run_exp/static/images/Set 6_rs/170a.jpg","78","","","","","","test","TF","2"
"","show_choice","302","488494","0.0-247.0-1.0","""event"",""trial"",""time""
""fullscreenenter"",""0"",""6588""
","
","
","""event"",""trial"",""time""
""fullscreenenter"",""0"",""6588""
","
","null","run_exp/static/images/Set 6_rs/170a.jpg","null","","","","","","test","TF",""
"","html-keyboard-response","303","489000","0.0-247.0-2.0","""event"",""trial"",""time""
""fullscreenenter"",""0"",""6588""
","
","
","""event"",""trial"",""time""
""fullscreenenter"",""0"",""6588""
","
","null","<p></p>","null","","","","","","","",""
"","image","304","491167","0.0-248.0-0.0","""event"",""trial"",""time""
""fullscreenenter"",""0"",""6588""
","
","
","""event"",""trial"",""time""
""fullscreenenter"",""0"",""6588""
","
","2165","run_exp/static/images/Set 6_rs/140a.jpg","78","","","","","","test","TF","1"
"","show_choice","305","491672","0.0-248.0-1.0","""event"",""trial"",""time""
""fullscreenenter"",""0"",""6588""
","
","
","""event"",""trial"",""time""
""fullscreenenter"",""0"",""6588""
","
","null","run_exp/static/images/Set 6_rs/140a.jpg","null","","","","","","test","TF",""
"","html-keyboard-response","306","492174","0.0-248.0-2.0","""event"",""trial"",""time""
""fullscreenenter"",""0"",""6588""
","
","
","""event"",""trial"",""time""
""fullscreenenter"",""0"",""6588""
","
","null","<p></p>","null","","","","","","","",""
"","image","307","493425","0.0-249.0-0.0","""event"",""trial"",""time""
""fullscreenenter"",""0"",""6588""
","
","
","""event"",""trial"",""time""
""fullscreenenter"",""0"",""6588""
","
","1249.800000000745","run_exp/static/images/Set 6_rs/118a.jpg","78","","","","","","test","TF","5"
"","show_choice","308","493929","0.0-249.0-1.0","""event"",""trial"",""time""
""fullscreenenter"",""0"",""6588""
","
","
","""event"",""trial"",""time""
""fullscreenenter"",""0"",""6588""
","
","null","run_exp/static/images/Set 6_rs/118a.jpg","null","","","","","","test","TF",""
"","html-keyboard-response","309","494431","0.0-249.0-2.0","""event"",""trial"",""time""
""fullscreenenter"",""0"",""6588""
","
","
","""event"",""trial"",""time""
""fullscreenenter"",""0"",""6588""
","
","null","<p></p>","null","","","","","","","",""
"","image","310","495467","0.0-250.0-0.0","""event"",""trial"",""time""
""fullscreenenter"",""0"",""6588""
","
","
","""event"",""trial"",""time""
""fullscreenenter"",""0"",""6588""
","
","1034.6000000014901","run_exp/static/images/Set 6_rs/024a.jpg","86","","","","","","test","TR","5"
"","show_choice","311","495969","0.0-250.0-1.0","""event"",""trial"",""time""
""fullscreenenter"",""0"",""6588""
","
","
","""event"",""trial"",""time""
""fullscreenenter"",""0"",""6588""
","
","null","run_exp/static/images/Set 6_rs/024a.jpg","null","","","","","","test","TR",""
"","html-keyboard-response","312","496472","0.0-250.0-2.0","""event"",""trial"",""time""
""fullscreenenter"",""0"",""6588""
","
","
","""event"",""trial"",""time""
""fullscreenenter"",""0"",""6588""
","
","null","<p></p>","null","","","","","","","",""
"","image","313","497425","0.0-251.0-0.0","""event"",""trial"",""time""
""fullscreenenter"",""0"",""6588""
","
","
","""event"",""trial"",""time""
""fullscreenenter"",""0"",""6588""
","
","951.6999999992549","run_exp/static/images/Set 6_rs/075a.jpg","86","","","","","","test","TR","1"
"","show_choice","314","497930","0.0-251.0-1.0","""event"",""trial"",""time""
""fullscreenenter"",""0"",""6588""
","
","
","""event"",""trial"",""time""
""fullscreenenter"",""0"",""6588""
","
","null","run_exp/static/images/Set 6_rs/075a.jpg","null","","","","","","test","TR",""
"","html-keyboard-response","315","498436","0.0-251.0-2.0","""event"",""trial"",""time""
""fullscreenenter"",""0"",""6588""
","
","
","""event"",""trial"",""time""
""fullscreenenter"",""0"",""6588""
","
","null","<p></p>","null","","","","","","","",""
"","image","316","499774","0.0-252.0-0.0","""event"",""trial"",""time""
""fullscreenenter"",""0"",""6588""
","
","
","""event"",""trial"",""time""
""fullscreenenter"",""0"",""6588""
","
","1337","run_exp/static/images/Set 6_rs/155a.jpg","66","","","","","","test","TF","4"
"","show_choice","317","500279","0.0-252.0-1.0","""event"",""trial"",""time""
""fullscreenenter"",""0"",""6588""
","
","
","""event"",""trial"",""time""
""fullscreenenter"",""0"",""6588""
","
","null","run_exp/static/images/Set 6_rs/155a.jpg","null","","","","","","test","TF",""
"","html-keyboard-response","318","500785","0.0-252.0-2.0","""event"",""trial"",""time""
""fullscreenenter"",""0"",""6588""
","
","
","""event"",""trial"",""time""
""fullscreenenter"",""0"",""6588""
","
","null","<p></p>","null","","","","","","","",""
"","image","319","501677","0.0-253.0-0.0","""event"",""trial"",""time""
""fullscreenenter"",""0"",""6588""
","
","
","""event"",""trial"",""time""
""fullscreenenter"",""0"",""6588""
","
","890.1999999992549","run_exp/static/images/Set 6_rs/152a.jpg","86","","","","","","test","TR","2"
"","show_choice","320","502182","0.0-253.0-1.0","""event"",""trial"",""time""
""fullscreenenter"",""0"",""6588""
","
","
","""event"",""trial"",""time""
""fullscreenenter"",""0"",""6588""
","
","null","run_exp/static/images/Set 6_rs/152a.jpg","null","","","","","","test","TR",""
"","html-keyboard-response","321","502685","0.0-253.0-2.0","""event"",""trial"",""time""
""fullscreenenter"",""0"",""6588""
","
","
","""event"",""trial"",""time""
""fullscreenenter"",""0"",""6588""
","
","null","<p></p>","null","","","","","","","",""
"","image","322","503795","0.0-254.0-0.0","""event"",""trial"",""time""
""fullscreenenter"",""0"",""6588""
","
","
","""event"",""trial"",""time""
""fullscreenenter"",""0"",""6588""
","
","1108.199999999255","run_exp/static/images/Set 6_rs/172a.jpg","86","","","","","","test","TR","1"
"","show_choice","323","504300","0.0-254.0-1.0","""event"",""trial"",""time""
""fullscreenenter"",""0"",""6588""
","
","
","""event"",""trial"",""time""
""fullscreenenter"",""0"",""6588""
","
","null","run_exp/static/images/Set 6_rs/172a.jpg","null","","","","","","test","TR",""
"","html-keyboard-response","324","504802","0.0-254.0-2.0","""event"",""trial"",""time""
""fullscreenenter"",""0"",""6588""
","
","
","""event"",""trial"",""time""
""fullscreenenter"",""0"",""6588""
","
","null","<p></p>","null","","","","","","","",""
"","image","325","505584","0.0-255.0-0.0","""event"",""trial"",""time""
""fullscreenenter"",""0"",""6588""
","
","
","""event"",""trial"",""time""
""fullscreenenter"",""0"",""6588""
","
","780.8000000007451","run_exp/static/images/Set 6_rs/132a.jpg","86","","","","","","test","TR","5"
"","show_choice","326","506085","0.0-255.0-1.0","""event"",""trial"",""time""
""fullscreenenter"",""0"",""6588""
","
","
","""event"",""trial"",""time""
""fullscreenenter"",""0"",""6588""
","
","null","run_exp/static/images/Set 6_rs/132a.jpg","null","","","","","","test","TR",""
"","html-keyboard-response","327","506591","0.0-255.0-2.0","""event"",""trial"",""time""
""fullscreenenter"",""0"",""6588""
","
","
","""event"",""trial"",""time""
""fullscreenenter"",""0"",""6588""
","
","null","<p></p>","null","","","","","","","",""
"","image","328","508091","0.0-256.0-0.0","""event"",""trial"",""time""
""fullscreenenter"",""0"",""6588""
","
","
","""event"",""trial"",""time""
""fullscreenenter"",""0"",""6588""
","
","1499.2999999970198","run_exp/static/images/Set 6_rs/011a.jpg","66","","","","","","test","TF","3"
"","show_choice","329","508593","0.0-256.0-1.0","""event"",""trial"",""time""
""fullscreenenter"",""0"",""6588""
","
","
","""event"",""trial"",""time""
""fullscreenenter"",""0"",""6588""
","
","null","run_exp/static/images/Set 6_rs/011a.jpg","null","","","","","","test","TF",""
"","html-keyboard-response","330","509096","0.0-256.0-2.0","""event"",""trial"",""time""
""fullscreenenter"",""0"",""6588""
","
","
","""event"",""trial"",""time""
""fullscreenenter"",""0"",""6588""
","
","null","<p></p>","null","","","","","","","",""
"","image","331","510327","0.0-257.0-0.0","""event"",""trial"",""time""
""fullscreenenter"",""0"",""6588""
","
","
","""event"",""trial"",""time""
""fullscreenenter"",""0"",""6588""
","
","1229.800000000745","run_exp/static/images/Set 6_rs/015a.jpg","78","","","","","","test","TF","4"
"","show_choice","332","510832","0.0-257.0-1.0","""event"",""trial"",""time""
""fullscreenenter"",""0"",""6588""
","
","
","""event"",""trial"",""time""
""fullscreenenter"",""0"",""6588""
","
","null","run_exp/static/images/Set 6_rs/015a.jpg","null","","","","","","test","TF",""
"","html-keyboard-response","333","511334","0.0-257.0-2.0","""event"",""trial"",""time""
""fullscreenenter"",""0"",""6588""
","
","
","""event"",""trial"",""time""
""fullscreenenter"",""0"",""6588""
","
","null","<p></p>","null","","","","","","","",""
"","image","334","512642","0.0-258.0-0.0","""event"",""trial"",""time""
""fullscreenenter"",""0"",""6588""
","
","
","""event"",""trial"",""time""
""fullscreenenter"",""0"",""6588""
","
","1306.5999999977648","run_exp/static/images/Set 6_rs/176a.jpg","78","","","","","","test","TF","4"
"","show_choice","335","513144","0.0-258.0-1.0","""event"",""trial"",""time""
