"success","trial_type","trial_index","time_elapsed","internal_node_id","interactions","blur_events","focus_events","fullscreenenter_events","fullscreenexit_events","rt","stimulus","key_press","subject_id","participant_id","age","gender","prompt","phase","condition","lure_bin"
"true","fullscreen","0","18619","0.0-0.0","""event"",""trial"",""time""
""fullscreenenter"",""0"",""17631""
","
","
","""event"",""trial"",""time""
""fullscreenenter"",""0"",""17631""
","
","","","","","","","","","","",""
"","pavlovia","1","18628","0.0-1.0","""event"",""trial"",""time""
""fullscreenenter"",""0"",""17631""
","
","
","""event"",""trial"",""time""
""fullscreenenter"",""0"",""17631""
","
","","","","","","","","","","",""
"","welcome","2","53463","0.0-2.0","""event"",""trial"",""time""
""fullscreenenter"",""0"",""17631""
","
","
","""event"",""trial"",""time""
""fullscreenenter"",""0"",""17631""
","
","null","run_exp/static/audio/clip_1_welcome.m4a","null","1560","1403","8","Female","<div class='center'><p>Welcome to the third part of the study! First, you'll be shown pictures of items one at a time. For each picture, you have to decide if the item is typically found indoors or outdoors.</p><p>If you think it's usually found indoors, then press <b>v</b> key on your keyboard. If you think it's usually found outdoors, then press the <b>n</b> key.There will be reminders on the screen to help you remember which keys to press. </p><p>If you're not sure whether the item is an indoor item or an outdoor item, go ahead and take a guess but try your best not to skip that choice. </p></div>","","",""
"","html-keyboard-response","3","55511","0.0-3.0","""event"",""trial"",""time""
""fullscreenenter"",""0"",""17631""
","
","
","""event"",""trial"",""time""
""fullscreenenter"",""0"",""17631""
","
","2045.2999999970198","<div class='center'><p>Welcome to the third part of the study! First, you'll be shown pictures of items one at a time. For each picture, you have to decide if the item is typically found indoors or outdoors.</p><p>If you think it's usually found indoors, then press <b>v</b> key on your keyboard. If you think it's usually found outdoors, then press the <b>n</b> key.There will be reminders on the screen to help you remember which keys to press. </p><p>If you're not sure whether the item is an indoor item or an outdoor item, go ahead and take a guess but try your best not to skip that choice. </p><div><p><b>[Press the space bar to continue]</b></p></div>","32","","","","","","","",""
"","image","4","56674","0.0-4.0","""event"",""trial"",""time""
""fullscreenenter"",""0"",""17631""
","
","
","""event"",""trial"",""time""
""fullscreenenter"",""0"",""17631""
","
","1159","run_exp/static/images/Set 6_rs/138a.jpg","86","","","","","","learn","SL",""
"","show_choice","5","57523","0.0-5.0","""event"",""trial"",""time""
""fullscreenenter"",""0"",""17631""
","
","
","""event"",""trial"",""time""
""fullscreenenter"",""0"",""17631""
","
","null","run_exp/static/images/Set 6_rs/138a.jpg","null","","","","","","learn","SL",""
"","html-keyboard-response","6","58027","0.0-6.0","""event"",""trial"",""time""
""fullscreenenter"",""0"",""17631""
","
","
","""event"",""trial"",""time""
""fullscreenenter"",""0"",""17631""
","
","null","<p></p>","null","","","","","","","",""
"","image","7","59626","0.0-7.0","""event"",""trial"",""time""
""fullscreenenter"",""0"",""17631""
","
","
","""event"",""trial"",""time""
""fullscreenenter"",""0"",""17631""
","
","1598.2999999970198","run_exp/static/images/Set 6_rs/064a.jpg","78","","","","","","learn","SR",""
"","show_choice","8","60033","0.0-8.0","""event"",""trial"",""time""
""fullscreenenter"",""0"",""17631""
","
","
","""event"",""trial"",""time""
""fullscreenenter"",""0"",""17631""
","
","null","run_exp/static/images/Set 6_rs/064a.jpg","null","","","","","","learn","SR",""
"","html-keyboard-response","9","60552","0.0-9.0","""event"",""trial"",""time""
""fullscreenenter"",""0"",""17631""
","
","
","""event"",""trial"",""time""
""fullscreenenter"",""0"",""17631""
","
","null","<p></p>","null","","","","","","","",""
"","image","10","62213","0.0-10.0","""event"",""trial"",""time""
""fullscreenenter"",""0"",""17631""
","
","
","""event"",""trial"",""time""
""fullscreenenter"",""0"",""17631""
","
","1658.9000000059605","run_exp/static/images/Set 6_rs/085a.jpg","78","","","","","","learn","SL",""
"","show_choice","11","62563","0.0-11.0","""event"",""trial"",""time""
""fullscreenenter"",""0"",""17631""
","
","
","""event"",""trial"",""time""
""fullscreenenter"",""0"",""17631""
","
","null","run_exp/static/images/Set 6_rs/085a.jpg","null","","","","","","learn","SL",""
"","html-keyboard-response","12","63072","0.0-12.0","""event"",""trial"",""time""
""fullscreenenter"",""0"",""17631""
","
","
","""event"",""trial"",""time""
""fullscreenenter"",""0"",""17631""
","
","null","<p></p>","null","","","","","","","",""
"","image","13","64634","0.0-13.0","""event"",""trial"",""time""
""fullscreenenter"",""0"",""17631""
","
","
","""event"",""trial"",""time""
""fullscreenenter"",""0"",""17631""
","
","1560.4000000059605","run_exp/static/images/Set 6_rs/129a.jpg","86","","","","","","learn","SL",""
"","show_choice","14","65079","0.0-14.0","""event"",""trial"",""time""
""fullscreenenter"",""0"",""17631""
","
","
","""event"",""trial"",""time""
""fullscreenenter"",""0"",""17631""
","
","null","run_exp/static/images/Set 6_rs/129a.jpg","null","","","","","","learn","SL",""
"","html-keyboard-response","15","65590","0.0-15.0","""event"",""trial"",""time""
""fullscreenenter"",""0"",""17631""
","
","
","""event"",""trial"",""time""
""fullscreenenter"",""0"",""17631""
","
","null","<p></p>","null","","","","","","","",""
"","image","16","67238","0.0-16.0","""event"",""trial"",""time""
""fullscreenenter"",""0"",""17631""
","
","
","""event"",""trial"",""time""
""fullscreenenter"",""0"",""17631""
","
","1646","run_exp/static/images/Set 6_rs/123a.jpg","78","","","","","","learn","SL",""
"","show_choice","17","67609","0.0-17.0","""event"",""trial"",""time""
""fullscreenenter"",""0"",""17631""
","
","
","""event"",""trial"",""time""
""fullscreenenter"",""0"",""17631""
","
","null","run_exp/static/images/Set 6_rs/123a.jpg","null","","","","","","learn","SL",""
"","html-keyboard-response","18","68133","0.0-18.0","""event"",""trial"",""time""
""fullscreenenter"",""0"",""17631""
","
","
","""event"",""trial"",""time""
""fullscreenenter"",""0"",""17631""
","
","null","<p></p>","null","","","","","","","",""
"","image","19","69269","0.0-19.0","""event"",""trial"",""time""
""fullscreenenter"",""0"",""17631""
","
","
","""event"",""trial"",""time""
""fullscreenenter"",""0"",""17631""
","
","1134","run_exp/static/images/Set 6_rs/169a.jpg","78","","","","","","learn","SR",""
"","show_choice","20","70137","0.0-20.0","""event"",""trial"",""time""
""fullscreenenter"",""0"",""17631""
","
","
","""event"",""trial"",""time""
""fullscreenenter"",""0"",""17631""
","
","null","run_exp/static/images/Set 6_rs/169a.jpg","null","","","","","","learn","SR",""
"","html-keyboard-response","21","70654","0.0-21.0","""event"",""trial"",""time""
""fullscreenenter"",""0"",""17631""
","
","
","""event"",""trial"",""time""
""fullscreenenter"",""0"",""17631""
","
","null","<p></p>","null","","","","","","","",""
"","image","22","72165","0.0-22.0","""event"",""trial"",""time""
""fullscreenenter"",""0"",""17631""
","
","
","""event"",""trial"",""time""
""fullscreenenter"",""0"",""17631""
","
","1508.2000000029802","run_exp/static/images/Set 6_rs/045a.jpg","78","","","","","","learn","SR",""
"","show_choice","23","72659","0.0-23.0","""event"",""trial"",""time""
""fullscreenenter"",""0"",""17631""
","
","
","""event"",""trial"",""time""
""fullscreenenter"",""0"",""17631""
","
","null","run_exp/static/images/Set 6_rs/045a.jpg","null","","","","","","learn","SR",""
"","html-keyboard-response","24","73161","0.0-24.0","""event"",""trial"",""time""
""fullscreenenter"",""0"",""17631""
","
","
","""event"",""trial"",""time""
""fullscreenenter"",""0"",""17631""
","
","null","<p></p>","null","","","","","","","",""
"","image","25","74181","0.0-25.0","""event"",""trial"",""time""
""fullscreenenter"",""0"",""17631""
","
","
","""event"",""trial"",""time""
""fullscreenenter"",""0"",""17631""
","
","1015.6000000089407","run_exp/static/images/Set 6_rs/071a.jpg","86","","","","","","learn","SL",""
"","show_choice","26","75186","0.0-26.0","""event"",""trial"",""time""
""fullscreenenter"",""0"",""17631""
","
","
","""event"",""trial"",""time""
""fullscreenenter"",""0"",""17631""
","
","null","run_exp/static/images/Set 6_rs/071a.jpg","null","","","","","","learn","SL",""
"","html-keyboard-response","27","75697","0.0-27.0","""event"",""trial"",""time""
""fullscreenenter"",""0"",""17631""
","
","
","""event"",""trial"",""time""
""fullscreenenter"",""0"",""17631""
","
","null","<p></p>","null","","","","","","","",""
"","image","28","76852","0.0-28.0","""event"",""trial"",""time""
""fullscreenenter"",""0"",""17631""
","
","
","""event"",""trial"",""time""
""fullscreenenter"",""0"",""17631""
","
","1153","run_exp/static/images/Set 6_rs/150a.jpg","86","","","","","","learn","SR",""
"","show_choice","29","77701","0.0-29.0","""event"",""trial"",""time""
""fullscreenenter"",""0"",""17631""
","
","
","""event"",""trial"",""time""
""fullscreenenter"",""0"",""17631""
","
","null","run_exp/static/images/Set 6_rs/150a.jpg","null","","","","","","learn","SR",""
"","html-keyboard-response","30","78203","0.0-30.0","""event"",""trial"",""time""
""fullscreenenter"",""0"",""17631""
","
","
","""event"",""trial"",""time""
""fullscreenenter"",""0"",""17631""
","
","null","<p></p>","null","","","","","","","",""
"","image","31","79310","0.0-31.0","""event"",""trial"",""time""
""fullscreenenter"",""0"",""17631""
","
","
","""event"",""trial"",""time""
""fullscreenenter"",""0"",""17631""
","
","1103.5","run_exp/static/images/Set 6_rs/079a.jpg","86","","","","","","learn","SL",""
"","show_choice","32","80223","0.0-32.0","""event"",""trial"",""time""
""fullscreenenter"",""0"",""17631""
","
","
","""event"",""trial"",""time""
""fullscreenenter"",""0"",""17631""
","
","null","run_exp/static/images/Set 6_rs/079a.jpg","null","","","","","","learn","SL",""
"","html-keyboard-response","33","80735","0.0-33.0","""event"",""trial"",""time""
""fullscreenenter"",""0"",""17631""
","
","
","""event"",""trial"",""time""
""fullscreenenter"",""0"",""17631""
","
","null","<p></p>","null","","","","","","","",""
"","image","34","82636","0.0-34.0","""event"",""trial"",""time""
""fullscreenenter"",""0"",""17631""
","
","
","""event"",""trial"",""time""
""fullscreenenter"",""0"",""17631""
","
","1898.199999988079","run_exp/static/images/Set 6_rs/154a.jpg","86","","","","","","learn","SR",""
"","show_choice","35","82745","0.0-35.0","""event"",""trial"",""time""
""fullscreenenter"",""0"",""17631""
","
","
","""event"",""trial"",""time""
""fullscreenenter"",""0"",""17631""
","
","null","run_exp/static/images/Set 6_rs/154a.jpg","null","","","","","","learn","SR",""
"","html-keyboard-response","36","83248","0.0-36.0","""event"",""trial"",""time""
""fullscreenenter"",""0"",""17631""
","
","
","""event"",""trial"",""time""
""fullscreenenter"",""0"",""17631""
","
","null","<p></p>","null","","","","","","","",""
"","image","37","84894","0.0-37.0","""event"",""trial"",""time""
""fullscreenenter"",""0"",""17631""
","
","
","""event"",""trial"",""time""
""fullscreenenter"",""0"",""17631""
","
","1642.4000000059605","run_exp/static/images/Set 6_rs/063a.jpg","78","","","","","","learn","SR",""
"","show_choice","38","85269","0.0-38.0","""event"",""trial"",""time""
""fullscreenenter"",""0"",""17631""
","
","
","""event"",""trial"",""time""
""fullscreenenter"",""0"",""17631""
","
","null","run_exp/static/images/Set 6_rs/063a.jpg","null","","","","","","learn","SR",""
"","html-keyboard-response","39","85786","0.0-39.0","""event"",""trial"",""time""
""fullscreenenter"",""0"",""17631""
","
","
","""event"",""trial"",""time""
""fullscreenenter"",""0"",""17631""
","
","null","<p></p>","null","","","","","","","",""
"","image","40","87254","0.0-40.0","""event"",""trial"",""time""
""fullscreenenter"",""0"",""17631""
","
","
","""event"",""trial"",""time""
""fullscreenenter"",""0"",""17631""
","
","1464.4000000059605","run_exp/static/images/Set 6_rs/024a.jpg","78","","","","","","learn","SR",""
"","show_choice","41","87806","0.0-41.0","""event"",""trial"",""time""
""fullscreenenter"",""0"",""17631""
","
","
","""event"",""trial"",""time""
""fullscreenenter"",""0"",""17631""
","
","null","run_exp/static/images/Set 6_rs/024a.jpg","null","","","","","","learn","SR",""
"","html-keyboard-response","42","88308","0.0-42.0","""event"",""trial"",""time""
""fullscreenenter"",""0"",""17631""
","
","
","""event"",""trial"",""time""
""fullscreenenter"",""0"",""17631""
","
","null","<p></p>","null","","","","","","","",""
"","image","43","89463","0.0-43.0","""event"",""trial"",""time""
""fullscreenenter"",""0"",""17631""
","
","
","""event"",""trial"",""time""
""fullscreenenter"",""0"",""17631""
","
","1150.9000000059605","run_exp/static/images/Set 6_rs/091a.jpg","78","","","","","","learn","SL",""
"","show_choice","44","90314","0.0-44.0","""event"",""trial"",""time""
""fullscreenenter"",""0"",""17631""
","
","
","""event"",""trial"",""time""
""fullscreenenter"",""0"",""17631""
","
","null","run_exp/static/images/Set 6_rs/091a.jpg","null","","","","","","learn","SL",""
"","html-keyboard-response","45","90830","0.0-45.0","""event"",""trial"",""time""
""fullscreenenter"",""0"",""17631""
","
","
","""event"",""trial"",""time""
""fullscreenenter"",""0"",""17631""
","
","null","<p></p>","null","","","","","","","",""
"","image","46","92011","0.0-46.0","""event"",""trial"",""time""
""fullscreenenter"",""0"",""17631""
","
","
","""event"",""trial"",""time""
""fullscreenenter"",""0"",""17631""
","
","1178.5","run_exp/static/images/Set 6_rs/007a.jpg","86","","","","","","learn","SR",""
"","show_choice","47","92841","0.0-47.0","""event"",""trial"",""time""
""fullscreenenter"",""0"",""17631""
","
","
","""event"",""trial"",""time""
""fullscreenenter"",""0"",""17631""
","
","null","run_exp/static/images/Set 6_rs/007a.jpg","null","","","","","","learn","SR",""
"","html-keyboard-response","48","93352","0.0-48.0","""event"",""trial"",""time""
""fullscreenenter"",""0"",""17631""
","
","
","""event"",""trial"",""time""
""fullscreenenter"",""0"",""17631""
","
","null","<p></p>","null","","","","","","","",""
"","image","49","95356","0.0-49.0","""event"",""trial"",""time""
""fullscreenenter"",""0"",""17631""
","
","
","""event"",""trial"",""time""
""fullscreenenter"",""0"",""17631""
","
","null","run_exp/static/images/Set 6_rs/122a.jpg","null","","","","","","learn","SR",""
"","show_choice","50","97360","0.0-50.0","""event"",""trial"",""time""
""fullscreenenter"",""0"",""17631""
","
","
","""event"",""trial"",""time""
""fullscreenenter"",""0"",""17631""
","
","null","run_exp/static/images/blank.png","null","","","","","","learn","SR",""
"","html-keyboard-response","51","97862","0.0-51.0","""event"",""trial"",""time""
""fullscreenenter"",""0"",""17631""
","
","
","""event"",""trial"",""time""
""fullscreenenter"",""0"",""17631""
","
","null","<p></p>","null","","","","","","","",""
"","image","52","99725","0.0-52.0","""event"",""trial"",""time""
""fullscreenenter"",""0"",""17631""
","
","
","""event"",""trial"",""time""
""fullscreenenter"",""0"",""17631""
","
","1860.800000011921","run_exp/static/images/Set 6_rs/050a.jpg","78","","","","","","learn","SL",""
"","show_choice","53","99867","0.0-53.0","""event"",""trial"",""time""
""fullscreenenter"",""0"",""17631""
","
","
","""event"",""trial"",""time""
""fullscreenenter"",""0"",""17631""
","
","null","run_exp/static/images/Set 6_rs/050a.jpg","null","","","","","","learn","SL",""
"","html-keyboard-response","54","100383","0.0-54.0","""event"",""trial"",""time""
""fullscreenenter"",""0"",""17631""
","
","
","""event"",""trial"",""time""
""fullscreenenter"",""0"",""17631""
","
","null","<p></p>","null","","","","","","","",""
"","image","55","101516","0.0-55.0","""event"",""trial"",""time""
""fullscreenenter"",""0"",""17631""
","
","
","""event"",""trial"",""time""
""fullscreenenter"",""0"",""17631""
","
","1130.7000000029802","run_exp/static/images/Set 6_rs/186a.jpg","86","","","","","","learn","SR",""
"","show_choice","56","102387","0.0-56.0","""event"",""trial"",""time""
""fullscreenenter"",""0"",""17631""
","
","
","""event"",""trial"",""time""
""fullscreenenter"",""0"",""17631""
","
","null","run_exp/static/images/Set 6_rs/186a.jpg","null","","","","","","learn","SR",""
"","html-keyboard-response","57","102903","0.0-57.0","""event"",""trial"",""time""
""fullscreenenter"",""0"",""17631""
","
","
","""event"",""trial"",""time""
""fullscreenenter"",""0"",""17631""
","
","null","<p></p>","null","","","","","","","",""
"","image","58","103875","0.0-58.0","""event"",""trial"",""time""
""fullscreenenter"",""0"",""17631""
","
","
","""event"",""trial"",""time""
""fullscreenenter"",""0"",""17631""
","
","969.5","run_exp/static/images/Set 6_rs/006a.jpg","78","","","","","","learn","SL",""
"","show_choice","59","104907","0.0-59.0","""event"",""trial"",""time""
""fullscreenenter"",""0"",""17631""
","
","
","""event"",""trial"",""time""
""fullscreenenter"",""0"",""17631""
","
","null","run_exp/static/images/Set 6_rs/006a.jpg","null","","","","","","learn","SL",""
"","html-keyboard-response","60","105423","0.0-60.0","""event"",""trial"",""time""
""fullscreenenter"",""0"",""17631""
","
","
","""event"",""trial"",""time""
""fullscreenenter"",""0"",""17631""
","
","null","<p></p>","null","","","","","","","",""
"","image","61","106996","0.0-61.0","""event"",""trial"",""time""
""fullscreenenter"",""0"",""17631""
","
","
","""event"",""trial"",""time""
""fullscreenenter"",""0"",""17631""
","
","1570.1000000089407","run_exp/static/images/Set 6_rs/036a.jpg","86","","","","","","learn","SL",""
"","show_choice","62","107428","0.0-62.0","""event"",""trial"",""time""
""fullscreenenter"",""0"",""17631""
","
","
","""event"",""trial"",""time""
""fullscreenenter"",""0"",""17631""
","
","null","run_exp/static/images/Set 6_rs/036a.jpg","null","","","","","","learn","SL",""
"","html-keyboard-response","63","107945","0.0-63.0","""event"",""trial"",""time""
""fullscreenenter"",""0"",""17631""
","
","
","""event"",""trial"",""time""
""fullscreenenter"",""0"",""17631""
","
","null","<p></p>","null","","","","","","","",""
"","image","64","109701","0.0-64.0","""event"",""trial"",""time""
""fullscreenenter"",""0"",""17631""
","
","
","""event"",""trial"",""time""
""fullscreenenter"",""0"",""17631""
","
","1753.8999999910593","run_exp/static/images/Set 6_rs/112a.jpg","86","","","","","","learn","SR",""
"","show_choice","65","109950","0.0-65.0","""event"",""trial"",""time""
""fullscreenenter"",""0"",""17631""
","
","
","""event"",""trial"",""time""
""fullscreenenter"",""0"",""17631""
","
","null","run_exp/static/images/Set 6_rs/112a.jpg","null","","","","","","learn","SR",""
"","html-keyboard-response","66","110465","0.0-66.0","""event"",""trial"",""time""
""fullscreenenter"",""0"",""17631""
","
","
","""event"",""trial"",""time""
""fullscreenenter"",""0"",""17631""
","
","null","<p></p>","null","","","","","","","",""
"","image","67","111301","0.0-67.0","""event"",""trial"",""time""
""fullscreenenter"",""0"",""17631""
","
","
","""event"",""trial"",""time""
""fullscreenenter"",""0"",""17631""
","
","833.5","run_exp/static/images/Set 6_rs/178a.jpg","78","","","","","","learn","SR",""
"","show_choice","68","112469","0.0-68.0","""event"",""trial"",""time""
""fullscreenenter"",""0"",""17631""
","
","
","""event"",""trial"",""time""
""fullscreenenter"",""0"",""17631""
","
","null","run_exp/static/images/Set 6_rs/178a.jpg","null","","","","","","learn","SR",""
"","html-keyboard-response","69","112993","0.0-69.0","""event"",""trial"",""time""
""fullscreenenter"",""0"",""17631""
","
","
","""event"",""trial"",""time""
""fullscreenenter"",""0"",""17631""
","
","null","<p></p>","null","","","","","","","",""
"","image","70","114339","0.0-70.0","""event"",""trial"",""time""
""fullscreenenter"",""0"",""17631""
","
","
","""event"",""trial"",""time""
""fullscreenenter"",""0"",""17631""
","
","1343.2999999970198","run_exp/static/images/Set 6_rs/167a.jpg","86","","","","","","learn","SL",""
"","show_choice","71","115011","0.0-71.0","""event"",""trial"",""time""
""fullscreenenter"",""0"",""17631""
","
","
","""event"",""trial"",""time""
""fullscreenenter"",""0"",""17631""
","
","null","run_exp/static/images/Set 6_rs/167a.jpg","null","","","","","","learn","SL",""
"","html-keyboard-response","72","115528","0.0-72.0","""event"",""trial"",""time""
""fullscreenenter"",""0"",""17631""
","
","
","""event"",""trial"",""time""
""fullscreenenter"",""0"",""17631""
","
","null","<p></p>","null","","","","","","","",""
"","image","73","116867","0.0-73.0","""event"",""trial"",""time""
""fullscreenenter"",""0"",""17631""
","
","
","""event"",""trial"",""time""
""fullscreenenter"",""0"",""17631""
","
","1337.6000000089407","run_exp/static/images/Set 6_rs/061a.jpg","78","","","","","","learn","SR",""
"","show_choice","74","117532","0.0-74.0","""event"",""trial"",""time""
""fullscreenenter"",""0"",""17631""
","
","
","""event"",""trial"",""time""
""fullscreenenter"",""0"",""17631""
","
","null","run_exp/static/images/Set 6_rs/061a.jpg","null","","","","","","learn","SR",""
"","html-keyboard-response","75","118034","0.0-75.0","""event"",""trial"",""time""
""fullscreenenter"",""0"",""17631""
","
","
","""event"",""trial"",""time""
""fullscreenenter"",""0"",""17631""
","
","null","<p></p>","null","","","","","","","",""
"","image","76","119854","0.0-76.0","""event"",""trial"",""time""
""fullscreenenter"",""0"",""17631""
","
","
","""event"",""trial"",""time""
""fullscreenenter"",""0"",""17631""
","
","1816.2999999970198","run_exp/static/images/Set 6_rs/066a.jpg","86","","","","","","learn","SL",""
"","show_choice","77","120053","0.0-77.0","""event"",""trial"",""time""
""fullscreenenter"",""0"",""17631""
","
","
","""event"",""trial"",""time""
""fullscreenenter"",""0"",""17631""
","
","null","run_exp/static/images/Set 6_rs/066a.jpg","null","","","","","","learn","SL",""
"","html-keyboard-response","78","120555","0.0-78.0","""event"",""trial"",""time""
""fullscreenenter"",""0"",""17631""
","
","
","""event"",""trial"",""time""
""fullscreenenter"",""0"",""17631""
","
","null","<p></p>","null","","","","","","","",""
"","image","79","122031","0.0-79.0","""event"",""trial"",""time""
""fullscreenenter"",""0"",""17631""
","
","
","""event"",""trial"",""time""
""fullscreenenter"",""0"",""17631""
","
","1472.2000000029802","run_exp/static/images/Set 6_rs/019a.jpg","78","","","","","","learn","SL",""
"","show_choice","80","122576","0.0-80.0","""event"",""trial"",""time""
""fullscreenenter"",""0"",""17631""
","
","
","""event"",""trial"",""time""
""fullscreenenter"",""0"",""17631""
","
","null","run_exp/static/images/Set 6_rs/019a.jpg","null","","","","","","learn","SL",""
"","html-keyboard-response","81","123078","0.0-81.0","""event"",""trial"",""time""
""fullscreenenter"",""0"",""17631""
","
","
","""event"",""trial"",""time""
""fullscreenenter"",""0"",""17631""
","
","null","<p></p>","null","","","","","","","",""
"","image","82","124598","0.0-82.0","""event"",""trial"",""time""
""fullscreenenter"",""0"",""17631""
","
","
","""event"",""trial"",""time""
""fullscreenenter"",""0"",""17631""
","
","1516.7999999970198","run_exp/static/images/Set 6_rs/172a.jpg","78","","","","","","learn","SR",""
"","show_choice","83","125098","0.0-83.0","""event"",""trial"",""time""
""fullscreenenter"",""0"",""17631""
","
","
","""event"",""trial"",""time""
""fullscreenenter"",""0"",""17631""
","
","null","run_exp/static/images/Set 6_rs/172a.jpg","null","","","","","","learn","SR",""
"","html-keyboard-response","84","125599","0.0-84.0","""event"",""trial"",""time""
""fullscreenenter"",""0"",""17631""
","
","
","""event"",""trial"",""time""
""fullscreenenter"",""0"",""17631""
","
","null","<p></p>","null","","","","","","","",""
"","image","85","126701","0.0-85.0","""event"",""trial"",""time""
""fullscreenenter"",""0"",""17631""
","
","
","""event"",""trial"",""time""
""fullscreenenter"",""0"",""17631""
","
","1098.5","run_exp/static/images/Set 6_rs/055a.jpg","86","","","","","","learn","SL",""
"","show_choice","86","127625","0.0-86.0","""event"",""trial"",""time""
""fullscreenenter"",""0"",""17631""
","
","
","""event"",""trial"",""time""
""fullscreenenter"",""0"",""17631""
","
","null","run_exp/static/images/Set 6_rs/055a.jpg","null","","","","","","learn","SL",""
"","html-keyboard-response","87","128142","0.0-87.0","""event"",""trial"",""time""
""fullscreenenter"",""0"",""17631""
","
","
","""event"",""trial"",""time""
""fullscreenenter"",""0"",""17631""
","
","null","<p></p>","null","","","","","","","",""
"","image","88","129347","0.0-88.0","""event"",""trial"",""time""
""fullscreenenter"",""0"",""17631""
","
","
","""event"",""trial"",""time""
""fullscreenenter"",""0"",""17631""
","
","1202.7999999970198","run_exp/static/images/Set 6_rs/117a.jpg","86","","","","","","learn","SL",""
"","show_choice","89","130155","0.0-89.0","""event"",""trial"",""time""
""fullscreenenter"",""0"",""17631""
","
","
","""event"",""trial"",""time""
""fullscreenenter"",""0"",""17631""
","
","null","run_exp/static/images/Set 6_rs/117a.jpg","null","","","","","","learn","SL",""
"","html-keyboard-response","90","130671","0.0-90.0","""event"",""trial"",""time""
""fullscreenenter"",""0"",""17631""
","
","
","""event"",""trial"",""time""
""fullscreenenter"",""0"",""17631""
","
","null","<p></p>","null","","","","","","","",""
"","image","91","132143","0.0-91.0","""event"",""trial"",""time""
""fullscreenenter"",""0"",""17631""
","
","
","""event"",""trial"",""time""
""fullscreenenter"",""0"",""17631""
","
","1468.5","run_exp/static/images/Set 6_rs/108a.jpg","78","","","","","","learn","SR",""
"","show_choice","92","132679","0.0-92.0","""event"",""trial"",""time""
""fullscreenenter"",""0"",""17631""
","
","
","""event"",""trial"",""time""
""fullscreenenter"",""0"",""17631""
","
","null","run_exp/static/images/Set 6_rs/108a.jpg","null","","","","","","learn","SR",""
"","html-keyboard-response","93","133182","0.0-93.0","""event"",""trial"",""time""
""fullscreenenter"",""0"",""17631""
","
","
","""event"",""trial"",""time""
""fullscreenenter"",""0"",""17631""
","
","null","<p></p>","null","","","","","","","",""
"","image","94","134287","0.0-94.0","""event"",""trial"",""time""
""fullscreenenter"",""0"",""17631""
","
","
","""event"",""trial"",""time""
""fullscreenenter"",""0"",""17631""
","
","1102.3999999910593","run_exp/static/images/Set 6_rs/012a.jpg","78","","","","","","learn","SR",""
"","show_choice","95","135207","0.0-95.0","""event"",""trial"",""time""
""fullscreenenter"",""0"",""17631""
","
","
","""event"",""trial"",""time""
""fullscreenenter"",""0"",""17631""
","
","null","run_exp/static/images/Set 6_rs/012a.jpg","null","","","","","","learn","SR",""
"","html-keyboard-response","96","135724","0.0-96.0","""event"",""trial"",""time""
""fullscreenenter"",""0"",""17631""
","
","
","""event"",""trial"",""time""
""fullscreenenter"",""0"",""17631""
","
","null","<p></p>","null","","","","","","","",""
"","image","97","136915","0.0-97.0","""event"",""trial"",""time""
""fullscreenenter"",""0"",""17631""
","
","
","""event"",""trial"",""time""
""fullscreenenter"",""0"",""17631""
","
","1189.9000000059605","run_exp/static/images/Set 6_rs/134a.jpg","86","","","","","","learn","SR",""
"","show_choice","98","137728","0.0-98.0","""event"",""trial"",""time""
""fullscreenenter"",""0"",""17631""
","
","
","""event"",""trial"",""time""
""fullscreenenter"",""0"",""17631""
","
","null","run_exp/static/images/Set 6_rs/134a.jpg","null","","","","","","learn","SR",""
"","html-keyboard-response","99","138237","0.0-99.0","""event"",""trial"",""time""
""fullscreenenter"",""0"",""17631""
","
","
","""event"",""trial"",""time""
""fullscreenenter"",""0"",""17631""
","
","null","<p></p>","null","","","","","","","",""
"","image","100","140082","0.0-100.0","""event"",""trial"",""time""
""fullscreenenter"",""0"",""17631""
","
","
","""event"",""trial"",""time""
""fullscreenenter"",""0"",""17631""
","
","1843.2999999970198","run_exp/static/images/Set 6_rs/144a.jpg","86","","","","","","learn","SL",""
"","show_choice","101","140250","0.0-101.0","""event"",""trial"",""time""
""fullscreenenter"",""0"",""17631""
","
","
","""event"",""trial"",""time""
""fullscreenenter"",""0"",""17631""
","
","null","run_exp/static/images/Set 6_rs/144a.jpg","null","","","","","","learn","SL",""
"","html-keyboard-response","102","140766","0.0-102.0","""event"",""trial"",""time""
""fullscreenenter"",""0"",""17631""
","
","
","""event"",""trial"",""time""
""fullscreenenter"",""0"",""17631""
","
","null","<p></p>","null","","","","","","","",""
"","image","103","141956","0.0-103.0","""event"",""trial"",""time""
""fullscreenenter"",""0"",""17631""
","
","
","""event"",""trial"",""time""
""fullscreenenter"",""0"",""17631""
","
","1187.7000000029802","run_exp/static/images/Set 6_rs/073a.jpg","78","","","","","","learn","SL",""
"","show_choice","104","142769","0.0-104.0","""event"",""trial"",""time""
""fullscreenenter"",""0"",""17631""
","
","
","""event"",""trial"",""time""
""fullscreenenter"",""0"",""17631""
","
","null","run_exp/static/images/Set 6_rs/073a.jpg","null","","","","","","learn","SL",""
"","html-keyboard-response","105","143286","0.0-105.0","""event"",""trial"",""time""
""fullscreenenter"",""0"",""17631""
","
","
","""event"",""trial"",""time""
""fullscreenenter"",""0"",""17631""
","
","null","<p></p>","null","","","","","","","",""
"","image","106","144642","0.0-106.0","""event"",""trial"",""time""
""fullscreenenter"",""0"",""17631""
","
","
","""event"",""trial"",""time""
""fullscreenenter"",""0"",""17631""
","
","1355","run_exp/static/images/Set 6_rs/111a.jpg","86","","","","","","learn","SL",""
"","show_choice","107","145294","0.0-107.0","""event"",""trial"",""time""
""fullscreenenter"",""0"",""17631""
","
","
","""event"",""trial"",""time""
""fullscreenenter"",""0"",""17631""
","
","null","run_exp/static/images/Set 6_rs/111a.jpg","null","","","","","","learn","SL",""
"","html-keyboard-response","108","145808","0.0-108.0","""event"",""trial"",""time""
""fullscreenenter"",""0"",""17631""
","
","
","""event"",""trial"",""time""
""fullscreenenter"",""0"",""17631""
","
","null","<p></p>","null","","","","","","","",""
"","image","109","147004","0.0-109.0","""event"",""trial"",""time""
""fullscreenenter"",""0"",""17631""
","
","
","""event"",""trial"",""time""
""fullscreenenter"",""0"",""17631""
","
","1193.7999999970198","run_exp/static/images/Set 6_rs/075a.jpg","86","","","","","","learn","SR",""
"","show_choice","110","147812","0.0-110.0","""event"",""trial"",""time""
""fullscreenenter"",""0"",""17631""
","
","
","""event"",""trial"",""time""
""fullscreenenter"",""0"",""17631""
","
","null","run_exp/static/images/Set 6_rs/075a.jpg","null","","","","","","learn","SR",""
"","html-keyboard-response","111","148314","0.0-111.0","""event"",""trial"",""time""
""fullscreenenter"",""0"",""17631""
","
","
","""event"",""trial"",""time""
""fullscreenenter"",""0"",""17631""
","
","null","<p></p>","null","","","","","","","",""
"","image","112","149523","0.0-112.0","""event"",""trial"",""time""
""fullscreenenter"",""0"",""17631""
","
","
","""event"",""trial"",""time""
""fullscreenenter"",""0"",""17631""
","
","1207.4000000059605","run_exp/static/images/Set 6_rs/014a.jpg","86","","","","","","learn","SL",""
"","show_choice","113","150317","0.0-113.0","""event"",""trial"",""time""
""fullscreenenter"",""0"",""17631""
","
","
","""event"",""trial"",""time""
""fullscreenenter"",""0"",""17631""
","
","null","run_exp/static/images/Set 6_rs/014a.jpg","null","","","","","","learn","SL",""
"","html-keyboard-response","114","150840","0.0-114.0","""event"",""trial"",""time""
""fullscreenenter"",""0"",""17631""
","
","
","""event"",""trial"",""time""
""fullscreenenter"",""0"",""17631""
","
","null","<p></p>","null","","","","","","","",""
"","image","115","152044","0.0-115.0","""event"",""trial"",""time""
""fullscreenenter"",""0"",""17631""
","
","
","""event"",""trial"",""time""
""fullscreenenter"",""0"",""17631""
","
","1203","run_exp/static/images/Set 6_rs/017a.jpg","78","","","","","","learn","SL",""
"","show_choice","116","152843","0.0-116.0","""event"",""trial"",""time""
""fullscreenenter"",""0"",""17631""
","
","
","""event"",""trial"",""time""
""fullscreenenter"",""0"",""17631""
","
","null","run_exp/static/images/Set 6_rs/017a.jpg","null","","","","","","learn","SL",""
"","html-keyboard-response","117","153345","0.0-117.0","""event"",""trial"",""time""
""fullscreenenter"",""0"",""17631""
","
","
","""event"",""trial"",""time""
""fullscreenenter"",""0"",""17631""
","
","null","<p></p>","null","","","","","","","",""
"","image","118","154444","0.0-118.0","""event"",""trial"",""time""
""fullscreenenter"",""0"",""17631""
","
","
","""event"",""trial"",""time""
""fullscreenenter"",""0"",""17631""
","
","1096.5","run_exp/static/images/Set 6_rs/121a.jpg","78","","","","","","learn","SR",""
"","show_choice","119","155350","0.0-119.0","""event"",""trial"",""time""
""fullscreenenter"",""0"",""17631""
","
","
","""event"",""trial"",""time""
""fullscreenenter"",""0"",""17631""
","
","null","run_exp/static/images/Set 6_rs/121a.jpg","null","","","","","","learn","SR",""
"","html-keyboard-response","120","155866","0.0-120.0","""event"",""trial"",""time""
""fullscreenenter"",""0"",""17631""
","
","
","""event"",""trial"",""time""
""fullscreenenter"",""0"",""17631""
","
","null","<p></p>","null","","","","","","","",""
"","image","121","157269","0.0-121.0","""event"",""trial"",""time""
""fullscreenenter"",""0"",""17631""
","
","
","""event"",""trial"",""time""
""fullscreenenter"",""0"",""17631""
","
","1397.9000000059605","run_exp/static/images/Set 6_rs/181a.jpg","78","","","","","","learn","SL",""
"","show_choice","122","157886","0.0-122.0","""event"",""trial"",""time""
""fullscreenenter"",""0"",""17631""
","
","
","""event"",""trial"",""time""
""fullscreenenter"",""0"",""17631""
","
","null","run_exp/static/images/Set 6_rs/181a.jpg","null","","","","","","learn","SL",""
"","html-keyboard-response","123","158388","0.0-123.0","""event"",""trial"",""time""
""fullscreenenter"",""0"",""17631""
","
","
","""event"",""trial"",""time""
""fullscreenenter"",""0"",""17631""
","
","null","<p></p>","null","","","","","","","",""
"","image","124","159812","0.0-124.0","""event"",""trial"",""time""
""fullscreenenter"",""0"",""17631""
","
","
","""event"",""trial"",""time""
""fullscreenenter"",""0"",""17631""
","
","1421.7000000029802","run_exp/static/images/Set 6_rs/166a.jpg","78","","","","","","learn","SR",""
"","show_choice","125","160402","0.0-125.0","""event"",""trial"",""time""
""fullscreenenter"",""0"",""17631""
","
","
","""event"",""trial"",""time""
""fullscreenenter"",""0"",""17631""
","
","null","run_exp/static/images/Set 6_rs/166a.jpg","null","","","","","","learn","SR",""
"","html-keyboard-response","126","160908","0.0-126.0","""event"",""trial"",""time""
""fullscreenenter"",""0"",""17631""
","
","
","""event"",""trial"",""time""
""fullscreenenter"",""0"",""17631""
","
","null","<p></p>","null","","","","","","","",""
"","image","127","162490","0.0-127.0","""event"",""trial"",""time""
""fullscreenenter"",""0"",""17631""
","
","
","""event"",""trial"",""time""
""fullscreenenter"",""0"",""17631""
","
","1579.6000000089407","run_exp/static/images/Set 6_rs/010a.jpg","86","","","","","","learn","SR",""
"","show_choice","128","162918","0.0-128.0","""event"",""trial"",""time""
""fullscreenenter"",""0"",""17631""
","
","
","""event"",""trial"",""time""
""fullscreenenter"",""0"",""17631""
","
","null","run_exp/static/images/Set 6_rs/010a.jpg","null","","","","","","learn","SR",""
"","html-keyboard-response","129","163435","0.0-129.0","""event"",""trial"",""time""
""fullscreenenter"",""0"",""17631""
","
","
","""event"",""trial"",""time""
""fullscreenenter"",""0"",""17631""
","
","null","<p></p>","null","","","","","","","",""
"","image","130","165138","0.0-130.0","""event"",""trial"",""time""
""fullscreenenter"",""0"",""17631""
","
","
","""event"",""trial"",""time""
""fullscreenenter"",""0"",""17631""
","
","1700.5999999940395","run_exp/static/images/Set 6_rs/062a.jpg","86","","","","","","learn","SL",""
"","show_choice","131","165455","0.0-131.0","""event"",""trial"",""time""
""fullscreenenter"",""0"",""17631""
","
","
","""event"",""trial"",""time""
""fullscreenenter"",""0"",""17631""
","
","null","run_exp/static/images/Set 6_rs/062a.jpg","null","","","","","","learn","SL",""
"","html-keyboard-response","132","165976","0.0-132.0","""event"",""trial"",""time""
""fullscreenenter"",""0"",""17631""
","
","
","""event"",""trial"",""time""
""fullscreenenter"",""0"",""17631""
","
","null","<p></p>","null","","","","","","","",""
"","image","133","167307","0.0-133.0","""event"",""trial"",""time""
""fullscreenenter"",""0"",""17631""
","
","
","""event"",""trial"",""time""
""fullscreenenter"",""0"",""17631""
","
","1329.6000000089407","run_exp/static/images/Set 6_rs/191a.jpg","78","","","","","","learn","SL",""
"","show_choice","134","167993","0.0-134.0","""event"",""trial"",""time""
""fullscreenenter"",""0"",""17631""
","
","
","""event"",""trial"",""time""
""fullscreenenter"",""0"",""17631""
","
","null","run_exp/static/images/Set 6_rs/191a.jpg","null","","","","","","learn","SL",""
"","html-keyboard-response","135","168508","0.0-135.0","""event"",""trial"",""time""
""fullscreenenter"",""0"",""17631""
","
","
","""event"",""trial"",""time""
""fullscreenenter"",""0"",""17631""
","
","null","<p></p>","null","","","","","","","",""
"","image","136","169773","0.0-136.0","""event"",""trial"",""time""
""fullscreenenter"",""0"",""17631""
","
","
","""event"",""trial"",""time""
""fullscreenenter"",""0"",""17631""
","
","1262","run_exp/static/images/Set 6_rs/152a.jpg","86","","","","","","learn","SR",""
"","show_choice","137","170528","0.0-137.0","""event"",""trial"",""time""
""fullscreenenter"",""0"",""17631""
","
","
","""event"",""trial"",""time""
""fullscreenenter"",""0"",""17631""
","
","null","run_exp/static/images/Set 6_rs/152a.jpg","null","","","","","","learn","SR",""
"","html-keyboard-response","138","171044","0.0-138.0","""event"",""trial"",""time""
""fullscreenenter"",""0"",""17631""
","
","
","""event"",""trial"",""time""
""fullscreenenter"",""0"",""17631""
","
","null","<p></p>","null","","","","","","","",""
"","image","139","172090","0.0-139.0","""event"",""trial"",""time""
""fullscreenenter"",""0"",""17631""
","
","
","""event"",""trial"",""time""
""fullscreenenter"",""0"",""17631""
","
","1044.2000000029802","run_exp/static/images/Set 6_rs/076a.jpg","78","","","","","","learn","SR",""
"","show_choice","140","173049","0.0-140.0","""event"",""trial"",""time""
""fullscreenenter"",""0"",""17631""
","
","
","""event"",""trial"",""time""
""fullscreenenter"",""0"",""17631""
","
","null","run_exp/static/images/Set 6_rs/076a.jpg","null","","","","","","learn","SR",""
"","html-keyboard-response","141","173565","0.0-141.0","""event"",""trial"",""time""
""fullscreenenter"",""0"",""17631""
","
","
","""event"",""trial"",""time""
""fullscreenenter"",""0"",""17631""
","
","null","<p></p>","null","","","","","","","",""
"","image","142","175228","0.0-142.0","""event"",""trial"",""time""
""fullscreenenter"",""0"",""17631""
","
","
","""event"",""trial"",""time""
""fullscreenenter"",""0"",""17631""
","
","1661.300000011921","run_exp/static/images/Set 6_rs/141a.jpg","86","","","","","","learn","SR",""
"","show_choice","143","175571","0.0-143.0","""event"",""trial"",""time""
""fullscreenenter"",""0"",""17631""
","
","
","""event"",""trial"",""time""
""fullscreenenter"",""0"",""17631""
","
","null","run_exp/static/images/Set 6_rs/141a.jpg","null","","","","","","learn","SR",""
"","html-keyboard-response","144","176094","0.0-144.0","""event"",""trial"",""time""
""fullscreenenter"",""0"",""17631""
","
","
","""event"",""trial"",""time""
""fullscreenenter"",""0"",""17631""
","
","null","<p></p>","null","","","","","","","",""
"","image","145","178099","0.0-145.0","""event"",""trial"",""time""
""fullscreenenter"",""0"",""17631""
","
","
","""event"",""trial"",""time""
""fullscreenenter"",""0"",""17631""
","
","null","run_exp/static/images/Set 6_rs/187a.jpg","null","","","","","","learn","SR",""
"","show_choice","146","180103","0.0-146.0","""event"",""trial"",""time""
""fullscreenenter"",""0"",""17631""
","
","
","""event"",""trial"",""time""
""fullscreenenter"",""0"",""17631""
","
","null","run_exp/static/images/blank.png","null","","","","","","learn","SR",""
"","html-keyboard-response","147","180619","0.0-147.0","""event"",""trial"",""time""
""fullscreenenter"",""0"",""17631""
","
","
","""event"",""trial"",""time""
""fullscreenenter"",""0"",""17631""
","
","null","<p></p>","null","","","","","","","",""
"","image","148","181438","0.0-148.0","""event"",""trial"",""time""
""fullscreenenter"",""0"",""17631""
","
","
","""event"",""trial"",""time""
""fullscreenenter"",""0"",""17631""
","
","813.6999999880791","run_exp/static/images/Set 6_rs/074a.jpg","86","","","","","","learn","SL",""
"","show_choice","149","182639","0.0-149.0","""event"",""trial"",""time""
""fullscreenenter"",""0"",""17631""
","
","
","""event"",""trial"",""time""
""fullscreenenter"",""0"",""17631""
","
","null","run_exp/static/images/Set 6_rs/074a.jpg","null","","","","","","learn","SL",""
"","html-keyboard-response","150","183155","0.0-150.0","""event"",""trial"",""time""
""fullscreenenter"",""0"",""17631""
","
","
","""event"",""trial"",""time""
""fullscreenenter"",""0"",""17631""
","
","null","<p></p>","null","","","","","","","",""
"","image","151","185160","0.0-151.0","""event"",""trial"",""time""
""fullscreenenter"",""0"",""17631""
","
","
","""event"",""trial"",""time""
""fullscreenenter"",""0"",""17631""
","
","null","run_exp/static/images/Set 6_rs/016a.jpg","null","","","","","","learn","SL",""
"","show_choice","152","187164","0.0-152.0","""event"",""trial"",""time""
""fullscreenenter"",""0"",""17631""
","
","
","""event"",""trial"",""time""
""fullscreenenter"",""0"",""17631""
","
","null","run_exp/static/images/blank.png","null","","","","","","learn","SL",""
"","html-keyboard-response","153","187680","0.0-153.0","""event"",""trial"",""time""
""fullscreenenter"",""0"",""17631""
","
","
","""event"",""trial"",""time""
""fullscreenenter"",""0"",""17631""
","
","null","<p></p>","null","","","","","","","",""
"","image","154","188266","0.0-154.0","""event"",""trial"",""time""
""fullscreenenter"",""0"",""17631""
","
","
","""event"",""trial"",""time""
""fullscreenenter"",""0"",""17631""
","
","583.9000000059605","run_exp/static/images/Set 6_rs/177a.jpg","86","","","","","","learn","SR",""
"","show_choice","155","189686","0.0-155.0","""event"",""trial"",""time""
""fullscreenenter"",""0"",""17631""
","
","
","""event"",""trial"",""time""
""fullscreenenter"",""0"",""17631""
","
","null","run_exp/static/images/Set 6_rs/177a.jpg","null","","","","","","learn","SR",""
"","html-keyboard-response","156","190202","0.0-156.0","""event"",""trial"",""time""
""fullscreenenter"",""0"",""17631""
","
","
","""event"",""trial"",""time""
""fullscreenenter"",""0"",""17631""
","
","null","<p></p>","null","","","","","","","",""
"","image","157","190932","0.0-157.0","""event"",""trial"",""time""
""fullscreenenter"",""0"",""17631""
","
","
","""event"",""trial"",""time""
""fullscreenenter"",""0"",""17631""
","
","727.7000000029802","run_exp/static/images/Set 6_rs/126a.jpg","78","","","","","","learn","SR",""
"","show_choice","158","192207","0.0-158.0","""event"",""trial"",""time""
""fullscreenenter"",""0"",""17631""
","
","
","""event"",""trial"",""time""
""fullscreenenter"",""0"",""17631""
","
","null","run_exp/static/images/Set 6_rs/126a.jpg","null","","","","","","learn","SR",""
"","html-keyboard-response","159","192710","0.0-159.0","""event"",""trial"",""time""
""fullscreenenter"",""0"",""17631""
","
","
","""event"",""trial"",""time""
""fullscreenenter"",""0"",""17631""
","
","null","<p></p>","null","","","","","","","",""
"","image","160","193723","0.0-160.0","""event"",""trial"",""time""
""fullscreenenter"",""0"",""17631""
","
","
","""event"",""trial"",""time""
""fullscreenenter"",""0"",""17631""
","
","1011.2999999970198","run_exp/static/images/Set 6_rs/057a.jpg","86","","","","","","learn","SL",""
"","show_choice","161","194712","0.0-161.0","""event"",""trial"",""time""
""fullscreenenter"",""0"",""17631""
","
","
","""event"",""trial"",""time""
""fullscreenenter"",""0"",""17631""
","
","null","run_exp/static/images/Set 6_rs/057a.jpg","null","","","","","","learn","SL",""
"","html-keyboard-response","162","195236","0.0-162.0","""event"",""trial"",""time""
""fullscreenenter"",""0"",""17631""
","
","
","""event"",""trial"",""time""
""fullscreenenter"",""0"",""17631""
","
","null","<p></p>","null","","","","","","","",""
"","image","163","196740","0.0-163.0","""event"",""trial"",""time""
""fullscreenenter"",""0"",""17631""
","
","
","""event"",""trial"",""time""
""fullscreenenter"",""0"",""17631""
","
","1502.2000000029802","run_exp/static/images/Set 6_rs/008a.jpg","78","","","","","","learn","SL",""
"","show_choice","164","197241","0.0-164.0","""event"",""trial"",""time""
""fullscreenenter"",""0"",""17631""
","
","
","""event"",""trial"",""time""
""fullscreenenter"",""0"",""17631""
","
","null","run_exp/static/images/Set 6_rs/008a.jpg","null","","","","","","learn","SL",""
"","html-keyboard-response","165","197756","0.0-165.0","""event"",""trial"",""time""
""fullscreenenter"",""0"",""17631""
","
","
","""event"",""trial"",""time""
""fullscreenenter"",""0"",""17631""
","
","null","<p></p>","null","","","","","","","",""
"","image","166","198826","0.0-166.0","""event"",""trial"",""time""
""fullscreenenter"",""0"",""17631""
","
","
","""event"",""trial"",""time""
""fullscreenenter"",""0"",""17631""
","
","1067.6000000089407","run_exp/static/images/Set 6_rs/088a.jpg","86","","","","","","learn","SR",""
"","show_choice","167","199761","0.0-167.0","""event"",""trial"",""time""
""fullscreenenter"",""0"",""17631""
","
","
","""event"",""trial"",""time""
""fullscreenenter"",""0"",""17631""
","
","null","run_exp/static/images/Set 6_rs/088a.jpg","null","","","","","","learn","SR",""
"","html-keyboard-response","168","200263","0.0-168.0","""event"",""trial"",""time""
""fullscreenenter"",""0"",""17631""
","
","
","""event"",""trial"",""time""
""fullscreenenter"",""0"",""17631""
","
","null","<p></p>","null","","","","","","","",""
"","image","169","201231","0.0-169.0","""event"",""trial"",""time""
""fullscreenenter"",""0"",""17631""
","
","
","""event"",""trial"",""time""
""fullscreenenter"",""0"",""17631""
","
","965.7999999970198","run_exp/static/images/Set 6_rs/132a.jpg","78","","","","","","learn","SR",""
"","show_choice","170","202266","0.0-170.0","""event"",""trial"",""time""
""fullscreenenter"",""0"",""17631""
","
","
","""event"",""trial"",""time""
""fullscreenenter"",""0"",""17631""
","
","null","run_exp/static/images/Set 6_rs/132a.jpg","null","","","","","","learn","SR",""
"","html-keyboard-response","171","202783","0.0-171.0","""event"",""trial"",""time""
""fullscreenenter"",""0"",""17631""
","
","
","""event"",""trial"",""time""
""fullscreenenter"",""0"",""17631""
","
","null","<p></p>","null","","","","","","","",""
"","image","172","203890","0.0-172.0","""event"",""trial"",""time""
""fullscreenenter"",""0"",""17631""
","
","
","""event"",""trial"",""time""
""fullscreenenter"",""0"",""17631""
","
","1104.6000000089407","run_exp/static/images/Set 6_rs/168a.jpg","78","","","","","","learn","SL",""
"","show_choice","173","204788","0.0-173.0","""event"",""trial"",""time""
""fullscreenenter"",""0"",""17631""
","
","
","""event"",""trial"",""time""
""fullscreenenter"",""0"",""17631""
","
","null","run_exp/static/images/Set 6_rs/168a.jpg","null","","","","","","learn","SL",""
"","html-keyboard-response","174","205304","0.0-174.0","""event"",""trial"",""time""
""fullscreenenter"",""0"",""17631""
","
","
","""event"",""trial"",""time""
""fullscreenenter"",""0"",""17631""
","
","null","<p></p>","null","","","","","","","",""
"","image","175","206449","0.0-175.0","""event"",""trial"",""time""
""fullscreenenter"",""0"",""17631""
","
","
","""event"",""trial"",""time""
""fullscreenenter"",""0"",""17631""
","
","1144.0999999940395","run_exp/static/images/Set 6_rs/089a.jpg","86","","","","","","learn","SL",""
"","show_choice","176","207309","0.0-176.0","""event"",""trial"",""time""
""fullscreenenter"",""0"",""17631""
","
","
","""event"",""trial"",""time""
""fullscreenenter"",""0"",""17631""
","
","null","run_exp/static/images/Set 6_rs/089a.jpg","null","","","","","","learn","SL",""
"","html-keyboard-response","177","207825","0.0-177.0","""event"",""trial"",""time""
""fullscreenenter"",""0"",""17631""
","
","
","""event"",""trial"",""time""
""fullscreenenter"",""0"",""17631""
","
","null","<p></p>","null","","","","","","","",""
"","image","178","208732","0.0-178.0","""event"",""trial"",""time""
""fullscreenenter"",""0"",""17631""
","
","
","""event"",""trial"",""time""
""fullscreenenter"",""0"",""17631""
","
","904.7999999970198","run_exp/static/images/Set 6_rs/025a.jpg","78","","","","","","learn","SL",""
"","show_choice","179","209830","0.0-179.0","""event"",""trial"",""time""
""fullscreenenter"",""0"",""17631""
","
","
","""event"",""trial"",""time""
""fullscreenenter"",""0"",""17631""
","
","null","run_exp/static/images/Set 6_rs/025a.jpg","null","","","","","","learn","SL",""
"","html-keyboard-response","180","210347","0.0-180.0","""event"",""trial"",""time""
""fullscreenenter"",""0"",""17631""
","
","
","""event"",""trial"",""time""
""fullscreenenter"",""0"",""17631""
","
","null","<p></p>","null","","","","","","","",""
"","image","181","211042","0.0-181.0","""event"",""trial"",""time""
""fullscreenenter"",""0"",""17631""
","
","
","""event"",""trial"",""time""
""fullscreenenter"",""0"",""17631""
","
","692.8999999910593","run_exp/static/images/Set 6_rs/116a.jpg","78","","","","","","learn","SL",""
"","show_choice","182","212352","0.0-182.0","""event"",""trial"",""time""
""fullscreenenter"",""0"",""17631""
","
","
","""event"",""trial"",""time""
""fullscreenenter"",""0"",""17631""
","
","null","run_exp/static/images/Set 6_rs/116a.jpg","null","","","","","","learn","SL",""
"","html-keyboard-response","183","212875","0.0-183.0","""event"",""trial"",""time""
""fullscreenenter"",""0"",""17631""
","
","
","""event"",""trial"",""time""
""fullscreenenter"",""0"",""17631""
","
","null","<p></p>","null","","","","","","","",""
"","image","184","213450","0.0-184.0","""event"",""trial"",""time""
""fullscreenenter"",""0"",""17631""
","
","
","""event"",""trial"",""time""
""fullscreenenter"",""0"",""17631""
","
","572.6999999880791","run_exp/static/images/Set 6_rs/131a.jpg","86","","","","","","learn","SR",""
"","show_choice","185","214881","0.0-185.0","""event"",""trial"",""time""
""fullscreenenter"",""0"",""17631""
","
","
","""event"",""trial"",""time""
""fullscreenenter"",""0"",""17631""
","
","null","run_exp/static/images/Set 6_rs/131a.jpg","null","","","","","","learn","SR",""
"","html-keyboard-response","186","215396","0.0-186.0","""event"",""trial"",""time""
""fullscreenenter"",""0"",""17631""
","
","
","""event"",""trial"",""time""
""fullscreenenter"",""0"",""17631""
","
","null","<p></p>","null","","","","","","","",""
"","image","187","215946","0.0-187.0","""event"",""trial"",""time""
""fullscreenenter"",""0"",""17631""
","
","
","""event"",""trial"",""time""
""fullscreenenter"",""0"",""17631""
","
","547.0999999940395","run_exp/static/images/Set 6_rs/070a.jpg","78","","","","","","learn","SR",""
"","show_choice","188","217401","0.0-188.0","""event"",""trial"",""time""
""fullscreenenter"",""0"",""17631""
","
","
","""event"",""trial"",""time""
""fullscreenenter"",""0"",""17631""
","
","null","run_exp/static/images/Set 6_rs/070a.jpg","null","","","","","","learn","SR",""
"","html-keyboard-response","189","217918","0.0-189.0","""event"",""trial"",""time""
""fullscreenenter"",""0"",""17631""
","
","
","""event"",""trial"",""time""
""fullscreenenter"",""0"",""17631""
","
","null","<p></p>","null","","","","","","","",""
"","image","190","218732","0.0-190.0","""event"",""trial"",""time""
""fullscreenenter"",""0"",""17631""
","
","
","""event"",""trial"",""time""
""fullscreenenter"",""0"",""17631""
","
","811.4000000059605","run_exp/static/images/Set 6_rs/095a.jpg","86","","","","","","learn","SL",""
"","show_choice","191","219922","0.0-191.0","""event"",""trial"",""time""
""fullscreenenter"",""0"",""17631""
","
","
","""event"",""trial"",""time""
""fullscreenenter"",""0"",""17631""
","
","null","run_exp/static/images/Set 6_rs/095a.jpg","null","","","","","","learn","SL",""
"","html-keyboard-response","192","220439","0.0-192.0","""event"",""trial"",""time""
""fullscreenenter"",""0"",""17631""
","
","
","""event"",""trial"",""time""
""fullscreenenter"",""0"",""17631""
","
","null","<p></p>","null","","","","","","","",""
"","image","193","221746","0.0-193.0","""event"",""trial"",""time""
""fullscreenenter"",""0"",""17631""
","
","
","""event"",""trial"",""time""
""fullscreenenter"",""0"",""17631""
","
","1305.5","run_exp/static/images/Set 6_rs/023a.jpg","86","","","","","","learn","SR",""
"","show_choice","194","222441","0.0-194.0","""event"",""trial"",""time""
""fullscreenenter"",""0"",""17631""
","
","
","""event"",""trial"",""time""
""fullscreenenter"",""0"",""17631""
","
","null","run_exp/static/images/Set 6_rs/023a.jpg","null","","","","","","learn","SR",""
"","html-keyboard-response","195","222948","0.0-195.0","""event"",""trial"",""time""
""fullscreenenter"",""0"",""17631""
","
","
","""event"",""trial"",""time""
""fullscreenenter"",""0"",""17631""
","
","null","<p></p>","null","","","","","","","",""
"","test_intro","196","264833","0.0-196.0","""event"",""trial"",""time""
""fullscreenenter"",""0"",""17631""
","
","
","""event"",""trial"",""time""
""fullscreenenter"",""0"",""17631""
","
","null","run_exp/static/audio/clip_2_memory.m4a","null","","","","","<div class='center'><p>Now, lets see how much you remember about the items you just saw.  For each item, you need to indicate if it was <b>old</b> by pressing the <b>v</b> key, <b>similar</b> by pressing the <b>b</b> key, or <b>new</b> by pressing the <b>n</b> key.</p><p>Old refers to an item that you saw before in the indoor/outdoor game that you just played, new refers to an item you have <b>not</b> seen before within the indoor/outdoor game, and similar refers to an item that is similar to an item youve seen before but is not exactly the same. </p><p>Before we begin, lets go over some brief demonstrations to make sure you understand.</p></div>","","",""
"","html-keyboard-response","197","266755","0.0-197.0","""event"",""trial"",""time""
""fullscreenenter"",""0"",""17631""
","
","
","""event"",""trial"",""time""
""fullscreenenter"",""0"",""17631""
","
","1918.4000000059605","<div class='center'><p>Now, lets see how much you remember about the items you just saw.  For each item, you need to indicate if it was <b>old</b> by pressing the <b>v</b> key, <b>similar</b> by pressing the <b>b</b> key, or <b>new</b> by pressing the <b>n</b> key.</p><p>Old refers to an item that you saw before in the indoor/outdoor game that you just played, new refers to an item you have <b>not</b> seen before within the indoor/outdoor game, and similar refers to an item that is similar to an item youve seen before but is not exactly the same. </p><p>Before we begin, lets go over some brief demonstrations to make sure you understand.</p><div><p><b>[Press the space bar to continue]</b></p></div>","32","","","","","","","",""
"","items","198","274261","0.0-198.0","""event"",""trial"",""time""
""fullscreenenter"",""0"",""17631""
","
","
","""event"",""trial"",""time""
""fullscreenenter"",""0"",""17631""
","
","null","run_exp/static/audio/clip_3_items.m4a","null","","","","","","","",""
"","mop","199","278769","0.0-199.0","""event"",""trial"",""time""
""fullscreenenter"",""0"",""17631""
","
","
","""event"",""trial"",""time""
""fullscreenenter"",""0"",""17631""
","
","null","run_exp/static/audio/clip_4_mop.m4a","null","","","","","","","",""
"","baseball","200","282292","0.0-200.0","""event"",""trial"",""time""
""fullscreenenter"",""0"",""17631""
","
","
","""event"",""trial"",""time""
""fullscreenenter"",""0"",""17631""
","
","null","run_exp/static/audio/clip_5_baseball.m4a","null","","","","","","","",""
"","trumpet","201","285796","0.0-201.0","""event"",""trial"",""time""
""fullscreenenter"",""0"",""17631""
","
","
","""event"",""trial"",""time""
""fullscreenenter"",""0"",""17631""
","
","null","run_exp/static/audio/clip_6_trumpet.m4a","null","","","","","","","",""
"","gummies","202","289312","0.0-202.0","""event"",""trial"",""time""
""fullscreenenter"",""0"",""17631""
","
","
","""event"",""trial"",""time""
""fullscreenenter"",""0"",""17631""
","
","null","run_exp/static/audio/clip_7_gummies.m4a","null","","","","","","","",""
"","osn","203","293819","0.0-203.0","""event"",""trial"",""time""
""fullscreenenter"",""0"",""17631""
","
","
","""event"",""trial"",""time""
""fullscreenenter"",""0"",""17631""
","
","null","run_exp/static/audio/clip_8_osn.m4a","null","","","","","","","",""
"","old_1","204","300341","0.0-204.0","""event"",""trial"",""time""
""fullscreenenter"",""0"",""17631""
","
","
","""event"",""trial"",""time""
""fullscreenenter"",""0"",""17631""
","
","null","run_exp/static/audio/clip_9_old_trumpet.m4a","null","","","","","","","",""
"","new_1","205","307861","0.0-205.0","""event"",""trial"",""time""
""fullscreenenter"",""0"",""17631""
","
","
","""event"",""trial"",""time""
""fullscreenenter"",""0"",""17631""
","
","null","run_exp/static/audio/clip_10_new_balloon.m4a","null","","","","","","","",""
"","similar_1a","206","312372","0.0-206.0","""event"",""trial"",""time""
""fullscreenenter"",""0"",""17631""
","
","
","""event"",""trial"",""time""
""fullscreenenter"",""0"",""17631""
","
","null","run_exp/static/audio/clip_11a_similar_mop.m4a","null","","","","","","","",""
"","similar_1b","207","318891","0.0-207.0","""event"",""trial"",""time""
""fullscreenenter"",""0"",""17631""
","
","
","""event"",""trial"",""time""
""fullscreenenter"",""0"",""17631""
","
","null","run_exp/static/audio/clip_11b_similar_mop.m4a","null","","","","","","","",""
"","new_2","208","322402","0.0-208.0","""event"",""trial"",""time""
""fullscreenenter"",""0"",""17631""
","
","
","""event"",""trial"",""time""
""fullscreenenter"",""0"",""17631""
","
","null","run_exp/static/audio/clip_12_new_stoplight.m4a","null","","","","","","","",""
"","old_2","209","325921","0.0-209.0","""event"",""trial"",""time""
""fullscreenenter"",""0"",""17631""
","
","
","""event"",""trial"",""time""
""fullscreenenter"",""0"",""17631""
","
","null","run_exp/static/audio/clip_13_old_baseball.m4a","null","","","","","","","",""
"","similar_2a","210","329451","0.0-210.0","""event"",""trial"",""time""
""fullscreenenter"",""0"",""17631""
","
","
","""event"",""trial"",""time""
""fullscreenenter"",""0"",""17631""
","
","null","run_exp/static/audio/clip_14a_similar_gummies.m4a","null","","","","","","","",""
"","similar_2b","211","336960","0.0-211.0","""event"",""trial"",""time""
""fullscreenenter"",""0"",""17631""
","
","
","""event"",""trial"",""time""
""fullscreenenter"",""0"",""17631""
","
","null","run_exp/static/audio/clip_14b_similar_gummies.m4a","null","","","","","","","",""
"","practice","212","379070","0.0-212.0","""event"",""trial"",""time""
""fullscreenenter"",""0"",""17631""
","
","
","""event"",""trial"",""time""
""fullscreenenter"",""0"",""17631""
","
","null","run_exp/static/audio/clip_15_practice.m4a","null","","","","","<div class='center'><p>Lets practice a little to make sure you understand the difference between new, similar, and old. Lets say you saw these three items in the indoor/outdoor game.</p><p> Try your best to remember these images because youll soon be tested on them in a practice game. In the practice game, youll be shown images and youll have to say if they are old (one of the three images belows), similar (similar to one of the images below but not exactly the same), or new (are not one of the images below nor similar to them).</p><p>Once you press the space bar youll be shown these images again but one at time. Then youll begin the practice game.</p><p><img src='run_exp/static/images/tutorial/test/three_indoor_outdoor.png' height='300'></p></div>","","",""
"","html-keyboard-response","213","381076","0.0-213.0","""event"",""trial"",""time""
""fullscreenenter"",""0"",""17631""
","
","
","""event"",""trial"",""time""
""fullscreenenter"",""0"",""17631""
","
","2004.2000000029802","<div class='center'><p>Lets practice a little to make sure you understand the difference between new, similar, and old. Lets say you saw these three items in the indoor/outdoor game.</p><p> Try your best to remember these images because youll soon be tested on them in a practice game. In the practice game, youll be shown images and youll have to say if they are old (one of the three images belows), similar (similar to one of the images below but not exactly the same), or new (are not one of the images below nor similar to them).</p><p>Once you press the space bar youll be shown these images again but one at time. Then youll begin the practice game.</p><p><img src='run_exp/static/images/tutorial/test/three_indoor_outdoor.png' height='300'></p><div><p><b>[Press the space bar to continue]</b></p></div>","32","","","","","","","",""
"","planet","214","383080","0.0-214.0","""event"",""trial"",""time""
""fullscreenenter"",""0"",""17631""
","
","
","""event"",""trial"",""time""
""fullscreenenter"",""0"",""17631""
","
","null","run_exp/static/images/tutorial/test/008a.jpg","null","","","","","","","",""
"","boot","215","385090","0.0-215.0","""event"",""trial"",""time""
""fullscreenenter"",""0"",""17631""
","
","
","""event"",""trial"",""time""
""fullscreenenter"",""0"",""17631""
","
","null","run_exp/static/images/tutorial/test/011a.jpg","null","","","","","","","",""
"","lemon","216","387112","0.0-216.0","""event"",""trial"",""time""
""fullscreenenter"",""0"",""17631""
","
","
","""event"",""trial"",""time""
""fullscreenenter"",""0"",""17631""
","
","null","run_exp/static/images/tutorial/test/018a.jpg","null","","","","","","","",""
"","practice_q1","217","394228","0.0-217.0","""event"",""trial"",""time""
""fullscreenenter"",""0"",""17631""
","
","
","""event"",""trial"",""time""
""fullscreenenter"",""0"",""17631""
","
","7111.199999988079","run_exp/static/audio/clip_16_practice_question.m4a","78","","","","","","","",""
"","correct","218","396134","0.0-218.0-0.0","""event"",""trial"",""time""
""fullscreenenter"",""0"",""17631""
","
","
","""event"",""trial"",""time""
""fullscreenenter"",""0"",""17631""
","
","null","run_exp/static/audio/clip_17_correct.m4a","null","","","","","<div class='center'><p>That's correct!</p></div>","","",""
"","html-keyboard-response","219","397485","0.0-218.0-1.0","""event"",""trial"",""time""
""fullscreenenter"",""0"",""17631""
","
","
","""event"",""trial"",""time""
""fullscreenenter"",""0"",""17631""
","
","1348.5","<div class='center'><p>That's correct!</p><div><p><b>[Press the space bar to continue]</b></p></div>","32","","","","","","","",""
"","practice_q2","220","398834","0.0-218.0-2.0","""event"",""trial"",""time""
""fullscreenenter"",""0"",""17631""
","
","
","""event"",""trial"",""time""
""fullscreenenter"",""0"",""17631""
","
","1345.699999988079","run_exp/static/audio/clip_16_practice_question.m4a","86","","","","","","","",""
"","correct","221","400712","0.0-219.0-0.0","""event"",""trial"",""time""
""fullscreenenter"",""0"",""17631""
","
","
","""event"",""trial"",""time""
""fullscreenenter"",""0"",""17631""
","
","null","run_exp/static/audio/clip_17_correct.m4a","null","","","","","<div class='center'><p>That's correct!</p></div>","","",""
"","html-keyboard-response","222","401725","0.0-219.0-1.0","""event"",""trial"",""time""
""fullscreenenter"",""0"",""17631""
","
","
","""event"",""trial"",""time""
""fullscreenenter"",""0"",""17631""
","
","1009.2999999970198","<div class='center'><p>That's correct!</p><div><p><b>[Press the space bar to continue]</b></p></div>","32","","","","","","","",""
"","practice_q3","223","403406","0.0-219.0-2.0","""event"",""trial"",""time""
""fullscreenenter"",""0"",""17631""
","
","
","""event"",""trial"",""time""
""fullscreenenter"",""0"",""17631""
","
","1676.9000000059605","run_exp/static/audio/clip_16_practice_question.m4a","66","","","","","","","",""
"","correct","224","405573","0.0-220.0-0.0","""event"",""trial"",""time""
""fullscreenenter"",""0"",""17631""
","
","
","""event"",""trial"",""time""
""fullscreenenter"",""0"",""17631""
","
","null","run_exp/static/audio/clip_17_correct.m4a","null","","","","","<div class='center'><p>That's correct!</p></div>","","",""
"","html-keyboard-response","225","406410","0.0-220.0-1.0","""event"",""trial"",""time""
""fullscreenenter"",""0"",""17631""
","
","
","""event"",""trial"",""time""
""fullscreenenter"",""0"",""17631""
","
","835.2999999970198","<div class='center'><p>That's correct!</p><div><p><b>[Press the space bar to continue]</b></p></div>","32","","","","","","","",""
"","begin_text","226","424892","0.0-221.0-0.0","""event"",""trial"",""time""
""fullscreenenter"",""0"",""17631""
","
","
","""event"",""trial"",""time""
""fullscreenenter"",""0"",""17631""
","
","null","run_exp/static/audio/clip_22_begin_test.m4a","null","","","","","<div class='center'><p>On to the real game where well test your memory of items from the indoor/outdoor game. For each item, you need to indicate if the item is <b>old</b> by pressing the <b>v</b> key, <b>similar</b> by pressing the <b>b</b> key, or <b>new</b> by pressing the <b>n</b> key. </p></div>","","",""
"","html-keyboard-response","227","428162","0.0-221.0-1.0","""event"",""trial"",""time""
""fullscreenenter"",""0"",""17631""
","
","
","""event"",""trial"",""time""
""fullscreenenter"",""0"",""17631""
","
","3269","<div class='center'><p>On to the real game where well test your memory of items from the indoor/outdoor game. For each item, you need to indicate if the item is <b>old</b> by pressing the <b>v</b> key, <b>similar</b> by pressing the <b>b</b> key, or <b>new</b> by pressing the <b>n</b> key. </p><div><p><b>[Press the space bar to continue]</b></p></div>","32","","","","","","","",""
"","image","228","430021","0.0-222.0-0.0","""event"",""trial"",""time""
""fullscreenenter"",""0"",""17631""
","
","
","""event"",""trial"",""time""
""fullscreenenter"",""0"",""17631""
","
","1856.0999999940395","run_exp/static/images/Set 6_rs/090a.jpg","78","","","","","","test","TF","5"
"","show_choice","229","430531","0.0-222.0-1.0","""event"",""trial"",""time""
""fullscreenenter"",""0"",""17631""
","
","
","""event"",""trial"",""time""
""fullscreenenter"",""0"",""17631""
","
","null","run_exp/static/images/Set 6_rs/090a.jpg","null","","","","","","test","TF",""
"","html-keyboard-response","230","431042","0.0-222.0-2.0","""event"",""trial"",""time""
""fullscreenenter"",""0"",""17631""
","
","
","""event"",""trial"",""time""
""fullscreenenter"",""0"",""17631""
","
","null","<p></p>","null","","","","","","","",""
"","image","231","432292","0.0-223.0-0.0","""event"",""trial"",""time""
""fullscreenenter"",""0"",""17631""
","
","
","""event"",""trial"",""time""
""fullscreenenter"",""0"",""17631""
","
","1244.6000000089407","run_exp/static/images/Set 6_rs/007a.jpg","86","","","","","","test","TR","3"
"","show_choice","232","432801","0.0-223.0-1.0","""event"",""trial"",""time""
""fullscreenenter"",""0"",""17631""
","
","
","""event"",""trial"",""time""
""fullscreenenter"",""0"",""17631""
","
","null","run_exp/static/images/Set 6_rs/007a.jpg","null","","","","","","test","TR",""
"","html-keyboard-response","233","433322","0.0-223.0-2.0","""event"",""trial"",""time""
""fullscreenenter"",""0"",""17631""
","
","
","""event"",""trial"",""time""
""fullscreenenter"",""0"",""17631""
","
","null","<p></p>","null","","","","","","","",""
"","image","234","435069","0.0-224.0-0.0","""event"",""trial"",""time""
""fullscreenenter"",""0"",""17631""
","
","
","""event"",""trial"",""time""
""fullscreenenter"",""0"",""17631""
","
","1744","run_exp/static/images/Set 6_rs/048a.jpg","78","","","","","","test","TF","4"
"","show_choice","235","435587","0.0-224.0-1.0","""event"",""trial"",""time""
""fullscreenenter"",""0"",""17631""
","
","
","""event"",""trial"",""time""
""fullscreenenter"",""0"",""17631""
","
","null","run_exp/static/images/Set 6_rs/048a.jpg","null","","","","","","test","TF",""
"","html-keyboard-response","236","436088","0.0-224.0-2.0","""event"",""trial"",""time""
""fullscreenenter"",""0"",""17631""
","
","
","""event"",""trial"",""time""
""fullscreenenter"",""0"",""17631""
","
","null","<p></p>","null","","","","","","","",""
"","image","237","437778","0.0-225.0-0.0","""event"",""trial"",""time""
""fullscreenenter"",""0"",""17631""
","
","
","""event"",""trial"",""time""
""fullscreenenter"",""0"",""17631""
","
","1688.5999999940395","run_exp/static/images/Set 6_rs/006b.jpg","86","","","","","","test","TL","2"
"","show_choice","238","438294","0.0-225.0-1.0","""event"",""trial"",""time""
""fullscreenenter"",""0"",""17631""
","
","
","""event"",""trial"",""time""
""fullscreenenter"",""0"",""17631""
","
","null","run_exp/static/images/Set 6_rs/006b.jpg","null","","","","","","test","TL",""
"","html-keyboard-response","239","438812","0.0-225.0-2.0","""event"",""trial"",""time""
""fullscreenenter"",""0"",""17631""
","
","
","""event"",""trial"",""time""
""fullscreenenter"",""0"",""17631""
","
","null","<p></p>","null","","","","","","","",""
"","image","240","440365","0.0-226.0-0.0","""event"",""trial"",""time""
""fullscreenenter"",""0"",""17631""
","
","
","""event"",""trial"",""time""
""fullscreenenter"",""0"",""17631""
","
","1550.1000000089407","run_exp/static/images/Set 6_rs/055b.jpg","66","","","","","","test","TL","4"
"","show_choice","241","440879","0.0-226.0-1.0","""event"",""trial"",""time""
""fullscreenenter"",""0"",""17631""
","
","
","""event"",""trial"",""time""
""fullscreenenter"",""0"",""17631""
","
","null","run_exp/static/images/Set 6_rs/055b.jpg","null","","","","","","test","TL",""
"","html-keyboard-response","242","441403","0.0-226.0-2.0","""event"",""trial"",""time""
""fullscreenenter"",""0"",""17631""
","
","
","""event"",""trial"",""time""
""fullscreenenter"",""0"",""17631""
","
","null","<p></p>","null","","","","","","","",""
"","image","243","443221","0.0-227.0-0.0","""event"",""trial"",""time""
""fullscreenenter"",""0"",""17631""
","
","
","""event"",""trial"",""time""
""fullscreenenter"",""0"",""17631""
","
","1815.2999999970198","run_exp/static/images/Set 6_rs/017b.jpg","66","","","","","","test","TL","3"
"","show_choice","244","443739","0.0-227.0-1.0","""event"",""trial"",""time""
""fullscreenenter"",""0"",""17631""
","
","
","""event"",""trial"",""time""
""fullscreenenter"",""0"",""17631""
","
","null","run_exp/static/images/Set 6_rs/017b.jpg","null","","","","","","test","TL",""
"","html-keyboard-response","245","444256","0.0-227.0-2.0","""event"",""trial"",""time""
""fullscreenenter"",""0"",""17631""
","
","
","""event"",""trial"",""time""
""fullscreenenter"",""0"",""17631""
","
","null","<p></p>","null","","","","","","","",""
"","image","246","446077","0.0-228.0-0.0","""event"",""trial"",""time""
""fullscreenenter"",""0"",""17631""
","
","
","""event"",""trial"",""time""
""fullscreenenter"",""0"",""17631""
","
","1818.5","run_exp/static/images/Set 6_rs/066b.jpg","66","","","","","","test","TL","5"
"","show_choice","247","446590","0.0-228.0-1.0","""event"",""trial"",""time""
""fullscreenenter"",""0"",""17631""
","
","
","""event"",""trial"",""time""
""fullscreenenter"",""0"",""17631""
","
","null","run_exp/static/images/Set 6_rs/066b.jpg","null","","","","","","test","TL",""
"","html-keyboard-response","248","447100","0.0-228.0-2.0","""event"",""trial"",""time""
""fullscreenenter"",""0"",""17631""
","
","
","""event"",""trial"",""time""
""fullscreenenter"",""0"",""17631""
","
","null","<p></p>","null","","","","","","","",""
"","image","249","448253","0.0-229.0-0.0","""event"",""trial"",""time""
""fullscreenenter"",""0"",""17631""
","
","
","""event"",""trial"",""time""
""fullscreenenter"",""0"",""17631""
","
","1149.5","run_exp/static/images/Set 6_rs/170a.jpg","78","","","","","","test","TF","2"
"","show_choice","250","448755","0.0-229.0-1.0","""event"",""trial"",""time""
""fullscreenenter"",""0"",""17631""
","
","
","""event"",""trial"",""time""
""fullscreenenter"",""0"",""17631""
","
","null","run_exp/static/images/Set 6_rs/170a.jpg","null","","","","","","test","TF",""
"","html-keyboard-response","251","449267","0.0-229.0-2.0","""event"",""trial"",""time""
""fullscreenenter"",""0"",""17631""
","
","
","""event"",""trial"",""time""
""fullscreenenter"",""0"",""17631""
","
","null","<p></p>","null","","","","","","","",""
"","image","252","450914","0.0-230.0-0.0","""event"",""trial"",""time""
""fullscreenenter"",""0"",""17631""
","
","
","""event"",""trial"",""time""
""fullscreenenter"",""0"",""17631""
","
","1644.2999999970198","run_exp/static/images/Set 6_rs/076a.jpg","86","","","","","","test","TR","4"
"","show_choice","253","451425","0.0-230.0-1.0","""event"",""trial"",""time""
""fullscreenenter"",""0"",""17631""
","
","
","""event"",""trial"",""time""
""fullscreenenter"",""0"",""17631""
","
","null","run_exp/static/images/Set 6_rs/076a.jpg","null","","","","","","test","TR",""
"","html-keyboard-response","254","451941","0.0-230.0-2.0","""event"",""trial"",""time""
""fullscreenenter"",""0"",""17631""
","
","
","""event"",""trial"",""time""
""fullscreenenter"",""0"",""17631""
","
","null","<p></p>","null","","","","","","","",""
"","image","255","453501","0.0-231.0-0.0","""event"",""trial"",""time""
""fullscreenenter"",""0"",""17631""
","
","
","""event"",""trial"",""time""
""fullscreenenter"",""0"",""17631""
","
","1558.2000000029802","run_exp/static/images/Set 6_rs/052a.jpg","78","","","","","","test","TF","1"
"","show_choice","256","454008","0.0-231.0-1.0","""event"",""trial"",""time""
""fullscreenenter"",""0"",""17631""
","
","
","""event"",""trial"",""time""
""fullscreenenter"",""0"",""17631""
","
","null","run_exp/static/images/Set 6_rs/052a.jpg","null","","","","","","test","TF",""
"","html-keyboard-response","257","454531","0.0-231.0-2.0","""event"",""trial"",""time""
""fullscreenenter"",""0"",""17631""
","
","
","""event"",""trial"",""time""
""fullscreenenter"",""0"",""17631""
","
","null","<p></p>","null","","","","","","","",""
"","image","258","455482","0.0-232.0-0.0","""event"",""trial"",""time""
""fullscreenenter"",""0"",""17631""
","
","
","""event"",""trial"",""time""
""fullscreenenter"",""0"",""17631""
","
","949.2000000029802","run_exp/static/images/Set 6_rs/035a.jpg","78","","","","","","test","TF","4"
"","show_choice","259","455992","0.0-232.0-1.0","""event"",""trial"",""time""
""fullscreenenter"",""0"",""17631""
","
","
","""event"",""trial"",""time""
""fullscreenenter"",""0"",""17631""
","
","null","run_exp/static/images/Set 6_rs/035a.jpg","null","","","","","","test","TF",""
"","html-keyboard-response","260","456498","0.0-232.0-2.0","""event"",""trial"",""time""
""fullscreenenter"",""0"",""17631""
","
","
","""event"",""trial"",""time""
""fullscreenenter"",""0"",""17631""
","
","null","<p></p>","null","","","","","","","",""
"","image","261","458189","0.0-233.0-0.0","""event"",""trial"",""time""
""fullscreenenter"",""0"",""17631""
","
","
","""event"",""trial"",""time""
""fullscreenenter"",""0"",""17631""
","
","1688","run_exp/static/images/Set 6_rs/036b.jpg","86","","","","","","test","TL","4"
"","show_choice","262","458702","0.0-233.0-1.0","""event"",""trial"",""time""
""fullscreenenter"",""0"",""17631""
","
","
","""event"",""trial"",""time""
""fullscreenenter"",""0"",""17631""
","
","null","run_exp/static/images/Set 6_rs/036b.jpg","null","","","","","","test","TL",""
"","html-keyboard-response","263","459204","0.0-233.0-2.0","""event"",""trial"",""time""
""fullscreenenter"",""0"",""17631""
","
","
","""event"",""trial"",""time""
""fullscreenenter"",""0"",""17631""
","
","null","<p></p>","null","","","","","","","",""
"","image","264","460932","0.0-234.0-0.0","""event"",""trial"",""time""
""fullscreenenter"",""0"",""17631""
","
","
","""event"",""trial"",""time""
""fullscreenenter"",""0"",""17631""
","
","1725.0999999940395","run_exp/static/images/Set 6_rs/100a.jpg","78","","","","","","test","TF","2"
"","show_choice","265","461446","0.0-234.0-1.0","""event"",""trial"",""time""
""fullscreenenter"",""0"",""17631""
","
","
","""event"",""trial"",""time""
""fullscreenenter"",""0"",""17631""
","
","null","run_exp/static/images/Set 6_rs/100a.jpg","null","","","","","","test","TF",""
"","html-keyboard-response","266","461963","0.0-234.0-2.0","""event"",""trial"",""time""
""fullscreenenter"",""0"",""17631""
","
","
","""event"",""trial"",""time""
""fullscreenenter"",""0"",""17631""
","
","null","<p></p>","null","","","","","","","",""
"","image","267","463237","0.0-235.0-0.0","""event"",""trial"",""time""
""fullscreenenter"",""0"",""17631""
","
","
","""event"",""trial"",""time""
""fullscreenenter"",""0"",""17631""
","
","1272.2000000029802","run_exp/static/images/Set 6_rs/021a.jpg","86","","","","","","test","TF","2"
"","show_choice","268","463751","0.0-235.0-1.0","""event"",""trial"",""time""
""fullscreenenter"",""0"",""17631""
","
","
","""event"",""trial"",""time""
""fullscreenenter"",""0"",""17631""
","
","null","run_exp/static/images/Set 6_rs/021a.jpg","null","","","","","","test","TF",""
"","html-keyboard-response","269","464252","0.0-235.0-2.0","""event"",""trial"",""time""
""fullscreenenter"",""0"",""17631""
","
","
","""event"",""trial"",""time""
""fullscreenenter"",""0"",""17631""
","
","null","<p></p>","null","","","","","","","",""
"","image","270","465709","0.0-236.0-0.0","""event"",""trial"",""time""
""fullscreenenter"",""0"",""17631""
","
","
","""event"",""trial"",""time""
""fullscreenenter"",""0"",""17631""
","
","1453.699999988079","run_exp/static/images/Set 6_rs/134a.jpg","86","","","","","","test","TR","3"
"","show_choice","271","466218","0.0-236.0-1.0","""event"",""trial"",""time""
""fullscreenenter"",""0"",""17631""
","
","
","""event"",""trial"",""time""
""fullscreenenter"",""0"",""17631""
","
","null","run_exp/static/images/Set 6_rs/134a.jpg","null","","","","","","test","TR",""
"","html-keyboard-response","272","466735","0.0-236.0-2.0","""event"",""trial"",""time""
""fullscreenenter"",""0"",""17631""
","
","
","""event"",""trial"",""time""
""fullscreenenter"",""0"",""17631""
","
","null","<p></p>","null","","","","","","","",""
"","image","273","467773","0.0-237.0-0.0","""event"",""trial"",""time""
""fullscreenenter"",""0"",""17631""
","
","
","""event"",""trial"",""time""
""fullscreenenter"",""0"",""17631""
","
","1034.5","run_exp/static/images/Set 6_rs/132a.jpg","86","","","","","","test","TR","5"
"","show_choice","274","468276","0.0-237.0-1.0","""event"",""trial"",""time""
""fullscreenenter"",""0"",""17631""
","
","
","""event"",""trial"",""time""
""fullscreenenter"",""0"",""17631""
","
","null","run_exp/static/images/Set 6_rs/132a.jpg","null","","","","","","test","TR",""
"","html-keyboard-response","275","468778","0.0-237.0-2.0","""event"",""trial"",""time""
""fullscreenenter"",""0"",""17631""
","
","
","""event"",""trial"",""time""
""fullscreenenter"",""0"",""17631""
","
","null","<p></p>","null","","","","","","","",""
"","image","276","469908","0.0-238.0-0.0","""event"",""trial"",""time""
""fullscreenenter"",""0"",""17631""
","
","
","""event"",""trial"",""time""
""fullscreenenter"",""0"",""17631""
","
","1127.8999999910593","run_exp/static/images/Set 6_rs/064a.jpg","86","","","","","","test","TR","5"
"","show_choice","277","470415","0.0-238.0-1.0","""event"",""trial"",""time""
""fullscreenenter"",""0"",""17631""
","
","
","""event"",""trial"",""time""
""fullscreenenter"",""0"",""17631""
","
","null","run_exp/static/images/Set 6_rs/064a.jpg","null","","","","","","test","TR",""
"","html-keyboard-response","278","470930","0.0-238.0-2.0","""event"",""trial"",""time""
""fullscreenenter"",""0"",""17631""
","
","
","""event"",""trial"",""time""
""fullscreenenter"",""0"",""17631""
","
","null","<p></p>","null","","","","","","","",""
"","image","279","471853","0.0-239.0-0.0","""event"",""trial"",""time""
""fullscreenenter"",""0"",""17631""
","
","
","""event"",""trial"",""time""
""fullscreenenter"",""0"",""17631""
","
","920.6000000089407","run_exp/static/images/Set 6_rs/129b.jpg","86","","","","","","test","TL","1"
"","show_choice","280","472369","0.0-239.0-1.0","""event"",""trial"",""time""
""fullscreenenter"",""0"",""17631""
","
","
","""event"",""trial"",""time""
""fullscreenenter"",""0"",""17631""
","
","null","run_exp/static/images/Set 6_rs/129b.jpg","null","","","","","","test","TL",""
"","html-keyboard-response","281","472886","0.0-239.0-2.0","""event"",""trial"",""time""
""fullscreenenter"",""0"",""17631""
","
","
","""event"",""trial"",""time""
""fullscreenenter"",""0"",""17631""
","
","null","<p></p>","null","","","","","","","",""
"","image","282","474506","0.0-240.0-0.0","""event"",""trial"",""time""
""fullscreenenter"",""0"",""17631""
","
","
","""event"",""trial"",""time""
""fullscreenenter"",""0"",""17631""
","
","1618.5","run_exp/static/images/Set 6_rs/005a.jpg","78","","","","","","test","TF","5"
"","show_choice","283","475023","0.0-240.0-1.0","""event"",""trial"",""time""
""fullscreenenter"",""0"",""17631""
","
","
","""event"",""trial"",""time""
""fullscreenenter"",""0"",""17631""
","
","null","run_exp/static/images/Set 6_rs/005a.jpg","null","","","","","","test","TF",""
"","html-keyboard-response","284","475539","0.0-240.0-2.0","""event"",""trial"",""time""
""fullscreenenter"",""0"",""17631""
","
","
","""event"",""trial"",""time""
""fullscreenenter"",""0"",""17631""
","
","null","<p></p>","null","","","","","","","",""
"","image","285","476914","0.0-241.0-0.0","""event"",""trial"",""time""
""fullscreenenter"",""0"",""17631""
","
","
","""event"",""trial"",""time""
""fullscreenenter"",""0"",""17631""
","
","1373.7000000029802","run_exp/static/images/Set 6_rs/012a.jpg","86","","","","","","test","TR","1"
"","show_choice","286","477428","0.0-241.0-1.0","""event"",""trial"",""time""
""fullscreenenter"",""0"",""17631""
","
","
","""event"",""trial"",""time""
""fullscreenenter"",""0"",""17631""
","
","null","run_exp/static/images/Set 6_rs/012a.jpg","null","","","","","","test","TR",""
"","html-keyboard-response","287","477945","0.0-241.0-2.0","""event"",""trial"",""time""
""fullscreenenter"",""0"",""17631""
","
","
","""event"",""trial"",""time""
""fullscreenenter"",""0"",""17631""
","
","null","<p></p>","null","","","","","","","",""
"","image","288","478907","0.0-242.0-0.0","""event"",""trial"",""time""
""fullscreenenter"",""0"",""17631""
","
","
","""event"",""trial"",""time""
""fullscreenenter"",""0"",""17631""
","
","958.8000000119209","run_exp/static/images/Set 6_rs/167b.jpg","86","","","","","","test","TL","2"
"","show_choice","289","479418","0.0-242.0-1.0","""event"",""trial"",""time""
""fullscreenenter"",""0"",""17631""
","
","
","""event"",""trial"",""time""
""fullscreenenter"",""0"",""17631""
","
","null","run_exp/static/images/Set 6_rs/167b.jpg","null","","","","","","test","TL",""
"","html-keyboard-response","290","479933","0.0-242.0-2.0","""event"",""trial"",""time""
""fullscreenenter"",""0"",""17631""
","
","
","""event"",""trial"",""time""
""fullscreenenter"",""0"",""17631""
","
","null","<p></p>","null","","","","","","","",""
"","image","291","481035","0.0-243.0-0.0","""event"",""trial"",""time""
""fullscreenenter"",""0"",""17631""
","
","
","""event"",""trial"",""time""
""fullscreenenter"",""0"",""17631""
","
","1099.5999999940395","run_exp/static/images/Set 6_rs/166a.jpg","86","","","","","","test","TR","1"
"","show_choice","292","481537","0.0-243.0-1.0","""event"",""trial"",""time""
""fullscreenenter"",""0"",""17631""
","
","
","""event"",""trial"",""time""
""fullscreenenter"",""0"",""17631""
","
","null","run_exp/static/images/Set 6_rs/166a.jpg","null","","","","","","test","TR",""
"","html-keyboard-response","293","482053","0.0-243.0-2.0","""event"",""trial"",""time""
""fullscreenenter"",""0"",""17631""
","
","
","""event"",""trial"",""time""
""fullscreenenter"",""0"",""17631""
","
","null","<p></p>","null","","","","","","","",""
"","image","294","483374","0.0-244.0-0.0","""event"",""trial"",""time""
""fullscreenenter"",""0"",""17631""
","
","
","""event"",""trial"",""time""
""fullscreenenter"",""0"",""17631""
","
","1319.0999999940395","run_exp/static/images/Set 6_rs/149a.jpg","66","","","","","","test","TF","1"
"","show_choice","295","483894","0.0-244.0-1.0","""event"",""trial"",""time""
""fullscreenenter"",""0"",""17631""
","
","
","""event"",""trial"",""time""
""fullscreenenter"",""0"",""17631""
","
","null","run_exp/static/images/Set 6_rs/149a.jpg","null","","","","","","test","TF",""
"","html-keyboard-response","296","484411","0.0-244.0-2.0","""event"",""trial"",""time""
""fullscreenenter"",""0"",""17631""
","
","
","""event"",""trial"",""time""
""fullscreenenter"",""0"",""17631""
","
","null","<p></p>","null","","","","","","","",""
"","image","297","485562","0.0-245.0-0.0","""event"",""trial"",""time""
""fullscreenenter"",""0"",""17631""
","
","
","""event"",""trial"",""time""
""fullscreenenter"",""0"",""17631""
","
","1148.7999999970198","run_exp/static/images/Set 6_rs/155a.jpg","78","","","","","","test","TF","4"
"","show_choice","298","486077","0.0-245.0-1.0","""event"",""trial"",""time""
""fullscreenenter"",""0"",""17631""
","
","
","""event"",""trial"",""time""
""fullscreenenter"",""0"",""17631""
","
","null","run_exp/static/images/Set 6_rs/155a.jpg","null","","","","","","test","TF",""
"","html-keyboard-response","299","486581","0.0-245.0-2.0","""event"",""trial"",""time""
""fullscreenenter"",""0"",""17631""
","
","
","""event"",""trial"",""time""
""fullscreenenter"",""0"",""17631""
","
","null","<p></p>","null","","","","","","","",""
"","image","300","488380","0.0-246.0-0.0","""event"",""trial"",""time""
""fullscreenenter"",""0"",""17631""
","
","
","""event"",""trial"",""time""
""fullscreenenter"",""0"",""17631""
","
","1795","run_exp/static/images/Set 6_rs/154a.jpg","86","","","","","","test","TR","3"
"","show_choice","301","488887","0.0-246.0-1.0","""event"",""trial"",""time""
""fullscreenenter"",""0"",""17631""
","
","
","""event"",""trial"",""time""
""fullscreenenter"",""0"",""17631""
","
","null","run_exp/static/images/Set 6_rs/154a.jpg","null","","","","","","test","TR",""
"","html-keyboard-response","302","489406","0.0-246.0-2.0","""event"",""trial"",""time""
""fullscreenenter"",""0"",""17631""
","
","
","""event"",""trial"",""time""
""fullscreenenter"",""0"",""17631""
","
","null","<p></p>","null","","","","","","","",""
"","image","303","490714","0.0-247.0-0.0","""event"",""trial"",""time""
""fullscreenenter"",""0"",""17631""
","
","
","""event"",""trial"",""time""
""fullscreenenter"",""0"",""17631""
","
","1306.0999999940395","run_exp/static/images/Set 6_rs/022a.jpg","66","","","","","","test","TF","4"
"","show_choice","304","491225","0.0-247.0-1.0","""event"",""trial"",""time""
""fullscreenenter"",""0"",""17631""
","
","
","""event"",""trial"",""time""
""fullscreenenter"",""0"",""17631""
","
","null","run_exp/static/images/Set 6_rs/022a.jpg","null","","","","","","test","TF",""
"","html-keyboard-response","305","491742","0.0-247.0-2.0","""event"",""trial"",""time""
""fullscreenenter"",""0"",""17631""
","
","
","""event"",""trial"",""time""
""fullscreenenter"",""0"",""17631""
","
","null","<p></p>","null","","","","","","","",""
"","image","306","492867","0.0-248.0-0.0","""event"",""trial"",""time""
""fullscreenenter"",""0"",""17631""
","
","
","""event"",""trial"",""time""
""fullscreenenter"",""0"",""17631""
","
","1123.4000000059605","run_exp/static/images/Set 6_rs/190a.jpg","78","","","","","","test","TF","3"
"","show_choice","307","493378","0.0-248.0-1.0","""event"",""trial"",""time""
""fullscreenenter"",""0"",""17631""
","
","
","""event"",""trial"",""time""
""fullscreenenter"",""0"",""17631""
","
","null","run_exp/static/images/Set 6_rs/190a.jpg","null","","","","","","test","TF",""
"","html-keyboard-response","308","493894","0.0-248.0-2.0","""event"",""trial"",""time""
""fullscreenenter"",""0"",""17631""
","
","
","""event"",""trial"",""time""
""fullscreenenter"",""0"",""17631""
","
","null","<p></p>","null","","","","","","","",""
"","image","309","495150","0.0-249.0-0.0","""event"",""trial"",""time""
""fullscreenenter"",""0"",""17631""
","
","
","""event"",""trial"",""time""
""fullscreenenter"",""0"",""17631""
","
","1253.4000000059605","run_exp/static/images/Set 6_rs/169a.jpg","86","","","","","","test","TR","4"
"","show_choice","310","495668","0.0-249.0-1.0","""event"",""trial"",""time""
""fullscreenenter"",""0"",""17631""
","
","
","""event"",""trial"",""time""
""fullscreenenter"",""0"",""17631""
","
","null","run_exp/static/images/Set 6_rs/169a.jpg","null","","","","","","test","TR",""
"","html-keyboard-response","311","496174","0.0-249.0-2.0","""event"",""trial"",""time""
""fullscreenenter"",""0"",""17631""
","
","
","""event"",""trial"",""time""
""fullscreenenter"",""0"",""17631""
","
","null","<p></p>","null","","","","","","","",""
"","image","312","497013","0.0-250.0-0.0","""event"",""trial"",""time""
""fullscreenenter"",""0"",""17631""
","
","
","""event"",""trial"",""time""
""fullscreenenter"",""0"",""17631""
","
","834.7000000029802","run_exp/static/images/Set 6_rs/141a.jpg","86","","","","","","test","TR","2"
"","show_choice","313","497525","0.0-250.0-1.0","""event"",""trial"",""time""
""fullscreenenter"",""0"",""17631""
","
","
","""event"",""trial"",""time""
""fullscreenenter"",""0"",""17631""
","
","null","run_exp/static/images/Set 6_rs/141a.jpg","null","","","","","","test","TR",""
"","html-keyboard-response","314","498041","0.0-250.0-2.0","""event"",""trial"",""time""
""fullscreenenter"",""0"",""17631""
","
","
","""event"",""trial"",""time""
""fullscreenenter"",""0"",""17631""
","
","null","<p></p>","null","","","","","","","",""
"","image","315","500179","0.0-251.0-0.0","""event"",""trial"",""time""
""fullscreenenter"",""0"",""17631""
","
","
","""event"",""trial"",""time""
""fullscreenenter"",""0"",""17631""
","
","2136.7000000029802","run_exp/static/images/Set 6_rs/121a.jpg","66","","","","","","test","TR","4"
"","show_choice","316","500693","0.0-251.0-1.0","""event"",""trial"",""time""
""fullscreenenter"",""0"",""17631""
","
","
","""event"",""trial"",""time""
""fullscreenenter"",""0"",""17631""
","
","null","run_exp/static/images/Set 6_rs/121a.jpg","null","","","","","","test","TR",""
"","html-keyboard-response","317","501195","0.0-251.0-2.0","""event"",""trial"",""time""
""fullscreenenter"",""0"",""17631""
","
","
","""event"",""trial"",""time""
""fullscreenenter"",""0"",""17631""
","
","null","<p></p>","null","","","","","","","",""
"","image","318","503091","0.0-252.0-0.0","""event"",""trial"",""time""
""fullscreenenter"",""0"",""17631""
","
","
","""event"",""trial"",""time""
""fullscreenenter"",""0"",""17631""
","
","1893.7999999970198","run_exp/static/images/Set 6_rs/056a.jpg","78","","","","","","test","TF","3"
"","show_choice","319","503599","0.0-252.0-1.0","""event"",""trial"",""time""
""fullscreenenter"",""0"",""17631""
","
","
","""event"",""trial"",""time""
""fullscreenenter"",""0"",""17631""
","
","null","run_exp/static/images/Set 6_rs/056a.jpg","null","","","","","","test","TF",""
"","html-keyboard-response","320","504117","0.0-252.0-2.0","""event"",""trial"",""time""
""fullscreenenter"",""0"",""17631""
","
","
","""event"",""trial"",""time""
""fullscreenenter"",""0"",""17631""
","
","null","<p></p>","null","","","","","","","",""
"","image","321","505882","0.0-253.0-0.0","""event"",""trial"",""time""
""fullscreenenter"",""0"",""17631""
","
","
","""event"",""trial"",""time""
""fullscreenenter"",""0"",""17631""
","
","1763","run_exp/static/images/Set 6_rs/112a.jpg","66","","","","","","test","TR","5"
"","show_choice","322","506391","0.0-253.0-1.0","""event"",""trial"",""time""
""fullscreenenter"",""0"",""17631""
","
","
","""event"",""trial"",""time""
""fullscreenenter"",""0"",""17631""
","
","null","run_exp/static/images/Set 6_rs/112a.jpg","null","","","","","","test","TR",""
"","html-keyboard-response","323","506898","0.0-253.0-2.0","""event"",""trial"",""time""
""fullscreenenter"",""0"",""17631""
","
","
","""event"",""trial"",""time""
""fullscreenenter"",""0"",""17631""
","
","null","<p></p>","null","","","","","","","",""
"","image","324","508474","0.0-254.0-0.0","""event"",""trial"",""time""
""fullscreenenter"",""0"",""17631""
","
","
","""event"",""trial"",""time""
""fullscreenenter"",""0"",""17631""
","
","1574.4000000059605","run_exp/static/images/Set 6_rs/014b.jpg","66","","","","","","test","TL","5"
"","show_choice","325","508982","0.0-254.0-1.0","""event"",""trial"",""time""
""fullscreenenter"",""0"",""17631""
","
","
","""event"",""trial"",""time""
""fullscreenenter"",""0"",""17631""
","
","null","run_exp/static/images/Set 6_rs/014b.jpg","null","","","","","","test","TL",""
"","html-keyboard-response","326","509510","0.0-254.0-2.0","""event"",""trial"",""time""
""fullscreenenter"",""0"",""17631""
","
","
","""event"",""trial"",""time""
""fullscreenenter"",""0"",""17631""
","
","null","<p></p>","null","","","","","","","",""
"","image","327","510900","0.0-255.0-0.0","""event"",""trial"",""time""
""fullscreenenter"",""0"",""17631""
","
","
","""event"",""trial"",""time""
""fullscreenenter"",""0"",""17631""
","
","1386.7999999970198","run_exp/static/images/Set 6_rs/010a.jpg","86","","","","","","test","TR","5"
"","show_choice","328","511402","0.0-255.0-1.0","""event"",""trial"",""time""
""fullscreenenter"",""0"",""17631""
","
","
","""event"",""trial"",""time""
""fullscreenenter"",""0"",""17631""
","
","null","run_exp/static/images/Set 6_rs/010a.jpg","null","","","","","","test","TR",""
"","html-keyboard-response","329","511919","0.0-255.0-2.0","""event"",""trial"",""time""
""fullscreenenter"",""0"",""17631""
","
","
","""event"",""trial"",""time""
""fullscreenenter"",""0"",""17631""
","
","null","<p></p>","null","","","","","","","",""
"","image","330","513820","0.0-256.0-0.0","""event"",""trial"",""time""
""fullscreenenter"",""0"",""17631""
","
","
","""event"",""trial"",""time""
""fullscreenenter"",""0"",""17631""
","
","1898","run_exp/static/images/Set 6_rs/050b.jpg","78","","","","","","test","TL","3"
"","show_choice","331","514324","0.0-256.0-1.0","""event"",""trial"",""time""
""fullscreenenter"",""0"",""17631""
","
","
","""event"",""trial"",""time""
""fullscreenenter"",""0"",""17631""
","
","null","run_exp/static/images/Set 6_rs/050b.jpg","null","","","","","","test","TL",""
"","html-keyboard-response","332","514840","0.0-256.0-2.0","""event"",""trial"",""time""
""fullscreenenter"",""0"",""17631""
","
","
","""event"",""trial"",""time""
""fullscreenenter"",""0"",""17631""
","
","null","<p></p>","null","","","","","","","",""
"","image","333","516530","0.0-257.0-0.0","""event"",""trial"",""time""
""fullscreenenter"",""0"",""17631""
","
","
","""event"",""trial"",""time""
""fullscreenenter"",""0"",""17631""
","
","1685.9000000059605","run_exp/static/images/Set 6_rs/187a.jpg","86","","","","","","test","TR","3"
"","show_choice","334","517043","0.0-257.0-1.0","""event"",""trial"",""time""
""fullscreenenter"",""0"",""17631""
","
","
","""event"",""trial"",""time""
""fullscreenenter"",""0"",""17631""
","
","null","run_exp/static/images/Set 6_rs/187a.jpg","null","","","","","","test","TR",""
"","html-keyboard-response","335","517545","0.0-257.0-2.0","""event"",""trial"",""time""
""fullscreenenter"",""0"",""17631""
","
","
","""event"",""trial"",""time""
""fullscreenenter"",""0"",""17631""
","
","null","<p></p>","null","","","","","","","",""
"","image","336","519515","0.0-258.0-0.0","""event"",""trial"",""time""
""fullscreenenter"",""0"",""17631""
","
","
","""event"",""trial"",""time""
""fullscreenenter"",""0"",""17631""
","
","1967.4000000059605","run_exp/static/images/Set 6_rs/011a.jpg","78","","","","","","test","TF","3"
"","show_choice","337","520020","0.0-258.0-1.0","""event"",""trial"",""time""
""fullscreenenter"",""0"",""17631""
","
","
","""event"",""trial"",""time""
""fullscreenenter"",""0"",""17631""
","
","null","run_exp/static/images/Set 6_rs/011a.jpg","null","","","","","","test","TF",""
"","html-keyboard-response","338","520537","0.0-258.0-2.0","""event"",""trial"",""time""
""fullscreenenter"",""0"",""17631""
","
","
","""event"",""trial"",""time""
""fullscreenenter"",""0"",""17631""
","
","null","<p></p>","null","","","","","","","",""
