"success","trial_type","trial_index","time_elapsed","internal_node_id","interactions","blur_events","focus_events","fullscreenenter_events","fullscreenexit_events","rt","stimulus","key_press","subject_id","participant_id","age","gender","prompt","phase","condition","lure_bin"
"true","fullscreen","0","2044","0.0-0.0","""event"",""trial"",""time""
""fullscreenenter"",""0"",""1056""
","
","
","""event"",""trial"",""time""
""fullscreenenter"",""0"",""1056""
","
","","","","","","","","","","",""
"","pavlovia","1","2047","0.0-1.0","""event"",""trial"",""time""
""fullscreenenter"",""0"",""1056""
","
","
","""event"",""trial"",""time""
""fullscreenenter"",""0"",""1056""
","
","","","","","","","","","","",""
"","welcome","2","36837","0.0-2.0","""event"",""trial"",""time""
""fullscreenenter"",""0"",""1056""
","
","
","""event"",""trial"",""time""
""fullscreenenter"",""0"",""1056""
","
","null","run_exp/static/audio/clip_1_welcome.m4a","null","164","497","12","Female","<div class='center'><p>Welcome to the third part of the study! First, you'll be shown pictures of items one at a time. For each picture, you have to decide if the item is typically found indoors or outdoors.</p><p>If you think it's usually found indoors, then press <b>v</b> key on your keyboard. If you think it's usually found outdoors, then press the <b>n</b> key.There will be reminders on the screen to help you remember which keys to press. </p><p>If you're not sure whether the item is an indoor item or an outdoor item, go ahead and take a guess but try your best not to skip that choice. </p></div>","","",""
"","html-keyboard-response","3","50597","0.0-3.0","""event"",""trial"",""time""
""fullscreenenter"",""0"",""1056""
","
","
","""event"",""trial"",""time""
""fullscreenenter"",""0"",""1056""
","
","13758.5","<div class='center'><p>Welcome to the third part of the study! First, you'll be shown pictures of items one at a time. For each picture, you have to decide if the item is typically found indoors or outdoors.</p><p>If you think it's usually found indoors, then press <b>v</b> key on your keyboard. If you think it's usually found outdoors, then press the <b>n</b> key.There will be reminders on the screen to help you remember which keys to press. </p><p>If you're not sure whether the item is an indoor item or an outdoor item, go ahead and take a guess but try your best not to skip that choice. </p><div><p><b>[Press the space bar to continue]</b></p></div>","32","","","","","","","",""
"","image","4","52615","0.0-4.0","""event"",""trial"",""time""
""fullscreenenter"",""0"",""1056""
","
","
","""event"",""trial"",""time""
""fullscreenenter"",""0"",""1056""
","
","null","run_exp/static/images/Set 6_rs/141a.jpg","null","","","","","","learn","SR",""
"","show_choice","5","54635","0.0-5.0","""event"",""trial"",""time""
""fullscreenenter"",""0"",""1056""
","
","
","""event"",""trial"",""time""
""fullscreenenter"",""0"",""1056""
","
","null","run_exp/static/images/blank.png","null","","","","","","learn","SR",""
"","html-keyboard-response","6","55145","0.0-6.0","""event"",""trial"",""time""
""fullscreenenter"",""0"",""1056""
","
","
","""event"",""trial"",""time""
""fullscreenenter"",""0"",""1056""
","
","null","<p></p>","null","","","","","","","",""
"","image","7","57165","0.0-7.0","""event"",""trial"",""time""
""fullscreenenter"",""0"",""1056""
","
","
","""event"",""trial"",""time""
""fullscreenenter"",""0"",""1056""
","
","null","run_exp/static/images/Set 6_rs/152a.jpg","null","","","","","","learn","SR",""
"","show_choice","8","59186","0.0-8.0","""event"",""trial"",""time""
""fullscreenenter"",""0"",""1056""
","
","
","""event"",""trial"",""time""
""fullscreenenter"",""0"",""1056""
","
","null","run_exp/static/images/blank.png","null","","","","","","learn","SR",""
"","html-keyboard-response","9","59695","0.0-9.0","""event"",""trial"",""time""
""fullscreenenter"",""0"",""1056""
","
","
","""event"",""trial"",""time""
""fullscreenenter"",""0"",""1056""
","
","null","<p></p>","null","","","","","","","",""
"","image","10","60646","0.0-10.0","""event"",""trial"",""time""
""fullscreenenter"",""0"",""1056""
","
","
","""event"",""trial"",""time""
""fullscreenenter"",""0"",""1056""
","
","949.5","run_exp/static/images/Set 6_rs/116a.jpg","86","","","","","","learn","SL",""
"","show_choice","11","61705","0.0-11.0","""event"",""trial"",""time""
""fullscreenenter"",""0"",""1056""
","
","
","""event"",""trial"",""time""
""fullscreenenter"",""0"",""1056""
","
","null","run_exp/static/images/Set 6_rs/116a.jpg","null","","","","","","learn","SL",""
"","html-keyboard-response","12","62225","0.0-12.0","""event"",""trial"",""time""
""fullscreenenter"",""0"",""1056""
","
","
","""event"",""trial"",""time""
""fullscreenenter"",""0"",""1056""
","
","null","<p></p>","null","","","","","","","",""
"","image","13","62998","0.0-13.0","""event"",""trial"",""time""
""fullscreenenter"",""0"",""1056""
","
","
","""event"",""trial"",""time""
""fullscreenenter"",""0"",""1056""
","
","771.0999999046326","run_exp/static/images/Set 6_rs/172a.jpg","78","","","","","","learn","SR",""
"","show_choice","14","64235","0.0-14.0","""event"",""trial"",""time""
""fullscreenenter"",""0"",""1056""
","
","
","""event"",""trial"",""time""
""fullscreenenter"",""0"",""1056""
","
","null","run_exp/static/images/Set 6_rs/172a.jpg","null","","","","","","learn","SR",""
"","html-keyboard-response","15","64755","0.0-15.0","""event"",""trial"",""time""
""fullscreenenter"",""0"",""1056""
","
","
","""event"",""trial"",""time""
""fullscreenenter"",""0"",""1056""
","
","null","<p></p>","null","","","","","","","",""
"","image","16","65744","0.0-16.0","""event"",""trial"",""time""
""fullscreenenter"",""0"",""1056""
","
","
","""event"",""trial"",""time""
""fullscreenenter"",""0"",""1056""
","
","988.4000000953674","run_exp/static/images/Set 6_rs/064a.jpg","86","","","","","","learn","SR",""
"","show_choice","17","66765","0.0-17.0","""event"",""trial"",""time""
""fullscreenenter"",""0"",""1056""
","
","
","""event"",""trial"",""time""
""fullscreenenter"",""0"",""1056""
","
","null","run_exp/static/images/Set 6_rs/064a.jpg","null","","","","","","learn","SR",""
"","html-keyboard-response","18","67285","0.0-18.0","""event"",""trial"",""time""
""fullscreenenter"",""0"",""1056""
","
","
","""event"",""trial"",""time""
""fullscreenenter"",""0"",""1056""
","
","null","<p></p>","null","","","","","","","",""
"","image","19","68457","0.0-19.0","""event"",""trial"",""time""
""fullscreenenter"",""0"",""1056""
","
","
","""event"",""trial"",""time""
""fullscreenenter"",""0"",""1056""
","
","1171.5","run_exp/static/images/Set 6_rs/126a.jpg","78","","","","","","learn","SR",""
"","show_choice","20","69305","0.0-20.0","""event"",""trial"",""time""
""fullscreenenter"",""0"",""1056""
","
","
","""event"",""trial"",""time""
""fullscreenenter"",""0"",""1056""
","
","null","run_exp/static/images/Set 6_rs/126a.jpg","null","","","","","","learn","SR",""
"","html-keyboard-response","21","69825","0.0-21.0","""event"",""trial"",""time""
""fullscreenenter"",""0"",""1056""
","
","
","""event"",""trial"",""time""
""fullscreenenter"",""0"",""1056""
","
","null","<p></p>","null","","","","","","","",""
"","image","22","70917","0.0-22.0","""event"",""trial"",""time""
""fullscreenenter"",""0"",""1056""
","
","
","""event"",""trial"",""time""
""fullscreenenter"",""0"",""1056""
","
","1090.7999999523163","run_exp/static/images/Set 6_rs/063a.jpg","86","","","","","","learn","SR",""
"","show_choice","23","71845","0.0-23.0","""event"",""trial"",""time""
""fullscreenenter"",""0"",""1056""
","
","
","""event"",""trial"",""time""
""fullscreenenter"",""0"",""1056""
","
","null","run_exp/static/images/Set 6_rs/063a.jpg","null","","","","","","learn","SR",""
"","html-keyboard-response","24","72365","0.0-24.0","""event"",""trial"",""time""
""fullscreenenter"",""0"",""1056""
","
","
","""event"",""trial"",""time""
""fullscreenenter"",""0"",""1056""
","
","null","<p></p>","null","","","","","","","",""
"","image","25","73083","0.0-25.0","""event"",""trial"",""time""
""fullscreenenter"",""0"",""1056""
","
","
","""event"",""trial"",""time""
""fullscreenenter"",""0"",""1056""
","
","716.7999999523163","run_exp/static/images/Set 6_rs/123a.jpg","78","","","","","","learn","SL",""
"","show_choice","26","74375","0.0-26.0","""event"",""trial"",""time""
""fullscreenenter"",""0"",""1056""
","
","
","""event"",""trial"",""time""
""fullscreenenter"",""0"",""1056""
","
","null","run_exp/static/images/Set 6_rs/123a.jpg","null","","","","","","learn","SL",""
"","html-keyboard-response","27","74895","0.0-27.0","""event"",""trial"",""time""
""fullscreenenter"",""0"",""1056""
","
","
","""event"",""trial"",""time""
""fullscreenenter"",""0"",""1056""
","
","null","<p></p>","null","","","","","","","",""
"","image","28","75948","0.0-28.0","""event"",""trial"",""time""
""fullscreenenter"",""0"",""1056""
","
","
","""event"",""trial"",""time""
""fullscreenenter"",""0"",""1056""
","
","1051.8999998569489","run_exp/static/images/Set 6_rs/055a.jpg","86","","","","","","learn","SL",""
"","show_choice","29","76915","0.0-29.0","""event"",""trial"",""time""
""fullscreenenter"",""0"",""1056""
","
","
","""event"",""trial"",""time""
""fullscreenenter"",""0"",""1056""
","
","null","run_exp/static/images/Set 6_rs/055a.jpg","null","","","","","","learn","SL",""
"","html-keyboard-response","30","77434","0.0-30.0","""event"",""trial"",""time""
""fullscreenenter"",""0"",""1056""
","
","
","""event"",""trial"",""time""
""fullscreenenter"",""0"",""1056""
","
","null","<p></p>","null","","","","","","","",""
"","image","31","78551","0.0-31.0","""event"",""trial"",""time""
""fullscreenenter"",""0"",""1056""
","
","
","""event"",""trial"",""time""
""fullscreenenter"",""0"",""1056""
","
","1115.7999999523163","run_exp/static/images/Set 6_rs/024a.jpg","86","","","","","","learn","SR",""
"","show_choice","32","79454","0.0-32.0","""event"",""trial"",""time""
""fullscreenenter"",""0"",""1056""
","
","
","""event"",""trial"",""time""
""fullscreenenter"",""0"",""1056""
","
","null","run_exp/static/images/Set 6_rs/024a.jpg","null","","","","","","learn","SR",""
"","html-keyboard-response","33","79975","0.0-33.0","""event"",""trial"",""time""
""fullscreenenter"",""0"",""1056""
","
","
","""event"",""trial"",""time""
""fullscreenenter"",""0"",""1056""
","
","null","<p></p>","null","","","","","","","",""
"","image","34","81245","0.0-34.0","""event"",""trial"",""time""
""fullscreenenter"",""0"",""1056""
","
","
","""event"",""trial"",""time""
""fullscreenenter"",""0"",""1056""
","
","1269.9000000953674","run_exp/static/images/Set 6_rs/074a.jpg","78","","","","","","learn","SL",""
"","show_choice","35","81995","0.0-35.0","""event"",""trial"",""time""
""fullscreenenter"",""0"",""1056""
","
","
","""event"",""trial"",""time""
""fullscreenenter"",""0"",""1056""
","
","null","run_exp/static/images/Set 6_rs/074a.jpg","null","","","","","","learn","SL",""
"","html-keyboard-response","36","82515","0.0-36.0","""event"",""trial"",""time""
""fullscreenenter"",""0"",""1056""
","
","
","""event"",""trial"",""time""
""fullscreenenter"",""0"",""1056""
","
","null","<p></p>","null","","","","","","","",""
"","image","37","83720","0.0-37.0","""event"",""trial"",""time""
""fullscreenenter"",""0"",""1056""
","
","
","""event"",""trial"",""time""
""fullscreenenter"",""0"",""1056""
","
","1203.7000000476837","run_exp/static/images/Set 6_rs/166a.jpg","86","","","","","","learn","SR",""
"","show_choice","38","84535","0.0-38.0","""event"",""trial"",""time""
""fullscreenenter"",""0"",""1056""
","
","
","""event"",""trial"",""time""
""fullscreenenter"",""0"",""1056""
","
","null","run_exp/static/images/Set 6_rs/166a.jpg","null","","","","","","learn","SR",""
"","html-keyboard-response","39","85045","0.0-39.0","""event"",""trial"",""time""
""fullscreenenter"",""0"",""1056""
","
","
","""event"",""trial"",""time""
""fullscreenenter"",""0"",""1056""
","
","null","<p></p>","null","","","","","","","",""
"","image","40","86721","0.0-40.0","""event"",""trial"",""time""
""fullscreenenter"",""0"",""1056""
","
","
","""event"",""trial"",""time""
""fullscreenenter"",""0"",""1056""
","
","1675.2000000476837","run_exp/static/images/Set 6_rs/167a.jpg","86","","","","","","learn","SL",""
"","show_choice","41","87055","0.0-41.0","""event"",""trial"",""time""
""fullscreenenter"",""0"",""1056""
","
","
","""event"",""trial"",""time""
""fullscreenenter"",""0"",""1056""
","
","null","run_exp/static/images/Set 6_rs/167a.jpg","null","","","","","","learn","SL",""
"","html-keyboard-response","42","87574","0.0-42.0","""event"",""trial"",""time""
""fullscreenenter"",""0"",""1056""
","
","
","""event"",""trial"",""time""
""fullscreenenter"",""0"",""1056""
","
","null","<p></p>","null","","","","","","","",""
"","image","43","88628","0.0-43.0","""event"",""trial"",""time""
""fullscreenenter"",""0"",""1056""
","
","
","""event"",""trial"",""time""
""fullscreenenter"",""0"",""1056""
","
","1052.9000000953674","run_exp/static/images/Set 6_rs/131a.jpg","78","","","","","","learn","SR",""
"","show_choice","44","89595","0.0-44.0","""event"",""trial"",""time""
""fullscreenenter"",""0"",""1056""
","
","
","""event"",""trial"",""time""
""fullscreenenter"",""0"",""1056""
","
","null","run_exp/static/images/Set 6_rs/131a.jpg","null","","","","","","learn","SR",""
"","html-keyboard-response","45","90105","0.0-45.0","""event"",""trial"",""time""
""fullscreenenter"",""0"",""1056""
","
","
","""event"",""trial"",""time""
""fullscreenenter"",""0"",""1056""
","
","null","<p></p>","null","","","","","","","",""
"","image","46","90963","0.0-46.0","""event"",""trial"",""time""
""fullscreenenter"",""0"",""1056""
","
","
","""event"",""trial"",""time""
""fullscreenenter"",""0"",""1056""
","
","857.7000000476837","run_exp/static/images/Set 6_rs/025a.jpg","78","","","","","","learn","SL",""
"","show_choice","47","92125","0.0-47.0","""event"",""trial"",""time""
""fullscreenenter"",""0"",""1056""
","
","
","""event"",""trial"",""time""
""fullscreenenter"",""0"",""1056""
","
","null","run_exp/static/images/Set 6_rs/025a.jpg","null","","","","","","learn","SL",""
"","html-keyboard-response","48","92645","0.0-48.0","""event"",""trial"",""time""
""fullscreenenter"",""0"",""1056""
","
","
","""event"",""trial"",""time""
""fullscreenenter"",""0"",""1056""
","
","null","<p></p>","null","","","","","","","",""
"","image","49","93641","0.0-49.0","""event"",""trial"",""time""
""fullscreenenter"",""0"",""1056""
","
","
","""event"",""trial"",""time""
""fullscreenenter"",""0"",""1056""
","
","994.3999998569489","run_exp/static/images/Set 6_rs/075a.jpg","86","","","","","","learn","SR",""
"","show_choice","50","94655","0.0-50.0","""event"",""trial"",""time""
""fullscreenenter"",""0"",""1056""
","
","
","""event"",""trial"",""time""
""fullscreenenter"",""0"",""1056""
","
","null","run_exp/static/images/Set 6_rs/075a.jpg","null","","","","","","learn","SR",""
"","html-keyboard-response","51","95165","0.0-51.0","""event"",""trial"",""time""
""fullscreenenter"",""0"",""1056""
","
","
","""event"",""trial"",""time""
""fullscreenenter"",""0"",""1056""
","
","null","<p></p>","null","","","","","","","",""
"","image","52","96115","0.0-52.0","""event"",""trial"",""time""
""fullscreenenter"",""0"",""1056""
","
","
","""event"",""trial"",""time""
""fullscreenenter"",""0"",""1056""
","
","949.2000000476837","run_exp/static/images/Set 6_rs/112a.jpg","86","","","","","","learn","SR",""
"","show_choice","53","97186","0.0-53.0","""event"",""trial"",""time""
""fullscreenenter"",""0"",""1056""
","
","
","""event"",""trial"",""time""
""fullscreenenter"",""0"",""1056""
","
","null","run_exp/static/images/Set 6_rs/112a.jpg","null","","","","","","learn","SR",""
"","html-keyboard-response","54","97696","0.0-54.0","""event"",""trial"",""time""
""fullscreenenter"",""0"",""1056""
","
","
","""event"",""trial"",""time""
""fullscreenenter"",""0"",""1056""
","
","null","<p></p>","null","","","","","","","",""
"","image","55","98671","0.0-55.0","""event"",""trial"",""time""
""fullscreenenter"",""0"",""1056""
","
","
","""event"",""trial"",""time""
""fullscreenenter"",""0"",""1056""
","
","973.8999998569489","run_exp/static/images/Set 6_rs/085a.jpg","78","","","","","","learn","SL",""
"","show_choice","56","99706","0.0-56.0","""event"",""trial"",""time""
""fullscreenenter"",""0"",""1056""
","
","
","""event"",""trial"",""time""
""fullscreenenter"",""0"",""1056""
","
","null","run_exp/static/images/Set 6_rs/085a.jpg","null","","","","","","learn","SL",""
"","html-keyboard-response","57","100215","0.0-57.0","""event"",""trial"",""time""
""fullscreenenter"",""0"",""1056""
","
","
","""event"",""trial"",""time""
""fullscreenenter"",""0"",""1056""
","
","null","<p></p>","null","","","","","","","",""
"","image","58","101653","0.0-58.0","""event"",""trial"",""time""
""fullscreenenter"",""0"",""1056""
","
","
","""event"",""trial"",""time""
""fullscreenenter"",""0"",""1056""
","
","1436.9000000953674","run_exp/static/images/Set 6_rs/036a.jpg","78","","","","","","learn","SL",""
"","show_choice","59","102225","0.0-59.0","""event"",""trial"",""time""
""fullscreenenter"",""0"",""1056""
","
","
","""event"",""trial"",""time""
""fullscreenenter"",""0"",""1056""
","
","null","run_exp/static/images/Set 6_rs/036a.jpg","null","","","","","","learn","SL",""
"","html-keyboard-response","60","102746","0.0-60.0","""event"",""trial"",""time""
""fullscreenenter"",""0"",""1056""
","
","
","""event"",""trial"",""time""
""fullscreenenter"",""0"",""1056""
","
","null","<p></p>","null","","","","","","","",""
"","image","61","103709","0.0-61.0","""event"",""trial"",""time""
""fullscreenenter"",""0"",""1056""
","
","
","""event"",""trial"",""time""
""fullscreenenter"",""0"",""1056""
","
","962.7000000476837","run_exp/static/images/Set 6_rs/144a.jpg","86","","","","","","learn","SL",""
"","show_choice","62","104755","0.0-62.0","""event"",""trial"",""time""
""fullscreenenter"",""0"",""1056""
","
","
","""event"",""trial"",""time""
""fullscreenenter"",""0"",""1056""
","
","null","run_exp/static/images/Set 6_rs/144a.jpg","null","","","","","","learn","SL",""
"","html-keyboard-response","63","105276","0.0-63.0","""event"",""trial"",""time""
""fullscreenenter"",""0"",""1056""
","
","
","""event"",""trial"",""time""
""fullscreenenter"",""0"",""1056""
","
","null","<p></p>","null","","","","","","","",""
"","image","64","106366","0.0-64.0","""event"",""trial"",""time""
""fullscreenenter"",""0"",""1056""
","
","
","""event"",""trial"",""time""
""fullscreenenter"",""0"",""1056""
","
","1089.5","run_exp/static/images/Set 6_rs/023a.jpg","86","","","","","","learn","SR",""
"","show_choice","65","107295","0.0-65.0","""event"",""trial"",""time""
""fullscreenenter"",""0"",""1056""
","
","
","""event"",""trial"",""time""
""fullscreenenter"",""0"",""1056""
","
","null","run_exp/static/images/Set 6_rs/023a.jpg","null","","","","","","learn","SR",""
"","html-keyboard-response","66","107816","0.0-66.0","""event"",""trial"",""time""
""fullscreenenter"",""0"",""1056""
","
","
","""event"",""trial"",""time""
""fullscreenenter"",""0"",""1056""
","
","null","<p></p>","null","","","","","","","",""
"","image","67","108808","0.0-67.0","""event"",""trial"",""time""
""fullscreenenter"",""0"",""1056""
","
","
","""event"",""trial"",""time""
""fullscreenenter"",""0"",""1056""
","
","991.5","run_exp/static/images/Set 6_rs/070a.jpg","86","","","","","","learn","SR",""
"","show_choice","68","109836","0.0-68.0","""event"",""trial"",""time""
""fullscreenenter"",""0"",""1056""
","
","
","""event"",""trial"",""time""
""fullscreenenter"",""0"",""1056""
","
","null","run_exp/static/images/Set 6_rs/070a.jpg","null","","","","","","learn","SR",""
"","html-keyboard-response","69","110356","0.0-69.0","""event"",""trial"",""time""
""fullscreenenter"",""0"",""1056""
","
","
","""event"",""trial"",""time""
""fullscreenenter"",""0"",""1056""
","
","null","<p></p>","null","","","","","","","",""
"","image","70","112375","0.0-70.0","""event"",""trial"",""time""
""fullscreenenter"",""0"",""1056""
","
","
","""event"",""trial"",""time""
""fullscreenenter"",""0"",""1056""
","
","null","run_exp/static/images/Set 6_rs/010a.jpg","null","","","","","","learn","SR",""
"","show_choice","71","114396","0.0-71.0","""event"",""trial"",""time""
""fullscreenenter"",""0"",""1056""
","
","
","""event"",""trial"",""time""
""fullscreenenter"",""0"",""1056""
","
","null","run_exp/static/images/blank.png","null","","","","","","learn","SR",""
"","html-keyboard-response","72","114915","0.0-72.0","""event"",""trial"",""time""
""fullscreenenter"",""0"",""1056""
","
","
","""event"",""trial"",""time""
""fullscreenenter"",""0"",""1056""
","
","null","<p></p>","null","","","","","","","",""
"","image","73","116695","0.0-73.0","""event"",""trial"",""time""
""fullscreenenter"",""0"",""1056""
","
","
","""event"",""trial"",""time""
""fullscreenenter"",""0"",""1056""
","
","1778.8999998569489","run_exp/static/images/Set 6_rs/008a.jpg","78","","","","","","learn","SL",""
"","show_choice","74","116925","0.0-74.0","""event"",""trial"",""time""
""fullscreenenter"",""0"",""1056""
","
","
","""event"",""trial"",""time""
""fullscreenenter"",""0"",""1056""
","
","null","run_exp/static/images/Set 6_rs/008a.jpg","null","","","","","","learn","SL",""
"","html-keyboard-response","75","117435","0.0-75.0","""event"",""trial"",""time""
""fullscreenenter"",""0"",""1056""
","
","
","""event"",""trial"",""time""
""fullscreenenter"",""0"",""1056""
","
","null","<p></p>","null","","","","","","","",""
"","image","76","119180","0.0-76.0","""event"",""trial"",""time""
""fullscreenenter"",""0"",""1056""
","
","
","""event"",""trial"",""time""
""fullscreenenter"",""0"",""1056""
","
","1743.9000000953674","run_exp/static/images/Set 6_rs/089a.jpg","86","","","","","","learn","SL",""
"","show_choice","77","119446","0.0-77.0","""event"",""trial"",""time""
""fullscreenenter"",""0"",""1056""
","
","
","""event"",""trial"",""time""
""fullscreenenter"",""0"",""1056""
","
","null","run_exp/static/images/Set 6_rs/089a.jpg","null","","","","","","learn","SL",""
"","html-keyboard-response","78","119956","0.0-78.0","""event"",""trial"",""time""
""fullscreenenter"",""0"",""1056""
","
","
","""event"",""trial"",""time""
""fullscreenenter"",""0"",""1056""
","
","null","<p></p>","null","","","","","","","",""
"","image","79","121094","0.0-79.0","""event"",""trial"",""time""
""fullscreenenter"",""0"",""1056""
","
","
","""event"",""trial"",""time""
""fullscreenenter"",""0"",""1056""
","
","1137.3000001907349","run_exp/static/images/Set 6_rs/088a.jpg","86","","","","","","learn","SR",""
"","show_choice","80","121976","0.0-80.0","""event"",""trial"",""time""
""fullscreenenter"",""0"",""1056""
","
","
","""event"",""trial"",""time""
""fullscreenenter"",""0"",""1056""
","
","null","run_exp/static/images/Set 6_rs/088a.jpg","null","","","","","","learn","SR",""
"","html-keyboard-response","81","122476","0.0-81.0","""event"",""trial"",""time""
""fullscreenenter"",""0"",""1056""
","
","
","""event"",""trial"",""time""
""fullscreenenter"",""0"",""1056""
","
","null","<p></p>","null","","","","","","","",""
"","image","82","123669","0.0-82.0","""event"",""trial"",""time""
""fullscreenenter"",""0"",""1056""
","
","
","""event"",""trial"",""time""
""fullscreenenter"",""0"",""1056""
","
","1191.6000001430511","run_exp/static/images/Set 6_rs/012a.jpg","78","","","","","","learn","SR",""
"","show_choice","83","124496","0.0-83.0","""event"",""trial"",""time""
""fullscreenenter"",""0"",""1056""
","
","
","""event"",""trial"",""time""
""fullscreenenter"",""0"",""1056""
","
","null","run_exp/static/images/Set 6_rs/012a.jpg","null","","","","","","learn","SR",""
"","html-keyboard-response","84","125006","0.0-84.0","""event"",""trial"",""time""
""fullscreenenter"",""0"",""1056""
","
","
","""event"",""trial"",""time""
""fullscreenenter"",""0"",""1056""
","
","null","<p></p>","null","","","","","","","",""
"","image","85","126437","0.0-85.0","""event"",""trial"",""time""
""fullscreenenter"",""0"",""1056""
","
","
","""event"",""trial"",""time""
""fullscreenenter"",""0"",""1056""
","
","1430.0999999046326","run_exp/static/images/Set 6_rs/191a.jpg","78","","","","","","learn","SL",""
"","show_choice","86","127026","0.0-86.0","""event"",""trial"",""time""
""fullscreenenter"",""0"",""1056""
","
","
","""event"",""trial"",""time""
""fullscreenenter"",""0"",""1056""
","
","null","run_exp/static/images/Set 6_rs/191a.jpg","null","","","","","","learn","SL",""
"","html-keyboard-response","87","127546","0.0-87.0","""event"",""trial"",""time""
""fullscreenenter"",""0"",""1056""
","
","
","""event"",""trial"",""time""
""fullscreenenter"",""0"",""1056""
","
","null","<p></p>","null","","","","","","","",""
"","image","88","128347","0.0-88.0","""event"",""trial"",""time""
""fullscreenenter"",""0"",""1056""
","
","
","""event"",""trial"",""time""
""fullscreenenter"",""0"",""1056""
","
","799.5999999046326","run_exp/static/images/Set 6_rs/095a.jpg","86","","","","","","learn","SL",""
"","show_choice","89","129555","0.0-89.0","""event"",""trial"",""time""
""fullscreenenter"",""0"",""1056""
","
","
","""event"",""trial"",""time""
""fullscreenenter"",""0"",""1056""
","
","null","run_exp/static/images/Set 6_rs/095a.jpg","null","","","","","","learn","SL",""
"","html-keyboard-response","90","130066","0.0-90.0","""event"",""trial"",""time""
""fullscreenenter"",""0"",""1056""
","
","
","""event"",""trial"",""time""
""fullscreenenter"",""0"",""1056""
","
","null","<p></p>","null","","","","","","","",""
"","image","91","130944","0.0-91.0","""event"",""trial"",""time""
""fullscreenenter"",""0"",""1056""
","
","
","""event"",""trial"",""time""
""fullscreenenter"",""0"",""1056""
","
","877.5","run_exp/static/images/Set 6_rs/154a.jpg","86","","","","","","learn","SR",""
"","show_choice","92","132087","0.0-92.0","""event"",""trial"",""time""
""fullscreenenter"",""0"",""1056""
","
","
","""event"",""trial"",""time""
""fullscreenenter"",""0"",""1056""
","
","null","run_exp/static/images/Set 6_rs/154a.jpg","null","","","","","","learn","SR",""
"","html-keyboard-response","93","132596","0.0-93.0","""event"",""trial"",""time""
""fullscreenenter"",""0"",""1056""
","
","
","""event"",""trial"",""time""
""fullscreenenter"",""0"",""1056""
","
","null","<p></p>","null","","","","","","","",""
"","image","94","133434","0.0-94.0","""event"",""trial"",""time""
""fullscreenenter"",""0"",""1056""
","
","
","""event"",""trial"",""time""
""fullscreenenter"",""0"",""1056""
","
","836.2999999523163","run_exp/static/images/Set 6_rs/076a.jpg","78","","","","","","learn","SR",""
"","show_choice","95","134616","0.0-95.0","""event"",""trial"",""time""
""fullscreenenter"",""0"",""1056""
","
","
","""event"",""trial"",""time""
""fullscreenenter"",""0"",""1056""
","
","null","run_exp/static/images/Set 6_rs/076a.jpg","null","","","","","","learn","SR",""
"","html-keyboard-response","96","135135","0.0-96.0","""event"",""trial"",""time""
""fullscreenenter"",""0"",""1056""
","
","
","""event"",""trial"",""time""
""fullscreenenter"",""0"",""1056""
","
","null","<p></p>","null","","","","","","","",""
"","image","97","136074","0.0-97.0","""event"",""trial"",""time""
""fullscreenenter"",""0"",""1056""
","
","
","""event"",""trial"",""time""
""fullscreenenter"",""0"",""1056""
","
","937.5","run_exp/static/images/Set 6_rs/016a.jpg","86","","","","","","learn","SL",""
"","show_choice","98","137156","0.0-98.0","""event"",""trial"",""time""
""fullscreenenter"",""0"",""1056""
","
","
","""event"",""trial"",""time""
""fullscreenenter"",""0"",""1056""
","
","null","run_exp/static/images/Set 6_rs/016a.jpg","null","","","","","","learn","SL",""
"","html-keyboard-response","99","137676","0.0-99.0","""event"",""trial"",""time""
""fullscreenenter"",""0"",""1056""
","
","
","""event"",""trial"",""time""
""fullscreenenter"",""0"",""1056""
","
","null","<p></p>","null","","","","","","","",""
"","image","100","138976","0.0-100.0","""event"",""trial"",""time""
""fullscreenenter"",""0"",""1056""
","
","
","""event"",""trial"",""time""
""fullscreenenter"",""0"",""1056""
","
","1298.8999998569489","run_exp/static/images/Set 6_rs/168a.jpg","78","","","","","","learn","SL",""
"","show_choice","101","139686","0.0-101.0","""event"",""trial"",""time""
""fullscreenenter"",""0"",""1056""
","
","
","""event"",""trial"",""time""
""fullscreenenter"",""0"",""1056""
","
","null","run_exp/static/images/Set 6_rs/168a.jpg","null","","","","","","learn","SL",""
"","html-keyboard-response","102","140196","0.0-102.0","""event"",""trial"",""time""
""fullscreenenter"",""0"",""1056""
","
","
","""event"",""trial"",""time""
""fullscreenenter"",""0"",""1056""
","
","null","<p></p>","null","","","","","","","",""
"","image","103","141718","0.0-103.0","""event"",""trial"",""time""
""fullscreenenter"",""0"",""1056""
","
","
","""event"",""trial"",""time""
""fullscreenenter"",""0"",""1056""
","
","1521.6000001430511","run_exp/static/images/Set 6_rs/045a.jpg","86","","","","","","learn","SR",""
"","show_choice","104","142216","0.0-104.0","""event"",""trial"",""time""
""fullscreenenter"",""0"",""1056""
","
","
","""event"",""trial"",""time""
""fullscreenenter"",""0"",""1056""
","
","null","run_exp/static/images/Set 6_rs/045a.jpg","null","","","","","","learn","SR",""
"","html-keyboard-response","105","142736","0.0-105.0","""event"",""trial"",""time""
""fullscreenenter"",""0"",""1056""
","
","
","""event"",""trial"",""time""
""fullscreenenter"",""0"",""1056""
","
","null","<p></p>","null","","","","","","","",""
"","image","106","143717","0.0-106.0","""event"",""trial"",""time""
""fullscreenenter"",""0"",""1056""
","
","
","""event"",""trial"",""time""
""fullscreenenter"",""0"",""1056""
","
","980.2999999523163","run_exp/static/images/Set 6_rs/150a.jpg","86","","","","","","learn","SR",""
"","show_choice","107","144754","0.0-107.0","""event"",""trial"",""time""
""fullscreenenter"",""0"",""1056""
","
","
","""event"",""trial"",""time""
""fullscreenenter"",""0"",""1056""
","
","null","run_exp/static/images/Set 6_rs/150a.jpg","null","","","","","","learn","SR",""
"","html-keyboard-response","108","145266","0.0-108.0","""event"",""trial"",""time""
""fullscreenenter"",""0"",""1056""
","
","
","""event"",""trial"",""time""
""fullscreenenter"",""0"",""1056""
","
","null","<p></p>","null","","","","","","","",""
"","image","109","146534","0.0-109.0","""event"",""trial"",""time""
""fullscreenenter"",""0"",""1056""
","
","
","""event"",""trial"",""time""
""fullscreenenter"",""0"",""1056""
","
","1267.2999999523163","run_exp/static/images/Set 6_rs/062a.jpg","86","","","","","","learn","SL",""
"","show_choice","110","147286","0.0-110.0","""event"",""trial"",""time""
""fullscreenenter"",""0"",""1056""
","
","
","""event"",""trial"",""time""
""fullscreenenter"",""0"",""1056""
","
","null","run_exp/static/images/Set 6_rs/062a.jpg","null","","","","","","learn","SL",""
"","html-keyboard-response","111","147796","0.0-111.0","""event"",""trial"",""time""
""fullscreenenter"",""0"",""1056""
","
","
","""event"",""trial"",""time""
""fullscreenenter"",""0"",""1056""
","
","null","<p></p>","null","","","","","","","",""
"","image","112","148549","0.0-112.0","""event"",""trial"",""time""
""fullscreenenter"",""0"",""1056""
","
","
","""event"",""trial"",""time""
""fullscreenenter"",""0"",""1056""
","
","751.7999999523163","run_exp/static/images/Set 6_rs/177a.jpg","78","","","","","","learn","SR",""
"","show_choice","113","149816","0.0-113.0","""event"",""trial"",""time""
""fullscreenenter"",""0"",""1056""
","
","
","""event"",""trial"",""time""
""fullscreenenter"",""0"",""1056""
","
","null","run_exp/static/images/Set 6_rs/177a.jpg","null","","","","","","learn","SR",""
"","html-keyboard-response","114","150336","0.0-114.0","""event"",""trial"",""time""
""fullscreenenter"",""0"",""1056""
","
","
","""event"",""trial"",""time""
""fullscreenenter"",""0"",""1056""
","
","null","<p></p>","null","","","","","","","",""
"","image","115","151364","0.0-115.0","""event"",""trial"",""time""
""fullscreenenter"",""0"",""1056""
","
","
","""event"",""trial"",""time""
""fullscreenenter"",""0"",""1056""
","
","1027.3999998569489","run_exp/static/images/Set 6_rs/117a.jpg","86","","","","","","learn","SL",""
"","show_choice","116","152356","0.0-116.0","""event"",""trial"",""time""
""fullscreenenter"",""0"",""1056""
","
","
","""event"",""trial"",""time""
""fullscreenenter"",""0"",""1056""
","
","null","run_exp/static/images/Set 6_rs/117a.jpg","null","","","","","","learn","SL",""
"","html-keyboard-response","117","152863","0.0-117.0","""event"",""trial"",""time""
""fullscreenenter"",""0"",""1056""
","
","
","""event"",""trial"",""time""
""fullscreenenter"",""0"",""1056""
","
","null","<p></p>","null","","","","","","","",""
"","image","118","153983","0.0-118.0","""event"",""trial"",""time""
""fullscreenenter"",""0"",""1056""
","
","
","""event"",""trial"",""time""
""fullscreenenter"",""0"",""1056""
","
","1119.5","run_exp/static/images/Set 6_rs/091a.jpg","78","","","","","","learn","SL",""
"","show_choice","119","154866","0.0-119.0","""event"",""trial"",""time""
""fullscreenenter"",""0"",""1056""
","
","
","""event"",""trial"",""time""
""fullscreenenter"",""0"",""1056""
","
","null","run_exp/static/images/Set 6_rs/091a.jpg","null","","","","","","learn","SL",""
"","html-keyboard-response","120","155376","0.0-120.0","""event"",""trial"",""time""
""fullscreenenter"",""0"",""1056""
","
","
","""event"",""trial"",""time""
""fullscreenenter"",""0"",""1056""
","
","null","<p></p>","null","","","","","","","",""
"","image","121","156258","0.0-121.0","""event"",""trial"",""time""
""fullscreenenter"",""0"",""1056""
","
","
","""event"",""trial"",""time""
""fullscreenenter"",""0"",""1056""
","
","880.6000001430511","run_exp/static/images/Set 6_rs/014a.jpg","86","","","","","","learn","SL",""
"","show_choice","122","157396","0.0-122.0","""event"",""trial"",""time""
""fullscreenenter"",""0"",""1056""
","
","
","""event"",""trial"",""time""
""fullscreenenter"",""0"",""1056""
","
","null","run_exp/static/images/Set 6_rs/014a.jpg","null","","","","","","learn","SL",""
"","html-keyboard-response","123","157916","0.0-123.0","""event"",""trial"",""time""
""fullscreenenter"",""0"",""1056""
","
","
","""event"",""trial"",""time""
""fullscreenenter"",""0"",""1056""
","
","null","<p></p>","null","","","","","","","",""
"","image","124","158858","0.0-124.0","""event"",""trial"",""time""
""fullscreenenter"",""0"",""1056""
","
","
","""event"",""trial"",""time""
""fullscreenenter"",""0"",""1056""
","
","942","run_exp/static/images/Set 6_rs/006a.jpg","78","","","","","","learn","SL",""
"","show_choice","125","159926","0.0-125.0","""event"",""trial"",""time""
""fullscreenenter"",""0"",""1056""
","
","
","""event"",""trial"",""time""
""fullscreenenter"",""0"",""1056""
","
","null","run_exp/static/images/Set 6_rs/006a.jpg","null","","","","","","learn","SL",""
"","html-keyboard-response","126","160436","0.0-126.0","""event"",""trial"",""time""
""fullscreenenter"",""0"",""1056""
","
","
","""event"",""trial"",""time""
""fullscreenenter"",""0"",""1056""
","
","null","<p></p>","null","","","","","","","",""
"","image","127","161511","0.0-127.0","""event"",""trial"",""time""
""fullscreenenter"",""0"",""1056""
","
","
","""event"",""trial"",""time""
""fullscreenenter"",""0"",""1056""
","
","1074.7000000476837","run_exp/static/images/Set 6_rs/071a.jpg","78","","","","","","learn","SL",""
"","show_choice","128","162446","0.0-128.0","""event"",""trial"",""time""
""fullscreenenter"",""0"",""1056""
","
","
","""event"",""trial"",""time""
""fullscreenenter"",""0"",""1056""
","
","null","run_exp/static/images/Set 6_rs/071a.jpg","null","","","","","","learn","SL",""
"","html-keyboard-response","129","162966","0.0-129.0","""event"",""trial"",""time""
""fullscreenenter"",""0"",""1056""
","
","
","""event"",""trial"",""time""
""fullscreenenter"",""0"",""1056""
","
","null","<p></p>","null","","","","","","","",""
"","image","130","163757","0.0-130.0","""event"",""trial"",""time""
""fullscreenenter"",""0"",""1056""
","
","
","""event"",""trial"",""time""
""fullscreenenter"",""0"",""1056""
","
","789.7999999523163","run_exp/static/images/Set 6_rs/111a.jpg","86","","","","","","learn","SL",""
"","show_choice","131","164974","0.0-131.0","""event"",""trial"",""time""
""fullscreenenter"",""0"",""1056""
","
","
","""event"",""trial"",""time""
""fullscreenenter"",""0"",""1056""
","
","null","run_exp/static/images/Set 6_rs/111a.jpg","null","","","","","","learn","SL",""
"","html-keyboard-response","132","165475","0.0-132.0","""event"",""trial"",""time""
""fullscreenenter"",""0"",""1056""
","
","
","""event"",""trial"",""time""
""fullscreenenter"",""0"",""1056""
","
","null","<p></p>","null","","","","","","","",""
"","image","133","166073","0.0-133.0","""event"",""trial"",""time""
""fullscreenenter"",""0"",""1056""
","
","
","""event"",""trial"",""time""
""fullscreenenter"",""0"",""1056""
","
","597.1000001430511","run_exp/static/images/Set 6_rs/186a.jpg","86","","","","","","learn","SR",""
"","show_choice","134","167485","0.0-134.0","""event"",""trial"",""time""
""fullscreenenter"",""0"",""1056""
","
","
","""event"",""trial"",""time""
""fullscreenenter"",""0"",""1056""
","
","null","run_exp/static/images/Set 6_rs/186a.jpg","null","","","","","","learn","SR",""
"","html-keyboard-response","135","168006","0.0-135.0","""event"",""trial"",""time""
""fullscreenenter"",""0"",""1056""
","
","
","""event"",""trial"",""time""
""fullscreenenter"",""0"",""1056""
","
","null","<p></p>","null","","","","","","","",""
"","image","136","168616","0.0-136.0","""event"",""trial"",""time""
""fullscreenenter"",""0"",""1056""
","
","
","""event"",""trial"",""time""
""fullscreenenter"",""0"",""1056""
","
","609","run_exp/static/images/Set 6_rs/138a.jpg","78","","","","","","learn","SL",""
"","show_choice","137","170016","0.0-137.0","""event"",""trial"",""time""
""fullscreenenter"",""0"",""1056""
","
","
","""event"",""trial"",""time""
""fullscreenenter"",""0"",""1056""
","
","null","run_exp/static/images/Set 6_rs/138a.jpg","null","","","","","","learn","SL",""
"","html-keyboard-response","138","170536","0.0-138.0","""event"",""trial"",""time""
""fullscreenenter"",""0"",""1056""
","
","
","""event"",""trial"",""time""
""fullscreenenter"",""0"",""1056""
","
","null","<p></p>","null","","","","","","","",""
"","image","139","171318","0.0-139.0","""event"",""trial"",""time""
""fullscreenenter"",""0"",""1056""
","
","
","""event"",""trial"",""time""
""fullscreenenter"",""0"",""1056""
","
","781.9000000953674","run_exp/static/images/Set 6_rs/178a.jpg","78","","","","","","learn","SR",""
"","show_choice","140","172556","0.0-140.0","""event"",""trial"",""time""
""fullscreenenter"",""0"",""1056""
","
","
","""event"",""trial"",""time""
""fullscreenenter"",""0"",""1056""
","
","null","run_exp/static/images/Set 6_rs/178a.jpg","null","","","","","","learn","SR",""
"","html-keyboard-response","141","173076","0.0-141.0","""event"",""trial"",""time""
""fullscreenenter"",""0"",""1056""
","
","
","""event"",""trial"",""time""
""fullscreenenter"",""0"",""1056""
","
","null","<p></p>","null","","","","","","","",""
"","image","142","174104","0.0-142.0","""event"",""trial"",""time""
""fullscreenenter"",""0"",""1056""
","
","
","""event"",""trial"",""time""
""fullscreenenter"",""0"",""1056""
","
","1026.0999999046326","run_exp/static/images/Set 6_rs/019a.jpg","86","","","","","","learn","SL",""
"","show_choice","143","175086","0.0-143.0","""event"",""trial"",""time""
""fullscreenenter"",""0"",""1056""
","
","
","""event"",""trial"",""time""
""fullscreenenter"",""0"",""1056""
","
","null","run_exp/static/images/Set 6_rs/019a.jpg","null","","","","","","learn","SL",""
"","html-keyboard-response","144","175606","0.0-144.0","""event"",""trial"",""time""
""fullscreenenter"",""0"",""1056""
","
","
","""event"",""trial"",""time""
""fullscreenenter"",""0"",""1056""
","
","null","<p></p>","null","","","","","","","",""
"","image","145","176686","0.0-145.0","""event"",""trial"",""time""
""fullscreenenter"",""0"",""1056""
","
","
","""event"",""trial"",""time""
""fullscreenenter"",""0"",""1056""
","
","1079.4000000953674","run_exp/static/images/Set 6_rs/121a.jpg","86","","","","","","learn","SR",""
"","show_choice","146","177626","0.0-146.0","""event"",""trial"",""time""
""fullscreenenter"",""0"",""1056""
","
","
","""event"",""trial"",""time""
""fullscreenenter"",""0"",""1056""
","
","null","run_exp/static/images/Set 6_rs/121a.jpg","null","","","","","","learn","SR",""
"","html-keyboard-response","147","178146","0.0-147.0","""event"",""trial"",""time""
""fullscreenenter"",""0"",""1056""
","
","
","""event"",""trial"",""time""
""fullscreenenter"",""0"",""1056""
","
","null","<p></p>","null","","","","","","","",""
"","image","148","178745","0.0-148.0","""event"",""trial"",""time""
""fullscreenenter"",""0"",""1056""
","
","
","""event"",""trial"",""time""
""fullscreenenter"",""0"",""1056""
","
","597.0999999046326","run_exp/static/images/Set 6_rs/169a.jpg","78","","","","","","learn","SR",""
"","show_choice","149","180156","0.0-149.0","""event"",""trial"",""time""
""fullscreenenter"",""0"",""1056""
","
","
","""event"",""trial"",""time""
""fullscreenenter"",""0"",""1056""
","
","null","run_exp/static/images/Set 6_rs/169a.jpg","null","","","","","","learn","SR",""
"","html-keyboard-response","150","180676","0.0-150.0","""event"",""trial"",""time""
""fullscreenenter"",""0"",""1056""
","
","
","""event"",""trial"",""time""
""fullscreenenter"",""0"",""1056""
","
","null","<p></p>","null","","","","","","","",""
"","image","151","181440","0.0-151.0","""event"",""trial"",""time""
""fullscreenenter"",""0"",""1056""
","
","
","""event"",""trial"",""time""
""fullscreenenter"",""0"",""1056""
","
","762.3999998569489","run_exp/static/images/Set 6_rs/057a.jpg","86","","","","","","learn","SL",""
"","show_choice","152","182688","0.0-152.0","""event"",""trial"",""time""
""fullscreenenter"",""0"",""1056""
","
","
","""event"",""trial"",""time""
""fullscreenenter"",""0"",""1056""
","
","null","run_exp/static/images/Set 6_rs/057a.jpg","null","","","","","","learn","SL",""
"","html-keyboard-response","153","183206","0.0-153.0","""event"",""trial"",""time""
""fullscreenenter"",""0"",""1056""
","
","
","""event"",""trial"",""time""
""fullscreenenter"",""0"",""1056""
","
","null","<p></p>","null","","","","","","","",""
"","image","154","184332","0.0-154.0","""event"",""trial"",""time""
""fullscreenenter"",""0"",""1056""
","
","
","""event"",""trial"",""time""
""fullscreenenter"",""0"",""1056""
","
","1125.7000000476837","run_exp/static/images/Set 6_rs/017a.jpg","78","","","","","","learn","SL",""
"","show_choice","155","185217","0.0-155.0","""event"",""trial"",""time""
""fullscreenenter"",""0"",""1056""
","
","
","""event"",""trial"",""time""
""fullscreenenter"",""0"",""1056""
","
","null","run_exp/static/images/Set 6_rs/017a.jpg","null","","","","","","learn","SL",""
"","html-keyboard-response","156","185727","0.0-156.0","""event"",""trial"",""time""
""fullscreenenter"",""0"",""1056""
","
","
","""event"",""trial"",""time""
""fullscreenenter"",""0"",""1056""
","
","null","<p></p>","null","","","","","","","",""
"","image","157","186770","0.0-157.0","""event"",""trial"",""time""
""fullscreenenter"",""0"",""1056""
","
","
","""event"",""trial"",""time""
""fullscreenenter"",""0"",""1056""
","
","1042.7999999523163","run_exp/static/images/Set 6_rs/108a.jpg","78","","","","","","learn","SR",""
"","show_choice","158","187746","0.0-158.0","""event"",""trial"",""time""
""fullscreenenter"",""0"",""1056""
","
","
","""event"",""trial"",""time""
""fullscreenenter"",""0"",""1056""
","
","null","run_exp/static/images/Set 6_rs/108a.jpg","null","","","","","","learn","SR",""
"","html-keyboard-response","159","188256","0.0-159.0","""event"",""trial"",""time""
""fullscreenenter"",""0"",""1056""
","
","
","""event"",""trial"",""time""
""fullscreenenter"",""0"",""1056""
","
","null","<p></p>","null","","","","","","","",""
"","image","160","189040","0.0-160.0","""event"",""trial"",""time""
""fullscreenenter"",""0"",""1056""
","
","
","""event"",""trial"",""time""
""fullscreenenter"",""0"",""1056""
","
","783.0999999046326","run_exp/static/images/Set 6_rs/129a.jpg","86","","","","","","learn","SL",""
"","show_choice","161","190266","0.0-161.0","""event"",""trial"",""time""
""fullscreenenter"",""0"",""1056""
","
","
","""event"",""trial"",""time""
""fullscreenenter"",""0"",""1056""
","
","null","run_exp/static/images/Set 6_rs/129a.jpg","null","","","","","","learn","SL",""
"","html-keyboard-response","162","190786","0.0-162.0","""event"",""trial"",""time""
""fullscreenenter"",""0"",""1056""
","
","
","""event"",""trial"",""time""
""fullscreenenter"",""0"",""1056""
","
","null","<p></p>","null","","","","","","","",""
"","image","163","191736","0.0-163.0","""event"",""trial"",""time""
""fullscreenenter"",""0"",""1056""
","
","
","""event"",""trial"",""time""
""fullscreenenter"",""0"",""1056""
","
","949.3999998569489","run_exp/static/images/Set 6_rs/132a.jpg","78","","","","","","learn","SR",""
"","show_choice","164","192796","0.0-164.0","""event"",""trial"",""time""
""fullscreenenter"",""0"",""1056""
","
","
","""event"",""trial"",""time""
""fullscreenenter"",""0"",""1056""
","
","null","run_exp/static/images/Set 6_rs/132a.jpg","null","","","","","","learn","SR",""
"","html-keyboard-response","165","193301","0.0-165.0","""event"",""trial"",""time""
""fullscreenenter"",""0"",""1056""
","
","
","""event"",""trial"",""time""
""fullscreenenter"",""0"",""1056""
","
","null","<p></p>","null","","","","","","","",""
"","image","166","194284","0.0-166.0","""event"",""trial"",""time""
""fullscreenenter"",""0"",""1056""
","
","
","""event"",""trial"",""time""
""fullscreenenter"",""0"",""1056""
","
","982.4000000953674","run_exp/static/images/Set 6_rs/066a.jpg","86","","","","","","learn","SL",""
"","show_choice","167","195306","0.0-167.0","""event"",""trial"",""time""
""fullscreenenter"",""0"",""1056""
","
","
","""event"",""trial"",""time""
""fullscreenenter"",""0"",""1056""
","
","null","run_exp/static/images/Set 6_rs/066a.jpg","null","","","","","","learn","SL",""
"","html-keyboard-response","168","195816","0.0-168.0","""event"",""trial"",""time""
""fullscreenenter"",""0"",""1056""
","
","
","""event"",""trial"",""time""
""fullscreenenter"",""0"",""1056""
","
","null","<p></p>","null","","","","","","","",""
"","image","169","196712","0.0-169.0","""event"",""trial"",""time""
""fullscreenenter"",""0"",""1056""
","
","
","""event"",""trial"",""time""
""fullscreenenter"",""0"",""1056""
","
","895.6000001430511","run_exp/static/images/Set 6_rs/007a.jpg","86","","","","","","learn","SR",""
"","show_choice","170","197836","0.0-170.0","""event"",""trial"",""time""
""fullscreenenter"",""0"",""1056""
","
","
","""event"",""trial"",""time""
""fullscreenenter"",""0"",""1056""
","
","null","run_exp/static/images/Set 6_rs/007a.jpg","null","","","","","","learn","SR",""
"","html-keyboard-response","171","198356","0.0-171.0","""event"",""trial"",""time""
""fullscreenenter"",""0"",""1056""
","
","
","""event"",""trial"",""time""
""fullscreenenter"",""0"",""1056""
","
","null","<p></p>","null","","","","","","","",""
"","image","172","199192","0.0-172.0","""event"",""trial"",""time""
""fullscreenenter"",""0"",""1056""
","
","
","""event"",""trial"",""time""
""fullscreenenter"",""0"",""1056""
","
","834.3999998569489","run_exp/static/images/Set 6_rs/050a.jpg","86","","","","","","learn","SL",""
"","show_choice","173","200376","0.0-173.0","""event"",""trial"",""time""
""fullscreenenter"",""0"",""1056""
","
","
","""event"",""trial"",""time""
""fullscreenenter"",""0"",""1056""
","
","null","run_exp/static/images/Set 6_rs/050a.jpg","null","","","","","","learn","SL",""
"","html-keyboard-response","174","200887","0.0-174.0","""event"",""trial"",""time""
""fullscreenenter"",""0"",""1056""
","
","
","""event"",""trial"",""time""
""fullscreenenter"",""0"",""1056""
","
","null","<p></p>","null","","","","","","","",""
"","image","175","201540","0.0-175.0","""event"",""trial"",""time""
""fullscreenenter"",""0"",""1056""
","
","
","""event"",""trial"",""time""
""fullscreenenter"",""0"",""1056""
","
","651.6999998092651","run_exp/static/images/Set 6_rs/181a.jpg","78","","","","","","learn","SL",""
"","show_choice","176","202896","0.0-176.0","""event"",""trial"",""time""
""fullscreenenter"",""0"",""1056""
","
","
","""event"",""trial"",""time""
""fullscreenenter"",""0"",""1056""
","
","null","run_exp/static/images/Set 6_rs/181a.jpg","null","","","","","","learn","SL",""
"","html-keyboard-response","177","203416","0.0-177.0","""event"",""trial"",""time""
""fullscreenenter"",""0"",""1056""
","
","
","""event"",""trial"",""time""
""fullscreenenter"",""0"",""1056""
","
","null","<p></p>","null","","","","","","","",""
"","image","178","204774","0.0-178.0","""event"",""trial"",""time""
""fullscreenenter"",""0"",""1056""
","
","
","""event"",""trial"",""time""
""fullscreenenter"",""0"",""1056""
","
","1357.4000000953674","run_exp/static/images/Set 6_rs/061a.jpg","78","","","","","","learn","SR",""
"","show_choice","179","205426","0.0-179.0","""event"",""trial"",""time""
""fullscreenenter"",""0"",""1056""
","
","
","""event"",""trial"",""time""
""fullscreenenter"",""0"",""1056""
","
","null","run_exp/static/images/Set 6_rs/061a.jpg","null","","","","","","learn","SR",""
"","html-keyboard-response","180","205946","0.0-180.0","""event"",""trial"",""time""
""fullscreenenter"",""0"",""1056""
","
","
","""event"",""trial"",""time""
""fullscreenenter"",""0"",""1056""
","
","null","<p></p>","null","","","","","","","",""
"","image","181","207966","0.0-181.0","""event"",""trial"",""time""
""fullscreenenter"",""0"",""1056""
","
","
","""event"",""trial"",""time""
""fullscreenenter"",""0"",""1056""
","
","null","run_exp/static/images/Set 6_rs/122a.jpg","null","","","","","","learn","SR",""
"","show_choice","182","209986","0.0-182.0","""event"",""trial"",""time""
""fullscreenenter"",""0"",""1056""
","
","
","""event"",""trial"",""time""
""fullscreenenter"",""0"",""1056""
","
","null","run_exp/static/images/blank.png","null","","","","","","learn","SR",""
"","html-keyboard-response","183","210506","0.0-183.0","""event"",""trial"",""time""
""fullscreenenter"",""0"",""1056""
","
","
","""event"",""trial"",""time""
""fullscreenenter"",""0"",""1056""
","
","null","<p></p>","null","","","","","","","",""
"","image","184","211570","0.0-184.0","""event"",""trial"",""time""
""fullscreenenter"",""0"",""1056""
","
","
","""event"",""trial"",""time""
""fullscreenenter"",""0"",""1056""
","
","1063.4000000953674","run_exp/static/images/Set 6_rs/073a.jpg","86","","","","","","learn","SL",""
"","show_choice","185","212526","0.0-185.0","""event"",""trial"",""time""
""fullscreenenter"",""0"",""1056""
","
","
","""event"",""trial"",""time""
""fullscreenenter"",""0"",""1056""
","
","null","run_exp/static/images/Set 6_rs/073a.jpg","null","","","","","","learn","SL",""
"","html-keyboard-response","186","213046","0.0-186.0","""event"",""trial"",""time""
""fullscreenenter"",""0"",""1056""
","
","
","""event"",""trial"",""time""
""fullscreenenter"",""0"",""1056""
","
","null","<p></p>","null","","","","","","","",""
"","image","187","213804","0.0-187.0","""event"",""trial"",""time""
""fullscreenenter"",""0"",""1056""
","
","
","""event"",""trial"",""time""
""fullscreenenter"",""0"",""1056""
","
","757.2000000476837","run_exp/static/images/Set 6_rs/079a.jpg","78","","","","","","learn","SL",""
"","show_choice","188","215066","0.0-188.0","""event"",""trial"",""time""
""fullscreenenter"",""0"",""1056""
","
","
","""event"",""trial"",""time""
""fullscreenenter"",""0"",""1056""
","
","null","run_exp/static/images/Set 6_rs/079a.jpg","null","","","","","","learn","SL",""
"","html-keyboard-response","189","215576","0.0-189.0","""event"",""trial"",""time""
""fullscreenenter"",""0"",""1056""
","
","
","""event"",""trial"",""time""
""fullscreenenter"",""0"",""1056""
","
","null","<p></p>","null","","","","","","","",""
"","image","190","216664","0.0-190.0","""event"",""trial"",""time""
""fullscreenenter"",""0"",""1056""
","
","
","""event"",""trial"",""time""
""fullscreenenter"",""0"",""1056""
","
","1087.5","run_exp/static/images/Set 6_rs/187a.jpg","78","","","","","","learn","SR",""
"","show_choice","191","217596","0.0-191.0","""event"",""trial"",""time""
""fullscreenenter"",""0"",""1056""
","
","
","""event"",""trial"",""time""
""fullscreenenter"",""0"",""1056""
","
","null","run_exp/static/images/Set 6_rs/187a.jpg","null","","","","","","learn","SR",""
"","html-keyboard-response","192","218116","0.0-192.0","""event"",""trial"",""time""
""fullscreenenter"",""0"",""1056""
","
","
","""event"",""trial"",""time""
""fullscreenenter"",""0"",""1056""
","
","null","<p></p>","null","","","","","","","",""
"","image","193","218904","0.0-193.0","""event"",""trial"",""time""
""fullscreenenter"",""0"",""1056""
","
","
","""event"",""trial"",""time""
""fullscreenenter"",""0"",""1056""
","
","786.9000000953674","run_exp/static/images/Set 6_rs/134a.jpg","86","","","","","","learn","SR",""
"","show_choice","194","220124","0.0-194.0","""event"",""trial"",""time""
""fullscreenenter"",""0"",""1056""
","
","
","""event"",""trial"",""time""
""fullscreenenter"",""0"",""1056""
","
","null","run_exp/static/images/Set 6_rs/134a.jpg","null","","","","","","learn","SR",""
"","html-keyboard-response","195","220637","0.0-195.0","""event"",""trial"",""time""
""fullscreenenter"",""0"",""1056""
","
","
","""event"",""trial"",""time""
""fullscreenenter"",""0"",""1056""
","
","null","<p></p>","null","","","","","","","",""
"","test_intro","196","257437","0.0-196.0","""event"",""trial"",""time""
""fullscreenenter"",""0"",""1056""
","
","
","""event"",""trial"",""time""
""fullscreenenter"",""0"",""1056""
","
","null","run_exp/static/audio/clip_2_memory.m4a","null","","","","","<div class='center'><p>Now, lets see how much you remember about the items you just saw.  For each item, you need to indicate if it was <b>old</b> by pressing the <b>v</b> key, <b>similar</b> by pressing the <b>b</b> key, or <b>new</b> by pressing the <b>n</b> key.</p><p>Old refers to an item that you saw before in the indoor/outdoor game that you just played, new refers to an item you have <b>not</b> seen before within the indoor/outdoor game, and similar refers to an item that is similar to an item youve seen before but is not exactly the same. </p><p>Before we begin, lets go over some brief demonstrations to make sure you understand.</p></div>","","",""
"","html-keyboard-response","197","257959","0.0-197.0","""event"",""trial"",""time""
""fullscreenenter"",""0"",""1056""
","
","
","""event"",""trial"",""time""
""fullscreenenter"",""0"",""1056""
","
","520.0999999046326","<div class='center'><p>Now, lets see how much you remember about the items you just saw.  For each item, you need to indicate if it was <b>old</b> by pressing the <b>v</b> key, <b>similar</b> by pressing the <b>b</b> key, or <b>new</b> by pressing the <b>n</b> key.</p><p>Old refers to an item that you saw before in the indoor/outdoor game that you just played, new refers to an item you have <b>not</b> seen before within the indoor/outdoor game, and similar refers to an item that is similar to an item youve seen before but is not exactly the same. </p><p>Before we begin, lets go over some brief demonstrations to make sure you understand.</p><div><p><b>[Press the space bar to continue]</b></p></div>","32","","","","","","","",""
"","items","198","265466","0.0-198.0","""event"",""trial"",""time""
""fullscreenenter"",""0"",""1056""
","
","
","""event"",""trial"",""time""
""fullscreenenter"",""0"",""1056""
","
","null","run_exp/static/audio/clip_3_items.m4a","null","","","","","","","",""
"","mop","199","269976","0.0-199.0","""event"",""trial"",""time""
""fullscreenenter"",""0"",""1056""
","
","
","""event"",""trial"",""time""
""fullscreenenter"",""0"",""1056""
","
","null","run_exp/static/audio/clip_4_mop.m4a","null","","","","","","","",""
"","baseball","200","273496","0.0-200.0","""event"",""trial"",""time""
""fullscreenenter"",""0"",""1056""
","
","
","""event"",""trial"",""time""
""fullscreenenter"",""0"",""1056""
","
","null","run_exp/static/audio/clip_5_baseball.m4a","null","","","","","","","",""
"","trumpet","201","277016","0.0-201.0","""event"",""trial"",""time""
""fullscreenenter"",""0"",""1056""
","
","
","""event"",""trial"",""time""
""fullscreenenter"",""0"",""1056""
","
","null","run_exp/static/audio/clip_6_trumpet.m4a","null","","","","","","","",""
"","gummies","202","280536","0.0-202.0","""event"",""trial"",""time""
""fullscreenenter"",""0"",""1056""
","
","
","""event"",""trial"",""time""
""fullscreenenter"",""0"",""1056""
","
","null","run_exp/static/audio/clip_7_gummies.m4a","null","","","","","","","",""
"","osn","203","285046","0.0-203.0","""event"",""trial"",""time""
""fullscreenenter"",""0"",""1056""
","
","
","""event"",""trial"",""time""
""fullscreenenter"",""0"",""1056""
","
","null","run_exp/static/audio/clip_8_osn.m4a","null","","","","","","","",""
"","old_1","204","291556","0.0-204.0","""event"",""trial"",""time""
""fullscreenenter"",""0"",""1056""
","
","
","""event"",""trial"",""time""
""fullscreenenter"",""0"",""1056""
","
","null","run_exp/static/audio/clip_9_old_trumpet.m4a","null","","","","","","","",""
"","new_1","205","299060","0.0-205.0","""event"",""trial"",""time""
""fullscreenenter"",""0"",""1056""
","
","
","""event"",""trial"",""time""
""fullscreenenter"",""0"",""1056""
","
","null","run_exp/static/audio/clip_10_new_balloon.m4a","null","","","","","","","",""
"","similar_1a","206","303576","0.0-206.0","""event"",""trial"",""time""
""fullscreenenter"",""0"",""1056""
","
","
","""event"",""trial"",""time""
""fullscreenenter"",""0"",""1056""
","
","null","run_exp/static/audio/clip_11a_similar_mop.m4a","null","","","","","","","",""
"","similar_1b","207","310086","0.0-207.0","""event"",""trial"",""time""
""fullscreenenter"",""0"",""1056""
","
","
","""event"",""trial"",""time""
""fullscreenenter"",""0"",""1056""
","
","null","run_exp/static/audio/clip_11b_similar_mop.m4a","null","","","","","","","",""
"","new_2","208","313597","0.0-208.0","""event"",""trial"",""time""
""fullscreenenter"",""0"",""1056""
","
","
","""event"",""trial"",""time""
""fullscreenenter"",""0"",""1056""
","
","null","run_exp/static/audio/clip_12_new_stoplight.m4a","null","","","","","","","",""
"","old_2","209","317106","0.0-209.0","""event"",""trial"",""time""
""fullscreenenter"",""0"",""1056""
","
","
","""event"",""trial"",""time""
""fullscreenenter"",""0"",""1056""
","
","null","run_exp/static/audio/clip_13_old_baseball.m4a","null","","","","","","","",""
"","similar_2a","210","320616","0.0-210.0","""event"",""trial"",""time""
""fullscreenenter"",""0"",""1056""
","
","
","""event"",""trial"",""time""
""fullscreenenter"",""0"",""1056""
","
","null","run_exp/static/audio/clip_14a_similar_gummies.m4a","null","","","","","","","",""
"","similar_2b","211","328136","0.0-211.0","""event"",""trial"",""time""
""fullscreenenter"",""0"",""1056""
","
","
","""event"",""trial"",""time""
""fullscreenenter"",""0"",""1056""
","
","null","run_exp/static/audio/clip_14b_similar_gummies.m4a","null","","","","","","","",""
"","practice","212","370237","0.0-212.0","""event"",""trial"",""time""
""fullscreenenter"",""0"",""1056""
","
","
","""event"",""trial"",""time""
""fullscreenenter"",""0"",""1056""
","
","null","run_exp/static/audio/clip_15_practice.m4a","null","","","","","<div class='center'><p>Lets practice a little to make sure you understand the difference between new, similar, and old. Lets say you saw these three items in the indoor/outdoor game.</p><p> Try your best to remember these images because youll soon be tested on them in a practice game. In the practice game, youll be shown images and youll have to say if they are old (one of the three images belows), similar (similar to one of the images below but not exactly the same), or new (are not one of the images below nor similar to them).</p><p>Once you press the space bar youll be shown these images again but one at time. Then youll begin the practice game.</p><p><img src='run_exp/static/images/tutorial/test/three_indoor_outdoor.png' height='300'></p></div>","","",""
"","html-keyboard-response","213","381671","0.0-213.0","""event"",""trial"",""time""
""fullscreenenter"",""0"",""1056""
","
","
","""event"",""trial"",""time""
""fullscreenenter"",""0"",""1056""
","
","11433.399999856949","<div class='center'><p>Lets practice a little to make sure you understand the difference between new, similar, and old. Lets say you saw these three items in the indoor/outdoor game.</p><p> Try your best to remember these images because youll soon be tested on them in a practice game. In the practice game, youll be shown images and youll have to say if they are old (one of the three images belows), similar (similar to one of the images below but not exactly the same), or new (are not one of the images below nor similar to them).</p><p>Once you press the space bar youll be shown these images again but one at time. Then youll begin the practice game.</p><p><img src='run_exp/static/images/tutorial/test/three_indoor_outdoor.png' height='300'></p><div><p><b>[Press the space bar to continue]</b></p></div>","32","","","","","","","",""
"","planet","214","383676","0.0-214.0","""event"",""trial"",""time""
""fullscreenenter"",""0"",""1056""
","
","
","""event"",""trial"",""time""
""fullscreenenter"",""0"",""1056""
","
","null","run_exp/static/images/tutorial/test/008a.jpg","null","","","","","","","",""
"","boot","215","385695","0.0-215.0","""event"",""trial"",""time""
""fullscreenenter"",""0"",""1056""
","
","
","""event"",""trial"",""time""
""fullscreenenter"",""0"",""1056""
","
","null","run_exp/static/images/tutorial/test/011a.jpg","null","","","","","","","",""
"","lemon","216","387716","0.0-216.0","""event"",""trial"",""time""
""fullscreenenter"",""0"",""1056""
","
","
","""event"",""trial"",""time""
""fullscreenenter"",""0"",""1056""
","
","null","run_exp/static/images/tutorial/test/018a.jpg","null","","","","","","","",""
"","practice_q1","217","389211","0.0-217.0","""event"",""trial"",""time""
""fullscreenenter"",""0"",""1056""
","
","
","""event"",""trial"",""time""
""fullscreenenter"",""0"",""1056""
","
","1493.4000000953674","run_exp/static/audio/clip_16_practice_question.m4a","78","","","","","","","",""
"","correct","218","391087","0.0-218.0-0.0","""event"",""trial"",""time""
""fullscreenenter"",""0"",""1056""
","
","
","""event"",""trial"",""time""
""fullscreenenter"",""0"",""1056""
","
","null","run_exp/static/audio/clip_17_correct.m4a","null","","","","","<div class='center'><p>That's correct!</p></div>","","",""
"","html-keyboard-response","219","391863","0.0-218.0-1.0","""event"",""trial"",""time""
""fullscreenenter"",""0"",""1056""
","
","
","""event"",""trial"",""time""
""fullscreenenter"",""0"",""1056""
","
","775.5999999046326","<div class='center'><p>That's correct!</p><div><p><b>[Press the space bar to continue]</b></p></div>","32","","","","","","","",""
"","practice_q2","220","392574","0.0-218.0-2.0","""event"",""trial"",""time""
""fullscreenenter"",""0"",""1056""
","
","
","""event"",""trial"",""time""
""fullscreenenter"",""0"",""1056""
","
","709.9000000953674","run_exp/static/audio/clip_16_practice_question.m4a","86","","","","","","","",""
"","correct","221","394447","0.0-219.0-0.0","""event"",""trial"",""time""
""fullscreenenter"",""0"",""1056""
","
","
","""event"",""trial"",""time""
""fullscreenenter"",""0"",""1056""
","
","null","run_exp/static/audio/clip_17_correct.m4a","null","","","","","<div class='center'><p>That's correct!</p></div>","","",""
"","html-keyboard-response","222","394920","0.0-219.0-1.0","""event"",""trial"",""time""
""fullscreenenter"",""0"",""1056""
","
","
","""event"",""trial"",""time""
""fullscreenenter"",""0"",""1056""
","
","471.7000000476837","<div class='center'><p>That's correct!</p><div><p><b>[Press the space bar to continue]</b></p></div>","32","","","","","","","",""
"","practice_q3","223","396801","0.0-219.0-2.0","""event"",""trial"",""time""
""fullscreenenter"",""0"",""1056""
","
","
","""event"",""trial"",""time""
""fullscreenenter"",""0"",""1056""
","
","1879.9000000953674","run_exp/static/audio/clip_16_practice_question.m4a","86","","","","","","","",""
"","incorrect_q3","224","399507","0.0-220.0-0.0","""event"",""trial"",""time""
""fullscreenenter"",""0"",""1056""
","
","
","""event"",""trial"",""time""
""fullscreenenter"",""0"",""1056""
","
","null","run_exp/static/audio/clip_20_incorrect_similar.m4a","null","","","","","<div class='center'><p>Thats incorrect. Its similar.</p><p><img src='run_exp/static/images/tutorial/test/boot_comparison.png' height='300'></p></div>","","",""
"","html-keyboard-response","225","399950","0.0-220.0-1.0","""event"",""trial"",""time""
""fullscreenenter"",""0"",""1056""
","
","
","""event"",""trial"",""time""
""fullscreenenter"",""0"",""1056""
","
","441.7000000476837","<div class='center'><p>Thats incorrect. Its similar.</p><p><img src='run_exp/static/images/tutorial/test/boot_comparison.png' height='300'></p><div><p><b>[Press the space bar to continue]</b></p></div>","32","","","","","","","",""
"","repeat","226","404667","0.0-221.0-0.0","""event"",""trial"",""time""
""fullscreenenter"",""0"",""1056""
","
","
","""event"",""trial"",""time""
""fullscreenenter"",""0"",""1056""
","
","null","run_exp/static/audio/clip_21_practice_again.m4a","null","","","","","<div class='center'><p>Oops. you missed at least one of these questions. Let's try practicing again. </p></div>","","",""
"","html-keyboard-response","227","405082","0.0-221.0-1.0","""event"",""trial"",""time""
""fullscreenenter"",""0"",""1056""
","
","
","""event"",""trial"",""time""
""fullscreenenter"",""0"",""1056""
","
","413.59999990463257","<div class='center'><p>Oops. you missed at least one of these questions. Let's try practicing again. </p><div><p><b>[Press the space bar to continue]</b></p></div>","32","","","","","","","",""
"","practice_q1","228","405573","0.0-221.0-2.0","""event"",""trial"",""time""
""fullscreenenter"",""0"",""1056""
","
","
","""event"",""trial"",""time""
""fullscreenenter"",""0"",""1056""
","
","489.80000019073486","run_exp/static/audio/clip_16_practice_question.m4a","78","","","","","","","",""
"","correct","229","407447","0.0-222.0-0.0","""event"",""trial"",""time""
""fullscreenenter"",""0"",""1056""
","
","
","""event"",""trial"",""time""
""fullscreenenter"",""0"",""1056""
","
","null","run_exp/static/audio/clip_17_correct.m4a","null","","","","","<div class='center'><p>That's correct!</p></div>","","",""
"","html-keyboard-response","230","408029","0.0-222.0-1.0","""event"",""trial"",""time""
""fullscreenenter"",""0"",""1056""
","
","
","""event"",""trial"",""time""
""fullscreenenter"",""0"",""1056""
","
","581.2000000476837","<div class='center'><p>That's correct!</p><div><p><b>[Press the space bar to continue]</b></p></div>","32","","","","","","","",""
"","practice_q2","231","408368","0.0-222.0-2.0","""event"",""trial"",""time""
""fullscreenenter"",""0"",""1056""
","
","
","""event"",""trial"",""time""
""fullscreenenter"",""0"",""1056""
","
","338.09999990463257","run_exp/static/audio/clip_16_practice_question.m4a","86","","","","","","","",""
"","correct","232","410247","0.0-223.0-0.0","""event"",""trial"",""time""
""fullscreenenter"",""0"",""1056""
","
","
","""event"",""trial"",""time""
""fullscreenenter"",""0"",""1056""
","
","null","run_exp/static/audio/clip_17_correct.m4a","null","","","","","<div class='center'><p>That's correct!</p></div>","","",""
"","html-keyboard-response","233","410766","0.0-223.0-1.0","""event"",""trial"",""time""
""fullscreenenter"",""0"",""1056""
","
","
","""event"",""trial"",""time""
""fullscreenenter"",""0"",""1056""
","
","518.2999999523163","<div class='center'><p>That's correct!</p><div><p><b>[Press the space bar to continue]</b></p></div>","32","","","","","","","",""
"","practice_q3","234","411053","0.0-223.0-2.0","""event"",""trial"",""time""
""fullscreenenter"",""0"",""1056""
","
","
","""event"",""trial"",""time""
""fullscreenenter"",""0"",""1056""
","
","285.59999990463257","run_exp/static/audio/clip_16_practice_question.m4a","66","","","","","","","",""
"","correct","235","413087","0.0-224.0-0.0","""event"",""trial"",""time""
""fullscreenenter"",""0"",""1056""
","
","
","""event"",""trial"",""time""
""fullscreenenter"",""0"",""1056""
","
","null","run_exp/static/audio/clip_17_correct.m4a","null","","","","","<div class='center'><p>That's correct!</p></div>","","",""
"","html-keyboard-response","236","413405","0.0-224.0-1.0","""event"",""trial"",""time""
""fullscreenenter"",""0"",""1056""
","
","
","""event"",""trial"",""time""
""fullscreenenter"",""0"",""1056""
","
","316.69999980926514","<div class='center'><p>That's correct!</p><div><p><b>[Press the space bar to continue]</b></p></div>","32","","","","","","","",""
"","begin_text","237","431867","0.0-225.0-0.0","""event"",""trial"",""time""
""fullscreenenter"",""0"",""1056""
","
","
","""event"",""trial"",""time""
""fullscreenenter"",""0"",""1056""
","
","null","run_exp/static/audio/clip_22_begin_test.m4a","null","","","","","<div class='center'><p>On to the real game where well test your memory of items from the indoor/outdoor game. For each item, you need to indicate if the item is <b>old</b> by pressing the <b>v</b> key, <b>similar</b> by pressing the <b>b</b> key, or <b>new</b> by pressing the <b>n</b> key. </p></div>","","",""
"","html-keyboard-response","238","431869","0.0-225.0-1.0","""event"",""trial"",""time""
""fullscreenenter"",""0"",""1056""
","
","
","""event"",""trial"",""time""
""fullscreenenter"",""0"",""1056""
","
","1.4000000953674316","<div class='center'><p>On to the real game where well test your memory of items from the indoor/outdoor game. For each item, you need to indicate if the item is <b>old</b> by pressing the <b>v</b> key, <b>similar</b> by pressing the <b>b</b> key, or <b>new</b> by pressing the <b>n</b> key. </p><div><p><b>[Press the space bar to continue]</b></p></div>","32","","","","","","","",""
"","image","239","433096","0.0-226.0-0.0","""event"",""trial"",""time""
""fullscreenenter"",""0"",""1056""
","
","
","""event"",""trial"",""time""
""fullscreenenter"",""0"",""1056""
","
","1225.7999999523163","run_exp/static/images/Set 6_rs/048a.jpg","78","","","","","","test","TF","4"
"","show_choice","240","433606","0.0-226.0-1.0","""event"",""trial"",""time""
""fullscreenenter"",""0"",""1056""
","
","
","""event"",""trial"",""time""
""fullscreenenter"",""0"",""1056""
","
","null","run_exp/static/images/Set 6_rs/048a.jpg","null","","","","","","test","TF",""
"","html-keyboard-response","241","434126","0.0-226.0-2.0","""event"",""trial"",""time""
""fullscreenenter"",""0"",""1056""
","
","
","""event"",""trial"",""time""
""fullscreenenter"",""0"",""1056""
","
","null","<p></p>","null","","","","","","","",""
"","image","242","435100","0.0-227.0-0.0","""event"",""trial"",""time""
""fullscreenenter"",""0"",""1056""
","
","
","""event"",""trial"",""time""
""fullscreenenter"",""0"",""1056""
","
","971.7999999523163","run_exp/static/images/Set 6_rs/108a.jpg","86","","","","","","test","TR","5"
"","show_choice","243","435614","0.0-227.0-1.0","""event"",""trial"",""time""
""fullscreenenter"",""0"",""1056""
","
","
","""event"",""trial"",""time""
""fullscreenenter"",""0"",""1056""
","
","null","run_exp/static/images/Set 6_rs/108a.jpg","null","","","","","","test","TR",""
"","html-keyboard-response","244","436135","0.0-227.0-2.0","""event"",""trial"",""time""
""fullscreenenter"",""0"",""1056""
","
","
","""event"",""trial"",""time""
""fullscreenenter"",""0"",""1056""
","
","null","<p></p>","null","","","","","","","",""
"","image","245","436991","0.0-228.0-0.0","""event"",""trial"",""time""
""fullscreenenter"",""0"",""1056""
","
","
","""event"",""trial"",""time""
""fullscreenenter"",""0"",""1056""
","
","853.5","run_exp/static/images/Set 6_rs/010a.jpg","86","","","","","","test","TR","5"
"","show_choice","246","437506","0.0-228.0-1.0","""event"",""trial"",""time""
""fullscreenenter"",""0"",""1056""
","
","
","""event"",""trial"",""time""
""fullscreenenter"",""0"",""1056""
","
","null","run_exp/static/images/Set 6_rs/010a.jpg","null","","","","","","test","TR",""
"","html-keyboard-response","247","438026","0.0-228.0-2.0","""event"",""trial"",""time""
""fullscreenenter"",""0"",""1056""
","
","
","""event"",""trial"",""time""
""fullscreenenter"",""0"",""1056""
","
","null","<p></p>","null","","","","","","","",""
"","image","248","438881","0.0-229.0-0.0","""event"",""trial"",""time""
""fullscreenenter"",""0"",""1056""
","
","
","""event"",""trial"",""time""
""fullscreenenter"",""0"",""1056""
","
","853.4000000953674","run_exp/static/images/Set 6_rs/122a.jpg","86","","","","","","test","TR","5"
"","show_choice","249","439396","0.0-229.0-1.0","""event"",""trial"",""time""
""fullscreenenter"",""0"",""1056""
","
","
","""event"",""trial"",""time""
""fullscreenenter"",""0"",""1056""
","
","null","run_exp/static/images/Set 6_rs/122a.jpg","null","","","","","","test","TR",""
"","html-keyboard-response","250","439905","0.0-229.0-2.0","""event"",""trial"",""time""
""fullscreenenter"",""0"",""1056""
","
","
","""event"",""trial"",""time""
""fullscreenenter"",""0"",""1056""
","
","null","<p></p>","null","","","","","","","",""
"","image","251","440662","0.0-230.0-0.0","""event"",""trial"",""time""
""fullscreenenter"",""0"",""1056""
","
","
","""event"",""trial"",""time""
""fullscreenenter"",""0"",""1056""
","
","755.6000001430511","run_exp/static/images/Set 6_rs/134a.jpg","86","","","","","","test","TR","3"
"","show_choice","252","441166","0.0-230.0-1.0","""event"",""trial"",""time""
""fullscreenenter"",""0"",""1056""
","
","
","""event"",""trial"",""time""
""fullscreenenter"",""0"",""1056""
","
","null","run_exp/static/images/Set 6_rs/134a.jpg","null","","","","","","test","TR",""
"","html-keyboard-response","253","441676","0.0-230.0-2.0","""event"",""trial"",""time""
""fullscreenenter"",""0"",""1056""
","
","
","""event"",""trial"",""time""
""fullscreenenter"",""0"",""1056""
","
","null","<p></p>","null","","","","","","","",""
"","image","254","442502","0.0-231.0-0.0","""event"",""trial"",""time""
""fullscreenenter"",""0"",""1056""
","
","
","""event"",""trial"",""time""
""fullscreenenter"",""0"",""1056""
","
","825","run_exp/static/images/Set 6_rs/169a.jpg","86","","","","","","test","TR","4"
"","show_choice","255","443016","0.0-231.0-1.0","""event"",""trial"",""time""
""fullscreenenter"",""0"",""1056""
","
","
","""event"",""trial"",""time""
""fullscreenenter"",""0"",""1056""
","
","null","run_exp/static/images/Set 6_rs/169a.jpg","null","","","","","","test","TR",""
"","html-keyboard-response","256","443536","0.0-231.0-2.0","""event"",""trial"",""time""
""fullscreenenter"",""0"",""1056""
","
","
","""event"",""trial"",""time""
""fullscreenenter"",""0"",""1056""
","
","null","<p></p>","null","","","","","","","",""
"","image","257","444622","0.0-232.0-0.0","""event"",""trial"",""time""
""fullscreenenter"",""0"",""1056""
","
","
","""event"",""trial"",""time""
""fullscreenenter"",""0"",""1056""
","
","1084","run_exp/static/images/Set 6_rs/100a.jpg","78","","","","","","test","TF","2"
"","show_choice","258","445135","0.0-232.0-1.0","""event"",""trial"",""time""
""fullscreenenter"",""0"",""1056""
","
","
","""event"",""trial"",""time""
""fullscreenenter"",""0"",""1056""
","
","null","run_exp/static/images/Set 6_rs/100a.jpg","null","","","","","","test","TF",""
"","html-keyboard-response","259","445656","0.0-232.0-2.0","""event"",""trial"",""time""
""fullscreenenter"",""0"",""1056""
","
","
","""event"",""trial"",""time""
""fullscreenenter"",""0"",""1056""
","
","null","<p></p>","null","","","","","","","",""
"","image","260","446398","0.0-233.0-0.0","""event"",""trial"",""time""
""fullscreenenter"",""0"",""1056""
","
","
","""event"",""trial"",""time""
""fullscreenenter"",""0"",""1056""
","
","741.2999999523163","run_exp/static/images/Set 6_rs/057b.jpg","86","","","","","","test","TL","1"
"","show_choice","261","446905","0.0-233.0-1.0","""event"",""trial"",""time""
""fullscreenenter"",""0"",""1056""
","
","
","""event"",""trial"",""time""
""fullscreenenter"",""0"",""1056""
","
","null","run_exp/static/images/Set 6_rs/057b.jpg","null","","","","","","test","TL",""
"","html-keyboard-response","262","447416","0.0-233.0-2.0","""event"",""trial"",""time""
""fullscreenenter"",""0"",""1056""
","
","
","""event"",""trial"",""time""
""fullscreenenter"",""0"",""1056""
","
","null","<p></p>","null","","","","","","","",""
"","image","263","449250","0.0-234.0-0.0","""event"",""trial"",""time""
""fullscreenenter"",""0"",""1056""
","
","
","""event"",""trial"",""time""
""fullscreenenter"",""0"",""1056""
","
","1833","run_exp/static/images/Set 6_rs/050b.jpg","86","","","","","","test","TL","3"
"","show_choice","264","449765","0.0-234.0-1.0","""event"",""trial"",""time""
""fullscreenenter"",""0"",""1056""
","
","
","""event"",""trial"",""time""
""fullscreenenter"",""0"",""1056""
","
","null","run_exp/static/images/Set 6_rs/050b.jpg","null","","","","","","test","TL",""
"","html-keyboard-response","265","450285","0.0-234.0-2.0","""event"",""trial"",""time""
""fullscreenenter"",""0"",""1056""
","
","
","""event"",""trial"",""time""
""fullscreenenter"",""0"",""1056""
","
","null","<p></p>","null","","","","","","","",""
"","image","266","451289","0.0-235.0-0.0","""event"",""trial"",""time""
""fullscreenenter"",""0"",""1056""
","
","
","""event"",""trial"",""time""
""fullscreenenter"",""0"",""1056""
","
","1003","run_exp/static/images/Set 6_rs/077a.jpg","78","","","","","","test","TF","3"
"","show_choice","267","451805","0.0-235.0-1.0","""event"",""trial"",""time""
""fullscreenenter"",""0"",""1056""
","
","
","""event"",""trial"",""time""
""fullscreenenter"",""0"",""1056""
","
","null","run_exp/static/images/Set 6_rs/077a.jpg","null","","","","","","test","TF",""
"","html-keyboard-response","268","452323","0.0-235.0-2.0","""event"",""trial"",""time""
""fullscreenenter"",""0"",""1056""
","
","
","""event"",""trial"",""time""
""fullscreenenter"",""0"",""1056""
","
","null","<p></p>","null","","","","","","","",""
"","image","269","453847","0.0-236.0-0.0","""event"",""trial"",""time""
""fullscreenenter"",""0"",""1056""
","
","
","""event"",""trial"",""time""
""fullscreenenter"",""0"",""1056""
","
","1523.5999999046326","run_exp/static/images/Set 6_rs/138b.jpg","86","","","","","","test","TL","1"
"","show_choice","270","454366","0.0-236.0-1.0","""event"",""trial"",""time""
""fullscreenenter"",""0"",""1056""
","
","
","""event"",""trial"",""time""
""fullscreenenter"",""0"",""1056""
","
","null","run_exp/static/images/Set 6_rs/138b.jpg","null","","","","","","test","TL",""
"","html-keyboard-response","271","454886","0.0-236.0-2.0","""event"",""trial"",""time""
""fullscreenenter"",""0"",""1056""
","
","
","""event"",""trial"",""time""
""fullscreenenter"",""0"",""1056""
","
","null","<p></p>","null","","","","","","","",""
"","image","272","455734","0.0-237.0-0.0","""event"",""trial"",""time""
""fullscreenenter"",""0"",""1056""
","
","
","""event"",""trial"",""time""
""fullscreenenter"",""0"",""1056""
","
","847.0999999046326","run_exp/static/images/Set 6_rs/141a.jpg","86","","","","","","test","TR","2"
"","show_choice","273","456246","0.0-237.0-1.0","""event"",""trial"",""time""
""fullscreenenter"",""0"",""1056""
","
","
","""event"",""trial"",""time""
""fullscreenenter"",""0"",""1056""
","
","null","run_exp/static/images/Set 6_rs/141a.jpg","null","","","","","","test","TR",""
"","html-keyboard-response","274","456766","0.0-237.0-2.0","""event"",""trial"",""time""
""fullscreenenter"",""0"",""1056""
","
","
","""event"",""trial"",""time""
""fullscreenenter"",""0"",""1056""
","
","null","<p></p>","null","","","","","","","",""
"","image","275","457569","0.0-238.0-0.0","""event"",""trial"",""time""
""fullscreenenter"",""0"",""1056""
","
","
","""event"",""trial"",""time""
""fullscreenenter"",""0"",""1056""
","
","801.3999998569489","run_exp/static/images/Set 6_rs/187a.jpg","86","","","","","","test","TR","3"
"","show_choice","276","458086","0.0-238.0-1.0","""event"",""trial"",""time""
""fullscreenenter"",""0"",""1056""
","
","
","""event"",""trial"",""time""
""fullscreenenter"",""0"",""1056""
","
","null","run_exp/static/images/Set 6_rs/187a.jpg","null","","","","","","test","TR",""
"","html-keyboard-response","277","458606","0.0-238.0-2.0","""event"",""trial"",""time""
""fullscreenenter"",""0"",""1056""
","
","
","""event"",""trial"",""time""
""fullscreenenter"",""0"",""1056""
","
","null","<p></p>","null","","","","","","","",""
"","image","278","459358","0.0-239.0-0.0","""event"",""trial"",""time""
""fullscreenenter"",""0"",""1056""
","
","
","""event"",""trial"",""time""
""fullscreenenter"",""0"",""1056""
","
","751.0999999046326","run_exp/static/images/Set 6_rs/070a.jpg","86","","","","","","test","TR","2"
"","show_choice","279","459865","0.0-239.0-1.0","""event"",""trial"",""time""
""fullscreenenter"",""0"",""1056""
","
","
","""event"",""trial"",""time""
""fullscreenenter"",""0"",""1056""
","
","null","run_exp/static/images/Set 6_rs/070a.jpg","null","","","","","","test","TR",""
"","html-keyboard-response","280","460385","0.0-239.0-2.0","""event"",""trial"",""time""
""fullscreenenter"",""0"",""1056""
","
","
","""event"",""trial"",""time""
""fullscreenenter"",""0"",""1056""
","
","null","<p></p>","null","","","","","","","",""
"","image","281","461305","0.0-240.0-0.0","""event"",""trial"",""time""
""fullscreenenter"",""0"",""1056""
","
","
","""event"",""trial"",""time""
""fullscreenenter"",""0"",""1056""
","
","919.2000000476837","run_exp/static/images/Set 6_rs/021a.jpg","78","","","","","","test","TF","2"
"","show_choice","282","461816","0.0-240.0-1.0","""event"",""trial"",""time""
""fullscreenenter"",""0"",""1056""
","
","
","""event"",""trial"",""time""
""fullscreenenter"",""0"",""1056""
","
","null","run_exp/static/images/Set 6_rs/021a.jpg","null","","","","","","test","TF",""
"","html-keyboard-response","283","462325","0.0-240.0-2.0","""event"",""trial"",""time""
""fullscreenenter"",""0"",""1056""
","
","
","""event"",""trial"",""time""
""fullscreenenter"",""0"",""1056""
","
","null","<p></p>","null","","","","","","","",""
"","image","284","463083","0.0-241.0-0.0","""event"",""trial"",""time""
""fullscreenenter"",""0"",""1056""
","
","
","""event"",""trial"",""time""
""fullscreenenter"",""0"",""1056""
","
","756.5","run_exp/static/images/Set 6_rs/167b.jpg","86","","","","","","test","TL","2"
"","show_choice","285","463595","0.0-241.0-1.0","""event"",""trial"",""time""
""fullscreenenter"",""0"",""1056""
","
","
","""event"",""trial"",""time""
""fullscreenenter"",""0"",""1056""
","
","null","run_exp/static/images/Set 6_rs/167b.jpg","null","","","","","","test","TL",""
"","html-keyboard-response","286","464116","0.0-241.0-2.0","""event"",""trial"",""time""
""fullscreenenter"",""0"",""1056""
","
","
","""event"",""trial"",""time""
""fullscreenenter"",""0"",""1056""
","
","null","<p></p>","null","","","","","","","",""
"","image","287","465256","0.0-242.0-0.0","""event"",""trial"",""time""
""fullscreenenter"",""0"",""1056""
","
","
","""event"",""trial"",""time""
""fullscreenenter"",""0"",""1056""
","
","1138.0999999046326","run_exp/static/images/Set 6_rs/079b.jpg","66","","","","","","test","TL","5"
"","show_choice","288","465766","0.0-242.0-1.0","""event"",""trial"",""time""
""fullscreenenter"",""0"",""1056""
","
","
","""event"",""trial"",""time""
""fullscreenenter"",""0"",""1056""
","
","null","run_exp/static/images/Set 6_rs/079b.jpg","null","","","","","","test","TL",""
"","html-keyboard-response","289","466276","0.0-242.0-2.0","""event"",""trial"",""time""
""fullscreenenter"",""0"",""1056""
","
","
","""event"",""trial"",""time""
""fullscreenenter"",""0"",""1056""
","
","null","<p></p>","null","","","","","","","",""
"","image","290","467593","0.0-243.0-0.0","""event"",""trial"",""time""
""fullscreenenter"",""0"",""1056""
","
","
","""event"",""trial"",""time""
""fullscreenenter"",""0"",""1056""
","
","1315.5","run_exp/static/images/Set 6_rs/015a.jpg","66","","","","","","test","TF","4"
"","show_choice","291","468095","0.0-243.0-1.0","""event"",""trial"",""time""
""fullscreenenter"",""0"",""1056""
","
","
","""event"",""trial"",""time""
""fullscreenenter"",""0"",""1056""
","
","null","run_exp/static/images/Set 6_rs/015a.jpg","null","","","","","","test","TF",""
"","html-keyboard-response","292","468616","0.0-243.0-2.0","""event"",""trial"",""time""
""fullscreenenter"",""0"",""1056""
","
","
","""event"",""trial"",""time""
""fullscreenenter"",""0"",""1056""
","
","null","<p></p>","null","","","","","","","",""
"","image","293","469558","0.0-244.0-0.0","""event"",""trial"",""time""
""fullscreenenter"",""0"",""1056""
","
","
","""event"",""trial"",""time""
""fullscreenenter"",""0"",""1056""
","
","941.3999998569489","run_exp/static/images/Set 6_rs/016b.jpg","86","","","","","","test","TL","1"
"","show_choice","294","470066","0.0-244.0-1.0","""event"",""trial"",""time""
""fullscreenenter"",""0"",""1056""
","
","
","""event"",""trial"",""time""
""fullscreenenter"",""0"",""1056""
","
","null","run_exp/static/images/Set 6_rs/016b.jpg","null","","","","","","test","TL",""
"","html-keyboard-response","295","470576","0.0-244.0-2.0","""event"",""trial"",""time""
""fullscreenenter"",""0"",""1056""
","
","
","""event"",""trial"",""time""
""fullscreenenter"",""0"",""1056""
","
","null","<p></p>","null","","","","","","","",""
"","image","296","471222","0.0-245.0-0.0","""event"",""trial"",""time""
""fullscreenenter"",""0"",""1056""
","
","
","""event"",""trial"",""time""
""fullscreenenter"",""0"",""1056""
","
","645.7999999523163","run_exp/static/images/Set 6_rs/006b.jpg","86","","","","","","test","TL","2"
"","show_choice","297","471726","0.0-245.0-1.0","""event"",""trial"",""time""
""fullscreenenter"",""0"",""1056""
","
","
","""event"",""trial"",""time""
""fullscreenenter"",""0"",""1056""
","
","null","run_exp/static/images/Set 6_rs/006b.jpg","null","","","","","","test","TL",""
"","html-keyboard-response","298","472245","0.0-245.0-2.0","""event"",""trial"",""time""
""fullscreenenter"",""0"",""1056""
","
","
","""event"",""trial"",""time""
""fullscreenenter"",""0"",""1056""
","
","null","<p></p>","null","","","","","","","",""
"","image","299","473109","0.0-246.0-0.0","""event"",""trial"",""time""
""fullscreenenter"",""0"",""1056""
","
","
","""event"",""trial"",""time""
""fullscreenenter"",""0"",""1056""
","
","862.1000001430511","run_exp/static/images/Set 6_rs/149a.jpg","78","","","","","","test","TF","1"
"","show_choice","300","473616","0.0-246.0-1.0","""event"",""trial"",""time""
""fullscreenenter"",""0"",""1056""
","
","
","""event"",""trial"",""time""
""fullscreenenter"",""0"",""1056""
","
","null","run_exp/static/images/Set 6_rs/149a.jpg","null","","","","","","test","TF",""
"","html-keyboard-response","301","474125","0.0-246.0-2.0","""event"",""trial"",""time""
""fullscreenenter"",""0"",""1056""
","
","
","""event"",""trial"",""time""
""fullscreenenter"",""0"",""1056""
","
","null","<p></p>","null","","","","","","","",""
"","image","302","475338","0.0-247.0-0.0","""event"",""trial"",""time""
""fullscreenenter"",""0"",""1056""
","
","
","""event"",""trial"",""time""
""fullscreenenter"",""0"",""1056""
","
","1211.0999999046326","run_exp/static/images/Set 6_rs/116b.jpg","66","","","","","","test","TL","2"
"","show_choice","303","475845","0.0-247.0-1.0","""event"",""trial"",""time""
""fullscreenenter"",""0"",""1056""
","
","
","""event"",""trial"",""time""
""fullscreenenter"",""0"",""1056""
","
","null","run_exp/static/images/Set 6_rs/116b.jpg","null","","","","","","test","TL",""
"","html-keyboard-response","304","476366","0.0-247.0-2.0","""event"",""trial"",""time""
""fullscreenenter"",""0"",""1056""
","
","
","""event"",""trial"",""time""
""fullscreenenter"",""0"",""1056""
","
","null","<p></p>","null","","","","","","","",""
"","image","305","477278","0.0-248.0-0.0","""event"",""trial"",""time""
""fullscreenenter"",""0"",""1056""
","
","
","""event"",""trial"",""time""
""fullscreenenter"",""0"",""1056""
","
","911.5999999046326","run_exp/static/images/Set 6_rs/155a.jpg","78","","","","","","test","TF","4"
"","show_choice","306","477795","0.0-248.0-1.0","""event"",""trial"",""time""
""fullscreenenter"",""0"",""1056""
","
","
","""event"",""trial"",""time""
""fullscreenenter"",""0"",""1056""
","
","null","run_exp/static/images/Set 6_rs/155a.jpg","null","","","","","","test","TF",""
"","html-keyboard-response","307","478315","0.0-248.0-2.0","""event"",""trial"",""time""
""fullscreenenter"",""0"",""1056""
","
","
","""event"",""trial"",""time""
""fullscreenenter"",""0"",""1056""
","
","null","<p></p>","null","","","","","","","",""
"","image","308","479339","0.0-249.0-0.0","""event"",""trial"",""time""
""fullscreenenter"",""0"",""1056""
","
","
","""event"",""trial"",""time""
""fullscreenenter"",""0"",""1056""
","
","1023","run_exp/static/images/Set 6_rs/019b.jpg","78","","","","","","test","TL","2"
"","show_choice","309","479846","0.0-249.0-1.0","""event"",""trial"",""time""
""fullscreenenter"",""0"",""1056""
","
","
","""event"",""trial"",""time""
""fullscreenenter"",""0"",""1056""
","
","null","run_exp/static/images/Set 6_rs/019b.jpg","null","","","","","","test","TL",""
"","html-keyboard-response","310","480365","0.0-249.0-2.0","""event"",""trial"",""time""
""fullscreenenter"",""0"",""1056""
","
","
","""event"",""trial"",""time""
""fullscreenenter"",""0"",""1056""
","
","null","<p></p>","null","","","","","","","",""
"","image","311","481011","0.0-250.0-0.0","""event"",""trial"",""time""
""fullscreenenter"",""0"",""1056""
","
","
","""event"",""trial"",""time""
""fullscreenenter"",""0"",""1056""
","
","644.5","run_exp/static/images/Set 6_rs/062b.jpg","86","","","","","","test","TL","1"
"","show_choice","312","481526","0.0-250.0-1.0","""event"",""trial"",""time""
""fullscreenenter"",""0"",""1056""
","
","
","""event"",""trial"",""time""
""fullscreenenter"",""0"",""1056""
","
","null","run_exp/static/images/Set 6_rs/062b.jpg","null","","","","","","test","TL",""
"","html-keyboard-response","313","482046","0.0-250.0-2.0","""event"",""trial"",""time""
""fullscreenenter"",""0"",""1056""
","
","
","""event"",""trial"",""time""
""fullscreenenter"",""0"",""1056""
","
","null","<p></p>","null","","","","","","","",""
"","image","314","482967","0.0-251.0-0.0","""event"",""trial"",""time""
""fullscreenenter"",""0"",""1056""
","
","
","""event"",""trial"",""time""
""fullscreenenter"",""0"",""1056""
","
","919.7000000476837","run_exp/static/images/Set 6_rs/001a.jpg","78","","","","","","test","TF","1"
"","show_choice","315","483476","0.0-251.0-1.0","""event"",""trial"",""time""
""fullscreenenter"",""0"",""1056""
","
","
","""event"",""trial"",""time""
""fullscreenenter"",""0"",""1056""
","
","null","run_exp/static/images/Set 6_rs/001a.jpg","null","","","","","","test","TF",""
"","html-keyboard-response","316","483985","0.0-251.0-2.0","""event"",""trial"",""time""
""fullscreenenter"",""0"",""1056""
","
","
","""event"",""trial"",""time""
""fullscreenenter"",""0"",""1056""
","
","null","<p></p>","null","","","","","","","",""
"","image","317","484869","0.0-252.0-0.0","""event"",""trial"",""time""
""fullscreenenter"",""0"",""1056""
","
","
","""event"",""trial"",""time""
""fullscreenenter"",""0"",""1056""
","
","881.9000000953674","run_exp/static/images/Set 6_rs/065a.jpg","86","","","","","","test","TF","3"
"","show_choice","318","485375","0.0-252.0-1.0","""event"",""trial"",""time""
""fullscreenenter"",""0"",""1056""
","
","
","""event"",""trial"",""time""
""fullscreenenter"",""0"",""1056""
","
","null","run_exp/static/images/Set 6_rs/065a.jpg","null","","","","","","test","TF",""
"","html-keyboard-response","319","485896","0.0-252.0-2.0","""event"",""trial"",""time""
""fullscreenenter"",""0"",""1056""
","
","
","""event"",""trial"",""time""
""fullscreenenter"",""0"",""1056""
","
","null","<p></p>","null","","","","","","","",""
"","image","320","487067","0.0-253.0-0.0","""event"",""trial"",""time""
""fullscreenenter"",""0"",""1056""
","
","
","""event"",""trial"",""time""
""fullscreenenter"",""0"",""1056""
","
","1169.5999999046326","run_exp/static/images/Set 6_rs/066b.jpg","66","","","","","","test","TL","5"
"","show_choice","321","487576","0.0-253.0-1.0","""event"",""trial"",""time""
""fullscreenenter"",""0"",""1056""
","
","
","""event"",""trial"",""time""
""fullscreenenter"",""0"",""1056""
","
","null","run_exp/static/images/Set 6_rs/066b.jpg","null","","","","","","test","TL",""
"","html-keyboard-response","322","488095","0.0-253.0-2.0","""event"",""trial"",""time""
""fullscreenenter"",""0"",""1056""
","
","
","""event"",""trial"",""time""
""fullscreenenter"",""0"",""1056""
","
","null","<p></p>","null","","","","","","","",""
"","image","323","489038","0.0-254.0-0.0","""event"",""trial"",""time""
""fullscreenenter"",""0"",""1056""
","
","
","""event"",""trial"",""time""
""fullscreenenter"",""0"",""1056""
","
","941.2000000476837","run_exp/static/images/Set 6_rs/140a.jpg","78","","","","","","test","TF","1"
"","show_choice","324","489546","0.0-254.0-1.0","""event"",""trial"",""time""
""fullscreenenter"",""0"",""1056""
","
","
","""event"",""trial"",""time""
""fullscreenenter"",""0"",""1056""
","
","null","run_exp/static/images/Set 6_rs/140a.jpg","null","","","","","","test","TF",""
"","html-keyboard-response","325","490056","0.0-254.0-2.0","""event"",""trial"",""time""
""fullscreenenter"",""0"",""1056""
","
","
","""event"",""trial"",""time""
""fullscreenenter"",""0"",""1056""
","
","null","<p></p>","null","","","","","","","",""
"","image","326","490737","0.0-255.0-0.0","""event"",""trial"",""time""
""fullscreenenter"",""0"",""1056""
","
","
","""event"",""trial"",""time""
""fullscreenenter"",""0"",""1056""
","
","678.9000000953674","run_exp/static/images/Set 6_rs/186a.jpg","86","","","","","","test","TR","5"
"","show_choice","327","491246","0.0-255.0-1.0","""event"",""trial"",""time""
""fullscreenenter"",""0"",""1056""
","
","
","""event"",""trial"",""time""
""fullscreenenter"",""0"",""1056""
","
","null","run_exp/static/images/Set 6_rs/186a.jpg","null","","","","","","test","TR",""
"","html-keyboard-response","328","491755","0.0-255.0-2.0","""event"",""trial"",""time""
""fullscreenenter"",""0"",""1056""
","
","
","""event"",""trial"",""time""
""fullscreenenter"",""0"",""1056""
","
","null","<p></p>","null","","","","","","","",""
"","image","329","492610","0.0-256.0-0.0","""event"",""trial"",""time""
""fullscreenenter"",""0"",""1056""
","
","
","""event"",""trial"",""time""
""fullscreenenter"",""0"",""1056""
","
","852.2000000476837","run_exp/static/images/Set 6_rs/152a.jpg","86","","","","","","test","TR","2"
"","show_choice","330","493127","0.0-256.0-1.0","""event"",""trial"",""time""
""fullscreenenter"",""0"",""1056""
","
","
","""event"",""trial"",""time""
""fullscreenenter"",""0"",""1056""
","
","null","run_exp/static/images/Set 6_rs/152a.jpg","null","","","","","","test","TR",""
"","html-keyboard-response","331","493636","0.0-256.0-2.0","""event"",""trial"",""time""
""fullscreenenter"",""0"",""1056""
","
","
","""event"",""trial"",""time""
""fullscreenenter"",""0"",""1056""
","
","null","<p></p>","null","","","","","","","",""
"","image","332","494398","0.0-257.0-0.0","""event"",""trial"",""time""
""fullscreenenter"",""0"",""1056""
","
","
","""event"",""trial"",""time""
""fullscreenenter"",""0"",""1056""
","
","760.2999999523163","run_exp/static/images/Set 6_rs/109a.jpg","78","","","","","","test","TF","5"
"","show_choice","333","494916","0.0-257.0-1.0","""event"",""trial"",""time""
""fullscreenenter"",""0"",""1056""
","
","
","""event"",""trial"",""time""
""fullscreenenter"",""0"",""1056""
","
","null","run_exp/static/images/Set 6_rs/109a.jpg","null","","","","","","test","TF",""
"","html-keyboard-response","334","495427","0.0-257.0-2.0","""event"",""trial"",""time""
""fullscreenenter"",""0"",""1056""
","
","
","""event"",""trial"",""time""
""fullscreenenter"",""0"",""1056""
","
","null","<p></p>","null","","","","","","","",""
"","image","335","496444","0.0-258.0-0.0","""event"",""trial"",""time""
""fullscreenenter"",""0"",""1056""
","
","
","""event"",""trial"",""time""
""fullscreenenter"",""0"",""1056""
","
","1015.2999999523163","run_exp/static/images/Set 6_rs/188a.jpg","78","","","","","","test","TF","3"
"","show_choice","336","496956","0.0-258.0-1.0","""event"",""trial"",""time""
""fullscreenenter"",""0"",""1056""
","
","
","""event"",""trial"",""time""
""fullscreenenter"",""0"",""1056""
","
","null","run_exp/static/images/Set 6_rs/188a.jpg","null","","","","","","test","TF",""
"","html-keyboard-response","337","497476","0.0-258.0-2.0","""event"",""trial"",""time""
""fullscreenenter"",""0"",""1056""
","
","
","""event"",""trial"",""time""
""fullscreenenter"",""0"",""1056""
","
","null","<p></p>","null","","","","","","","",""
