"success","trial_type","trial_index","time_elapsed","internal_node_id","interactions","blur_events","focus_events","fullscreenenter_events","fullscreenexit_events","rt","stimulus","key_press","subject_id","participant_id","age","gender","prompt","phase","condition","lure_bin"
"true","fullscreen","0","109936","0.0-0.0","""event"",""trial"",""time""
""fullscreenenter"",""0"",""108958""
","
","
","""event"",""trial"",""time""
""fullscreenenter"",""0"",""108958""
","
","","","","","","","","","","",""
"","pavlovia","1","109942","0.0-1.0","""event"",""trial"",""time""
""fullscreenenter"",""0"",""108958""
","
","
","""event"",""trial"",""time""
""fullscreenenter"",""0"",""108958""
","
","","","","","","","","","","",""
"","welcome","2","144970","0.0-2.0","""event"",""trial"",""time""
""fullscreenenter"",""0"",""108958""
""fullscreenexit"",""3"",""1062352""
""blur"",""3"",""1062369""
""focus"",""3"",""1206607""
""blur"",""3"",""1544292""
""focus"",""3"",""2681552""
","""event"",""trial"",""time""
""blur"",""3"",""1062369""
""blur"",""3"",""1544292""
","""event"",""trial"",""time""
""focus"",""3"",""1206607""
""focus"",""3"",""2681552""
","""event"",""trial"",""time""
""fullscreenenter"",""0"",""108958""
","""event"",""trial"",""time""
""fullscreenexit"",""3"",""1062352""
","null","run_exp/static/audio/clip_1_welcome.m4a","null","1038","1183","15","Female","<div class='center'><p>Welcome to the third part of the study! First, you'll be shown pictures of items one at a time. For each picture, you have to decide if the item is typically found indoors or outdoors.</p><p>If you think it's usually found indoors, then press <b>v</b> key on your keyboard. If you think it's usually found outdoors, then press the <b>n</b> key.There will be reminders on the screen to help you remember which keys to press. </p><p>If you're not sure whether the item is an indoor item or an outdoor item, go ahead and take a guess but try your best not to skip that choice. </p></div>","","",""
"","html-keyboard-response","3","2689109","0.0-3.0","""event"",""trial"",""time""
""fullscreenenter"",""0"",""108958""
""fullscreenexit"",""3"",""1062352""
""blur"",""3"",""1062369""
""focus"",""3"",""1206607""
""blur"",""3"",""1544292""
""focus"",""3"",""2681552""
","""event"",""trial"",""time""
""blur"",""3"",""1062369""
""blur"",""3"",""1544292""
","""event"",""trial"",""time""
""focus"",""3"",""1206607""
""focus"",""3"",""2681552""
","""event"",""trial"",""time""
""fullscreenenter"",""0"",""108958""
","""event"",""trial"",""time""
""fullscreenexit"",""3"",""1062352""
","1437270.6999999993","<div class='center'><p>Welcome to the third part of the study! First, you'll be shown pictures of items one at a time. For each picture, you have to decide if the item is typically found indoors or outdoors.</p><p>If you think it's usually found indoors, then press <b>v</b> key on your keyboard. If you think it's usually found outdoors, then press the <b>n</b> key.There will be reminders on the screen to help you remember which keys to press. </p><p>If you're not sure whether the item is an indoor item or an outdoor item, go ahead and take a guess but try your best not to skip that choice. </p><div><p><b>[Press the space bar to continue]</b></p></div>","32","","","","","","","",""
"","image","4","2691112","0.0-4.0","""event"",""trial"",""time""
""fullscreenenter"",""0"",""108958""
""fullscreenexit"",""3"",""1062352""
""blur"",""3"",""1062369""
""focus"",""3"",""1206607""
""blur"",""3"",""1544292""
""focus"",""3"",""2681552""
","""event"",""trial"",""time""
""blur"",""3"",""1062369""
""blur"",""3"",""1544292""
","""event"",""trial"",""time""
""focus"",""3"",""1206607""
""focus"",""3"",""2681552""
","""event"",""trial"",""time""
""fullscreenenter"",""0"",""108958""
","""event"",""trial"",""time""
""fullscreenexit"",""3"",""1062352""
","null","run_exp/static/images/Set 6_rs/066a.jpg","null","","","","","","learn","SL",""
"","show_choice","5","2693114","0.0-5.0","""event"",""trial"",""time""
""fullscreenenter"",""0"",""108958""
""fullscreenexit"",""3"",""1062352""
""blur"",""3"",""1062369""
""focus"",""3"",""1206607""
""blur"",""3"",""1544292""
""focus"",""3"",""2681552""
","""event"",""trial"",""time""
""blur"",""3"",""1062369""
""blur"",""3"",""1544292""
","""event"",""trial"",""time""
""focus"",""3"",""1206607""
""focus"",""3"",""2681552""
","""event"",""trial"",""time""
""fullscreenenter"",""0"",""108958""
","""event"",""trial"",""time""
""fullscreenexit"",""3"",""1062352""
","null","run_exp/static/images/blank.png","null","","","","","","learn","SL",""
"","html-keyboard-response","6","2693616","0.0-6.0","""event"",""trial"",""time""
""fullscreenenter"",""0"",""108958""
""fullscreenexit"",""3"",""1062352""
""blur"",""3"",""1062369""
""focus"",""3"",""1206607""
""blur"",""3"",""1544292""
""focus"",""3"",""2681552""
","""event"",""trial"",""time""
""blur"",""3"",""1062369""
""blur"",""3"",""1544292""
","""event"",""trial"",""time""
""focus"",""3"",""1206607""
""focus"",""3"",""2681552""
","""event"",""trial"",""time""
""fullscreenenter"",""0"",""108958""
","""event"",""trial"",""time""
""fullscreenexit"",""3"",""1062352""
","null","<p></p>","null","","","","","","","",""
"","image","7","2694929","0.0-7.0","""event"",""trial"",""time""
""fullscreenenter"",""0"",""108958""
""fullscreenexit"",""3"",""1062352""
""blur"",""3"",""1062369""
""focus"",""3"",""1206607""
""blur"",""3"",""1544292""
""focus"",""3"",""2681552""
","""event"",""trial"",""time""
""blur"",""3"",""1062369""
""blur"",""3"",""1544292""
","""event"",""trial"",""time""
""focus"",""3"",""1206607""
""focus"",""3"",""2681552""
","""event"",""trial"",""time""
""fullscreenenter"",""0"",""108958""
","""event"",""trial"",""time""
""fullscreenexit"",""3"",""1062352""
","1311.1000000014901","run_exp/static/images/Set 6_rs/012a.jpg","86","","","","","","learn","SR",""
"","show_choice","8","2695620","0.0-8.0","""event"",""trial"",""time""
""fullscreenenter"",""0"",""108958""
""fullscreenexit"",""3"",""1062352""
""blur"",""3"",""1062369""
""focus"",""3"",""1206607""
""blur"",""3"",""1544292""
""focus"",""3"",""2681552""
","""event"",""trial"",""time""
""blur"",""3"",""1062369""
""blur"",""3"",""1544292""
","""event"",""trial"",""time""
""focus"",""3"",""1206607""
""focus"",""3"",""2681552""
","""event"",""trial"",""time""
""fullscreenenter"",""0"",""108958""
","""event"",""trial"",""time""
""fullscreenexit"",""3"",""1062352""
","null","run_exp/static/images/Set 6_rs/012a.jpg","null","","","","","","learn","SR",""
"","html-keyboard-response","9","2696121","0.0-9.0","""event"",""trial"",""time""
""fullscreenenter"",""0"",""108958""
""fullscreenexit"",""3"",""1062352""
""blur"",""3"",""1062369""
""focus"",""3"",""1206607""
""blur"",""3"",""1544292""
""focus"",""3"",""2681552""
","""event"",""trial"",""time""
""blur"",""3"",""1062369""
""blur"",""3"",""1544292""
","""event"",""trial"",""time""
""focus"",""3"",""1206607""
""focus"",""3"",""2681552""
","""event"",""trial"",""time""
""fullscreenenter"",""0"",""108958""
","""event"",""trial"",""time""
""fullscreenexit"",""3"",""1062352""
","null","<p></p>","null","","","","","","","",""
"","image","10","2697722","0.0-10.0","""event"",""trial"",""time""
""fullscreenenter"",""0"",""108958""
""fullscreenexit"",""3"",""1062352""
""blur"",""3"",""1062369""
""focus"",""3"",""1206607""
""blur"",""3"",""1544292""
""focus"",""3"",""2681552""
","""event"",""trial"",""time""
""blur"",""3"",""1062369""
""blur"",""3"",""1544292""
","""event"",""trial"",""time""
""focus"",""3"",""1206607""
""focus"",""3"",""2681552""
","""event"",""trial"",""time""
""fullscreenenter"",""0"",""108958""
","""event"",""trial"",""time""
""fullscreenexit"",""3"",""1062352""
","1598.300000000745","run_exp/static/images/Set 6_rs/154a.jpg","86","","","","","","learn","SR",""
"","show_choice","11","2698125","0.0-11.0","""event"",""trial"",""time""
""fullscreenenter"",""0"",""108958""
""fullscreenexit"",""3"",""1062352""
""blur"",""3"",""1062369""
""focus"",""3"",""1206607""
""blur"",""3"",""1544292""
""focus"",""3"",""2681552""
","""event"",""trial"",""time""
""blur"",""3"",""1062369""
""blur"",""3"",""1544292""
","""event"",""trial"",""time""
""focus"",""3"",""1206607""
""focus"",""3"",""2681552""
","""event"",""trial"",""time""
""fullscreenenter"",""0"",""108958""
","""event"",""trial"",""time""
""fullscreenexit"",""3"",""1062352""
","null","run_exp/static/images/Set 6_rs/154a.jpg","null","","","","","","learn","SR",""
"","html-keyboard-response","12","2698626","0.0-12.0","""event"",""trial"",""time""
""fullscreenenter"",""0"",""108958""
""fullscreenexit"",""3"",""1062352""
""blur"",""3"",""1062369""
""focus"",""3"",""1206607""
""blur"",""3"",""1544292""
""focus"",""3"",""2681552""
","""event"",""trial"",""time""
""blur"",""3"",""1062369""
""blur"",""3"",""1544292""
","""event"",""trial"",""time""
""focus"",""3"",""1206607""
""focus"",""3"",""2681552""
","""event"",""trial"",""time""
""fullscreenenter"",""0"",""108958""
","""event"",""trial"",""time""
""fullscreenexit"",""3"",""1062352""
","null","<p></p>","null","","","","","","","",""
"","image","13","2699519","0.0-13.0","""event"",""trial"",""time""
""fullscreenenter"",""0"",""108958""
""fullscreenexit"",""3"",""1062352""
""blur"",""3"",""1062369""
""focus"",""3"",""1206607""
""blur"",""3"",""1544292""
""focus"",""3"",""2681552""
","""event"",""trial"",""time""
""blur"",""3"",""1062369""
""blur"",""3"",""1544292""
","""event"",""trial"",""time""
""focus"",""3"",""1206607""
""focus"",""3"",""2681552""
","""event"",""trial"",""time""
""fullscreenenter"",""0"",""108958""
","""event"",""trial"",""time""
""fullscreenexit"",""3"",""1062352""
","890.5","run_exp/static/images/Set 6_rs/167a.jpg","86","","","","","","learn","SL",""
"","show_choice","14","2700630","0.0-14.0","""event"",""trial"",""time""
""fullscreenenter"",""0"",""108958""
""fullscreenexit"",""3"",""1062352""
""blur"",""3"",""1062369""
""focus"",""3"",""1206607""
""blur"",""3"",""1544292""
""focus"",""3"",""2681552""
","""event"",""trial"",""time""
""blur"",""3"",""1062369""
""blur"",""3"",""1544292""
","""event"",""trial"",""time""
""focus"",""3"",""1206607""
""focus"",""3"",""2681552""
","""event"",""trial"",""time""
""fullscreenenter"",""0"",""108958""
","""event"",""trial"",""time""
""fullscreenexit"",""3"",""1062352""
","null","run_exp/static/images/Set 6_rs/167a.jpg","null","","","","","","learn","SL",""
"","html-keyboard-response","15","2701132","0.0-15.0","""event"",""trial"",""time""
""fullscreenenter"",""0"",""108958""
""fullscreenexit"",""3"",""1062352""
""blur"",""3"",""1062369""
""focus"",""3"",""1206607""
""blur"",""3"",""1544292""
""focus"",""3"",""2681552""
","""event"",""trial"",""time""
""blur"",""3"",""1062369""
""blur"",""3"",""1544292""
","""event"",""trial"",""time""
""focus"",""3"",""1206607""
""focus"",""3"",""2681552""
","""event"",""trial"",""time""
""fullscreenenter"",""0"",""108958""
","""event"",""trial"",""time""
""fullscreenexit"",""3"",""1062352""
","null","<p></p>","null","","","","","","","",""
"","image","16","2702848","0.0-16.0","""event"",""trial"",""time""
""fullscreenenter"",""0"",""108958""
""fullscreenexit"",""3"",""1062352""
""blur"",""3"",""1062369""
""focus"",""3"",""1206607""
""blur"",""3"",""1544292""
""focus"",""3"",""2681552""
","""event"",""trial"",""time""
""blur"",""3"",""1062369""
""blur"",""3"",""1544292""
","""event"",""trial"",""time""
""focus"",""3"",""1206607""
""focus"",""3"",""2681552""
","""event"",""trial"",""time""
""fullscreenenter"",""0"",""108958""
","""event"",""trial"",""time""
""fullscreenexit"",""3"",""1062352""
","1714.199999999255","run_exp/static/images/Set 6_rs/085a.jpg","78","","","","","","learn","SL",""
"","show_choice","17","2703135","0.0-17.0","""event"",""trial"",""time""
""fullscreenenter"",""0"",""108958""
""fullscreenexit"",""3"",""1062352""
""blur"",""3"",""1062369""
""focus"",""3"",""1206607""
""blur"",""3"",""1544292""
""focus"",""3"",""2681552""
","""event"",""trial"",""time""
""blur"",""3"",""1062369""
""blur"",""3"",""1544292""
","""event"",""trial"",""time""
""focus"",""3"",""1206607""
""focus"",""3"",""2681552""
","""event"",""trial"",""time""
""fullscreenenter"",""0"",""108958""
","""event"",""trial"",""time""
""fullscreenexit"",""3"",""1062352""
","null","run_exp/static/images/Set 6_rs/085a.jpg","null","","","","","","learn","SL",""
"","html-keyboard-response","18","2703636","0.0-18.0","""event"",""trial"",""time""
""fullscreenenter"",""0"",""108958""
""fullscreenexit"",""3"",""1062352""
""blur"",""3"",""1062369""
""focus"",""3"",""1206607""
""blur"",""3"",""1544292""
""focus"",""3"",""2681552""
","""event"",""trial"",""time""
""blur"",""3"",""1062369""
""blur"",""3"",""1544292""
","""event"",""trial"",""time""
""focus"",""3"",""1206607""
""focus"",""3"",""2681552""
","""event"",""trial"",""time""
""fullscreenenter"",""0"",""108958""
","""event"",""trial"",""time""
""fullscreenexit"",""3"",""1062352""
","null","<p></p>","null","","","","","","","",""
"","image","19","2704702","0.0-19.0","""event"",""trial"",""time""
""fullscreenenter"",""0"",""108958""
""fullscreenexit"",""3"",""1062352""
""blur"",""3"",""1062369""
""focus"",""3"",""1206607""
""blur"",""3"",""1544292""
""focus"",""3"",""2681552""
","""event"",""trial"",""time""
""blur"",""3"",""1062369""
""blur"",""3"",""1544292""
","""event"",""trial"",""time""
""focus"",""3"",""1206607""
""focus"",""3"",""2681552""
","""event"",""trial"",""time""
""fullscreenenter"",""0"",""108958""
","""event"",""trial"",""time""
""fullscreenexit"",""3"",""1062352""
","1063.300000000745","run_exp/static/images/Set 6_rs/076a.jpg","86","","","","","","learn","SR",""
"","show_choice","20","2705640","0.0-20.0","""event"",""trial"",""time""
""fullscreenenter"",""0"",""108958""
""fullscreenexit"",""3"",""1062352""
""blur"",""3"",""1062369""
""focus"",""3"",""1206607""
""blur"",""3"",""1544292""
""focus"",""3"",""2681552""
","""event"",""trial"",""time""
""blur"",""3"",""1062369""
""blur"",""3"",""1544292""
","""event"",""trial"",""time""
""focus"",""3"",""1206607""
""focus"",""3"",""2681552""
","""event"",""trial"",""time""
""fullscreenenter"",""0"",""108958""
","""event"",""trial"",""time""
""fullscreenexit"",""3"",""1062352""
","null","run_exp/static/images/Set 6_rs/076a.jpg","null","","","","","","learn","SR",""
"","html-keyboard-response","21","2706142","0.0-21.0","""event"",""trial"",""time""
""fullscreenenter"",""0"",""108958""
""fullscreenexit"",""3"",""1062352""
""blur"",""3"",""1062369""
""focus"",""3"",""1206607""
""blur"",""3"",""1544292""
""focus"",""3"",""2681552""
","""event"",""trial"",""time""
""blur"",""3"",""1062369""
""blur"",""3"",""1544292""
","""event"",""trial"",""time""
""focus"",""3"",""1206607""
""focus"",""3"",""2681552""
","""event"",""trial"",""time""
""fullscreenenter"",""0"",""108958""
","""event"",""trial"",""time""
""fullscreenexit"",""3"",""1062352""
","null","<p></p>","null","","","","","","","",""
"","image","22","2707055","0.0-22.0","""event"",""trial"",""time""
""fullscreenenter"",""0"",""108958""
""fullscreenexit"",""3"",""1062352""
""blur"",""3"",""1062369""
""focus"",""3"",""1206607""
""blur"",""3"",""1544292""
""focus"",""3"",""2681552""
","""event"",""trial"",""time""
""blur"",""3"",""1062369""
""blur"",""3"",""1544292""
","""event"",""trial"",""time""
""focus"",""3"",""1206607""
""focus"",""3"",""2681552""
","""event"",""trial"",""time""
""fullscreenenter"",""0"",""108958""
","""event"",""trial"",""time""
""fullscreenexit"",""3"",""1062352""
","911.1999999992549","run_exp/static/images/Set 6_rs/063a.jpg","86","","","","","","learn","SR",""
"","show_choice","23","2708148","0.0-23.0","""event"",""trial"",""time""
""fullscreenenter"",""0"",""108958""
""fullscreenexit"",""3"",""1062352""
""blur"",""3"",""1062369""
""focus"",""3"",""1206607""
""blur"",""3"",""1544292""
""focus"",""3"",""2681552""
","""event"",""trial"",""time""
""blur"",""3"",""1062369""
""blur"",""3"",""1544292""
","""event"",""trial"",""time""
""focus"",""3"",""1206607""
""focus"",""3"",""2681552""
","""event"",""trial"",""time""
""fullscreenenter"",""0"",""108958""
","""event"",""trial"",""time""
""fullscreenexit"",""3"",""1062352""
","null","run_exp/static/images/Set 6_rs/063a.jpg","null","","","","","","learn","SR",""
"","html-keyboard-response","24","2708650","0.0-24.0","""event"",""trial"",""time""
""fullscreenenter"",""0"",""108958""
""fullscreenexit"",""3"",""1062352""
""blur"",""3"",""1062369""
""focus"",""3"",""1206607""
""blur"",""3"",""1544292""
""focus"",""3"",""2681552""
","""event"",""trial"",""time""
""blur"",""3"",""1062369""
""blur"",""3"",""1544292""
","""event"",""trial"",""time""
""focus"",""3"",""1206607""
""focus"",""3"",""2681552""
","""event"",""trial"",""time""
""fullscreenenter"",""0"",""108958""
","""event"",""trial"",""time""
""fullscreenexit"",""3"",""1062352""
","null","<p></p>","null","","","","","","","",""
"","image","25","2709416","0.0-25.0","""event"",""trial"",""time""
""fullscreenenter"",""0"",""108958""
""fullscreenexit"",""3"",""1062352""
""blur"",""3"",""1062369""
""focus"",""3"",""1206607""
""blur"",""3"",""1544292""
""focus"",""3"",""2681552""
","""event"",""trial"",""time""
""blur"",""3"",""1062369""
""blur"",""3"",""1544292""
","""event"",""trial"",""time""
""focus"",""3"",""1206607""
""focus"",""3"",""2681552""
","""event"",""trial"",""time""
""fullscreenenter"",""0"",""108958""
","""event"",""trial"",""time""
""fullscreenexit"",""3"",""1062352""
","764.3000000007451","run_exp/static/images/Set 6_rs/061a.jpg","78","","","","","","learn","SR",""
"","show_choice","26","2710654","0.0-26.0","""event"",""trial"",""time""
""fullscreenenter"",""0"",""108958""
""fullscreenexit"",""3"",""1062352""
""blur"",""3"",""1062369""
""focus"",""3"",""1206607""
""blur"",""3"",""1544292""
""focus"",""3"",""2681552""
","""event"",""trial"",""time""
""blur"",""3"",""1062369""
""blur"",""3"",""1544292""
","""event"",""trial"",""time""
""focus"",""3"",""1206607""
""focus"",""3"",""2681552""
","""event"",""trial"",""time""
""fullscreenenter"",""0"",""108958""
","""event"",""trial"",""time""
""fullscreenexit"",""3"",""1062352""
","null","run_exp/static/images/Set 6_rs/061a.jpg","null","","","","","","learn","SR",""
"","html-keyboard-response","27","2711156","0.0-27.0","""event"",""trial"",""time""
""fullscreenenter"",""0"",""108958""
""fullscreenexit"",""3"",""1062352""
""blur"",""3"",""1062369""
""focus"",""3"",""1206607""
""blur"",""3"",""1544292""
""focus"",""3"",""2681552""
","""event"",""trial"",""time""
""blur"",""3"",""1062369""
""blur"",""3"",""1544292""
","""event"",""trial"",""time""
""focus"",""3"",""1206607""
""focus"",""3"",""2681552""
","""event"",""trial"",""time""
""fullscreenenter"",""0"",""108958""
","""event"",""trial"",""time""
""fullscreenexit"",""3"",""1062352""
","null","<p></p>","null","","","","","","","",""
"","image","28","2711914","0.0-28.0","""event"",""trial"",""time""
""fullscreenenter"",""0"",""108958""
""fullscreenexit"",""3"",""1062352""
""blur"",""3"",""1062369""
""focus"",""3"",""1206607""
""blur"",""3"",""1544292""
""focus"",""3"",""2681552""
","""event"",""trial"",""time""
""blur"",""3"",""1062369""
""blur"",""3"",""1544292""
","""event"",""trial"",""time""
""focus"",""3"",""1206607""
""focus"",""3"",""2681552""
","""event"",""trial"",""time""
""fullscreenenter"",""0"",""108958""
","""event"",""trial"",""time""
""fullscreenexit"",""3"",""1062352""
","755.9000000022352","run_exp/static/images/Set 6_rs/062a.jpg","86","","","","","","learn","SL",""
"","show_choice","29","2713160","0.0-29.0","""event"",""trial"",""time""
""fullscreenenter"",""0"",""108958""
""fullscreenexit"",""3"",""1062352""
""blur"",""3"",""1062369""
""focus"",""3"",""1206607""
""blur"",""3"",""1544292""
""focus"",""3"",""2681552""
","""event"",""trial"",""time""
""blur"",""3"",""1062369""
""blur"",""3"",""1544292""
","""event"",""trial"",""time""
""focus"",""3"",""1206607""
""focus"",""3"",""2681552""
","""event"",""trial"",""time""
""fullscreenenter"",""0"",""108958""
","""event"",""trial"",""time""
""fullscreenexit"",""3"",""1062352""
","null","run_exp/static/images/Set 6_rs/062a.jpg","null","","","","","","learn","SL",""
"","html-keyboard-response","30","2713668","0.0-30.0","""event"",""trial"",""time""
""fullscreenenter"",""0"",""108958""
""fullscreenexit"",""3"",""1062352""
""blur"",""3"",""1062369""
""focus"",""3"",""1206607""
""blur"",""3"",""1544292""
""focus"",""3"",""2681552""
","""event"",""trial"",""time""
""blur"",""3"",""1062369""
""blur"",""3"",""1544292""
","""event"",""trial"",""time""
""focus"",""3"",""1206607""
""focus"",""3"",""2681552""
","""event"",""trial"",""time""
""fullscreenenter"",""0"",""108958""
","""event"",""trial"",""time""
""fullscreenexit"",""3"",""1062352""
","null","<p></p>","null","","","","","","","",""
"","image","31","2714723","0.0-31.0","""event"",""trial"",""time""
""fullscreenenter"",""0"",""108958""
""fullscreenexit"",""3"",""1062352""
""blur"",""3"",""1062369""
""focus"",""3"",""1206607""
""blur"",""3"",""1544292""
""focus"",""3"",""2681552""
","""event"",""trial"",""time""
""blur"",""3"",""1062369""
""blur"",""3"",""1544292""
","""event"",""trial"",""time""
""focus"",""3"",""1206607""
""focus"",""3"",""2681552""
","""event"",""trial"",""time""
""fullscreenenter"",""0"",""108958""
","""event"",""trial"",""time""
""fullscreenexit"",""3"",""1062352""
","1053","run_exp/static/images/Set 6_rs/116a.jpg","86","","","","","","learn","SL",""
"","show_choice","32","2715672","0.0-32.0","""event"",""trial"",""time""
""fullscreenenter"",""0"",""108958""
""fullscreenexit"",""3"",""1062352""
""blur"",""3"",""1062369""
""focus"",""3"",""1206607""
""blur"",""3"",""1544292""
""focus"",""3"",""2681552""
","""event"",""trial"",""time""
""blur"",""3"",""1062369""
""blur"",""3"",""1544292""
","""event"",""trial"",""time""
""focus"",""3"",""1206607""
""focus"",""3"",""2681552""
","""event"",""trial"",""time""
""fullscreenenter"",""0"",""108958""
","""event"",""trial"",""time""
""fullscreenexit"",""3"",""1062352""
","null","run_exp/static/images/Set 6_rs/116a.jpg","null","","","","","","learn","SL",""
"","html-keyboard-response","33","2716174","0.0-33.0","""event"",""trial"",""time""
""fullscreenenter"",""0"",""108958""
""fullscreenexit"",""3"",""1062352""
""blur"",""3"",""1062369""
""focus"",""3"",""1206607""
""blur"",""3"",""1544292""
""focus"",""3"",""2681552""
","""event"",""trial"",""time""
""blur"",""3"",""1062369""
""blur"",""3"",""1544292""
","""event"",""trial"",""time""
""focus"",""3"",""1206607""
""focus"",""3"",""2681552""
","""event"",""trial"",""time""
""fullscreenenter"",""0"",""108958""
","""event"",""trial"",""time""
""fullscreenexit"",""3"",""1062352""
","null","<p></p>","null","","","","","","","",""
"","image","34","2717084","0.0-34.0","""event"",""trial"",""time""
""fullscreenenter"",""0"",""108958""
""fullscreenexit"",""3"",""1062352""
""blur"",""3"",""1062369""
""focus"",""3"",""1206607""
""blur"",""3"",""1544292""
""focus"",""3"",""2681552""
","""event"",""trial"",""time""
""blur"",""3"",""1062369""
""blur"",""3"",""1544292""
","""event"",""trial"",""time""
""focus"",""3"",""1206607""
""focus"",""3"",""2681552""
","""event"",""trial"",""time""
""fullscreenenter"",""0"",""108958""
","""event"",""trial"",""time""
""fullscreenexit"",""3"",""1062352""
","908.5999999977648","run_exp/static/images/Set 6_rs/010a.jpg","86","","","","","","learn","SR",""
"","show_choice","35","2718177","0.0-35.0","""event"",""trial"",""time""
""fullscreenenter"",""0"",""108958""
""fullscreenexit"",""3"",""1062352""
""blur"",""3"",""1062369""
""focus"",""3"",""1206607""
""blur"",""3"",""1544292""
""focus"",""3"",""2681552""
","""event"",""trial"",""time""
""blur"",""3"",""1062369""
""blur"",""3"",""1544292""
","""event"",""trial"",""time""
""focus"",""3"",""1206607""
""focus"",""3"",""2681552""
","""event"",""trial"",""time""
""fullscreenenter"",""0"",""108958""
","""event"",""trial"",""time""
""fullscreenexit"",""3"",""1062352""
","null","run_exp/static/images/Set 6_rs/010a.jpg","null","","","","","","learn","SR",""
"","html-keyboard-response","36","2718679","0.0-36.0","""event"",""trial"",""time""
""fullscreenenter"",""0"",""108958""
""fullscreenexit"",""3"",""1062352""
""blur"",""3"",""1062369""
""focus"",""3"",""1206607""
""blur"",""3"",""1544292""
""focus"",""3"",""2681552""
","""event"",""trial"",""time""
""blur"",""3"",""1062369""
""blur"",""3"",""1544292""
","""event"",""trial"",""time""
""focus"",""3"",""1206607""
""focus"",""3"",""2681552""
","""event"",""trial"",""time""
""fullscreenenter"",""0"",""108958""
","""event"",""trial"",""time""
""fullscreenexit"",""3"",""1062352""
","null","<p></p>","null","","","","","","","",""
"","image","37","2719523","0.0-37.0","""event"",""trial"",""time""
""fullscreenenter"",""0"",""108958""
""fullscreenexit"",""3"",""1062352""
""blur"",""3"",""1062369""
""focus"",""3"",""1206607""
""blur"",""3"",""1544292""
""focus"",""3"",""2681552""
","""event"",""trial"",""time""
""blur"",""3"",""1062369""
""blur"",""3"",""1544292""
","""event"",""trial"",""time""
""focus"",""3"",""1206607""
""focus"",""3"",""2681552""
","""event"",""trial"",""time""
""fullscreenenter"",""0"",""108958""
","""event"",""trial"",""time""
""fullscreenexit"",""3"",""1062352""
","842.5","run_exp/static/images/Set 6_rs/172a.jpg","78","","","","","","learn","SR",""
"","show_choice","38","2720683","0.0-38.0","""event"",""trial"",""time""
""fullscreenenter"",""0"",""108958""
""fullscreenexit"",""3"",""1062352""
""blur"",""3"",""1062369""
""focus"",""3"",""1206607""
""blur"",""3"",""1544292""
""focus"",""3"",""2681552""
","""event"",""trial"",""time""
""blur"",""3"",""1062369""
""blur"",""3"",""1544292""
","""event"",""trial"",""time""
""focus"",""3"",""1206607""
""focus"",""3"",""2681552""
","""event"",""trial"",""time""
""fullscreenenter"",""0"",""108958""
","""event"",""trial"",""time""
""fullscreenexit"",""3"",""1062352""
","null","run_exp/static/images/Set 6_rs/172a.jpg","null","","","","","","learn","SR",""
"","html-keyboard-response","39","2721184","0.0-39.0","""event"",""trial"",""time""
""fullscreenenter"",""0"",""108958""
""fullscreenexit"",""3"",""1062352""
""blur"",""3"",""1062369""
""focus"",""3"",""1206607""
""blur"",""3"",""1544292""
""focus"",""3"",""2681552""
","""event"",""trial"",""time""
""blur"",""3"",""1062369""
""blur"",""3"",""1544292""
","""event"",""trial"",""time""
""focus"",""3"",""1206607""
""focus"",""3"",""2681552""
","""event"",""trial"",""time""
""fullscreenenter"",""0"",""108958""
","""event"",""trial"",""time""
""fullscreenexit"",""3"",""1062352""
","null","<p></p>","null","","","","","","","",""
"","image","40","2721953","0.0-40.0","""event"",""trial"",""time""
""fullscreenenter"",""0"",""108958""
""fullscreenexit"",""3"",""1062352""
""blur"",""3"",""1062369""
""focus"",""3"",""1206607""
""blur"",""3"",""1544292""
""focus"",""3"",""2681552""
","""event"",""trial"",""time""
""blur"",""3"",""1062369""
""blur"",""3"",""1544292""
","""event"",""trial"",""time""
""focus"",""3"",""1206607""
""focus"",""3"",""2681552""
","""event"",""trial"",""time""
""fullscreenenter"",""0"",""108958""
","""event"",""trial"",""time""
""fullscreenexit"",""3"",""1062352""
","766.5999999977648","run_exp/static/images/Set 6_rs/095a.jpg","86","","","","","","learn","SL",""
"","show_choice","41","2723188","0.0-41.0","""event"",""trial"",""time""
""fullscreenenter"",""0"",""108958""
""fullscreenexit"",""3"",""1062352""
""blur"",""3"",""1062369""
""focus"",""3"",""1206607""
""blur"",""3"",""1544292""
""focus"",""3"",""2681552""
","""event"",""trial"",""time""
""blur"",""3"",""1062369""
""blur"",""3"",""1544292""
","""event"",""trial"",""time""
""focus"",""3"",""1206607""
""focus"",""3"",""2681552""
","""event"",""trial"",""time""
""fullscreenenter"",""0"",""108958""
","""event"",""trial"",""time""
""fullscreenexit"",""3"",""1062352""
","null","run_exp/static/images/Set 6_rs/095a.jpg","null","","","","","","learn","SL",""
"","html-keyboard-response","42","2723690","0.0-42.0","""event"",""trial"",""time""
""fullscreenenter"",""0"",""108958""
""fullscreenexit"",""3"",""1062352""
""blur"",""3"",""1062369""
""focus"",""3"",""1206607""
""blur"",""3"",""1544292""
""focus"",""3"",""2681552""
","""event"",""trial"",""time""
""blur"",""3"",""1062369""
""blur"",""3"",""1544292""
","""event"",""trial"",""time""
""focus"",""3"",""1206607""
""focus"",""3"",""2681552""
","""event"",""trial"",""time""
""fullscreenenter"",""0"",""108958""
","""event"",""trial"",""time""
""fullscreenexit"",""3"",""1062352""
","null","<p></p>","null","","","","","","","",""
"","image","43","2724557","0.0-43.0","""event"",""trial"",""time""
""fullscreenenter"",""0"",""108958""
""fullscreenexit"",""3"",""1062352""
""blur"",""3"",""1062369""
""focus"",""3"",""1206607""
""blur"",""3"",""1544292""
""focus"",""3"",""2681552""
","""event"",""trial"",""time""
""blur"",""3"",""1062369""
""blur"",""3"",""1544292""
","""event"",""trial"",""time""
""focus"",""3"",""1206607""
""focus"",""3"",""2681552""
","""event"",""trial"",""time""
""fullscreenenter"",""0"",""108958""
","""event"",""trial"",""time""
""fullscreenexit"",""3"",""1062352""
","864.3999999985099","run_exp/static/images/Set 6_rs/017a.jpg","78","","","","","","learn","SL",""
"","show_choice","44","2725694","0.0-44.0","""event"",""trial"",""time""
""fullscreenenter"",""0"",""108958""
""fullscreenexit"",""3"",""1062352""
""blur"",""3"",""1062369""
""focus"",""3"",""1206607""
""blur"",""3"",""1544292""
""focus"",""3"",""2681552""
","""event"",""trial"",""time""
""blur"",""3"",""1062369""
""blur"",""3"",""1544292""
","""event"",""trial"",""time""
""focus"",""3"",""1206607""
""focus"",""3"",""2681552""
","""event"",""trial"",""time""
""fullscreenenter"",""0"",""108958""
","""event"",""trial"",""time""
""fullscreenexit"",""3"",""1062352""
","null","run_exp/static/images/Set 6_rs/017a.jpg","null","","","","","","learn","SL",""
"","html-keyboard-response","45","2726196","0.0-45.0","""event"",""trial"",""time""
""fullscreenenter"",""0"",""108958""
""fullscreenexit"",""3"",""1062352""
""blur"",""3"",""1062369""
""focus"",""3"",""1206607""
""blur"",""3"",""1544292""
""focus"",""3"",""2681552""
","""event"",""trial"",""time""
""blur"",""3"",""1062369""
""blur"",""3"",""1544292""
","""event"",""trial"",""time""
""focus"",""3"",""1206607""
""focus"",""3"",""2681552""
","""event"",""trial"",""time""
""fullscreenenter"",""0"",""108958""
","""event"",""trial"",""time""
""fullscreenexit"",""3"",""1062352""
","null","<p></p>","null","","","","","","","",""
"","image","46","2727165","0.0-46.0","""event"",""trial"",""time""
""fullscreenenter"",""0"",""108958""
""fullscreenexit"",""3"",""1062352""
""blur"",""3"",""1062369""
""focus"",""3"",""1206607""
""blur"",""3"",""1544292""
""focus"",""3"",""2681552""
","""event"",""trial"",""time""
""blur"",""3"",""1062369""
""blur"",""3"",""1544292""
","""event"",""trial"",""time""
""focus"",""3"",""1206607""
""focus"",""3"",""2681552""
","""event"",""trial"",""time""
""fullscreenenter"",""0"",""108958""
","""event"",""trial"",""time""
""fullscreenexit"",""3"",""1062352""
","967.8000000007451","run_exp/static/images/Set 6_rs/016a.jpg","86","","","","","","learn","SL",""
"","show_choice","47","2728200","0.0-47.0","""event"",""trial"",""time""
""fullscreenenter"",""0"",""108958""
""fullscreenexit"",""3"",""1062352""
""blur"",""3"",""1062369""
""focus"",""3"",""1206607""
""blur"",""3"",""1544292""
""focus"",""3"",""2681552""
","""event"",""trial"",""time""
""blur"",""3"",""1062369""
""blur"",""3"",""1544292""
","""event"",""trial"",""time""
""focus"",""3"",""1206607""
""focus"",""3"",""2681552""
","""event"",""trial"",""time""
""fullscreenenter"",""0"",""108958""
","""event"",""trial"",""time""
""fullscreenexit"",""3"",""1062352""
","null","run_exp/static/images/Set 6_rs/016a.jpg","null","","","","","","learn","SL",""
"","html-keyboard-response","48","2728703","0.0-48.0","""event"",""trial"",""time""
""fullscreenenter"",""0"",""108958""
""fullscreenexit"",""3"",""1062352""
""blur"",""3"",""1062369""
""focus"",""3"",""1206607""
""blur"",""3"",""1544292""
""focus"",""3"",""2681552""
","""event"",""trial"",""time""
""blur"",""3"",""1062369""
""blur"",""3"",""1544292""
","""event"",""trial"",""time""
""focus"",""3"",""1206607""
""focus"",""3"",""2681552""
","""event"",""trial"",""time""
""fullscreenenter"",""0"",""108958""
","""event"",""trial"",""time""
""fullscreenexit"",""3"",""1062352""
","null","<p></p>","null","","","","","","","",""
"","image","49","2729616","0.0-49.0","""event"",""trial"",""time""
""fullscreenenter"",""0"",""108958""
""fullscreenexit"",""3"",""1062352""
""blur"",""3"",""1062369""
""focus"",""3"",""1206607""
""blur"",""3"",""1544292""
""focus"",""3"",""2681552""
","""event"",""trial"",""time""
""blur"",""3"",""1062369""
""blur"",""3"",""1544292""
","""event"",""trial"",""time""
""focus"",""3"",""1206607""
""focus"",""3"",""2681552""
","""event"",""trial"",""time""
""fullscreenenter"",""0"",""108958""
","""event"",""trial"",""time""
""fullscreenexit"",""3"",""1062352""
","910.1000000014901","run_exp/static/images/Set 6_rs/073a.jpg","86","","","","","","learn","SL",""
"","show_choice","50","2730708","0.0-50.0","""event"",""trial"",""time""
""fullscreenenter"",""0"",""108958""
""fullscreenexit"",""3"",""1062352""
""blur"",""3"",""1062369""
""focus"",""3"",""1206607""
""blur"",""3"",""1544292""
""focus"",""3"",""2681552""
","""event"",""trial"",""time""
""blur"",""3"",""1062369""
""blur"",""3"",""1544292""
","""event"",""trial"",""time""
""focus"",""3"",""1206607""
""focus"",""3"",""2681552""
","""event"",""trial"",""time""
""fullscreenenter"",""0"",""108958""
","""event"",""trial"",""time""
""fullscreenexit"",""3"",""1062352""
","null","run_exp/static/images/Set 6_rs/073a.jpg","null","","","","","","learn","SL",""
"","html-keyboard-response","51","2731210","0.0-51.0","""event"",""trial"",""time""
""fullscreenenter"",""0"",""108958""
""fullscreenexit"",""3"",""1062352""
""blur"",""3"",""1062369""
""focus"",""3"",""1206607""
""blur"",""3"",""1544292""
""focus"",""3"",""2681552""
","""event"",""trial"",""time""
""blur"",""3"",""1062369""
""blur"",""3"",""1544292""
","""event"",""trial"",""time""
""focus"",""3"",""1206607""
""focus"",""3"",""2681552""
","""event"",""trial"",""time""
""fullscreenenter"",""0"",""108958""
","""event"",""trial"",""time""
""fullscreenexit"",""3"",""1062352""
","null","<p></p>","null","","","","","","","",""
"","image","52","2732574","0.0-52.0","""event"",""trial"",""time""
""fullscreenenter"",""0"",""108958""
""fullscreenexit"",""3"",""1062352""
""blur"",""3"",""1062369""
""focus"",""3"",""1206607""
""blur"",""3"",""1544292""
""focus"",""3"",""2681552""
","""event"",""trial"",""time""
""blur"",""3"",""1062369""
""blur"",""3"",""1544292""
","""event"",""trial"",""time""
""focus"",""3"",""1206607""
""focus"",""3"",""2681552""
","""event"",""trial"",""time""
""fullscreenenter"",""0"",""108958""
","""event"",""trial"",""time""
""fullscreenexit"",""3"",""1062352""
","1362.7999999970198","run_exp/static/images/Set 6_rs/050a.jpg","86","","","","","","learn","SL",""
"","show_choice","53","2733214","0.0-53.0","""event"",""trial"",""time""
""fullscreenenter"",""0"",""108958""
""fullscreenexit"",""3"",""1062352""
""blur"",""3"",""1062369""
""focus"",""3"",""1206607""
""blur"",""3"",""1544292""
""focus"",""3"",""2681552""
","""event"",""trial"",""time""
""blur"",""3"",""1062369""
""blur"",""3"",""1544292""
","""event"",""trial"",""time""
""focus"",""3"",""1206607""
""focus"",""3"",""2681552""
","""event"",""trial"",""time""
""fullscreenenter"",""0"",""108958""
","""event"",""trial"",""time""
""fullscreenexit"",""3"",""1062352""
","null","run_exp/static/images/Set 6_rs/050a.jpg","null","","","","","","learn","SL",""
"","html-keyboard-response","54","2733715","0.0-54.0","""event"",""trial"",""time""
""fullscreenenter"",""0"",""108958""
""fullscreenexit"",""3"",""1062352""
""blur"",""3"",""1062369""
""focus"",""3"",""1206607""
""blur"",""3"",""1544292""
""focus"",""3"",""2681552""
","""event"",""trial"",""time""
""blur"",""3"",""1062369""
""blur"",""3"",""1544292""
","""event"",""trial"",""time""
""focus"",""3"",""1206607""
""focus"",""3"",""2681552""
","""event"",""trial"",""time""
""fullscreenenter"",""0"",""108958""
","""event"",""trial"",""time""
""fullscreenexit"",""3"",""1062352""
","null","<p></p>","null","","","","","","","",""
"","image","55","2734697","0.0-55.0","""event"",""trial"",""time""
""fullscreenenter"",""0"",""108958""
""fullscreenexit"",""3"",""1062352""
""blur"",""3"",""1062369""
""focus"",""3"",""1206607""
""blur"",""3"",""1544292""
""focus"",""3"",""2681552""
","""event"",""trial"",""time""
""blur"",""3"",""1062369""
""blur"",""3"",""1544292""
","""event"",""trial"",""time""
""focus"",""3"",""1206607""
""focus"",""3"",""2681552""
","""event"",""trial"",""time""
""fullscreenenter"",""0"",""108958""
","""event"",""trial"",""time""
""fullscreenexit"",""3"",""1062352""
","979.2999999970198","run_exp/static/images/Set 6_rs/064a.jpg","78","","","","","","learn","SR",""
"","show_choice","56","2735719","0.0-56.0","""event"",""trial"",""time""
""fullscreenenter"",""0"",""108958""
""fullscreenexit"",""3"",""1062352""
""blur"",""3"",""1062369""
""focus"",""3"",""1206607""
""blur"",""3"",""1544292""
""focus"",""3"",""2681552""
","""event"",""trial"",""time""
""blur"",""3"",""1062369""
""blur"",""3"",""1544292""
","""event"",""trial"",""time""
""focus"",""3"",""1206607""
""focus"",""3"",""2681552""
","""event"",""trial"",""time""
""fullscreenenter"",""0"",""108958""
","""event"",""trial"",""time""
""fullscreenexit"",""3"",""1062352""
","null","run_exp/static/images/Set 6_rs/064a.jpg","null","","","","","","learn","SR",""
"","html-keyboard-response","57","2736221","0.0-57.0","""event"",""trial"",""time""
""fullscreenenter"",""0"",""108958""
""fullscreenexit"",""3"",""1062352""
""blur"",""3"",""1062369""
""focus"",""3"",""1206607""
""blur"",""3"",""1544292""
""focus"",""3"",""2681552""
","""event"",""trial"",""time""
""blur"",""3"",""1062369""
""blur"",""3"",""1544292""
","""event"",""trial"",""time""
""focus"",""3"",""1206607""
""focus"",""3"",""2681552""
","""event"",""trial"",""time""
""fullscreenenter"",""0"",""108958""
","""event"",""trial"",""time""
""fullscreenexit"",""3"",""1062352""
","null","<p></p>","null","","","","","","","",""
"","image","58","2737497","0.0-58.0","""event"",""trial"",""time""
""fullscreenenter"",""0"",""108958""
""fullscreenexit"",""3"",""1062352""
""blur"",""3"",""1062369""
""focus"",""3"",""1206607""
""blur"",""3"",""1544292""
""focus"",""3"",""2681552""
","""event"",""trial"",""time""
""blur"",""3"",""1062369""
""blur"",""3"",""1544292""
","""event"",""trial"",""time""
""focus"",""3"",""1206607""
""focus"",""3"",""2681552""
","""event"",""trial"",""time""
""fullscreenenter"",""0"",""108958""
","""event"",""trial"",""time""
""fullscreenexit"",""3"",""1062352""
","1272.4000000022352","run_exp/static/images/Set 6_rs/169a.jpg","78","","","","","","learn","SR",""
"","show_choice","59","2738226","0.0-59.0","""event"",""trial"",""time""
""fullscreenenter"",""0"",""108958""
""fullscreenexit"",""3"",""1062352""
""blur"",""3"",""1062369""
""focus"",""3"",""1206607""
""blur"",""3"",""1544292""
""focus"",""3"",""2681552""
","""event"",""trial"",""time""
""blur"",""3"",""1062369""
""blur"",""3"",""1544292""
","""event"",""trial"",""time""
""focus"",""3"",""1206607""
""focus"",""3"",""2681552""
","""event"",""trial"",""time""
""fullscreenenter"",""0"",""108958""
","""event"",""trial"",""time""
""fullscreenexit"",""3"",""1062352""
","null","run_exp/static/images/Set 6_rs/169a.jpg","null","","","","","","learn","SR",""
"","html-keyboard-response","60","2738728","0.0-60.0","""event"",""trial"",""time""
""fullscreenenter"",""0"",""108958""
""fullscreenexit"",""3"",""1062352""
""blur"",""3"",""1062369""
""focus"",""3"",""1206607""
""blur"",""3"",""1544292""
""focus"",""3"",""2681552""
","""event"",""trial"",""time""
""blur"",""3"",""1062369""
""blur"",""3"",""1544292""
","""event"",""trial"",""time""
""focus"",""3"",""1206607""
""focus"",""3"",""2681552""
","""event"",""trial"",""time""
""fullscreenenter"",""0"",""108958""
","""event"",""trial"",""time""
""fullscreenexit"",""3"",""1062352""
","null","<p></p>","null","","","","","","","",""
"","image","61","2739251","0.0-61.0","""event"",""trial"",""time""
""fullscreenenter"",""0"",""108958""
""fullscreenexit"",""3"",""1062352""
""blur"",""3"",""1062369""
""focus"",""3"",""1206607""
""blur"",""3"",""1544292""
""focus"",""3"",""2681552""
","""event"",""trial"",""time""
""blur"",""3"",""1062369""
""blur"",""3"",""1544292""
","""event"",""trial"",""time""
""focus"",""3"",""1206607""
""focus"",""3"",""2681552""
","""event"",""trial"",""time""
""fullscreenenter"",""0"",""108958""
","""event"",""trial"",""time""
""fullscreenexit"",""3"",""1062352""
","521.5","run_exp/static/images/Set 6_rs/126a.jpg","78","","","","","","learn","SR",""
"","show_choice","62","2740731","0.0-62.0","""event"",""trial"",""time""
""fullscreenenter"",""0"",""108958""
""fullscreenexit"",""3"",""1062352""
""blur"",""3"",""1062369""
""focus"",""3"",""1206607""
""blur"",""3"",""1544292""
""focus"",""3"",""2681552""
","""event"",""trial"",""time""
""blur"",""3"",""1062369""
""blur"",""3"",""1544292""
","""event"",""trial"",""time""
""focus"",""3"",""1206607""
""focus"",""3"",""2681552""
","""event"",""trial"",""time""
""fullscreenenter"",""0"",""108958""
","""event"",""trial"",""time""
""fullscreenexit"",""3"",""1062352""
","null","run_exp/static/images/Set 6_rs/126a.jpg","null","","","","","","learn","SR",""
"","html-keyboard-response","63","2741233","0.0-63.0","""event"",""trial"",""time""
""fullscreenenter"",""0"",""108958""
""fullscreenexit"",""3"",""1062352""
""blur"",""3"",""1062369""
""focus"",""3"",""1206607""
""blur"",""3"",""1544292""
""focus"",""3"",""2681552""
","""event"",""trial"",""time""
""blur"",""3"",""1062369""
""blur"",""3"",""1544292""
","""event"",""trial"",""time""
""focus"",""3"",""1206607""
""focus"",""3"",""2681552""
","""event"",""trial"",""time""
""fullscreenenter"",""0"",""108958""
","""event"",""trial"",""time""
""fullscreenexit"",""3"",""1062352""
","null","<p></p>","null","","","","","","","",""
"","image","64","2742740","0.0-64.0","""event"",""trial"",""time""
""fullscreenenter"",""0"",""108958""
""fullscreenexit"",""3"",""1062352""
""blur"",""3"",""1062369""
""focus"",""3"",""1206607""
""blur"",""3"",""1544292""
""focus"",""3"",""2681552""
","""event"",""trial"",""time""
""blur"",""3"",""1062369""
""blur"",""3"",""1544292""
","""event"",""trial"",""time""
""focus"",""3"",""1206607""
""focus"",""3"",""2681552""
","""event"",""trial"",""time""
""fullscreenenter"",""0"",""108958""
","""event"",""trial"",""time""
""fullscreenexit"",""3"",""1062352""
","1505.699999999255","run_exp/static/images/Set 6_rs/122a.jpg","78","","","","","","learn","SR",""
"","show_choice","65","2743236","0.0-65.0","""event"",""trial"",""time""
""fullscreenenter"",""0"",""108958""
""fullscreenexit"",""3"",""1062352""
""blur"",""3"",""1062369""
""focus"",""3"",""1206607""
""blur"",""3"",""1544292""
""focus"",""3"",""2681552""
","""event"",""trial"",""time""
""blur"",""3"",""1062369""
""blur"",""3"",""1544292""
","""event"",""trial"",""time""
""focus"",""3"",""1206607""
""focus"",""3"",""2681552""
","""event"",""trial"",""time""
""fullscreenenter"",""0"",""108958""
","""event"",""trial"",""time""
""fullscreenexit"",""3"",""1062352""
","null","run_exp/static/images/Set 6_rs/122a.jpg","null","","","","","","learn","SR",""
"","html-keyboard-response","66","2743738","0.0-66.0","""event"",""trial"",""time""
""fullscreenenter"",""0"",""108958""
""fullscreenexit"",""3"",""1062352""
""blur"",""3"",""1062369""
""focus"",""3"",""1206607""
""blur"",""3"",""1544292""
""focus"",""3"",""2681552""
","""event"",""trial"",""time""
""blur"",""3"",""1062369""
""blur"",""3"",""1544292""
","""event"",""trial"",""time""
""focus"",""3"",""1206607""
""focus"",""3"",""2681552""
","""event"",""trial"",""time""
""fullscreenenter"",""0"",""108958""
","""event"",""trial"",""time""
""fullscreenexit"",""3"",""1062352""
","null","<p></p>","null","","","","","","","",""
"","image","67","2744828","0.0-67.0","""event"",""trial"",""time""
""fullscreenenter"",""0"",""108958""
""fullscreenexit"",""3"",""1062352""
""blur"",""3"",""1062369""
""focus"",""3"",""1206607""
""blur"",""3"",""1544292""
""focus"",""3"",""2681552""
","""event"",""trial"",""time""
""blur"",""3"",""1062369""
""blur"",""3"",""1544292""
","""event"",""trial"",""time""
""focus"",""3"",""1206607""
""focus"",""3"",""2681552""
","""event"",""trial"",""time""
""fullscreenenter"",""0"",""108958""
","""event"",""trial"",""time""
""fullscreenexit"",""3"",""1062352""
","1088","run_exp/static/images/Set 6_rs/132a.jpg","78","","","","","","learn","SR",""
"","show_choice","68","2745742","0.0-68.0","""event"",""trial"",""time""
""fullscreenenter"",""0"",""108958""
""fullscreenexit"",""3"",""1062352""
""blur"",""3"",""1062369""
""focus"",""3"",""1206607""
""blur"",""3"",""1544292""
""focus"",""3"",""2681552""
","""event"",""trial"",""time""
""blur"",""3"",""1062369""
""blur"",""3"",""1544292""
","""event"",""trial"",""time""
""focus"",""3"",""1206607""
""focus"",""3"",""2681552""
","""event"",""trial"",""time""
""fullscreenenter"",""0"",""108958""
","""event"",""trial"",""time""
""fullscreenexit"",""3"",""1062352""
","null","run_exp/static/images/Set 6_rs/132a.jpg","null","","","","","","learn","SR",""
"","html-keyboard-response","69","2746244","0.0-69.0","""event"",""trial"",""time""
""fullscreenenter"",""0"",""108958""
""fullscreenexit"",""3"",""1062352""
""blur"",""3"",""1062369""
""focus"",""3"",""1206607""
""blur"",""3"",""1544292""
""focus"",""3"",""2681552""
","""event"",""trial"",""time""
""blur"",""3"",""1062369""
""blur"",""3"",""1544292""
","""event"",""trial"",""time""
""focus"",""3"",""1206607""
""focus"",""3"",""2681552""
","""event"",""trial"",""time""
""fullscreenenter"",""0"",""108958""
","""event"",""trial"",""time""
""fullscreenexit"",""3"",""1062352""
","null","<p></p>","null","","","","","","","",""
"","image","70","2747496","0.0-70.0","""event"",""trial"",""time""
""fullscreenenter"",""0"",""108958""
""fullscreenexit"",""3"",""1062352""
""blur"",""3"",""1062369""
""focus"",""3"",""1206607""
""blur"",""3"",""1544292""
""focus"",""3"",""2681552""
","""event"",""trial"",""time""
""blur"",""3"",""1062369""
""blur"",""3"",""1544292""
","""event"",""trial"",""time""
""focus"",""3"",""1206607""
""focus"",""3"",""2681552""
","""event"",""trial"",""time""
""fullscreenenter"",""0"",""108958""
","""event"",""trial"",""time""
""fullscreenexit"",""3"",""1062352""
","1250.699999999255","run_exp/static/images/Set 6_rs/141a.jpg","86","","","","","","learn","SR",""
"","show_choice","71","2748247","0.0-71.0","""event"",""trial"",""time""
""fullscreenenter"",""0"",""108958""
""fullscreenexit"",""3"",""1062352""
""blur"",""3"",""1062369""
""focus"",""3"",""1206607""
""blur"",""3"",""1544292""
""focus"",""3"",""2681552""
","""event"",""trial"",""time""
""blur"",""3"",""1062369""
""blur"",""3"",""1544292""
","""event"",""trial"",""time""
""focus"",""3"",""1206607""
""focus"",""3"",""2681552""
","""event"",""trial"",""time""
""fullscreenenter"",""0"",""108958""
","""event"",""trial"",""time""
""fullscreenexit"",""3"",""1062352""
","null","run_exp/static/images/Set 6_rs/141a.jpg","null","","","","","","learn","SR",""
"","html-keyboard-response","72","2748749","0.0-72.0","""event"",""trial"",""time""
""fullscreenenter"",""0"",""108958""
""fullscreenexit"",""3"",""1062352""
""blur"",""3"",""1062369""
""focus"",""3"",""1206607""
""blur"",""3"",""1544292""
""focus"",""3"",""2681552""
","""event"",""trial"",""time""
""blur"",""3"",""1062369""
""blur"",""3"",""1544292""
","""event"",""trial"",""time""
""focus"",""3"",""1206607""
""focus"",""3"",""2681552""
","""event"",""trial"",""time""
""fullscreenenter"",""0"",""108958""
","""event"",""trial"",""time""
""fullscreenexit"",""3"",""1062352""
","null","<p></p>","null","","","","","","","",""
"","image","73","2750141","0.0-73.0","""event"",""trial"",""time""
""fullscreenenter"",""0"",""108958""
""fullscreenexit"",""3"",""1062352""
""blur"",""3"",""1062369""
""focus"",""3"",""1206607""
""blur"",""3"",""1544292""
""focus"",""3"",""2681552""
","""event"",""trial"",""time""
""blur"",""3"",""1062369""
""blur"",""3"",""1544292""
","""event"",""trial"",""time""
""focus"",""3"",""1206607""
""focus"",""3"",""2681552""
","""event"",""trial"",""time""
""fullscreenenter"",""0"",""108958""
","""event"",""trial"",""time""
""fullscreenexit"",""3"",""1062352""
","1390.199999999255","run_exp/static/images/Set 6_rs/150a.jpg","86","","","","","","learn","SR",""
"","show_choice","74","2750752","0.0-74.0","""event"",""trial"",""time""
""fullscreenenter"",""0"",""108958""
""fullscreenexit"",""3"",""1062352""
""blur"",""3"",""1062369""
""focus"",""3"",""1206607""
""blur"",""3"",""1544292""
""focus"",""3"",""2681552""
","""event"",""trial"",""time""
""blur"",""3"",""1062369""
""blur"",""3"",""1544292""
","""event"",""trial"",""time""
""focus"",""3"",""1206607""
""focus"",""3"",""2681552""
","""event"",""trial"",""time""
""fullscreenenter"",""0"",""108958""
","""event"",""trial"",""time""
""fullscreenexit"",""3"",""1062352""
","null","run_exp/static/images/Set 6_rs/150a.jpg","null","","","","","","learn","SR",""
"","html-keyboard-response","75","2751254","0.0-75.0","""event"",""trial"",""time""
""fullscreenenter"",""0"",""108958""
""fullscreenexit"",""3"",""1062352""
""blur"",""3"",""1062369""
""focus"",""3"",""1206607""
""blur"",""3"",""1544292""
""focus"",""3"",""2681552""
","""event"",""trial"",""time""
""blur"",""3"",""1062369""
""blur"",""3"",""1544292""
","""event"",""trial"",""time""
""focus"",""3"",""1206607""
""focus"",""3"",""2681552""
","""event"",""trial"",""time""
""fullscreenenter"",""0"",""108958""
","""event"",""trial"",""time""
""fullscreenexit"",""3"",""1062352""
","null","<p></p>","null","","","","","","","",""
"","image","76","2752124","0.0-76.0","""event"",""trial"",""time""
""fullscreenenter"",""0"",""108958""
""fullscreenexit"",""3"",""1062352""
""blur"",""3"",""1062369""
""focus"",""3"",""1206607""
""blur"",""3"",""1544292""
""focus"",""3"",""2681552""
","""event"",""trial"",""time""
""blur"",""3"",""1062369""
""blur"",""3"",""1544292""
","""event"",""trial"",""time""
""focus"",""3"",""1206607""
""focus"",""3"",""2681552""
","""event"",""trial"",""time""
""fullscreenenter"",""0"",""108958""
","""event"",""trial"",""time""
""fullscreenexit"",""3"",""1062352""
","867.5","run_exp/static/images/Set 6_rs/019a.jpg","86","","","","","","learn","SL",""
"","show_choice","77","2753258","0.0-77.0","""event"",""trial"",""time""
""fullscreenenter"",""0"",""108958""
""fullscreenexit"",""3"",""1062352""
""blur"",""3"",""1062369""
""focus"",""3"",""1206607""
""blur"",""3"",""1544292""
""focus"",""3"",""2681552""
","""event"",""trial"",""time""
""blur"",""3"",""1062369""
""blur"",""3"",""1544292""
","""event"",""trial"",""time""
""focus"",""3"",""1206607""
""focus"",""3"",""2681552""
","""event"",""trial"",""time""
""fullscreenenter"",""0"",""108958""
","""event"",""trial"",""time""
""fullscreenexit"",""3"",""1062352""
","null","run_exp/static/images/Set 6_rs/019a.jpg","null","","","","","","learn","SL",""
"","html-keyboard-response","78","2753759","0.0-78.0","""event"",""trial"",""time""
""fullscreenenter"",""0"",""108958""
""fullscreenexit"",""3"",""1062352""
""blur"",""3"",""1062369""
""focus"",""3"",""1206607""
""blur"",""3"",""1544292""
""focus"",""3"",""2681552""
","""event"",""trial"",""time""
""blur"",""3"",""1062369""
""blur"",""3"",""1544292""
","""event"",""trial"",""time""
""focus"",""3"",""1206607""
""focus"",""3"",""2681552""
","""event"",""trial"",""time""
""fullscreenenter"",""0"",""108958""
","""event"",""trial"",""time""
""fullscreenexit"",""3"",""1062352""
","null","<p></p>","null","","","","","","","",""
"","image","79","2754773","0.0-79.0","""event"",""trial"",""time""
""fullscreenenter"",""0"",""108958""
""fullscreenexit"",""3"",""1062352""
""blur"",""3"",""1062369""
""focus"",""3"",""1206607""
""blur"",""3"",""1544292""
""focus"",""3"",""2681552""
","""event"",""trial"",""time""
""blur"",""3"",""1062369""
""blur"",""3"",""1544292""
","""event"",""trial"",""time""
""focus"",""3"",""1206607""
""focus"",""3"",""2681552""
","""event"",""trial"",""time""
""fullscreenenter"",""0"",""108958""
","""event"",""trial"",""time""
""fullscreenexit"",""3"",""1062352""
","1012.2000000029802","run_exp/static/images/Set 6_rs/088a.jpg","86","","","","","","learn","SR",""
"","show_choice","80","2755763","0.0-80.0","""event"",""trial"",""time""
""fullscreenenter"",""0"",""108958""
""fullscreenexit"",""3"",""1062352""
""blur"",""3"",""1062369""
""focus"",""3"",""1206607""
""blur"",""3"",""1544292""
""focus"",""3"",""2681552""
","""event"",""trial"",""time""
""blur"",""3"",""1062369""
""blur"",""3"",""1544292""
","""event"",""trial"",""time""
""focus"",""3"",""1206607""
""focus"",""3"",""2681552""
","""event"",""trial"",""time""
""fullscreenenter"",""0"",""108958""
","""event"",""trial"",""time""
""fullscreenexit"",""3"",""1062352""
","null","run_exp/static/images/Set 6_rs/088a.jpg","null","","","","","","learn","SR",""
"","html-keyboard-response","81","2756265","0.0-81.0","""event"",""trial"",""time""
""fullscreenenter"",""0"",""108958""
""fullscreenexit"",""3"",""1062352""
""blur"",""3"",""1062369""
""focus"",""3"",""1206607""
""blur"",""3"",""1544292""
""focus"",""3"",""2681552""
","""event"",""trial"",""time""
""blur"",""3"",""1062369""
""blur"",""3"",""1544292""
","""event"",""trial"",""time""
""focus"",""3"",""1206607""
""focus"",""3"",""2681552""
","""event"",""trial"",""time""
""fullscreenenter"",""0"",""108958""
","""event"",""trial"",""time""
""fullscreenexit"",""3"",""1062352""
","null","<p></p>","null","","","","","","","",""
"","image","82","2757078","0.0-82.0","""event"",""trial"",""time""
""fullscreenenter"",""0"",""108958""
""fullscreenexit"",""3"",""1062352""
""blur"",""3"",""1062369""
""focus"",""3"",""1206607""
""blur"",""3"",""1544292""
""focus"",""3"",""2681552""
","""event"",""trial"",""time""
""blur"",""3"",""1062369""
""blur"",""3"",""1544292""
","""event"",""trial"",""time""
""focus"",""3"",""1206607""
""focus"",""3"",""2681552""
","""event"",""trial"",""time""
""fullscreenenter"",""0"",""108958""
","""event"",""trial"",""time""
""fullscreenexit"",""3"",""1062352""
","811.1999999992549","run_exp/static/images/Set 6_rs/178a.jpg","78","","","","","","learn","SR",""
"","show_choice","83","2758268","0.0-83.0","""event"",""trial"",""time""
""fullscreenenter"",""0"",""108958""
""fullscreenexit"",""3"",""1062352""
""blur"",""3"",""1062369""
""focus"",""3"",""1206607""
""blur"",""3"",""1544292""
""focus"",""3"",""2681552""
","""event"",""trial"",""time""
""blur"",""3"",""1062369""
""blur"",""3"",""1544292""
","""event"",""trial"",""time""
""focus"",""3"",""1206607""
""focus"",""3"",""2681552""
","""event"",""trial"",""time""
""fullscreenenter"",""0"",""108958""
","""event"",""trial"",""time""
""fullscreenexit"",""3"",""1062352""
","null","run_exp/static/images/Set 6_rs/178a.jpg","null","","","","","","learn","SR",""
"","html-keyboard-response","84","2758770","0.0-84.0","""event"",""trial"",""time""
""fullscreenenter"",""0"",""108958""
""fullscreenexit"",""3"",""1062352""
""blur"",""3"",""1062369""
""focus"",""3"",""1206607""
""blur"",""3"",""1544292""
""focus"",""3"",""2681552""
","""event"",""trial"",""time""
""blur"",""3"",""1062369""
""blur"",""3"",""1544292""
","""event"",""trial"",""time""
""focus"",""3"",""1206607""
""focus"",""3"",""2681552""
","""event"",""trial"",""time""
""fullscreenenter"",""0"",""108958""
","""event"",""trial"",""time""
""fullscreenexit"",""3"",""1062352""
","null","<p></p>","null","","","","","","","",""
"","image","85","2760050","0.0-85.0","""event"",""trial"",""time""
""fullscreenenter"",""0"",""108958""
""fullscreenexit"",""3"",""1062352""
""blur"",""3"",""1062369""
""focus"",""3"",""1206607""
""blur"",""3"",""1544292""
""focus"",""3"",""2681552""
","""event"",""trial"",""time""
""blur"",""3"",""1062369""
""blur"",""3"",""1544292""
","""event"",""trial"",""time""
""focus"",""3"",""1206607""
""focus"",""3"",""2681552""
","""event"",""trial"",""time""
""fullscreenenter"",""0"",""108958""
","""event"",""trial"",""time""
""fullscreenexit"",""3"",""1062352""
","1277.699999999255","run_exp/static/images/Set 6_rs/091a.jpg","78","","","","","","learn","SL",""
"","show_choice","86","2760774","0.0-86.0","""event"",""trial"",""time""
""fullscreenenter"",""0"",""108958""
""fullscreenexit"",""3"",""1062352""
""blur"",""3"",""1062369""
""focus"",""3"",""1206607""
""blur"",""3"",""1544292""
""focus"",""3"",""2681552""
","""event"",""trial"",""time""
""blur"",""3"",""1062369""
""blur"",""3"",""1544292""
","""event"",""trial"",""time""
""focus"",""3"",""1206607""
""focus"",""3"",""2681552""
","""event"",""trial"",""time""
""fullscreenenter"",""0"",""108958""
","""event"",""trial"",""time""
""fullscreenexit"",""3"",""1062352""
","null","run_exp/static/images/Set 6_rs/091a.jpg","null","","","","","","learn","SL",""
"","html-keyboard-response","87","2761276","0.0-87.0","""event"",""trial"",""time""
""fullscreenenter"",""0"",""108958""
""fullscreenexit"",""3"",""1062352""
""blur"",""3"",""1062369""
""focus"",""3"",""1206607""
""blur"",""3"",""1544292""
""focus"",""3"",""2681552""
","""event"",""trial"",""time""
""blur"",""3"",""1062369""
""blur"",""3"",""1544292""
","""event"",""trial"",""time""
""focus"",""3"",""1206607""
""focus"",""3"",""2681552""
","""event"",""trial"",""time""
""fullscreenenter"",""0"",""108958""
","""event"",""trial"",""time""
""fullscreenexit"",""3"",""1062352""
","null","<p></p>","null","","","","","","","",""
"","image","88","2763024","0.0-88.0","""event"",""trial"",""time""
""fullscreenenter"",""0"",""108958""
""fullscreenexit"",""3"",""1062352""
""blur"",""3"",""1062369""
""focus"",""3"",""1206607""
""blur"",""3"",""1544292""
""focus"",""3"",""2681552""
","""event"",""trial"",""time""
""blur"",""3"",""1062369""
""blur"",""3"",""1544292""
","""event"",""trial"",""time""
""focus"",""3"",""1206607""
""focus"",""3"",""2681552""
","""event"",""trial"",""time""
""fullscreenenter"",""0"",""108958""
","""event"",""trial"",""time""
""fullscreenexit"",""3"",""1062352""
","1747.300000000745","run_exp/static/images/Set 6_rs/123a.jpg","78","","","","","","learn","SL",""
"","show_choice","89","2763279","0.0-89.0","""event"",""trial"",""time""
""fullscreenenter"",""0"",""108958""
""fullscreenexit"",""3"",""1062352""
""blur"",""3"",""1062369""
""focus"",""3"",""1206607""
""blur"",""3"",""1544292""
""focus"",""3"",""2681552""
","""event"",""trial"",""time""
""blur"",""3"",""1062369""
""blur"",""3"",""1544292""
","""event"",""trial"",""time""
""focus"",""3"",""1206607""
""focus"",""3"",""2681552""
","""event"",""trial"",""time""
""fullscreenenter"",""0"",""108958""
","""event"",""trial"",""time""
""fullscreenexit"",""3"",""1062352""
","null","run_exp/static/images/Set 6_rs/123a.jpg","null","","","","","","learn","SL",""
"","html-keyboard-response","90","2763780","0.0-90.0","""event"",""trial"",""time""
""fullscreenenter"",""0"",""108958""
""fullscreenexit"",""3"",""1062352""
""blur"",""3"",""1062369""
""focus"",""3"",""1206607""
""blur"",""3"",""1544292""
""focus"",""3"",""2681552""
","""event"",""trial"",""time""
""blur"",""3"",""1062369""
""blur"",""3"",""1544292""
","""event"",""trial"",""time""
""focus"",""3"",""1206607""
""focus"",""3"",""2681552""
","""event"",""trial"",""time""
""fullscreenenter"",""0"",""108958""
","""event"",""trial"",""time""
""fullscreenexit"",""3"",""1062352""
","null","<p></p>","null","","","","","","","",""
"","image","91","2765215","0.0-91.0","""event"",""trial"",""time""
""fullscreenenter"",""0"",""108958""
""fullscreenexit"",""3"",""1062352""
""blur"",""3"",""1062369""
""focus"",""3"",""1206607""
""blur"",""3"",""1544292""
""focus"",""3"",""2681552""
","""event"",""trial"",""time""
""blur"",""3"",""1062369""
""blur"",""3"",""1544292""
","""event"",""trial"",""time""
""focus"",""3"",""1206607""
""focus"",""3"",""2681552""
","""event"",""trial"",""time""
""fullscreenenter"",""0"",""108958""
","""event"",""trial"",""time""
""fullscreenexit"",""3"",""1062352""
","1433.6000000014901","run_exp/static/images/Set 6_rs/036a.jpg","86","","","","","","learn","SL",""
"","show_choice","92","2765783","0.0-92.0","""event"",""trial"",""time""
""fullscreenenter"",""0"",""108958""
""fullscreenexit"",""3"",""1062352""
""blur"",""3"",""1062369""
""focus"",""3"",""1206607""
""blur"",""3"",""1544292""
""focus"",""3"",""2681552""
","""event"",""trial"",""time""
""blur"",""3"",""1062369""
""blur"",""3"",""1544292""
","""event"",""trial"",""time""
""focus"",""3"",""1206607""
""focus"",""3"",""2681552""
","""event"",""trial"",""time""
""fullscreenenter"",""0"",""108958""
","""event"",""trial"",""time""
""fullscreenexit"",""3"",""1062352""
","null","run_exp/static/images/Set 6_rs/036a.jpg","null","","","","","","learn","SL",""
"","html-keyboard-response","93","2766285","0.0-93.0","""event"",""trial"",""time""
""fullscreenenter"",""0"",""108958""
""fullscreenexit"",""3"",""1062352""
""blur"",""3"",""1062369""
""focus"",""3"",""1206607""
""blur"",""3"",""1544292""
""focus"",""3"",""2681552""
","""event"",""trial"",""time""
""blur"",""3"",""1062369""
""blur"",""3"",""1544292""
","""event"",""trial"",""time""
""focus"",""3"",""1206607""
""focus"",""3"",""2681552""
","""event"",""trial"",""time""
""fullscreenenter"",""0"",""108958""
","""event"",""trial"",""time""
""fullscreenexit"",""3"",""1062352""
","null","<p></p>","null","","","","","","","",""
"","image","94","2767223","0.0-94.0","""event"",""trial"",""time""
""fullscreenenter"",""0"",""108958""
""fullscreenexit"",""3"",""1062352""
""blur"",""3"",""1062369""
""focus"",""3"",""1206607""
""blur"",""3"",""1544292""
""focus"",""3"",""2681552""
","""event"",""trial"",""time""
""blur"",""3"",""1062369""
""blur"",""3"",""1544292""
","""event"",""trial"",""time""
""focus"",""3"",""1206607""
""focus"",""3"",""2681552""
","""event"",""trial"",""time""
""fullscreenenter"",""0"",""108958""
","""event"",""trial"",""time""
""fullscreenexit"",""3"",""1062352""
","935.5","run_exp/static/images/Set 6_rs/181a.jpg","78","","","","","","learn","SL",""
"","show_choice","95","2768289","0.0-95.0","""event"",""trial"",""time""
""fullscreenenter"",""0"",""108958""
""fullscreenexit"",""3"",""1062352""
""blur"",""3"",""1062369""
""focus"",""3"",""1206607""
""blur"",""3"",""1544292""
""focus"",""3"",""2681552""
","""event"",""trial"",""time""
""blur"",""3"",""1062369""
""blur"",""3"",""1544292""
","""event"",""trial"",""time""
""focus"",""3"",""1206607""
""focus"",""3"",""2681552""
","""event"",""trial"",""time""
""fullscreenenter"",""0"",""108958""
","""event"",""trial"",""time""
""fullscreenexit"",""3"",""1062352""
","null","run_exp/static/images/Set 6_rs/181a.jpg","null","","","","","","learn","SL",""
"","html-keyboard-response","96","2768791","0.0-96.0","""event"",""trial"",""time""
""fullscreenenter"",""0"",""108958""
""fullscreenexit"",""3"",""1062352""
""blur"",""3"",""1062369""
""focus"",""3"",""1206607""
""blur"",""3"",""1544292""
""focus"",""3"",""2681552""
","""event"",""trial"",""time""
""blur"",""3"",""1062369""
""blur"",""3"",""1544292""
","""event"",""trial"",""time""
""focus"",""3"",""1206607""
""focus"",""3"",""2681552""
","""event"",""trial"",""time""
""fullscreenenter"",""0"",""108958""
","""event"",""trial"",""time""
""fullscreenexit"",""3"",""1062352""
","null","<p></p>","null","","","","","","","",""
"","image","97","2769707","0.0-97.0","""event"",""trial"",""time""
""fullscreenenter"",""0"",""108958""
""fullscreenexit"",""3"",""1062352""
""blur"",""3"",""1062369""
""focus"",""3"",""1206607""
""blur"",""3"",""1544292""
""focus"",""3"",""2681552""
","""event"",""trial"",""time""
""blur"",""3"",""1062369""
""blur"",""3"",""1544292""
","""event"",""trial"",""time""
""focus"",""3"",""1206607""
""focus"",""3"",""2681552""
","""event"",""trial"",""time""
""fullscreenenter"",""0"",""108958""
","""event"",""trial"",""time""
""fullscreenexit"",""3"",""1062352""
","914.5","run_exp/static/images/Set 6_rs/186a.jpg","86","","","","","","learn","SR",""
"","show_choice","98","2770794","0.0-98.0","""event"",""trial"",""time""
""fullscreenenter"",""0"",""108958""
""fullscreenexit"",""3"",""1062352""
""blur"",""3"",""1062369""
""focus"",""3"",""1206607""
""blur"",""3"",""1544292""
""focus"",""3"",""2681552""
","""event"",""trial"",""time""
""blur"",""3"",""1062369""
""blur"",""3"",""1544292""
","""event"",""trial"",""time""
""focus"",""3"",""1206607""
""focus"",""3"",""2681552""
","""event"",""trial"",""time""
""fullscreenenter"",""0"",""108958""
","""event"",""trial"",""time""
""fullscreenexit"",""3"",""1062352""
","null","run_exp/static/images/Set 6_rs/186a.jpg","null","","","","","","learn","SR",""
"","html-keyboard-response","99","2771296","0.0-99.0","""event"",""trial"",""time""
""fullscreenenter"",""0"",""108958""
""fullscreenexit"",""3"",""1062352""
""blur"",""3"",""1062369""
""focus"",""3"",""1206607""
""blur"",""3"",""1544292""
""focus"",""3"",""2681552""
","""event"",""trial"",""time""
""blur"",""3"",""1062369""
""blur"",""3"",""1544292""
","""event"",""trial"",""time""
""focus"",""3"",""1206607""
""focus"",""3"",""2681552""
","""event"",""trial"",""time""
""fullscreenenter"",""0"",""108958""
","""event"",""trial"",""time""
""fullscreenexit"",""3"",""1062352""
","null","<p></p>","null","","","","","","","",""
"","image","100","2772141","0.0-100.0","""event"",""trial"",""time""
""fullscreenenter"",""0"",""108958""
""fullscreenexit"",""3"",""1062352""
""blur"",""3"",""1062369""
""focus"",""3"",""1206607""
""blur"",""3"",""1544292""
""focus"",""3"",""2681552""
","""event"",""trial"",""time""
""blur"",""3"",""1062369""
""blur"",""3"",""1544292""
","""event"",""trial"",""time""
""focus"",""3"",""1206607""
""focus"",""3"",""2681552""
","""event"",""trial"",""time""
""fullscreenenter"",""0"",""108958""
","""event"",""trial"",""time""
""fullscreenexit"",""3"",""1062352""
","843.3999999985099","run_exp/static/images/Set 6_rs/111a.jpg","86","","","","","","learn","SL",""
"","show_choice","101","2773299","0.0-101.0","""event"",""trial"",""time""
""fullscreenenter"",""0"",""108958""
""fullscreenexit"",""3"",""1062352""
""blur"",""3"",""1062369""
""focus"",""3"",""1206607""
""blur"",""3"",""1544292""
""focus"",""3"",""2681552""
","""event"",""trial"",""time""
""blur"",""3"",""1062369""
""blur"",""3"",""1544292""
","""event"",""trial"",""time""
""focus"",""3"",""1206607""
""focus"",""3"",""2681552""
","""event"",""trial"",""time""
""fullscreenenter"",""0"",""108958""
","""event"",""trial"",""time""
""fullscreenexit"",""3"",""1062352""
","null","run_exp/static/images/Set 6_rs/111a.jpg","null","","","","","","learn","SL",""
"","html-keyboard-response","102","2773801","0.0-102.0","""event"",""trial"",""time""
""fullscreenenter"",""0"",""108958""
""fullscreenexit"",""3"",""1062352""
""blur"",""3"",""1062369""
""focus"",""3"",""1206607""
""blur"",""3"",""1544292""
""focus"",""3"",""2681552""
","""event"",""trial"",""time""
""blur"",""3"",""1062369""
""blur"",""3"",""1544292""
","""event"",""trial"",""time""
""focus"",""3"",""1206607""
""focus"",""3"",""2681552""
","""event"",""trial"",""time""
""fullscreenenter"",""0"",""108958""
","""event"",""trial"",""time""
""fullscreenexit"",""3"",""1062352""
","null","<p></p>","null","","","","","","","",""
"","image","103","2774865","0.0-103.0","""event"",""trial"",""time""
""fullscreenenter"",""0"",""108958""
""fullscreenexit"",""3"",""1062352""
""blur"",""3"",""1062369""
""focus"",""3"",""1206607""
""blur"",""3"",""1544292""
""focus"",""3"",""2681552""
","""event"",""trial"",""time""
""blur"",""3"",""1062369""
""blur"",""3"",""1544292""
","""event"",""trial"",""time""
""focus"",""3"",""1206607""
""focus"",""3"",""2681552""
","""event"",""trial"",""time""
""fullscreenenter"",""0"",""108958""
","""event"",""trial"",""time""
""fullscreenexit"",""3"",""1062352""
","1062.6000000014901","run_exp/static/images/Set 6_rs/071a.jpg","78","","","","","","learn","SL",""
"","show_choice","104","2775804","0.0-104.0","""event"",""trial"",""time""
""fullscreenenter"",""0"",""108958""
""fullscreenexit"",""3"",""1062352""
""blur"",""3"",""1062369""
""focus"",""3"",""1206607""
""blur"",""3"",""1544292""
""focus"",""3"",""2681552""
","""event"",""trial"",""time""
""blur"",""3"",""1062369""
""blur"",""3"",""1544292""
","""event"",""trial"",""time""
""focus"",""3"",""1206607""
""focus"",""3"",""2681552""
","""event"",""trial"",""time""
""fullscreenenter"",""0"",""108958""
","""event"",""trial"",""time""
""fullscreenexit"",""3"",""1062352""
","null","run_exp/static/images/Set 6_rs/071a.jpg","null","","","","","","learn","SL",""
"","html-keyboard-response","105","2776305","0.0-105.0","""event"",""trial"",""time""
""fullscreenenter"",""0"",""108958""
""fullscreenexit"",""3"",""1062352""
""blur"",""3"",""1062369""
""focus"",""3"",""1206607""
""blur"",""3"",""1544292""
""focus"",""3"",""2681552""
","""event"",""trial"",""time""
""blur"",""3"",""1062369""
""blur"",""3"",""1544292""
","""event"",""trial"",""time""
""focus"",""3"",""1206607""
""focus"",""3"",""2681552""
","""event"",""trial"",""time""
""fullscreenenter"",""0"",""108958""
","""event"",""trial"",""time""
""fullscreenexit"",""3"",""1062352""
","null","<p></p>","null","","","","","","","",""
"","image","106","2777186","0.0-106.0","""event"",""trial"",""time""
""fullscreenenter"",""0"",""108958""
""fullscreenexit"",""3"",""1062352""
""blur"",""3"",""1062369""
""focus"",""3"",""1206607""
""blur"",""3"",""1544292""
""focus"",""3"",""2681552""
","""event"",""trial"",""time""
""blur"",""3"",""1062369""
""blur"",""3"",""1544292""
","""event"",""trial"",""time""
""focus"",""3"",""1206607""
""focus"",""3"",""2681552""
","""event"",""trial"",""time""
""fullscreenenter"",""0"",""108958""
","""event"",""trial"",""time""
""fullscreenexit"",""3"",""1062352""
","878","run_exp/static/images/Set 6_rs/055a.jpg","86","","","","","","learn","SL",""
"","show_choice","107","2778310","0.0-107.0","""event"",""trial"",""time""
""fullscreenenter"",""0"",""108958""
""fullscreenexit"",""3"",""1062352""
""blur"",""3"",""1062369""
""focus"",""3"",""1206607""
""blur"",""3"",""1544292""
""focus"",""3"",""2681552""
","""event"",""trial"",""time""
""blur"",""3"",""1062369""
""blur"",""3"",""1544292""
","""event"",""trial"",""time""
""focus"",""3"",""1206607""
""focus"",""3"",""2681552""
","""event"",""trial"",""time""
""fullscreenenter"",""0"",""108958""
","""event"",""trial"",""time""
""fullscreenexit"",""3"",""1062352""
","null","run_exp/static/images/Set 6_rs/055a.jpg","null","","","","","","learn","SL",""
"","html-keyboard-response","108","2778811","0.0-108.0","""event"",""trial"",""time""
""fullscreenenter"",""0"",""108958""
""fullscreenexit"",""3"",""1062352""
""blur"",""3"",""1062369""
""focus"",""3"",""1206607""
""blur"",""3"",""1544292""
""focus"",""3"",""2681552""
","""event"",""trial"",""time""
""blur"",""3"",""1062369""
""blur"",""3"",""1544292""
","""event"",""trial"",""time""
""focus"",""3"",""1206607""
""focus"",""3"",""2681552""
","""event"",""trial"",""time""
""fullscreenenter"",""0"",""108958""
","""event"",""trial"",""time""
""fullscreenexit"",""3"",""1062352""
","null","<p></p>","null","","","","","","","",""
"","image","109","2780279","0.0-109.0","""event"",""trial"",""time""
""fullscreenenter"",""0"",""108958""
""fullscreenexit"",""3"",""1062352""
""blur"",""3"",""1062369""
""focus"",""3"",""1206607""
""blur"",""3"",""1544292""
""focus"",""3"",""2681552""
","""event"",""trial"",""time""
""blur"",""3"",""1062369""
""blur"",""3"",""1544292""
","""event"",""trial"",""time""
""focus"",""3"",""1206607""
""focus"",""3"",""2681552""
","""event"",""trial"",""time""
""fullscreenenter"",""0"",""108958""
","""event"",""trial"",""time""
""fullscreenexit"",""3"",""1062352""
","1466.199999999255","run_exp/static/images/Set 6_rs/024a.jpg","86","","","","","","learn","SR",""
"","show_choice","110","2780814","0.0-110.0","""event"",""trial"",""time""
""fullscreenenter"",""0"",""108958""
""fullscreenexit"",""3"",""1062352""
""blur"",""3"",""1062369""
""focus"",""3"",""1206607""
""blur"",""3"",""1544292""
""focus"",""3"",""2681552""
","""event"",""trial"",""time""
""blur"",""3"",""1062369""
""blur"",""3"",""1544292""
","""event"",""trial"",""time""
""focus"",""3"",""1206607""
""focus"",""3"",""2681552""
","""event"",""trial"",""time""
""fullscreenenter"",""0"",""108958""
","""event"",""trial"",""time""
""fullscreenexit"",""3"",""1062352""
","null","run_exp/static/images/Set 6_rs/024a.jpg","null","","","","","","learn","SR",""
"","html-keyboard-response","111","2781316","0.0-111.0","""event"",""trial"",""time""
""fullscreenenter"",""0"",""108958""
""fullscreenexit"",""3"",""1062352""
""blur"",""3"",""1062369""
""focus"",""3"",""1206607""
""blur"",""3"",""1544292""
""focus"",""3"",""2681552""
","""event"",""trial"",""time""
""blur"",""3"",""1062369""
""blur"",""3"",""1544292""
","""event"",""trial"",""time""
""focus"",""3"",""1206607""
""focus"",""3"",""2681552""
","""event"",""trial"",""time""
""fullscreenenter"",""0"",""108958""
","""event"",""trial"",""time""
""fullscreenexit"",""3"",""1062352""
","null","<p></p>","null","","","","","","","",""
"","image","112","2782348","0.0-112.0","""event"",""trial"",""time""
""fullscreenenter"",""0"",""108958""
""fullscreenexit"",""3"",""1062352""
""blur"",""3"",""1062369""
""focus"",""3"",""1206607""
""blur"",""3"",""1544292""
""focus"",""3"",""2681552""
","""event"",""trial"",""time""
""blur"",""3"",""1062369""
""blur"",""3"",""1544292""
","""event"",""trial"",""time""
""focus"",""3"",""1206607""
""focus"",""3"",""2681552""
","""event"",""trial"",""time""
""fullscreenenter"",""0"",""108958""
","""event"",""trial"",""time""
""fullscreenexit"",""3"",""1062352""
","1029.300000000745","run_exp/static/images/Set 6_rs/168a.jpg","86","","","","","","learn","SL",""
"","show_choice","113","2783320","0.0-113.0","""event"",""trial"",""time""
""fullscreenenter"",""0"",""108958""
""fullscreenexit"",""3"",""1062352""
""blur"",""3"",""1062369""
""focus"",""3"",""1206607""
""blur"",""3"",""1544292""
""focus"",""3"",""2681552""
","""event"",""trial"",""time""
""blur"",""3"",""1062369""
""blur"",""3"",""1544292""
","""event"",""trial"",""time""
""focus"",""3"",""1206607""
""focus"",""3"",""2681552""
","""event"",""trial"",""time""
""fullscreenenter"",""0"",""108958""
","""event"",""trial"",""time""
""fullscreenexit"",""3"",""1062352""
","null","run_exp/static/images/Set 6_rs/168a.jpg","null","","","","","","learn","SL",""
"","html-keyboard-response","114","2783822","0.0-114.0","""event"",""trial"",""time""
""fullscreenenter"",""0"",""108958""
""fullscreenexit"",""3"",""1062352""
""blur"",""3"",""1062369""
""focus"",""3"",""1206607""
""blur"",""3"",""1544292""
""focus"",""3"",""2681552""
","""event"",""trial"",""time""
""blur"",""3"",""1062369""
""blur"",""3"",""1544292""
","""event"",""trial"",""time""
""focus"",""3"",""1206607""
""focus"",""3"",""2681552""
","""event"",""trial"",""time""
""fullscreenenter"",""0"",""108958""
","""event"",""trial"",""time""
""fullscreenexit"",""3"",""1062352""
","null","<p></p>","null","","","","","","","",""
"","image","115","2785362","0.0-115.0","""event"",""trial"",""time""
""fullscreenenter"",""0"",""108958""
""fullscreenexit"",""3"",""1062352""
""blur"",""3"",""1062369""
""focus"",""3"",""1206607""
""blur"",""3"",""1544292""
""focus"",""3"",""2681552""
","""event"",""trial"",""time""
""blur"",""3"",""1062369""
""blur"",""3"",""1544292""
","""event"",""trial"",""time""
""focus"",""3"",""1206607""
""focus"",""3"",""2681552""
","""event"",""trial"",""time""
""fullscreenenter"",""0"",""108958""
","""event"",""trial"",""time""
""fullscreenexit"",""3"",""1062352""
","1539.300000000745","run_exp/static/images/Set 6_rs/138a.jpg","86","","","","","","learn","SL",""
"","show_choice","116","2785825","0.0-116.0","""event"",""trial"",""time""
""fullscreenenter"",""0"",""108958""
""fullscreenexit"",""3"",""1062352""
""blur"",""3"",""1062369""
""focus"",""3"",""1206607""
""blur"",""3"",""1544292""
""focus"",""3"",""2681552""
","""event"",""trial"",""time""
""blur"",""3"",""1062369""
""blur"",""3"",""1544292""
","""event"",""trial"",""time""
""focus"",""3"",""1206607""
""focus"",""3"",""2681552""
","""event"",""trial"",""time""
""fullscreenenter"",""0"",""108958""
","""event"",""trial"",""time""
""fullscreenexit"",""3"",""1062352""
","null","run_exp/static/images/Set 6_rs/138a.jpg","null","","","","","","learn","SL",""
"","html-keyboard-response","117","2786326","0.0-117.0","""event"",""trial"",""time""
""fullscreenenter"",""0"",""108958""
""fullscreenexit"",""3"",""1062352""
""blur"",""3"",""1062369""
""focus"",""3"",""1206607""
""blur"",""3"",""1544292""
""focus"",""3"",""2681552""
","""event"",""trial"",""time""
""blur"",""3"",""1062369""
""blur"",""3"",""1544292""
","""event"",""trial"",""time""
""focus"",""3"",""1206607""
""focus"",""3"",""2681552""
","""event"",""trial"",""time""
""fullscreenenter"",""0"",""108958""
","""event"",""trial"",""time""
""fullscreenexit"",""3"",""1062352""
","null","<p></p>","null","","","","","","","",""
"","image","118","2787960","0.0-118.0","""event"",""trial"",""time""
""fullscreenenter"",""0"",""108958""
""fullscreenexit"",""3"",""1062352""
""blur"",""3"",""1062369""
""focus"",""3"",""1206607""
""blur"",""3"",""1544292""
""focus"",""3"",""2681552""
","""event"",""trial"",""time""
""blur"",""3"",""1062369""
""blur"",""3"",""1544292""
","""event"",""trial"",""time""
""focus"",""3"",""1206607""
""focus"",""3"",""2681552""
","""event"",""trial"",""time""
""fullscreenenter"",""0"",""108958""
","""event"",""trial"",""time""
""fullscreenexit"",""3"",""1062352""
","1631.6000000014901","run_exp/static/images/Set 6_rs/075a.jpg","86","","","","","","learn","SR",""
"","show_choice","119","2788330","0.0-119.0","""event"",""trial"",""time""
""fullscreenenter"",""0"",""108958""
""fullscreenexit"",""3"",""1062352""
""blur"",""3"",""1062369""
""focus"",""3"",""1206607""
""blur"",""3"",""1544292""
""focus"",""3"",""2681552""
","""event"",""trial"",""time""
""blur"",""3"",""1062369""
""blur"",""3"",""1544292""
","""event"",""trial"",""time""
""focus"",""3"",""1206607""
""focus"",""3"",""2681552""
","""event"",""trial"",""time""
""fullscreenenter"",""0"",""108958""
","""event"",""trial"",""time""
""fullscreenexit"",""3"",""1062352""
","null","run_exp/static/images/Set 6_rs/075a.jpg","null","","","","","","learn","SR",""
"","html-keyboard-response","120","2788832","0.0-120.0","""event"",""trial"",""time""
""fullscreenenter"",""0"",""108958""
""fullscreenexit"",""3"",""1062352""
""blur"",""3"",""1062369""
""focus"",""3"",""1206607""
""blur"",""3"",""1544292""
""focus"",""3"",""2681552""
","""event"",""trial"",""time""
""blur"",""3"",""1062369""
""blur"",""3"",""1544292""
","""event"",""trial"",""time""
""focus"",""3"",""1206607""
""focus"",""3"",""2681552""
","""event"",""trial"",""time""
""fullscreenenter"",""0"",""108958""
","""event"",""trial"",""time""
""fullscreenexit"",""3"",""1062352""
","null","<p></p>","null","","","","","","","",""
"","image","121","2790827","0.0-121.0","""event"",""trial"",""time""
""fullscreenenter"",""0"",""108958""
""fullscreenexit"",""3"",""1062352""
""blur"",""3"",""1062369""
""focus"",""3"",""1206607""
""blur"",""3"",""1544292""
""focus"",""3"",""2681552""
","""event"",""trial"",""time""
""blur"",""3"",""1062369""
""blur"",""3"",""1544292""
","""event"",""trial"",""time""
""focus"",""3"",""1206607""
""focus"",""3"",""2681552""
","""event"",""trial"",""time""
""fullscreenenter"",""0"",""108958""
","""event"",""trial"",""time""
""fullscreenexit"",""3"",""1062352""
","1993.3999999985099","run_exp/static/images/Set 6_rs/152a.jpg","86","","","","","","learn","SR",""
"","show_choice","122","2790835","0.0-122.0","""event"",""trial"",""time""
""fullscreenenter"",""0"",""108958""
""fullscreenexit"",""3"",""1062352""
""blur"",""3"",""1062369""
""focus"",""3"",""1206607""
""blur"",""3"",""1544292""
""focus"",""3"",""2681552""
","""event"",""trial"",""time""
""blur"",""3"",""1062369""
""blur"",""3"",""1544292""
","""event"",""trial"",""time""
""focus"",""3"",""1206607""
""focus"",""3"",""2681552""
","""event"",""trial"",""time""
""fullscreenenter"",""0"",""108958""
","""event"",""trial"",""time""
""fullscreenexit"",""3"",""1062352""
","null","run_exp/static/images/Set 6_rs/152a.jpg","null","","","","","","learn","SR",""
"","html-keyboard-response","123","2791336","0.0-123.0","""event"",""trial"",""time""
""fullscreenenter"",""0"",""108958""
""fullscreenexit"",""3"",""1062352""
""blur"",""3"",""1062369""
""focus"",""3"",""1206607""
""blur"",""3"",""1544292""
""focus"",""3"",""2681552""
","""event"",""trial"",""time""
""blur"",""3"",""1062369""
""blur"",""3"",""1544292""
","""event"",""trial"",""time""
""focus"",""3"",""1206607""
""focus"",""3"",""2681552""
","""event"",""trial"",""time""
""fullscreenenter"",""0"",""108958""
","""event"",""trial"",""time""
""fullscreenexit"",""3"",""1062352""
","null","<p></p>","null","","","","","","","",""
"","image","124","2792468","0.0-124.0","""event"",""trial"",""time""
""fullscreenenter"",""0"",""108958""
""fullscreenexit"",""3"",""1062352""
""blur"",""3"",""1062369""
""focus"",""3"",""1206607""
""blur"",""3"",""1544292""
""focus"",""3"",""2681552""
","""event"",""trial"",""time""
""blur"",""3"",""1062369""
""blur"",""3"",""1544292""
","""event"",""trial"",""time""
""focus"",""3"",""1206607""
""focus"",""3"",""2681552""
","""event"",""trial"",""time""
""fullscreenenter"",""0"",""108958""
","""event"",""trial"",""time""
""fullscreenexit"",""3"",""1062352""
","1129.800000000745","run_exp/static/images/Set 6_rs/007a.jpg","86","","","","","","learn","SR",""
"","show_choice","125","2793340","0.0-125.0","""event"",""trial"",""time""
""fullscreenenter"",""0"",""108958""
""fullscreenexit"",""3"",""1062352""
""blur"",""3"",""1062369""
""focus"",""3"",""1206607""
""blur"",""3"",""1544292""
""focus"",""3"",""2681552""
","""event"",""trial"",""time""
""blur"",""3"",""1062369""
""blur"",""3"",""1544292""
","""event"",""trial"",""time""
""focus"",""3"",""1206607""
""focus"",""3"",""2681552""
","""event"",""trial"",""time""
""fullscreenenter"",""0"",""108958""
","""event"",""trial"",""time""
""fullscreenexit"",""3"",""1062352""
","null","run_exp/static/images/Set 6_rs/007a.jpg","null","","","","","","learn","SR",""
"","html-keyboard-response","126","2793841","0.0-126.0","""event"",""trial"",""time""
""fullscreenenter"",""0"",""108958""
""fullscreenexit"",""3"",""1062352""
""blur"",""3"",""1062369""
""focus"",""3"",""1206607""
""blur"",""3"",""1544292""
""focus"",""3"",""2681552""
","""event"",""trial"",""time""
""blur"",""3"",""1062369""
""blur"",""3"",""1544292""
","""event"",""trial"",""time""
""focus"",""3"",""1206607""
""focus"",""3"",""2681552""
","""event"",""trial"",""time""
""fullscreenenter"",""0"",""108958""
","""event"",""trial"",""time""
""fullscreenexit"",""3"",""1062352""
","null","<p></p>","null","","","","","","","",""
"","image","127","2795705","0.0-127.0","""event"",""trial"",""time""
""fullscreenenter"",""0"",""108958""
""fullscreenexit"",""3"",""1062352""
""blur"",""3"",""1062369""
""focus"",""3"",""1206607""
""blur"",""3"",""1544292""
""focus"",""3"",""2681552""
","""event"",""trial"",""time""
""blur"",""3"",""1062369""
""blur"",""3"",""1544292""
","""event"",""trial"",""time""
""focus"",""3"",""1206607""
""focus"",""3"",""2681552""
","""event"",""trial"",""time""
""fullscreenenter"",""0"",""108958""
","""event"",""trial"",""time""
""fullscreenexit"",""3"",""1062352""
","1861.5","run_exp/static/images/Set 6_rs/074a.jpg","78","","","","","","learn","SL",""
"","show_choice","128","2795845","0.0-128.0","""event"",""trial"",""time""
""fullscreenenter"",""0"",""108958""
""fullscreenexit"",""3"",""1062352""
""blur"",""3"",""1062369""
""focus"",""3"",""1206607""
""blur"",""3"",""1544292""
""focus"",""3"",""2681552""
","""event"",""trial"",""time""
""blur"",""3"",""1062369""
""blur"",""3"",""1544292""
","""event"",""trial"",""time""
""focus"",""3"",""1206607""
""focus"",""3"",""2681552""
","""event"",""trial"",""time""
""fullscreenenter"",""0"",""108958""
","""event"",""trial"",""time""
""fullscreenexit"",""3"",""1062352""
","null","run_exp/static/images/Set 6_rs/074a.jpg","null","","","","","","learn","SL",""
"","html-keyboard-response","129","2796347","0.0-129.0","""event"",""trial"",""time""
""fullscreenenter"",""0"",""108958""
""fullscreenexit"",""3"",""1062352""
""blur"",""3"",""1062369""
""focus"",""3"",""1206607""
""blur"",""3"",""1544292""
""focus"",""3"",""2681552""
","""event"",""trial"",""time""
""blur"",""3"",""1062369""
""blur"",""3"",""1544292""
","""event"",""trial"",""time""
""focus"",""3"",""1206607""
""focus"",""3"",""2681552""
","""event"",""trial"",""time""
""fullscreenenter"",""0"",""108958""
","""event"",""trial"",""time""
""fullscreenexit"",""3"",""1062352""
","null","<p></p>","null","","","","","","","",""
"","image","130","2797018","0.0-130.0","""event"",""trial"",""time""
""fullscreenenter"",""0"",""108958""
""fullscreenexit"",""3"",""1062352""
""blur"",""3"",""1062369""
""focus"",""3"",""1206607""
""blur"",""3"",""1544292""
""focus"",""3"",""2681552""
","""event"",""trial"",""time""
""blur"",""3"",""1062369""
""blur"",""3"",""1544292""
","""event"",""trial"",""time""
""focus"",""3"",""1206607""
""focus"",""3"",""2681552""
","""event"",""trial"",""time""
""fullscreenenter"",""0"",""108958""
","""event"",""trial"",""time""
""fullscreenexit"",""3"",""1062352""
","667.6999999992549","run_exp/static/images/Set 6_rs/112a.jpg","86","","","","","","learn","SR",""
"","show_choice","131","2798352","0.0-131.0","""event"",""trial"",""time""
""fullscreenenter"",""0"",""108958""
""fullscreenexit"",""3"",""1062352""
""blur"",""3"",""1062369""
""focus"",""3"",""1206607""
""blur"",""3"",""1544292""
""focus"",""3"",""2681552""
","""event"",""trial"",""time""
""blur"",""3"",""1062369""
""blur"",""3"",""1544292""
","""event"",""trial"",""time""
""focus"",""3"",""1206607""
""focus"",""3"",""2681552""
","""event"",""trial"",""time""
""fullscreenenter"",""0"",""108958""
","""event"",""trial"",""time""
""fullscreenexit"",""3"",""1062352""
","null","run_exp/static/images/Set 6_rs/112a.jpg","null","","","","","","learn","SR",""
"","html-keyboard-response","132","2798854","0.0-132.0","""event"",""trial"",""time""
""fullscreenenter"",""0"",""108958""
""fullscreenexit"",""3"",""1062352""
""blur"",""3"",""1062369""
""focus"",""3"",""1206607""
""blur"",""3"",""1544292""
""focus"",""3"",""2681552""
","""event"",""trial"",""time""
""blur"",""3"",""1062369""
""blur"",""3"",""1544292""
","""event"",""trial"",""time""
""focus"",""3"",""1206607""
""focus"",""3"",""2681552""
","""event"",""trial"",""time""
""fullscreenenter"",""0"",""108958""
","""event"",""trial"",""time""
""fullscreenexit"",""3"",""1062352""
","null","<p></p>","null","","","","","","","",""
"","image","133","2800200","0.0-133.0","""event"",""trial"",""time""
""fullscreenenter"",""0"",""108958""
""fullscreenexit"",""3"",""1062352""
""blur"",""3"",""1062369""
""focus"",""3"",""1206607""
""blur"",""3"",""1544292""
""focus"",""3"",""2681552""
","""event"",""trial"",""time""
""blur"",""3"",""1062369""
""blur"",""3"",""1544292""
","""event"",""trial"",""time""
""focus"",""3"",""1206607""
""focus"",""3"",""2681552""
","""event"",""trial"",""time""
""fullscreenenter"",""0"",""108958""
","""event"",""trial"",""time""
""fullscreenexit"",""3"",""1062352""
","1344.300000000745","run_exp/static/images/Set 6_rs/008a.jpg","78","","","","","","learn","SL",""
"","show_choice","134","2800858","0.0-134.0","""event"",""trial"",""time""
""fullscreenenter"",""0"",""108958""
""fullscreenexit"",""3"",""1062352""
""blur"",""3"",""1062369""
""focus"",""3"",""1206607""
""blur"",""3"",""1544292""
""focus"",""3"",""2681552""
","""event"",""trial"",""time""
""blur"",""3"",""1062369""
""blur"",""3"",""1544292""
","""event"",""trial"",""time""
""focus"",""3"",""1206607""
""focus"",""3"",""2681552""
","""event"",""trial"",""time""
""fullscreenenter"",""0"",""108958""
","""event"",""trial"",""time""
""fullscreenexit"",""3"",""1062352""
","null","run_exp/static/images/Set 6_rs/008a.jpg","null","","","","","","learn","SL",""
"","html-keyboard-response","135","2801359","0.0-135.0","""event"",""trial"",""time""
""fullscreenenter"",""0"",""108958""
""fullscreenexit"",""3"",""1062352""
""blur"",""3"",""1062369""
""focus"",""3"",""1206607""
""blur"",""3"",""1544292""
""focus"",""3"",""2681552""
","""event"",""trial"",""time""
""blur"",""3"",""1062369""
""blur"",""3"",""1544292""
","""event"",""trial"",""time""
""focus"",""3"",""1206607""
""focus"",""3"",""2681552""
","""event"",""trial"",""time""
""fullscreenenter"",""0"",""108958""
","""event"",""trial"",""time""
""fullscreenexit"",""3"",""1062352""
","null","<p></p>","null","","","","","","","",""
"","image","136","2802756","0.0-136.0","""event"",""trial"",""time""
""fullscreenenter"",""0"",""108958""
""fullscreenexit"",""3"",""1062352""
""blur"",""3"",""1062369""
""focus"",""3"",""1206607""
""blur"",""3"",""1544292""
""focus"",""3"",""2681552""
","""event"",""trial"",""time""
""blur"",""3"",""1062369""
""blur"",""3"",""1544292""
","""event"",""trial"",""time""
""focus"",""3"",""1206607""
""focus"",""3"",""2681552""
","""event"",""trial"",""time""
""fullscreenenter"",""0"",""108958""
","""event"",""trial"",""time""
""fullscreenexit"",""3"",""1062352""
","1394.5999999977648","run_exp/static/images/Set 6_rs/129a.jpg","86","","","","","","learn","SL",""
"","show_choice","137","2803363","0.0-137.0","""event"",""trial"",""time""
""fullscreenenter"",""0"",""108958""
""fullscreenexit"",""3"",""1062352""
""blur"",""3"",""1062369""
""focus"",""3"",""1206607""
""blur"",""3"",""1544292""
""focus"",""3"",""2681552""
","""event"",""trial"",""time""
""blur"",""3"",""1062369""
""blur"",""3"",""1544292""
","""event"",""trial"",""time""
""focus"",""3"",""1206607""
""focus"",""3"",""2681552""
","""event"",""trial"",""time""
""fullscreenenter"",""0"",""108958""
","""event"",""trial"",""time""
""fullscreenexit"",""3"",""1062352""
","null","run_exp/static/images/Set 6_rs/129a.jpg","null","","","","","","learn","SL",""
"","html-keyboard-response","138","2803864","0.0-138.0","""event"",""trial"",""time""
""fullscreenenter"",""0"",""108958""
""fullscreenexit"",""3"",""1062352""
""blur"",""3"",""1062369""
""focus"",""3"",""1206607""
""blur"",""3"",""1544292""
""focus"",""3"",""2681552""
","""event"",""trial"",""time""
""blur"",""3"",""1062369""
""blur"",""3"",""1544292""
","""event"",""trial"",""time""
""focus"",""3"",""1206607""
""focus"",""3"",""2681552""
","""event"",""trial"",""time""
""fullscreenenter"",""0"",""108958""
","""event"",""trial"",""time""
""fullscreenexit"",""3"",""1062352""
","null","<p></p>","null","","","","","","","",""
"","image","139","2804773","0.0-139.0","""event"",""trial"",""time""
""fullscreenenter"",""0"",""108958""
""fullscreenexit"",""3"",""1062352""
""blur"",""3"",""1062369""
""focus"",""3"",""1206607""
""blur"",""3"",""1544292""
""focus"",""3"",""2681552""
","""event"",""trial"",""time""
""blur"",""3"",""1062369""
""blur"",""3"",""1544292""
","""event"",""trial"",""time""
""focus"",""3"",""1206607""
""focus"",""3"",""2681552""
","""event"",""trial"",""time""
""fullscreenenter"",""0"",""108958""
","""event"",""trial"",""time""
""fullscreenexit"",""3"",""1062352""
","907.5","run_exp/static/images/Set 6_rs/187a.jpg","86","","","","","","learn","SR",""
"","show_choice","140","2805867","0.0-140.0","""event"",""trial"",""time""
""fullscreenenter"",""0"",""108958""
""fullscreenexit"",""3"",""1062352""
""blur"",""3"",""1062369""
""focus"",""3"",""1206607""
""blur"",""3"",""1544292""
""focus"",""3"",""2681552""
","""event"",""trial"",""time""
""blur"",""3"",""1062369""
""blur"",""3"",""1544292""
","""event"",""trial"",""time""
""focus"",""3"",""1206607""
""focus"",""3"",""2681552""
","""event"",""trial"",""time""
""fullscreenenter"",""0"",""108958""
","""event"",""trial"",""time""
""fullscreenexit"",""3"",""1062352""
","null","run_exp/static/images/Set 6_rs/187a.jpg","null","","","","","","learn","SR",""
"","html-keyboard-response","141","2806368","0.0-141.0","""event"",""trial"",""time""
""fullscreenenter"",""0"",""108958""
""fullscreenexit"",""3"",""1062352""
""blur"",""3"",""1062369""
""focus"",""3"",""1206607""
""blur"",""3"",""1544292""
""focus"",""3"",""2681552""
","""event"",""trial"",""time""
""blur"",""3"",""1062369""
""blur"",""3"",""1544292""
","""event"",""trial"",""time""
""focus"",""3"",""1206607""
""focus"",""3"",""2681552""
","""event"",""trial"",""time""
""fullscreenenter"",""0"",""108958""
","""event"",""trial"",""time""
""fullscreenexit"",""3"",""1062352""
","null","<p></p>","null","","","","","","","",""
"","image","142","2807479","0.0-142.0","""event"",""trial"",""time""
""fullscreenenter"",""0"",""108958""
""fullscreenexit"",""3"",""1062352""
""blur"",""3"",""1062369""
""focus"",""3"",""1206607""
""blur"",""3"",""1544292""
""focus"",""3"",""2681552""
","""event"",""trial"",""time""
""blur"",""3"",""1062369""
""blur"",""3"",""1544292""
","""event"",""trial"",""time""
""focus"",""3"",""1206607""
""focus"",""3"",""2681552""
","""event"",""trial"",""time""
""fullscreenenter"",""0"",""108958""
","""event"",""trial"",""time""
""fullscreenexit"",""3"",""1062352""
","1109.1000000014901","run_exp/static/images/Set 6_rs/089a.jpg","86","","","","","","learn","SL",""
"","show_choice","143","2808371","0.0-143.0","""event"",""trial"",""time""
""fullscreenenter"",""0"",""108958""
""fullscreenexit"",""3"",""1062352""
""blur"",""3"",""1062369""
""focus"",""3"",""1206607""
""blur"",""3"",""1544292""
""focus"",""3"",""2681552""
","""event"",""trial"",""time""
""blur"",""3"",""1062369""
""blur"",""3"",""1544292""
","""event"",""trial"",""time""
""focus"",""3"",""1206607""
""focus"",""3"",""2681552""
","""event"",""trial"",""time""
""fullscreenenter"",""0"",""108958""
","""event"",""trial"",""time""
""fullscreenexit"",""3"",""1062352""
","null","run_exp/static/images/Set 6_rs/089a.jpg","null","","","","","","learn","SL",""
"","html-keyboard-response","144","2808873","0.0-144.0","""event"",""trial"",""time""
""fullscreenenter"",""0"",""108958""
""fullscreenexit"",""3"",""1062352""
""blur"",""3"",""1062369""
""focus"",""3"",""1206607""
""blur"",""3"",""1544292""
""focus"",""3"",""2681552""
","""event"",""trial"",""time""
""blur"",""3"",""1062369""
""blur"",""3"",""1544292""
","""event"",""trial"",""time""
""focus"",""3"",""1206607""
""focus"",""3"",""2681552""
","""event"",""trial"",""time""
""fullscreenenter"",""0"",""108958""
","""event"",""trial"",""time""
""fullscreenexit"",""3"",""1062352""
","null","<p></p>","null","","","","","","","",""
"","image","145","2809781","0.0-145.0","""event"",""trial"",""time""
""fullscreenenter"",""0"",""108958""
""fullscreenexit"",""3"",""1062352""
""blur"",""3"",""1062369""
""focus"",""3"",""1206607""
""blur"",""3"",""1544292""
""focus"",""3"",""2681552""
","""event"",""trial"",""time""
""blur"",""3"",""1062369""
""blur"",""3"",""1544292""
","""event"",""trial"",""time""
""focus"",""3"",""1206607""
""focus"",""3"",""2681552""
","""event"",""trial"",""time""
""fullscreenenter"",""0"",""108958""
","""event"",""trial"",""time""
""fullscreenexit"",""3"",""1062352""
","906.5","run_exp/static/images/Set 6_rs/057a.jpg","86","","","","","","learn","SL",""
"","show_choice","146","2810878","0.0-146.0","""event"",""trial"",""time""
""fullscreenenter"",""0"",""108958""
""fullscreenexit"",""3"",""1062352""
""blur"",""3"",""1062369""
""focus"",""3"",""1206607""
""blur"",""3"",""1544292""
""focus"",""3"",""2681552""
","""event"",""trial"",""time""
""blur"",""3"",""1062369""
""blur"",""3"",""1544292""
","""event"",""trial"",""time""
""focus"",""3"",""1206607""
""focus"",""3"",""2681552""
","""event"",""trial"",""time""
""fullscreenenter"",""0"",""108958""
","""event"",""trial"",""time""
""fullscreenexit"",""3"",""1062352""
","null","run_exp/static/images/Set 6_rs/057a.jpg","null","","","","","","learn","SL",""
"","html-keyboard-response","147","2811380","0.0-147.0","""event"",""trial"",""time""
""fullscreenenter"",""0"",""108958""
""fullscreenexit"",""3"",""1062352""
""blur"",""3"",""1062369""
""focus"",""3"",""1206607""
""blur"",""3"",""1544292""
""focus"",""3"",""2681552""
","""event"",""trial"",""time""
""blur"",""3"",""1062369""
""blur"",""3"",""1544292""
","""event"",""trial"",""time""
""focus"",""3"",""1206607""
""focus"",""3"",""2681552""
","""event"",""trial"",""time""
""fullscreenenter"",""0"",""108958""
","""event"",""trial"",""time""
""fullscreenexit"",""3"",""1062352""
","null","<p></p>","null","","","","","","","",""
"","image","148","2812687","0.0-148.0","""event"",""trial"",""time""
""fullscreenenter"",""0"",""108958""
""fullscreenexit"",""3"",""1062352""
""blur"",""3"",""1062369""
""focus"",""3"",""1206607""
""blur"",""3"",""1544292""
""focus"",""3"",""2681552""
","""event"",""trial"",""time""
""blur"",""3"",""1062369""
""blur"",""3"",""1544292""
","""event"",""trial"",""time""
""focus"",""3"",""1206607""
""focus"",""3"",""2681552""
","""event"",""trial"",""time""
