"success","trial_type","trial_index","time_elapsed","internal_node_id","interactions","blur_events","focus_events","fullscreenenter_events","fullscreenexit_events","rt","stimulus","key_press","subject_id","participant_id","age","gender","prompt","phase","condition","lure_bin"
"true","fullscreen","0","6738","0.0-0.0","""event"",""trial"",""time""
""focus"",""0"",""4191""
""fullscreenenter"",""0"",""5758""
","
","""event"",""trial"",""time""
""focus"",""0"",""4191""
","""event"",""trial"",""time""
""fullscreenenter"",""0"",""5758""
","
","","","","","","","","","","",""
"","pavlovia","1","6744","0.0-1.0","""event"",""trial"",""time""
""focus"",""0"",""4191""
""fullscreenenter"",""0"",""5758""
","
","""event"",""trial"",""time""
""focus"",""0"",""4191""
","""event"",""trial"",""time""
""fullscreenenter"",""0"",""5758""
","
","","","","","","","","","","",""
"","welcome","2","41572","0.0-2.0","""event"",""trial"",""time""
""focus"",""0"",""4191""
""fullscreenenter"",""0"",""5758""
","
","""event"",""trial"",""time""
""focus"",""0"",""4191""
","""event"",""trial"",""time""
""fullscreenenter"",""0"",""5758""
","
","null","run_exp/static/audio/clip_1_welcome.m4a","null","1398","225","19","Female","<div class='center'><p>Welcome to the third part of the study! First, you'll be shown pictures of items one at a time. For each picture, you have to decide if the item is typically found indoors or outdoors.</p><p>If you think it's usually found indoors, then press <b>v</b> key on your keyboard. If you think it's usually found outdoors, then press the <b>n</b> key.There will be reminders on the screen to help you remember which keys to press. </p><p>If you're not sure whether the item is an indoor item or an outdoor item, go ahead and take a guess but try your best not to skip that choice. </p></div>","","",""
"","html-keyboard-response","3","42569","0.0-3.0","""event"",""trial"",""time""
""focus"",""0"",""4191""
""fullscreenenter"",""0"",""5758""
","
","""event"",""trial"",""time""
""focus"",""0"",""4191""
","""event"",""trial"",""time""
""fullscreenenter"",""0"",""5758""
","
","994.2999999821186","<div class='center'><p>Welcome to the third part of the study! First, you'll be shown pictures of items one at a time. For each picture, you have to decide if the item is typically found indoors or outdoors.</p><p>If you think it's usually found indoors, then press <b>v</b> key on your keyboard. If you think it's usually found outdoors, then press the <b>n</b> key.There will be reminders on the screen to help you remember which keys to press. </p><p>If you're not sure whether the item is an indoor item or an outdoor item, go ahead and take a guess but try your best not to skip that choice. </p><div><p><b>[Press the space bar to continue]</b></p></div>","32","","","","","","","",""
"","image","4","44576","0.0-4.0","""event"",""trial"",""time""
""focus"",""0"",""4191""
""fullscreenenter"",""0"",""5758""
","
","""event"",""trial"",""time""
""focus"",""0"",""4191""
","""event"",""trial"",""time""
""fullscreenenter"",""0"",""5758""
","
","null","run_exp/static/images/Set 6_rs/144a.jpg","null","","","","","","learn","SL",""
"","show_choice","5","46577","0.0-5.0","""event"",""trial"",""time""
""focus"",""0"",""4191""
""fullscreenenter"",""0"",""5758""
","
","""event"",""trial"",""time""
""focus"",""0"",""4191""
","""event"",""trial"",""time""
""fullscreenenter"",""0"",""5758""
","
","null","run_exp/static/images/blank.png","null","","","","","","learn","SL",""
"","html-keyboard-response","6","47080","0.0-6.0","""event"",""trial"",""time""
""focus"",""0"",""4191""
""fullscreenenter"",""0"",""5758""
","
","""event"",""trial"",""time""
""focus"",""0"",""4191""
","""event"",""trial"",""time""
""fullscreenenter"",""0"",""5758""
","
","null","<p></p>","null","","","","","","","",""
"","image","7","47982","0.0-7.0","""event"",""trial"",""time""
""focus"",""0"",""4191""
""fullscreenenter"",""0"",""5758""
","
","""event"",""trial"",""time""
""focus"",""0"",""4191""
","""event"",""trial"",""time""
""fullscreenenter"",""0"",""5758""
","
","899.7999999821186","run_exp/static/images/Set 6_rs/045a.jpg","86","","","","","","learn","SR",""
"","show_choice","8","49090","0.0-8.0","""event"",""trial"",""time""
""focus"",""0"",""4191""
""fullscreenenter"",""0"",""5758""
","
","""event"",""trial"",""time""
""focus"",""0"",""4191""
","""event"",""trial"",""time""
""fullscreenenter"",""0"",""5758""
","
","null","run_exp/static/images/Set 6_rs/045a.jpg","null","","","","","","learn","SR",""
"","html-keyboard-response","9","49592","0.0-9.0","""event"",""trial"",""time""
""focus"",""0"",""4191""
""fullscreenenter"",""0"",""5758""
","
","""event"",""trial"",""time""
""focus"",""0"",""4191""
","""event"",""trial"",""time""
""fullscreenenter"",""0"",""5758""
","
","null","<p></p>","null","","","","","","","",""
"","image","10","50371","0.0-10.0","""event"",""trial"",""time""
""focus"",""0"",""4191""
""fullscreenenter"",""0"",""5758""
","
","""event"",""trial"",""time""
""focus"",""0"",""4191""
","""event"",""trial"",""time""
""fullscreenenter"",""0"",""5758""
","
","776.1999999880791","run_exp/static/images/Set 6_rs/064a.jpg","86","","","","","","learn","SR",""
"","show_choice","11","51596","0.0-11.0","""event"",""trial"",""time""
""focus"",""0"",""4191""
""fullscreenenter"",""0"",""5758""
","
","""event"",""trial"",""time""
""focus"",""0"",""4191""
","""event"",""trial"",""time""
""fullscreenenter"",""0"",""5758""
","
","null","run_exp/static/images/Set 6_rs/064a.jpg","null","","","","","","learn","SR",""
"","html-keyboard-response","12","52104","0.0-12.0","""event"",""trial"",""time""
""focus"",""0"",""4191""
""fullscreenenter"",""0"",""5758""
","
","""event"",""trial"",""time""
""focus"",""0"",""4191""
","""event"",""trial"",""time""
""fullscreenenter"",""0"",""5758""
","
","null","<p></p>","null","","","","","","","",""
"","image","13","52887","0.0-13.0","""event"",""trial"",""time""
""focus"",""0"",""4191""
""fullscreenenter"",""0"",""5758""
","
","""event"",""trial"",""time""
""focus"",""0"",""4191""
","""event"",""trial"",""time""
""fullscreenenter"",""0"",""5758""
","
","781.4000000059605","run_exp/static/images/Set 6_rs/014a.jpg","86","","","","","","learn","SL",""
"","show_choice","14","54112","0.0-14.0","""event"",""trial"",""time""
""focus"",""0"",""4191""
""fullscreenenter"",""0"",""5758""
","
","""event"",""trial"",""time""
""focus"",""0"",""4191""
","""event"",""trial"",""time""
""fullscreenenter"",""0"",""5758""
","
","null","run_exp/static/images/Set 6_rs/014a.jpg","null","","","","","","learn","SL",""
"","html-keyboard-response","15","54619","0.0-15.0","""event"",""trial"",""time""
""focus"",""0"",""4191""
""fullscreenenter"",""0"",""5758""
","
","""event"",""trial"",""time""
""focus"",""0"",""4191""
","""event"",""trial"",""time""
""fullscreenenter"",""0"",""5758""
","
","null","<p></p>","null","","","","","","","",""
"","image","16","55210","0.0-16.0","""event"",""trial"",""time""
""focus"",""0"",""4191""
""fullscreenenter"",""0"",""5758""
","
","""event"",""trial"",""time""
""focus"",""0"",""4191""
","""event"",""trial"",""time""
""fullscreenenter"",""0"",""5758""
","
","589.7000000178814","run_exp/static/images/Set 6_rs/177a.jpg","78","","","","","","learn","SR",""
"","show_choice","17","56625","0.0-17.0","""event"",""trial"",""time""
""focus"",""0"",""4191""
""fullscreenenter"",""0"",""5758""
","
","""event"",""trial"",""time""
""focus"",""0"",""4191""
","""event"",""trial"",""time""
""fullscreenenter"",""0"",""5758""
","
","null","run_exp/static/images/Set 6_rs/177a.jpg","null","","","","","","learn","SR",""
"","html-keyboard-response","18","57126","0.0-18.0","""event"",""trial"",""time""
""focus"",""0"",""4191""
""fullscreenenter"",""0"",""5758""
","
","""event"",""trial"",""time""
""focus"",""0"",""4191""
","""event"",""trial"",""time""
""fullscreenenter"",""0"",""5758""
","
","null","<p></p>","null","","","","","","","",""
"","image","19","58350","0.0-19.0","""event"",""trial"",""time""
""focus"",""0"",""4191""
""fullscreenenter"",""0"",""5758""
","
","""event"",""trial"",""time""
""focus"",""0"",""4191""
","""event"",""trial"",""time""
""fullscreenenter"",""0"",""5758""
","
","1222.2000000178814","run_exp/static/images/Set 6_rs/126a.jpg","78","","","","","","learn","SR",""
"","show_choice","20","59134","0.0-20.0","""event"",""trial"",""time""
""focus"",""0"",""4191""
""fullscreenenter"",""0"",""5758""
","
","""event"",""trial"",""time""
""focus"",""0"",""4191""
","""event"",""trial"",""time""
""fullscreenenter"",""0"",""5758""
","
","null","run_exp/static/images/Set 6_rs/126a.jpg","null","","","","","","learn","SR",""
"","html-keyboard-response","21","59640","0.0-21.0","""event"",""trial"",""time""
""focus"",""0"",""4191""
""fullscreenenter"",""0"",""5758""
","
","""event"",""trial"",""time""
""focus"",""0"",""4191""
","""event"",""trial"",""time""
""fullscreenenter"",""0"",""5758""
","
","null","<p></p>","null","","","","","","","",""
"","image","22","60565","0.0-22.0","""event"",""trial"",""time""
""focus"",""0"",""4191""
""fullscreenenter"",""0"",""5758""
","
","""event"",""trial"",""time""
""focus"",""0"",""4191""
","""event"",""trial"",""time""
""fullscreenenter"",""0"",""5758""
","
","922.7999999821186","run_exp/static/images/Set 6_rs/012a.jpg","86","","","","","","learn","SR",""
"","show_choice","23","61650","0.0-23.0","""event"",""trial"",""time""
""focus"",""0"",""4191""
""fullscreenenter"",""0"",""5758""
","
","""event"",""trial"",""time""
""focus"",""0"",""4191""
","""event"",""trial"",""time""
""fullscreenenter"",""0"",""5758""
","
","null","run_exp/static/images/Set 6_rs/012a.jpg","null","","","","","","learn","SR",""
"","html-keyboard-response","24","62151","0.0-24.0","""event"",""trial"",""time""
""focus"",""0"",""4191""
""fullscreenenter"",""0"",""5758""
","
","""event"",""trial"",""time""
""focus"",""0"",""4191""
","""event"",""trial"",""time""
""fullscreenenter"",""0"",""5758""
","
","null","<p></p>","null","","","","","","","",""
"","image","25","62934","0.0-25.0","""event"",""trial"",""time""
""focus"",""0"",""4191""
""fullscreenenter"",""0"",""5758""
","
","""event"",""trial"",""time""
""focus"",""0"",""4191""
","""event"",""trial"",""time""
""fullscreenenter"",""0"",""5758""
","
","780.5999999940395","run_exp/static/images/Set 6_rs/181a.jpg","78","","","","","","learn","SL",""
"","show_choice","26","64158","0.0-26.0","""event"",""trial"",""time""
""focus"",""0"",""4191""
""fullscreenenter"",""0"",""5758""
","
","""event"",""trial"",""time""
""focus"",""0"",""4191""
","""event"",""trial"",""time""
""fullscreenenter"",""0"",""5758""
","
","null","run_exp/static/images/Set 6_rs/181a.jpg","null","","","","","","learn","SL",""
"","html-keyboard-response","27","64664","0.0-27.0","""event"",""trial"",""time""
""focus"",""0"",""4191""
""fullscreenenter"",""0"",""5758""
","
","""event"",""trial"",""time""
""focus"",""0"",""4191""
","""event"",""trial"",""time""
""fullscreenenter"",""0"",""5758""
","
","null","<p></p>","null","","","","","","","",""
"","image","28","65776","0.0-28.0","""event"",""trial"",""time""
""focus"",""0"",""4191""
""fullscreenenter"",""0"",""5758""
","
","""event"",""trial"",""time""
""focus"",""0"",""4191""
","""event"",""trial"",""time""
""fullscreenenter"",""0"",""5758""
","
","1109.2999999821186","run_exp/static/images/Set 6_rs/089a.jpg","86","","","","","","learn","SL",""
"","show_choice","29","66672","0.0-29.0","""event"",""trial"",""time""
""focus"",""0"",""4191""
""fullscreenenter"",""0"",""5758""
","
","""event"",""trial"",""time""
""focus"",""0"",""4191""
","""event"",""trial"",""time""
""fullscreenenter"",""0"",""5758""
","
","null","run_exp/static/images/Set 6_rs/089a.jpg","null","","","","","","learn","SL",""
"","html-keyboard-response","30","67177","0.0-30.0","""event"",""trial"",""time""
""focus"",""0"",""4191""
""fullscreenenter"",""0"",""5758""
","
","""event"",""trial"",""time""
""focus"",""0"",""4191""
","""event"",""trial"",""time""
""fullscreenenter"",""0"",""5758""
","
","null","<p></p>","null","","","","","","","",""
"","image","31","67889","0.0-31.0","""event"",""trial"",""time""
""focus"",""0"",""4191""
""fullscreenenter"",""0"",""5758""
","
","""event"",""trial"",""time""
""focus"",""0"",""4191""
","""event"",""trial"",""time""
""fullscreenenter"",""0"",""5758""
","
","709.5","run_exp/static/images/Set 6_rs/017a.jpg","86","","","","","","learn","SL",""
"","show_choice","32","69186","0.0-32.0","""event"",""trial"",""time""
""focus"",""0"",""4191""
""fullscreenenter"",""0"",""5758""
","
","""event"",""trial"",""time""
""focus"",""0"",""4191""
","""event"",""trial"",""time""
""fullscreenenter"",""0"",""5758""
","
","null","run_exp/static/images/Set 6_rs/017a.jpg","null","","","","","","learn","SL",""
"","html-keyboard-response","33","69688","0.0-33.0","""event"",""trial"",""time""
""focus"",""0"",""4191""
""fullscreenenter"",""0"",""5758""
","
","""event"",""trial"",""time""
""focus"",""0"",""4191""
","""event"",""trial"",""time""
""fullscreenenter"",""0"",""5758""
","
","null","<p></p>","null","","","","","","","",""
"","image","34","70387","0.0-34.0","""event"",""trial"",""time""
""focus"",""0"",""4191""
""fullscreenenter"",""0"",""5758""
","
","""event"",""trial"",""time""
""focus"",""0"",""4191""
","""event"",""trial"",""time""
""fullscreenenter"",""0"",""5758""
","
","697.3000000119209","run_exp/static/images/Set 6_rs/154a.jpg","86","","","","","","learn","SR",""
"","show_choice","35","71693","0.0-35.0","""event"",""trial"",""time""
""focus"",""0"",""4191""
""fullscreenenter"",""0"",""5758""
","
","""event"",""trial"",""time""
""focus"",""0"",""4191""
","""event"",""trial"",""time""
""fullscreenenter"",""0"",""5758""
","
","null","run_exp/static/images/Set 6_rs/154a.jpg","null","","","","","","learn","SR",""
"","html-keyboard-response","36","72199","0.0-36.0","""event"",""trial"",""time""
""focus"",""0"",""4191""
""fullscreenenter"",""0"",""5758""
","
","""event"",""trial"",""time""
""focus"",""0"",""4191""
","""event"",""trial"",""time""
""fullscreenenter"",""0"",""5758""
","
","null","<p></p>","null","","","","","","","",""
"","image","37","72964","0.0-37.0","""event"",""trial"",""time""
""focus"",""0"",""4191""
""fullscreenenter"",""0"",""5758""
","
","""event"",""trial"",""time""
""focus"",""0"",""4191""
","""event"",""trial"",""time""
""fullscreenenter"",""0"",""5758""
","
","763.4000000059605","run_exp/static/images/Set 6_rs/050a.jpg","86","","","","","","learn","SL",""
"","show_choice","38","74202","0.0-38.0","""event"",""trial"",""time""
""focus"",""0"",""4191""
""fullscreenenter"",""0"",""5758""
","
","""event"",""trial"",""time""
""focus"",""0"",""4191""
","""event"",""trial"",""time""
""fullscreenenter"",""0"",""5758""
","
","null","run_exp/static/images/Set 6_rs/050a.jpg","null","","","","","","learn","SL",""
"","html-keyboard-response","39","74708","0.0-39.0","""event"",""trial"",""time""
""focus"",""0"",""4191""
""fullscreenenter"",""0"",""5758""
","
","""event"",""trial"",""time""
""focus"",""0"",""4191""
","""event"",""trial"",""time""
""fullscreenenter"",""0"",""5758""
","
","null","<p></p>","null","","","","","","","",""
"","image","40","75404","0.0-40.0","""event"",""trial"",""time""
""focus"",""0"",""4191""
""fullscreenenter"",""0"",""5758""
","
","""event"",""trial"",""time""
""focus"",""0"",""4191""
","""event"",""trial"",""time""
""fullscreenenter"",""0"",""5758""
","
","694.9000000059605","run_exp/static/images/Set 6_rs/112a.jpg","86","","","","","","learn","SR",""
"","show_choice","41","76711","0.0-41.0","""event"",""trial"",""time""
""focus"",""0"",""4191""
""fullscreenenter"",""0"",""5758""
","
","""event"",""trial"",""time""
""focus"",""0"",""4191""
","""event"",""trial"",""time""
""fullscreenenter"",""0"",""5758""
","
","null","run_exp/static/images/Set 6_rs/112a.jpg","null","","","","","","learn","SR",""
"","html-keyboard-response","42","77217","0.0-42.0","""event"",""trial"",""time""
""focus"",""0"",""4191""
""fullscreenenter"",""0"",""5758""
","
","""event"",""trial"",""time""
""focus"",""0"",""4191""
","""event"",""trial"",""time""
""fullscreenenter"",""0"",""5758""
","
","null","<p></p>","null","","","","","","","",""
"","image","43","79135","0.0-43.0","""event"",""trial"",""time""
""focus"",""0"",""4191""
""fullscreenenter"",""0"",""5758""
","
","""event"",""trial"",""time""
""focus"",""0"",""4191""
","""event"",""trial"",""time""
""fullscreenenter"",""0"",""5758""
","
","1915.9000000059605","run_exp/static/images/Set 6_rs/036a.jpg","86","","","","","","learn","SL",""
"","show_choice","44","79224","0.0-44.0","""event"",""trial"",""time""
""focus"",""0"",""4191""
""fullscreenenter"",""0"",""5758""
","
","""event"",""trial"",""time""
""focus"",""0"",""4191""
","""event"",""trial"",""time""
""fullscreenenter"",""0"",""5758""
","
","null","run_exp/static/images/Set 6_rs/036a.jpg","null","","","","","","learn","SL",""
"","html-keyboard-response","45","79729","0.0-45.0","""event"",""trial"",""time""
""focus"",""0"",""4191""
""fullscreenenter"",""0"",""5758""
","
","""event"",""trial"",""time""
""focus"",""0"",""4191""
","""event"",""trial"",""time""
""fullscreenenter"",""0"",""5758""
","
","null","<p></p>","null","","","","","","","",""
"","image","46","81241","0.0-46.0","""event"",""trial"",""time""
""focus"",""0"",""4191""
""fullscreenenter"",""0"",""5758""
","
","""event"",""trial"",""time""
""focus"",""0"",""4191""
","""event"",""trial"",""time""
""fullscreenenter"",""0"",""5758""
","
","1510.300000011921","run_exp/static/images/Set 6_rs/006a.jpg","78","","","","","","learn","SL",""
"","show_choice","47","81737","0.0-47.0","""event"",""trial"",""time""
""focus"",""0"",""4191""
""fullscreenenter"",""0"",""5758""
","
","""event"",""trial"",""time""
""focus"",""0"",""4191""
","""event"",""trial"",""time""
""fullscreenenter"",""0"",""5758""
","
","null","run_exp/static/images/Set 6_rs/006a.jpg","null","","","","","","learn","SL",""
"","html-keyboard-response","48","82242","0.0-48.0","""event"",""trial"",""time""
""focus"",""0"",""4191""
""fullscreenenter"",""0"",""5758""
","
","""event"",""trial"",""time""
""focus"",""0"",""4191""
","""event"",""trial"",""time""
""fullscreenenter"",""0"",""5758""
","
","null","<p></p>","null","","","","","","","",""
"","image","49","83046","0.0-49.0","""event"",""trial"",""time""
""focus"",""0"",""4191""
""fullscreenenter"",""0"",""5758""
","
","""event"",""trial"",""time""
""focus"",""0"",""4191""
","""event"",""trial"",""time""
""fullscreenenter"",""0"",""5758""
","
","802.1999999880791","run_exp/static/images/Set 6_rs/117a.jpg","86","","","","","","learn","SL",""
"","show_choice","50","84246","0.0-50.0","""event"",""trial"",""time""
""focus"",""0"",""4191""
""fullscreenenter"",""0"",""5758""
","
","""event"",""trial"",""time""
""focus"",""0"",""4191""
","""event"",""trial"",""time""
""fullscreenenter"",""0"",""5758""
","
","null","run_exp/static/images/Set 6_rs/117a.jpg","null","","","","","","learn","SL",""
"","html-keyboard-response","51","84749","0.0-51.0","""event"",""trial"",""time""
""focus"",""0"",""4191""
""fullscreenenter"",""0"",""5758""
","
","""event"",""trial"",""time""
""focus"",""0"",""4191""
","""event"",""trial"",""time""
""fullscreenenter"",""0"",""5758""
","
","null","<p></p>","null","","","","","","","",""
"","image","52","85605","0.0-52.0","""event"",""trial"",""time""
""focus"",""0"",""4191""
""fullscreenenter"",""0"",""5758""
","
","""event"",""trial"",""time""
""focus"",""0"",""4191""
","""event"",""trial"",""time""
""fullscreenenter"",""0"",""5758""
","
","854.5","run_exp/static/images/Set 6_rs/167a.jpg","86","","","","","","learn","SL",""
"","show_choice","53","86755","0.0-53.0","""event"",""trial"",""time""
""focus"",""0"",""4191""
""fullscreenenter"",""0"",""5758""
","
","""event"",""trial"",""time""
""focus"",""0"",""4191""
","""event"",""trial"",""time""
""fullscreenenter"",""0"",""5758""
","
","null","run_exp/static/images/Set 6_rs/167a.jpg","null","","","","","","learn","SL",""
"","html-keyboard-response","54","87262","0.0-54.0","""event"",""trial"",""time""
""focus"",""0"",""4191""
""fullscreenenter"",""0"",""5758""
","
","""event"",""trial"",""time""
""focus"",""0"",""4191""
","""event"",""trial"",""time""
""fullscreenenter"",""0"",""5758""
","
","null","<p></p>","null","","","","","","","",""
"","image","55","88460","0.0-55.0","""event"",""trial"",""time""
""focus"",""0"",""4191""
""fullscreenenter"",""0"",""5758""
","
","""event"",""trial"",""time""
""focus"",""0"",""4191""
","""event"",""trial"",""time""
""fullscreenenter"",""0"",""5758""
","
","1196.2000000178814","run_exp/static/images/Set 6_rs/023a.jpg","86","","","","","","learn","SR",""
"","show_choice","56","89266","0.0-56.0","""event"",""trial"",""time""
""focus"",""0"",""4191""
""fullscreenenter"",""0"",""5758""
","
","""event"",""trial"",""time""
""focus"",""0"",""4191""
","""event"",""trial"",""time""
""fullscreenenter"",""0"",""5758""
","
","null","run_exp/static/images/Set 6_rs/023a.jpg","null","","","","","","learn","SR",""
"","html-keyboard-response","57","89770","0.0-57.0","""event"",""trial"",""time""
""focus"",""0"",""4191""
""fullscreenenter"",""0"",""5758""
","
","""event"",""trial"",""time""
""focus"",""0"",""4191""
","""event"",""trial"",""time""
""fullscreenenter"",""0"",""5758""
","
","null","<p></p>","null","","","","","","","",""
"","image","58","90748","0.0-58.0","""event"",""trial"",""time""
""focus"",""0"",""4191""
""fullscreenenter"",""0"",""5758""
","
","""event"",""trial"",""time""
""focus"",""0"",""4191""
","""event"",""trial"",""time""
""fullscreenenter"",""0"",""5758""
","
","976.5999999940395","run_exp/static/images/Set 6_rs/108a.jpg","78","","","","","","learn","SR",""
"","show_choice","59","91778","0.0-59.0","""event"",""trial"",""time""
""focus"",""0"",""4191""
""fullscreenenter"",""0"",""5758""
","
","""event"",""trial"",""time""
""focus"",""0"",""4191""
","""event"",""trial"",""time""
""fullscreenenter"",""0"",""5758""
","
","null","run_exp/static/images/Set 6_rs/108a.jpg","null","","","","","","learn","SR",""
"","html-keyboard-response","60","92280","0.0-60.0","""event"",""trial"",""time""
""focus"",""0"",""4191""
""fullscreenenter"",""0"",""5758""
","
","""event"",""trial"",""time""
""focus"",""0"",""4191""
","""event"",""trial"",""time""
""fullscreenenter"",""0"",""5758""
","
","null","<p></p>","null","","","","","","","",""
"","image","61","93140","0.0-61.0","""event"",""trial"",""time""
""focus"",""0"",""4191""
""fullscreenenter"",""0"",""5758""
","
","""event"",""trial"",""time""
""focus"",""0"",""4191""
","""event"",""trial"",""time""
""fullscreenenter"",""0"",""5758""
","
","858.7000000178814","run_exp/static/images/Set 6_rs/178a.jpg","78","","","","","","learn","SR",""
"","show_choice","62","94288","0.0-62.0","""event"",""trial"",""time""
""focus"",""0"",""4191""
""fullscreenenter"",""0"",""5758""
","
","""event"",""trial"",""time""
""focus"",""0"",""4191""
","""event"",""trial"",""time""
""fullscreenenter"",""0"",""5758""
","
","null","run_exp/static/images/Set 6_rs/178a.jpg","null","","","","","","learn","SR",""
"","html-keyboard-response","63","94793","0.0-63.0","""event"",""trial"",""time""
""focus"",""0"",""4191""
""fullscreenenter"",""0"",""5758""
","
","""event"",""trial"",""time""
""focus"",""0"",""4191""
","""event"",""trial"",""time""
""fullscreenenter"",""0"",""5758""
","
","null","<p></p>","null","","","","","","","",""
"","image","64","95469","0.0-64.0","""event"",""trial"",""time""
""focus"",""0"",""4191""
""fullscreenenter"",""0"",""5758""
","
","""event"",""trial"",""time""
""focus"",""0"",""4191""
","""event"",""trial"",""time""
""fullscreenenter"",""0"",""5758""
","
","674.2000000178814","run_exp/static/images/Set 6_rs/057a.jpg","86","","","","","","learn","SL",""
"","show_choice","65","96796","0.0-65.0","""event"",""trial"",""time""
""focus"",""0"",""4191""
""fullscreenenter"",""0"",""5758""
","
","""event"",""trial"",""time""
""focus"",""0"",""4191""
","""event"",""trial"",""time""
""fullscreenenter"",""0"",""5758""
","
","null","run_exp/static/images/Set 6_rs/057a.jpg","null","","","","","","learn","SL",""
"","html-keyboard-response","66","97302","0.0-66.0","""event"",""trial"",""time""
""focus"",""0"",""4191""
""fullscreenenter"",""0"",""5758""
","
","""event"",""trial"",""time""
""focus"",""0"",""4191""
","""event"",""trial"",""time""
""fullscreenenter"",""0"",""5758""
","
","null","<p></p>","null","","","","","","","",""
"","image","67","98719","0.0-67.0","""event"",""trial"",""time""
""focus"",""0"",""4191""
""fullscreenenter"",""0"",""5758""
","
","""event"",""trial"",""time""
""focus"",""0"",""4191""
","""event"",""trial"",""time""
""fullscreenenter"",""0"",""5758""
","
","1415.199999988079","run_exp/static/images/Set 6_rs/186a.jpg","86","","","","","","learn","SR",""
"","show_choice","68","99310","0.0-68.0","""event"",""trial"",""time""
""focus"",""0"",""4191""
""fullscreenenter"",""0"",""5758""
","
","""event"",""trial"",""time""
""focus"",""0"",""4191""
","""event"",""trial"",""time""
""fullscreenenter"",""0"",""5758""
","
","null","run_exp/static/images/Set 6_rs/186a.jpg","null","","","","","","learn","SR",""
"","html-keyboard-response","69","99816","0.0-69.0","""event"",""trial"",""time""
""focus"",""0"",""4191""
""fullscreenenter"",""0"",""5758""
","
","""event"",""trial"",""time""
""focus"",""0"",""4191""
","""event"",""trial"",""time""
""fullscreenenter"",""0"",""5758""
","
","null","<p></p>","null","","","","","","","",""
"","image","70","100610","0.0-70.0","""event"",""trial"",""time""
""focus"",""0"",""4191""
""fullscreenenter"",""0"",""5758""
","
","""event"",""trial"",""time""
""focus"",""0"",""4191""
","""event"",""trial"",""time""
""fullscreenenter"",""0"",""5758""
","
","791.9000000059605","run_exp/static/images/Set 6_rs/061a.jpg","78","","","","","","learn","SR",""
"","show_choice","71","101825","0.0-71.0","""event"",""trial"",""time""
""focus"",""0"",""4191""
""fullscreenenter"",""0"",""5758""
","
","""event"",""trial"",""time""
""focus"",""0"",""4191""
","""event"",""trial"",""time""
""fullscreenenter"",""0"",""5758""
","
","null","run_exp/static/images/Set 6_rs/061a.jpg","null","","","","","","learn","SR",""
"","html-keyboard-response","72","102329","0.0-72.0","""event"",""trial"",""time""
""focus"",""0"",""4191""
""fullscreenenter"",""0"",""5758""
","
","""event"",""trial"",""time""
""focus"",""0"",""4191""
","""event"",""trial"",""time""
""fullscreenenter"",""0"",""5758""
","
","null","<p></p>","null","","","","","","","",""
"","image","73","102839","0.0-73.0","""event"",""trial"",""time""
""focus"",""0"",""4191""
""fullscreenenter"",""0"",""5758""
","
","""event"",""trial"",""time""
""focus"",""0"",""4191""
","""event"",""trial"",""time""
""fullscreenenter"",""0"",""5758""
","
","508.2000000178814","run_exp/static/images/Set 6_rs/024a.jpg","86","","","","","","learn","SR",""
"","show_choice","74","104336","0.0-74.0","""event"",""trial"",""time""
""focus"",""0"",""4191""
""fullscreenenter"",""0"",""5758""
","
","""event"",""trial"",""time""
""focus"",""0"",""4191""
","""event"",""trial"",""time""
""fullscreenenter"",""0"",""5758""
","
","null","run_exp/static/images/Set 6_rs/024a.jpg","null","","","","","","learn","SR",""
"","html-keyboard-response","75","104842","0.0-75.0","""event"",""trial"",""time""
""focus"",""0"",""4191""
""fullscreenenter"",""0"",""5758""
","
","""event"",""trial"",""time""
""focus"",""0"",""4191""
","""event"",""trial"",""time""
""fullscreenenter"",""0"",""5758""
","
","null","<p></p>","null","","","","","","","",""
"","image","76","105866","0.0-76.0","""event"",""trial"",""time""
""focus"",""0"",""4191""
""fullscreenenter"",""0"",""5758""
","
","""event"",""trial"",""time""
""focus"",""0"",""4191""
","""event"",""trial"",""time""
""fullscreenenter"",""0"",""5758""
","
","1021.3000000119209","run_exp/static/images/Set 6_rs/066a.jpg","78","","","","","","learn","SL",""
"","show_choice","77","106850","0.0-77.0","""event"",""trial"",""time""
""focus"",""0"",""4191""
""fullscreenenter"",""0"",""5758""
","
","""event"",""trial"",""time""
""focus"",""0"",""4191""
","""event"",""trial"",""time""
""fullscreenenter"",""0"",""5758""
","
","null","run_exp/static/images/Set 6_rs/066a.jpg","null","","","","","","learn","SL",""
"","html-keyboard-response","78","107356","0.0-78.0","""event"",""trial"",""time""
""focus"",""0"",""4191""
""fullscreenenter"",""0"",""5758""
","
","""event"",""trial"",""time""
""focus"",""0"",""4191""
","""event"",""trial"",""time""
""fullscreenenter"",""0"",""5758""
","
","null","<p></p>","null","","","","","","","",""
"","image","79","108149","0.0-79.0","""event"",""trial"",""time""
""focus"",""0"",""4191""
""fullscreenenter"",""0"",""5758""
","
","""event"",""trial"",""time""
""focus"",""0"",""4191""
","""event"",""trial"",""time""
""fullscreenenter"",""0"",""5758""
","
","791.5","run_exp/static/images/Set 6_rs/172a.jpg","78","","","","","","learn","SR",""
"","show_choice","80","109364","0.0-80.0","""event"",""trial"",""time""
""focus"",""0"",""4191""
""fullscreenenter"",""0"",""5758""
","
","""event"",""trial"",""time""
""focus"",""0"",""4191""
","""event"",""trial"",""time""
""fullscreenenter"",""0"",""5758""
","
","null","run_exp/static/images/Set 6_rs/172a.jpg","null","","","","","","learn","SR",""
"","html-keyboard-response","81","109868","0.0-81.0","""event"",""trial"",""time""
""focus"",""0"",""4191""
""fullscreenenter"",""0"",""5758""
","
","""event"",""trial"",""time""
""focus"",""0"",""4191""
","""event"",""trial"",""time""
""fullscreenenter"",""0"",""5758""
","
","null","<p></p>","null","","","","","","","",""
"","image","82","110785","0.0-82.0","""event"",""trial"",""time""
""focus"",""0"",""4191""
""fullscreenenter"",""0"",""5758""
","
","""event"",""trial"",""time""
""focus"",""0"",""4191""
","""event"",""trial"",""time""
""fullscreenenter"",""0"",""5758""
","
","914.5999999940395","run_exp/static/images/Set 6_rs/116a.jpg","78","","","","","","learn","SL",""
"","show_choice","83","111877","0.0-83.0","""event"",""trial"",""time""
""focus"",""0"",""4191""
""fullscreenenter"",""0"",""5758""
","
","""event"",""trial"",""time""
""focus"",""0"",""4191""
","""event"",""trial"",""time""
""fullscreenenter"",""0"",""5758""
","
","null","run_exp/static/images/Set 6_rs/116a.jpg","null","","","","","","learn","SL",""
"","html-keyboard-response","84","112383","0.0-84.0","""event"",""trial"",""time""
""focus"",""0"",""4191""
""fullscreenenter"",""0"",""5758""
","
","""event"",""trial"",""time""
""focus"",""0"",""4191""
","""event"",""trial"",""time""
""fullscreenenter"",""0"",""5758""
","
","null","<p></p>","null","","","","","","","",""
"","image","85","114390","0.0-85.0","""event"",""trial"",""time""
""focus"",""0"",""4191""
""fullscreenenter"",""0"",""5758""
","
","""event"",""trial"",""time""
""focus"",""0"",""4191""
","""event"",""trial"",""time""
""fullscreenenter"",""0"",""5758""
","
","null","run_exp/static/images/Set 6_rs/091a.jpg","null","","","","","","learn","SL",""
"","show_choice","86","116395","0.0-86.0","""event"",""trial"",""time""
""focus"",""0"",""4191""
""fullscreenenter"",""0"",""5758""
","
","""event"",""trial"",""time""
""focus"",""0"",""4191""
","""event"",""trial"",""time""
""fullscreenenter"",""0"",""5758""
","
","null","run_exp/static/images/blank.png","null","","","","","","learn","SL",""
"","html-keyboard-response","87","116899","0.0-87.0","""event"",""trial"",""time""
""focus"",""0"",""4191""
""fullscreenenter"",""0"",""5758""
","
","""event"",""trial"",""time""
""focus"",""0"",""4191""
","""event"",""trial"",""time""
""fullscreenenter"",""0"",""5758""
","
","null","<p></p>","null","","","","","","","",""
"","image","88","118448","0.0-88.0","""event"",""trial"",""time""
""focus"",""0"",""4191""
""fullscreenenter"",""0"",""5758""
","
","""event"",""trial"",""time""
""focus"",""0"",""4191""
","""event"",""trial"",""time""
""fullscreenenter"",""0"",""5758""
","
","1546.5999999940395","run_exp/static/images/Set 6_rs/138a.jpg","78","","","","","","learn","SL",""
"","show_choice","89","118908","0.0-89.0","""event"",""trial"",""time""
""focus"",""0"",""4191""
""fullscreenenter"",""0"",""5758""
","
","""event"",""trial"",""time""
""focus"",""0"",""4191""
","""event"",""trial"",""time""
""fullscreenenter"",""0"",""5758""
","
","null","run_exp/static/images/Set 6_rs/138a.jpg","null","","","","","","learn","SL",""
"","html-keyboard-response","90","119412","0.0-90.0","""event"",""trial"",""time""
""focus"",""0"",""4191""
""fullscreenenter"",""0"",""5758""
","
","""event"",""trial"",""time""
""focus"",""0"",""4191""
","""event"",""trial"",""time""
""fullscreenenter"",""0"",""5758""
","
","null","<p></p>","null","","","","","","","",""
"","image","91","120058","0.0-91.0","""event"",""trial"",""time""
""focus"",""0"",""4191""
""fullscreenenter"",""0"",""5758""
","
","""event"",""trial"",""time""
""focus"",""0"",""4191""
","""event"",""trial"",""time""
""fullscreenenter"",""0"",""5758""
","
","644.4000000059605","run_exp/static/images/Set 6_rs/095a.jpg","86","","","","","","learn","SL",""
"","show_choice","92","121420","0.0-92.0","""event"",""trial"",""time""
""focus"",""0"",""4191""
""fullscreenenter"",""0"",""5758""
","
","""event"",""trial"",""time""
""focus"",""0"",""4191""
","""event"",""trial"",""time""
""fullscreenenter"",""0"",""5758""
","
","null","run_exp/static/images/Set 6_rs/095a.jpg","null","","","","","","learn","SL",""
"","html-keyboard-response","93","121926","0.0-93.0","""event"",""trial"",""time""
""focus"",""0"",""4191""
""fullscreenenter"",""0"",""5758""
","
","""event"",""trial"",""time""
""focus"",""0"",""4191""
","""event"",""trial"",""time""
""fullscreenenter"",""0"",""5758""
","
","null","<p></p>","null","","","","","","","",""
"","image","94","122788","0.0-94.0","""event"",""trial"",""time""
""focus"",""0"",""4191""
""fullscreenenter"",""0"",""5758""
","
","""event"",""trial"",""time""
""focus"",""0"",""4191""
","""event"",""trial"",""time""
""fullscreenenter"",""0"",""5758""
","
","860.3000000119209","run_exp/static/images/Set 6_rs/123a.jpg","78","","","","","","learn","SL",""
"","show_choice","95","123932","0.0-95.0","""event"",""trial"",""time""
""focus"",""0"",""4191""
""fullscreenenter"",""0"",""5758""
","
","""event"",""trial"",""time""
""focus"",""0"",""4191""
","""event"",""trial"",""time""
""fullscreenenter"",""0"",""5758""
","
","null","run_exp/static/images/Set 6_rs/123a.jpg","null","","","","","","learn","SL",""
"","html-keyboard-response","96","124439","0.0-96.0","""event"",""trial"",""time""
""focus"",""0"",""4191""
""fullscreenenter"",""0"",""5758""
","
","""event"",""trial"",""time""
""focus"",""0"",""4191""
","""event"",""trial"",""time""
""fullscreenenter"",""0"",""5758""
","
","null","<p></p>","null","","","","","","","",""
"","image","97","125891","0.0-97.0","""event"",""trial"",""time""
""focus"",""0"",""4191""
""fullscreenenter"",""0"",""5758""
","
","""event"",""trial"",""time""
""focus"",""0"",""4191""
","""event"",""trial"",""time""
""fullscreenenter"",""0"",""5758""
","
","1450.2999999821186","run_exp/static/images/Set 6_rs/141a.jpg","78","","","","","","learn","SR",""
"","show_choice","98","126446","0.0-98.0","""event"",""trial"",""time""
""focus"",""0"",""4191""
""fullscreenenter"",""0"",""5758""
","
","""event"",""trial"",""time""
""focus"",""0"",""4191""
","""event"",""trial"",""time""
""fullscreenenter"",""0"",""5758""
","
","null","run_exp/static/images/Set 6_rs/141a.jpg","null","","","","","","learn","SR",""
"","html-keyboard-response","99","126953","0.0-99.0","""event"",""trial"",""time""
""focus"",""0"",""4191""
""fullscreenenter"",""0"",""5758""
","
","""event"",""trial"",""time""
""focus"",""0"",""4191""
","""event"",""trial"",""time""
""fullscreenenter"",""0"",""5758""
","
","null","<p></p>","null","","","","","","","",""
"","image","100","127772","0.0-100.0","""event"",""trial"",""time""
""focus"",""0"",""4191""
""fullscreenenter"",""0"",""5758""
","
","""event"",""trial"",""time""
""focus"",""0"",""4191""
","""event"",""trial"",""time""
""fullscreenenter"",""0"",""5758""
","
","816.8999999761581","run_exp/static/images/Set 6_rs/010a.jpg","86","","","","","","learn","SR",""
"","show_choice","101","128959","0.0-101.0","""event"",""trial"",""time""
""focus"",""0"",""4191""
""fullscreenenter"",""0"",""5758""
","
","""event"",""trial"",""time""
""focus"",""0"",""4191""
","""event"",""trial"",""time""
""fullscreenenter"",""0"",""5758""
","
","null","run_exp/static/images/Set 6_rs/010a.jpg","null","","","","","","learn","SR",""
"","html-keyboard-response","102","129460","0.0-102.0","""event"",""trial"",""time""
""focus"",""0"",""4191""
""fullscreenenter"",""0"",""5758""
","
","""event"",""trial"",""time""
""focus"",""0"",""4191""
","""event"",""trial"",""time""
""fullscreenenter"",""0"",""5758""
","
","null","<p></p>","null","","","","","","","",""
"","image","103","130440","0.0-103.0","""event"",""trial"",""time""
""focus"",""0"",""4191""
""fullscreenenter"",""0"",""5758""
","
","""event"",""trial"",""time""
""focus"",""0"",""4191""
","""event"",""trial"",""time""
""fullscreenenter"",""0"",""5758""
","
","978","run_exp/static/images/Set 6_rs/007a.jpg","86","","","","","","learn","SR",""
"","show_choice","104","131465","0.0-104.0","""event"",""trial"",""time""
""focus"",""0"",""4191""
""fullscreenenter"",""0"",""5758""
","
","""event"",""trial"",""time""
""focus"",""0"",""4191""
","""event"",""trial"",""time""
""fullscreenenter"",""0"",""5758""
","
","null","run_exp/static/images/Set 6_rs/007a.jpg","null","","","","","","learn","SR",""
"","html-keyboard-response","105","131970","0.0-105.0","""event"",""trial"",""time""
""focus"",""0"",""4191""
""fullscreenenter"",""0"",""5758""
","
","""event"",""trial"",""time""
""focus"",""0"",""4191""
","""event"",""trial"",""time""
""fullscreenenter"",""0"",""5758""
","
","null","<p></p>","null","","","","","","","",""
"","image","106","133407","0.0-106.0","""event"",""trial"",""time""
""focus"",""0"",""4191""
""fullscreenenter"",""0"",""5758""
","
","""event"",""trial"",""time""
""focus"",""0"",""4191""
","""event"",""trial"",""time""
""fullscreenenter"",""0"",""5758""
","
","1434.4000000059605","run_exp/static/images/Set 6_rs/132a.jpg","78","","","","","","learn","SR",""
"","show_choice","107","133978","0.0-107.0","""event"",""trial"",""time""
""focus"",""0"",""4191""
""fullscreenenter"",""0"",""5758""
","
","""event"",""trial"",""time""
""focus"",""0"",""4191""
","""event"",""trial"",""time""
""fullscreenenter"",""0"",""5758""
","
","null","run_exp/static/images/Set 6_rs/132a.jpg","null","","","","","","learn","SR",""
"","html-keyboard-response","108","134481","0.0-108.0","""event"",""trial"",""time""
""focus"",""0"",""4191""
""fullscreenenter"",""0"",""5758""
","
","""event"",""trial"",""time""
""focus"",""0"",""4191""
","""event"",""trial"",""time""
""fullscreenenter"",""0"",""5758""
","
","null","<p></p>","null","","","","","","","",""
"","image","109","135384","0.0-109.0","""event"",""trial"",""time""
""focus"",""0"",""4191""
""fullscreenenter"",""0"",""5758""
","
","""event"",""trial"",""time""
""focus"",""0"",""4191""
","""event"",""trial"",""time""
""fullscreenenter"",""0"",""5758""
","
","901","run_exp/static/images/Set 6_rs/079a.jpg","86","","","","","","learn","SL",""
"","show_choice","110","136486","0.0-110.0","""event"",""trial"",""time""
""focus"",""0"",""4191""
""fullscreenenter"",""0"",""5758""
","
","""event"",""trial"",""time""
""focus"",""0"",""4191""
","""event"",""trial"",""time""
""fullscreenenter"",""0"",""5758""
","
","null","run_exp/static/images/Set 6_rs/079a.jpg","null","","","","","","learn","SL",""
"","html-keyboard-response","111","136988","0.0-111.0","""event"",""trial"",""time""
""focus"",""0"",""4191""
""fullscreenenter"",""0"",""5758""
","
","""event"",""trial"",""time""
""focus"",""0"",""4191""
","""event"",""trial"",""time""
""fullscreenenter"",""0"",""5758""
","
","null","<p></p>","null","","","","","","","",""
"","image","112","138073","0.0-112.0","""event"",""trial"",""time""
""focus"",""0"",""4191""
""fullscreenenter"",""0"",""5758""
","
","""event"",""trial"",""time""
""focus"",""0"",""4191""
","""event"",""trial"",""time""
""fullscreenenter"",""0"",""5758""
","
","1083","run_exp/static/images/Set 6_rs/134a.jpg","86","","","","","","learn","SR",""
"","show_choice","113","138994","0.0-113.0","""event"",""trial"",""time""
""focus"",""0"",""4191""
""fullscreenenter"",""0"",""5758""
","
","""event"",""trial"",""time""
""focus"",""0"",""4191""
","""event"",""trial"",""time""
""fullscreenenter"",""0"",""5758""
","
","null","run_exp/static/images/Set 6_rs/134a.jpg","null","","","","","","learn","SR",""
"","html-keyboard-response","114","139499","0.0-114.0","""event"",""trial"",""time""
""focus"",""0"",""4191""
""fullscreenenter"",""0"",""5758""
","
","""event"",""trial"",""time""
""focus"",""0"",""4191""
","""event"",""trial"",""time""
""fullscreenenter"",""0"",""5758""
","
","null","<p></p>","null","","","","","","","",""
"","image","115","140533","0.0-115.0","""event"",""trial"",""time""
""focus"",""0"",""4191""
""fullscreenenter"",""0"",""5758""
","
","""event"",""trial"",""time""
""focus"",""0"",""4191""
","""event"",""trial"",""time""
""fullscreenenter"",""0"",""5758""
","
","1032.9000000059605","run_exp/static/images/Set 6_rs/121a.jpg","86","","","","","","learn","SR",""
"","show_choice","116","141503","0.0-116.0","""event"",""trial"",""time""
""focus"",""0"",""4191""
""fullscreenenter"",""0"",""5758""
","
","""event"",""trial"",""time""
""focus"",""0"",""4191""
","""event"",""trial"",""time""
""fullscreenenter"",""0"",""5758""
","
","null","run_exp/static/images/Set 6_rs/121a.jpg","null","","","","","","learn","SR",""
"","html-keyboard-response","117","142005","0.0-117.0","""event"",""trial"",""time""
""focus"",""0"",""4191""
""fullscreenenter"",""0"",""5758""
","
","""event"",""trial"",""time""
""focus"",""0"",""4191""
","""event"",""trial"",""time""
""fullscreenenter"",""0"",""5758""
","
","null","<p></p>","null","","","","","","","",""
"","image","118","142888","0.0-118.0","""event"",""trial"",""time""
""focus"",""0"",""4191""
""fullscreenenter"",""0"",""5758""
","
","""event"",""trial"",""time""
""focus"",""0"",""4191""
","""event"",""trial"",""time""
""fullscreenenter"",""0"",""5758""
","
","881","run_exp/static/images/Set 6_rs/016a.jpg","86","","","","","","learn","SL",""
"","show_choice","119","144014","0.0-119.0","""event"",""trial"",""time""
""focus"",""0"",""4191""
""fullscreenenter"",""0"",""5758""
","
","""event"",""trial"",""time""
""focus"",""0"",""4191""
","""event"",""trial"",""time""
""fullscreenenter"",""0"",""5758""
","
","null","run_exp/static/images/Set 6_rs/016a.jpg","null","","","","","","learn","SL",""
"","html-keyboard-response","120","144520","0.0-120.0","""event"",""trial"",""time""
""focus"",""0"",""4191""
""fullscreenenter"",""0"",""5758""
","
","""event"",""trial"",""time""
""focus"",""0"",""4191""
","""event"",""trial"",""time""
""fullscreenenter"",""0"",""5758""
","
","null","<p></p>","null","","","","","","","",""
"","image","121","145555","0.0-121.0","""event"",""trial"",""time""
""focus"",""0"",""4191""
""fullscreenenter"",""0"",""5758""
","
","""event"",""trial"",""time""
""focus"",""0"",""4191""
","""event"",""trial"",""time""
""fullscreenenter"",""0"",""5758""
","
","1033.4000000059605","run_exp/static/images/Set 6_rs/166a.jpg","78","","","","","","learn","SR",""
"","show_choice","122","146527","0.0-122.0","""event"",""trial"",""time""
""focus"",""0"",""4191""
""fullscreenenter"",""0"",""5758""
","
","""event"",""trial"",""time""
""focus"",""0"",""4191""
","""event"",""trial"",""time""
""fullscreenenter"",""0"",""5758""
","
","null","run_exp/static/images/Set 6_rs/166a.jpg","null","","","","","","learn","SR",""
"","html-keyboard-response","123","147034","0.0-123.0","""event"",""trial"",""time""
""focus"",""0"",""4191""
""fullscreenenter"",""0"",""5758""
","
","""event"",""trial"",""time""
""focus"",""0"",""4191""
","""event"",""trial"",""time""
""fullscreenenter"",""0"",""5758""
","
","null","<p></p>","null","","","","","","","",""
"","image","124","147880","0.0-124.0","""event"",""trial"",""time""
""focus"",""0"",""4191""
""fullscreenenter"",""0"",""5758""
","
","""event"",""trial"",""time""
""focus"",""0"",""4191""
","""event"",""trial"",""time""
""fullscreenenter"",""0"",""5758""
","
","843.8000000119209","run_exp/static/images/Set 6_rs/150a.jpg","86","","","","","","learn","SR",""
"","show_choice","125","149039","0.0-125.0","""event"",""trial"",""time""
""focus"",""0"",""4191""
""fullscreenenter"",""0"",""5758""
","
","""event"",""trial"",""time""
""focus"",""0"",""4191""
","""event"",""trial"",""time""
""fullscreenenter"",""0"",""5758""
","
","null","run_exp/static/images/Set 6_rs/150a.jpg","null","","","","","","learn","SR",""
"","html-keyboard-response","126","149541","0.0-126.0","""event"",""trial"",""time""
""focus"",""0"",""4191""
""fullscreenenter"",""0"",""5758""
","
","""event"",""trial"",""time""
""focus"",""0"",""4191""
","""event"",""trial"",""time""
""fullscreenenter"",""0"",""5758""
","
","null","<p></p>","null","","","","","","","",""
"","image","127","150301","0.0-127.0","""event"",""trial"",""time""
""focus"",""0"",""4191""
""fullscreenenter"",""0"",""5758""
","
","""event"",""trial"",""time""
""focus"",""0"",""4191""
","""event"",""trial"",""time""
""fullscreenenter"",""0"",""5758""
","
","758.5","run_exp/static/images/Set 6_rs/071a.jpg","78","","","","","","learn","SL",""
"","show_choice","128","151545","0.0-128.0","""event"",""trial"",""time""
""focus"",""0"",""4191""
""fullscreenenter"",""0"",""5758""
","
","""event"",""trial"",""time""
""focus"",""0"",""4191""
","""event"",""trial"",""time""
""fullscreenenter"",""0"",""5758""
","
","null","run_exp/static/images/Set 6_rs/071a.jpg","null","","","","","","learn","SL",""
"","html-keyboard-response","129","152051","0.0-129.0","""event"",""trial"",""time""
""focus"",""0"",""4191""
""fullscreenenter"",""0"",""5758""
","
","""event"",""trial"",""time""
""focus"",""0"",""4191""
","""event"",""trial"",""time""
""fullscreenenter"",""0"",""5758""
","
","null","<p></p>","null","","","","","","","",""
"","image","130","153125","0.0-130.0","""event"",""trial"",""time""
""focus"",""0"",""4191""
""fullscreenenter"",""0"",""5758""
","
","""event"",""trial"",""time""
""focus"",""0"",""4191""
","""event"",""trial"",""time""
""fullscreenenter"",""0"",""5758""
","
","1072.5999999940395","run_exp/static/images/Set 6_rs/187a.jpg","86","","","","","","learn","SR",""
"","show_choice","131","154059","0.0-131.0","""event"",""trial"",""time""
""focus"",""0"",""4191""
""fullscreenenter"",""0"",""5758""
","
","""event"",""trial"",""time""
""focus"",""0"",""4191""
","""event"",""trial"",""time""
""fullscreenenter"",""0"",""5758""
","
","null","run_exp/static/images/Set 6_rs/187a.jpg","null","","","","","","learn","SR",""
"","html-keyboard-response","132","154560","0.0-132.0","""event"",""trial"",""time""
""focus"",""0"",""4191""
""fullscreenenter"",""0"",""5758""
","
","""event"",""trial"",""time""
""focus"",""0"",""4191""
","""event"",""trial"",""time""
""fullscreenenter"",""0"",""5758""
","
","null","<p></p>","null","","","","","","","",""
"","image","133","155906","0.0-133.0","""event"",""trial"",""time""
""focus"",""0"",""4191""
""fullscreenenter"",""0"",""5758""
","
","""event"",""trial"",""time""
""focus"",""0"",""4191""
","""event"",""trial"",""time""
""fullscreenenter"",""0"",""5758""
","
","1344.9000000059605","run_exp/static/images/Set 6_rs/062a.jpg","86","","","","","","learn","SL",""
"","show_choice","134","156567","0.0-134.0","""event"",""trial"",""time""
""focus"",""0"",""4191""
""fullscreenenter"",""0"",""5758""
","
","""event"",""trial"",""time""
""focus"",""0"",""4191""
","""event"",""trial"",""time""
""fullscreenenter"",""0"",""5758""
","
","null","run_exp/static/images/Set 6_rs/062a.jpg","null","","","","","","learn","SL",""
"","html-keyboard-response","135","157073","0.0-135.0","""event"",""trial"",""time""
""focus"",""0"",""4191""
""fullscreenenter"",""0"",""5758""
","
","""event"",""trial"",""time""
""focus"",""0"",""4191""
","""event"",""trial"",""time""
""fullscreenenter"",""0"",""5758""
","
","null","<p></p>","null","","","","","","","",""
"","image","136","158239","0.0-136.0","""event"",""trial"",""time""
""focus"",""0"",""4191""
""fullscreenenter"",""0"",""5758""
","
","""event"",""trial"",""time""
""focus"",""0"",""4191""
","""event"",""trial"",""time""
""fullscreenenter"",""0"",""5758""
","
","1163.9000000059605","run_exp/static/images/Set 6_rs/168a.jpg","86","","","","","","learn","SL",""
"","show_choice","137","159081","0.0-137.0","""event"",""trial"",""time""
""focus"",""0"",""4191""
""fullscreenenter"",""0"",""5758""
","
","""event"",""trial"",""time""
""focus"",""0"",""4191""
","""event"",""trial"",""time""
""fullscreenenter"",""0"",""5758""
","
","null","run_exp/static/images/Set 6_rs/168a.jpg","null","","","","","","learn","SL",""
"","html-keyboard-response","138","159587","0.0-138.0","""event"",""trial"",""time""
""focus"",""0"",""4191""
""fullscreenenter"",""0"",""5758""
","
","""event"",""trial"",""time""
""focus"",""0"",""4191""
","""event"",""trial"",""time""
""fullscreenenter"",""0"",""5758""
","
","null","<p></p>","null","","","","","","","",""
"","image","139","160627","0.0-139.0","""event"",""trial"",""time""
""focus"",""0"",""4191""
""fullscreenenter"",""0"",""5758""
","
","""event"",""trial"",""time""
""focus"",""0"",""4191""
","""event"",""trial"",""time""
""fullscreenenter"",""0"",""5758""
","
","1038.2999999821186","run_exp/static/images/Set 6_rs/131a.jpg","86","","","","","","learn","SR",""
"","show_choice","140","161595","0.0-140.0","""event"",""trial"",""time""
""focus"",""0"",""4191""
""fullscreenenter"",""0"",""5758""
","
","""event"",""trial"",""time""
""focus"",""0"",""4191""
","""event"",""trial"",""time""
""fullscreenenter"",""0"",""5758""
","
","null","run_exp/static/images/Set 6_rs/131a.jpg","null","","","","","","learn","SR",""
"","html-keyboard-response","141","162098","0.0-141.0","""event"",""trial"",""time""
""focus"",""0"",""4191""
""fullscreenenter"",""0"",""5758""
","
","""event"",""trial"",""time""
""focus"",""0"",""4191""
","""event"",""trial"",""time""
""fullscreenenter"",""0"",""5758""
","
","null","<p></p>","null","","","","","","","",""
"","image","142","162993","0.0-142.0","""event"",""trial"",""time""
""focus"",""0"",""4191""
""fullscreenenter"",""0"",""5758""
","
","""event"",""trial"",""time""
""focus"",""0"",""4191""
","""event"",""trial"",""time""
""fullscreenenter"",""0"",""5758""
","
","893","run_exp/static/images/Set 6_rs/073a.jpg","78","","","","","","learn","SL",""
"","show_choice","143","164107","0.0-143.0","""event"",""trial"",""time""
""focus"",""0"",""4191""
""fullscreenenter"",""0"",""5758""
","
","""event"",""trial"",""time""
""focus"",""0"",""4191""
","""event"",""trial"",""time""
""fullscreenenter"",""0"",""5758""
","
","null","run_exp/static/images/Set 6_rs/073a.jpg","null","","","","","","learn","SL",""
"","html-keyboard-response","144","164613","0.0-144.0","""event"",""trial"",""time""
""focus"",""0"",""4191""
""fullscreenenter"",""0"",""5758""
","
","""event"",""trial"",""time""
""focus"",""0"",""4191""
","""event"",""trial"",""time""
""fullscreenenter"",""0"",""5758""
","
","null","<p></p>","null","","","","","","","",""
"","image","145","166012","0.0-145.0","""event"",""trial"",""time""
""focus"",""0"",""4191""
""fullscreenenter"",""0"",""5758""
","
","""event"",""trial"",""time""
""focus"",""0"",""4191""
","""event"",""trial"",""time""
""fullscreenenter"",""0"",""5758""
","
","1397.300000011921","run_exp/static/images/Set 6_rs/063a.jpg","86","","","","","","learn","SR",""
"","show_choice","146","166621","0.0-146.0","""event"",""trial"",""time""
""focus"",""0"",""4191""
""fullscreenenter"",""0"",""5758""
","
","""event"",""trial"",""time""
""focus"",""0"",""4191""
","""event"",""trial"",""time""
""fullscreenenter"",""0"",""5758""
","
","null","run_exp/static/images/Set 6_rs/063a.jpg","null","","","","","","learn","SR",""
"","html-keyboard-response","147","167125","0.0-147.0","""event"",""trial"",""time""
""focus"",""0"",""4191""
""fullscreenenter"",""0"",""5758""
","
","""event"",""trial"",""time""
""focus"",""0"",""4191""
","""event"",""trial"",""time""
""fullscreenenter"",""0"",""5758""
","
","null","<p></p>","null","","","","","","","",""
"","image","148","167703","0.0-148.0","""event"",""trial"",""time""
""focus"",""0"",""4191""
""fullscreenenter"",""0"",""5758""
","
","""event"",""trial"",""time""
""focus"",""0"",""4191""
","""event"",""trial"",""time""
""fullscreenenter"",""0"",""5758""
","
","574.6000000238419","run_exp/static/images/Set 6_rs/019a.jpg","86","","","","","","learn","SL",""
"","show_choice","149","169134","0.0-149.0","""event"",""trial"",""time""
""focus"",""0"",""4191""
""fullscreenenter"",""0"",""5758""
","
","""event"",""trial"",""time""
""focus"",""0"",""4191""
","""event"",""trial"",""time""
""fullscreenenter"",""0"",""5758""
","
","null","run_exp/static/images/Set 6_rs/019a.jpg","null","","","","","","learn","SL",""
"","html-keyboard-response","150","169635","0.0-150.0","""event"",""trial"",""time""
""focus"",""0"",""4191""
""fullscreenenter"",""0"",""5758""
","
","""event"",""trial"",""time""
""focus"",""0"",""4191""
","""event"",""trial"",""time""
""fullscreenenter"",""0"",""5758""
","
","null","<p></p>","null","","","","","","","",""
"","image","151","170119","0.0-151.0","""event"",""trial"",""time""
""focus"",""0"",""4191""
""fullscreenenter"",""0"",""5758""
","
","""event"",""trial"",""time""
""focus"",""0"",""4191""
","""event"",""trial"",""time""
""fullscreenenter"",""0"",""5758""
","
","482.59999999403954","run_exp/static/images/Set 6_rs/025a.jpg","86","","","","","","learn","SL",""
"","show_choice","152","171642","0.0-152.0","""event"",""trial"",""time""
""focus"",""0"",""4191""
""fullscreenenter"",""0"",""5758""
","
","""event"",""trial"",""time""
""focus"",""0"",""4191""
","""event"",""trial"",""time""
""fullscreenenter"",""0"",""5758""
","
","null","run_exp/static/images/Set 6_rs/025a.jpg","null","","","","","","learn","SL",""
"","html-keyboard-response","153","172149","0.0-153.0","""event"",""trial"",""time""
""focus"",""0"",""4191""
""fullscreenenter"",""0"",""5758""
","
","""event"",""trial"",""time""
""focus"",""0"",""4191""
","""event"",""trial"",""time""
""fullscreenenter"",""0"",""5758""
","
","null","<p></p>","null","","","","","","","",""
"","image","154","173619","0.0-154.0","""event"",""trial"",""time""
""focus"",""0"",""4191""
""fullscreenenter"",""0"",""5758""
","
","""event"",""trial"",""time""
""focus"",""0"",""4191""
","""event"",""trial"",""time""
""fullscreenenter"",""0"",""5758""
","
","1468.199999988079","run_exp/static/images/Set 6_rs/191a.jpg","78","","","","","","learn","SL",""
"","show_choice","155","174156","0.0-155.0","""event"",""trial"",""time""
""focus"",""0"",""4191""
""fullscreenenter"",""0"",""5758""
","
","""event"",""trial"",""time""
""focus"",""0"",""4191""
","""event"",""trial"",""time""
""fullscreenenter"",""0"",""5758""
","
","null","run_exp/static/images/Set 6_rs/191a.jpg","null","","","","","","learn","SL",""
"","html-keyboard-response","156","174658","0.0-156.0","""event"",""trial"",""time""
""focus"",""0"",""4191""
""fullscreenenter"",""0"",""5758""
","
","""event"",""trial"",""time""
""focus"",""0"",""4191""
","""event"",""trial"",""time""
""fullscreenenter"",""0"",""5758""
","
","null","<p></p>","null","","","","","","","",""
"","image","157","175502","0.0-157.0","""event"",""trial"",""time""
""focus"",""0"",""4191""
""fullscreenenter"",""0"",""5758""
","
","""event"",""trial"",""time""
""focus"",""0"",""4191""
","""event"",""trial"",""time""
""fullscreenenter"",""0"",""5758""
","
","841.9000000059605","run_exp/static/images/Set 6_rs/169a.jpg","78","","","","","","learn","SR",""
"","show_choice","158","176667","0.0-158.0","""event"",""trial"",""time""
""focus"",""0"",""4191""
""fullscreenenter"",""0"",""5758""
","
","""event"",""trial"",""time""
""focus"",""0"",""4191""
","""event"",""trial"",""time""
""fullscreenenter"",""0"",""5758""
","
","null","run_exp/static/images/Set 6_rs/169a.jpg","null","","","","","","learn","SR",""
"","html-keyboard-response","159","177171","0.0-159.0","""event"",""trial"",""time""
""focus"",""0"",""4191""
""fullscreenenter"",""0"",""5758""
","
","""event"",""trial"",""time""
""focus"",""0"",""4191""
","""event"",""trial"",""time""
""fullscreenenter"",""0"",""5758""
","
","null","<p></p>","null","","","","","","","",""
"","image","160","178387","0.0-160.0","""event"",""trial"",""time""
""focus"",""0"",""4191""
""fullscreenenter"",""0"",""5758""
","
","""event"",""trial"",""time""
""focus"",""0"",""4191""
","""event"",""trial"",""time""
""fullscreenenter"",""0"",""5758""
","
","1214.7999999821186","run_exp/static/images/Set 6_rs/088a.jpg","86","","","","","","learn","SR",""
"","show_choice","161","179179","0.0-161.0","""event"",""trial"",""time""
""focus"",""0"",""4191""
""fullscreenenter"",""0"",""5758""
","
","""event"",""trial"",""time""
""focus"",""0"",""4191""
","""event"",""trial"",""time""
""fullscreenenter"",""0"",""5758""
","
","null","run_exp/static/images/Set 6_rs/088a.jpg","null","","","","","","learn","SR",""
"","html-keyboard-response","162","179685","0.0-162.0","""event"",""trial"",""time""
""focus"",""0"",""4191""
""fullscreenenter"",""0"",""5758""
","
","""event"",""trial"",""time""
""focus"",""0"",""4191""
","""event"",""trial"",""time""
""fullscreenenter"",""0"",""5758""
","
","null","<p></p>","null","","","","","","","",""
"","image","163","180595","0.0-163.0","""event"",""trial"",""time""
""focus"",""0"",""4191""
""fullscreenenter"",""0"",""5758""
","
","""event"",""trial"",""time""
""focus"",""0"",""4191""
","""event"",""trial"",""time""
""fullscreenenter"",""0"",""5758""
","
","907.7000000178814","run_exp/static/images/Set 6_rs/111a.jpg","86","","","","","","learn","SL",""
"","show_choice","164","181694","0.0-164.0","""event"",""trial"",""time""
""focus"",""0"",""4191""
""fullscreenenter"",""0"",""5758""
","
","""event"",""trial"",""time""
""focus"",""0"",""4191""
","""event"",""trial"",""time""
""fullscreenenter"",""0"",""5758""
","
","null","run_exp/static/images/Set 6_rs/111a.jpg","null","","","","","","learn","SL",""
"","html-keyboard-response","165","182195","0.0-165.0","""event"",""trial"",""time""
""focus"",""0"",""4191""
""fullscreenenter"",""0"",""5758""
","
","""event"",""trial"",""time""
""focus"",""0"",""4191""
","""event"",""trial"",""time""
""fullscreenenter"",""0"",""5758""
","
","null","<p></p>","null","","","","","","","",""
"","image","166","183561","0.0-166.0","""event"",""trial"",""time""
""focus"",""0"",""4191""
""fullscreenenter"",""0"",""5758""
","
","""event"",""trial"",""time""
""focus"",""0"",""4191""
","""event"",""trial"",""time""
""fullscreenenter"",""0"",""5758""
","
","1364.199999988079","run_exp/static/images/Set 6_rs/076a.jpg","78","","","","","","learn","SR",""
"","show_choice","167","184203","0.0-167.0","""event"",""trial"",""time""
""focus"",""0"",""4191""
""fullscreenenter"",""0"",""5758""
","
","""event"",""trial"",""time""
""focus"",""0"",""4191""
","""event"",""trial"",""time""
""fullscreenenter"",""0"",""5758""
","
","null","run_exp/static/images/Set 6_rs/076a.jpg","null","","","","","","learn","SR",""
"","html-keyboard-response","168","184709","0.0-168.0","""event"",""trial"",""time""
""focus"",""0"",""4191""
""fullscreenenter"",""0"",""5758""
","
","""event"",""trial"",""time""
""focus"",""0"",""4191""
","""event"",""trial"",""time""
""fullscreenenter"",""0"",""5758""
","
","null","<p></p>","null","","","","","","","",""
"","image","169","185599","0.0-169.0","""event"",""trial"",""time""
""focus"",""0"",""4191""
""fullscreenenter"",""0"",""5758""
","
","""event"",""trial"",""time""
""focus"",""0"",""4191""
","""event"",""trial"",""time""
""fullscreenenter"",""0"",""5758""
","
","887.7000000178814","run_exp/static/images/Set 6_rs/055a.jpg","86","","","","","","learn","SL",""
"","show_choice","170","186712","0.0-170.0","""event"",""trial"",""time""
""focus"",""0"",""4191""
""fullscreenenter"",""0"",""5758""
","
","""event"",""trial"",""time""
""focus"",""0"",""4191""
","""event"",""trial"",""time""
""fullscreenenter"",""0"",""5758""
","
","null","run_exp/static/images/Set 6_rs/055a.jpg","null","","","","","","learn","SL",""
"","html-keyboard-response","171","187218","0.0-171.0","""event"",""trial"",""time""
""focus"",""0"",""4191""
""fullscreenenter"",""0"",""5758""
","
","""event"",""trial"",""time""
""focus"",""0"",""4191""
","""event"",""trial"",""time""
""fullscreenenter"",""0"",""5758""
","
","null","<p></p>","null","","","","","","","",""
"","image","172","187907","0.0-172.0","""event"",""trial"",""time""
""focus"",""0"",""4191""
""fullscreenenter"",""0"",""5758""
","
","""event"",""trial"",""time""
""focus"",""0"",""4191""
","""event"",""trial"",""time""
""fullscreenenter"",""0"",""5758""
","
","687.4000000059605","run_exp/static/images/Set 6_rs/070a.jpg","86","","","","","","learn","SR",""
"","show_choice","173","189226","0.0-173.0","""event"",""trial"",""time""
""focus"",""0"",""4191""
""fullscreenenter"",""0"",""5758""
","
","""event"",""trial"",""time""
""focus"",""0"",""4191""
","""event"",""trial"",""time""
""fullscreenenter"",""0"",""5758""
","
","null","run_exp/static/images/Set 6_rs/070a.jpg","null","","","","","","learn","SR",""
"","html-keyboard-response","174","189732","0.0-174.0","""event"",""trial"",""time""
""focus"",""0"",""4191""
""fullscreenenter"",""0"",""5758""
","
","""event"",""trial"",""time""
""focus"",""0"",""4191""
","""event"",""trial"",""time""
""fullscreenenter"",""0"",""5758""
","
","null","<p></p>","null","","","","","","","",""
"","image","175","191739","0.0-175.0","""event"",""trial"",""time""
""focus"",""0"",""4191""
""fullscreenenter"",""0"",""5758""
","
","""event"",""trial"",""time""
""focus"",""0"",""4191""
","""event"",""trial"",""time""
""fullscreenenter"",""0"",""5758""
","
","null","run_exp/static/images/Set 6_rs/085a.jpg","null","","","","","","learn","SL",""
"","show_choice","176","193742","0.0-176.0","""event"",""trial"",""time""
""focus"",""0"",""4191""
""fullscreenenter"",""0"",""5758""
","
","""event"",""trial"",""time""
""focus"",""0"",""4191""
","""event"",""trial"",""time""
""fullscreenenter"",""0"",""5758""
","
","null","run_exp/static/images/blank.png","null","","","","","","learn","SL",""
"","html-keyboard-response","177","194249","0.0-177.0","""event"",""trial"",""time""
""focus"",""0"",""4191""
""fullscreenenter"",""0"",""5758""
","
","""event"",""trial"",""time""
""focus"",""0"",""4191""
","""event"",""trial"",""time""
""fullscreenenter"",""0"",""5758""
","
","null","<p></p>","null","","","","","","","",""
"","image","178","195603","0.0-178.0","""event"",""trial"",""time""
""focus"",""0"",""4191""
""fullscreenenter"",""0"",""5758""
","
","""event"",""trial"",""time""
""focus"",""0"",""4191""
","""event"",""trial"",""time""
""fullscreenenter"",""0"",""5758""
","
","1352.5","run_exp/static/images/Set 6_rs/074a.jpg","78","","","","","","learn","SL",""
"","show_choice","179","196257","0.0-179.0","""event"",""trial"",""time""
""focus"",""0"",""4191""
""fullscreenenter"",""0"",""5758""
","
","""event"",""trial"",""time""
""focus"",""0"",""4191""
","""event"",""trial"",""time""
""fullscreenenter"",""0"",""5758""
","
","null","run_exp/static/images/Set 6_rs/074a.jpg","null","","","","","","learn","SL",""
"","html-keyboard-response","180","196761","0.0-180.0","""event"",""trial"",""time""
""focus"",""0"",""4191""
""fullscreenenter"",""0"",""5758""
","
","""event"",""trial"",""time""
""focus"",""0"",""4191""
","""event"",""trial"",""time""
""fullscreenenter"",""0"",""5758""
","
","null","<p></p>","null","","","","","","","",""
"","image","181","198156","0.0-181.0","""event"",""trial"",""time""
""focus"",""0"",""4191""
""fullscreenenter"",""0"",""5758""
","
","""event"",""trial"",""time""
""focus"",""0"",""4191""
","""event"",""trial"",""time""
""fullscreenenter"",""0"",""5758""
","
","1393.8999999761581","run_exp/static/images/Set 6_rs/152a.jpg","86","","","","","","learn","SR",""
"","show_choice","182","198769","0.0-182.0","""event"",""trial"",""time""
""focus"",""0"",""4191""
""fullscreenenter"",""0"",""5758""
","
","""event"",""trial"",""time""
""focus"",""0"",""4191""
","""event"",""trial"",""time""
""fullscreenenter"",""0"",""5758""
","
","null","run_exp/static/images/Set 6_rs/152a.jpg","null","","","","","","learn","SR",""
"","html-keyboard-response","183","199275","0.0-183.0","""event"",""trial"",""time""
""focus"",""0"",""4191""
""fullscreenenter"",""0"",""5758""
","
","""event"",""trial"",""time""
""focus"",""0"",""4191""
","""event"",""trial"",""time""
""fullscreenenter"",""0"",""5758""
","
","null","<p></p>","null","","","","","","","",""
"","image","184","200486","0.0-184.0","""event"",""trial"",""time""
""focus"",""0"",""4191""
""fullscreenenter"",""0"",""5758""
","
","""event"",""trial"",""time""
""focus"",""0"",""4191""
","""event"",""trial"",""time""
""fullscreenenter"",""0"",""5758""
","
","1208.5","run_exp/static/images/Set 6_rs/122a.jpg","86","","","","","","learn","SR",""
"","show_choice","185","201283","0.0-185.0","""event"",""trial"",""time""
""focus"",""0"",""4191""
""fullscreenenter"",""0"",""5758""
","
","""event"",""trial"",""time""
""focus"",""0"",""4191""
","""event"",""trial"",""time""
""fullscreenenter"",""0"",""5758""
","
","null","run_exp/static/images/Set 6_rs/122a.jpg","null","","","","","","learn","SR",""
"","html-keyboard-response","186","201786","0.0-186.0","""event"",""trial"",""time""
""focus"",""0"",""4191""
""fullscreenenter"",""0"",""5758""
","
","""event"",""trial"",""time""
""focus"",""0"",""4191""
","""event"",""trial"",""time""
""fullscreenenter"",""0"",""5758""
","
","null","<p></p>","null","","","","","","","",""
"","image","187","203172","0.0-187.0","""event"",""trial"",""time""
""focus"",""0"",""4191""
""fullscreenenter"",""0"",""5758""
","
","""event"",""trial"",""time""
""focus"",""0"",""4191""
","""event"",""trial"",""time""
""fullscreenenter"",""0"",""5758""
","
","1385.5","run_exp/static/images/Set 6_rs/129a.jpg","86","","","","","","learn","SL",""
"","show_choice","188","203790","0.0-188.0","""event"",""trial"",""time""
""focus"",""0"",""4191""
""fullscreenenter"",""0"",""5758""
","
","""event"",""trial"",""time""
""focus"",""0"",""4191""
","""event"",""trial"",""time""
""fullscreenenter"",""0"",""5758""
","
","null","run_exp/static/images/Set 6_rs/129a.jpg","null","","","","","","learn","SL",""
"","html-keyboard-response","189","204291","0.0-189.0","""event"",""trial"",""time""
""focus"",""0"",""4191""
""fullscreenenter"",""0"",""5758""
","
","""event"",""trial"",""time""
""focus"",""0"",""4191""
","""event"",""trial"",""time""
""fullscreenenter"",""0"",""5758""
","
","null","<p></p>","null","","","","","","","",""
"","image","190","205408","0.0-190.0","""event"",""trial"",""time""
""focus"",""0"",""4191""
""fullscreenenter"",""0"",""5758""
","
","""event"",""trial"",""time""
""focus"",""0"",""4191""
","""event"",""trial"",""time""
""fullscreenenter"",""0"",""5758""
","
","1114.9000000059605","run_exp/static/images/Set 6_rs/008a.jpg","86","","","","","","learn","SL",""
"","show_choice","191","206298","0.0-191.0","""event"",""trial"",""time""
""focus"",""0"",""4191""
""fullscreenenter"",""0"",""5758""
","
","""event"",""trial"",""time""
""focus"",""0"",""4191""
","""event"",""trial"",""time""
""fullscreenenter"",""0"",""5758""
","
","null","run_exp/static/images/Set 6_rs/008a.jpg","null","","","","","","learn","SL",""
"","html-keyboard-response","192","206802","0.0-192.0","""event"",""trial"",""time""
""focus"",""0"",""4191""
""fullscreenenter"",""0"",""5758""
","
","""event"",""trial"",""time""
""focus"",""0"",""4191""
","""event"",""trial"",""time""
""fullscreenenter"",""0"",""5758""
","
","null","<p></p>","null","","","","","","","",""
"","image","193","207592","0.0-193.0","""event"",""trial"",""time""
""focus"",""0"",""4191""
""fullscreenenter"",""0"",""5758""
","
","""event"",""trial"",""time""
""focus"",""0"",""4191""
","""event"",""trial"",""time""
""fullscreenenter"",""0"",""5758""
","
","788.3000000119209","run_exp/static/images/Set 6_rs/075a.jpg","86","","","","","","learn","SR",""
"","show_choice","194","208806","0.0-194.0","""event"",""trial"",""time""
""focus"",""0"",""4191""
""fullscreenenter"",""0"",""5758""
","
","""event"",""trial"",""time""
""focus"",""0"",""4191""
","""event"",""trial"",""time""
""fullscreenenter"",""0"",""5758""
","
","null","run_exp/static/images/Set 6_rs/075a.jpg","null","","","","","","learn","SR",""
"","html-keyboard-response","195","209312","0.0-195.0","""event"",""trial"",""time""
""focus"",""0"",""4191""
""fullscreenenter"",""0"",""5758""
","
","""event"",""trial"",""time""
""focus"",""0"",""4191""
","""event"",""trial"",""time""
""fullscreenenter"",""0"",""5758""
","
","null","<p></p>","null","","","","","","","",""
"","test_intro","196","246141","0.0-196.0","""event"",""trial"",""time""
""focus"",""0"",""4191""
""fullscreenenter"",""0"",""5758""
","
","""event"",""trial"",""time""
""focus"",""0"",""4191""
","""event"",""trial"",""time""
""fullscreenenter"",""0"",""5758""
","
","null","run_exp/static/audio/clip_2_memory.m4a","null","","","","","<div class='center'><p>Now, lets see how much you remember about the items you just saw.  For each item, you need to indicate if it was <b>old</b> by pressing the <b>v</b> key, <b>similar</b> by pressing the <b>b</b> key, or <b>new</b> by pressing the <b>n</b> key.</p><p>Old refers to an item that you saw before in the indoor/outdoor game that you just played, new refers to an item you have <b>not</b> seen before within the indoor/outdoor game, and similar refers to an item that is similar to an item youve seen before but is not exactly the same. </p><p>Before we begin, lets go over some brief demonstrations to make sure you understand.</p></div>","","",""
"","html-keyboard-response","197","288282","0.0-197.0","""event"",""trial"",""time""
""focus"",""0"",""4191""
""fullscreenenter"",""0"",""5758""
","
","""event"",""trial"",""time""
""focus"",""0"",""4191""
","""event"",""trial"",""time""
""fullscreenenter"",""0"",""5758""
","
","42139.80000001192","<div class='center'><p>Now, lets see how much you remember about the items you just saw.  For each item, you need to indicate if it was <b>old</b> by pressing the <b>v</b> key, <b>similar</b> by pressing the <b>b</b> key, or <b>new</b> by pressing the <b>n</b> key.</p><p>Old refers to an item that you saw before in the indoor/outdoor game that you just played, new refers to an item you have <b>not</b> seen before within the indoor/outdoor game, and similar refers to an item that is similar to an item youve seen before but is not exactly the same. </p><p>Before we begin, lets go over some brief demonstrations to make sure you understand.</p><div><p><b>[Press the space bar to continue]</b></p></div>","32","","","","","","","",""
"","items","198","295784","0.0-198.0","""event"",""trial"",""time""
""focus"",""0"",""4191""
""fullscreenenter"",""0"",""5758""
","
","""event"",""trial"",""time""
""focus"",""0"",""4191""
","""event"",""trial"",""time""
""fullscreenenter"",""0"",""5758""
","
","null","run_exp/static/audio/clip_3_items.m4a","null","","","","","","","",""
"","mop","199","300291","0.0-199.0","""event"",""trial"",""time""
""focus"",""0"",""4191""
""fullscreenenter"",""0"",""5758""
","
","""event"",""trial"",""time""
""focus"",""0"",""4191""
","""event"",""trial"",""time""
""fullscreenenter"",""0"",""5758""
","
","null","run_exp/static/audio/clip_4_mop.m4a","null","","","","","","","",""
"","baseball","200","303794","0.0-200.0","""event"",""trial"",""time""
""focus"",""0"",""4191""
""fullscreenenter"",""0"",""5758""
","
","""event"",""trial"",""time""
""focus"",""0"",""4191""
","""event"",""trial"",""time""
""fullscreenenter"",""0"",""5758""
","
","null","run_exp/static/audio/clip_5_baseball.m4a","null","","","","","","","",""
"","trumpet","201","307300","0.0-201.0","""event"",""trial"",""time""
""focus"",""0"",""4191""
""fullscreenenter"",""0"",""5758""
","
","""event"",""trial"",""time""
""focus"",""0"",""4191""
","""event"",""trial"",""time""
""fullscreenenter"",""0"",""5758""
","
","null","run_exp/static/audio/clip_6_trumpet.m4a","null","","","","","","","",""
"","gummies","202","310806","0.0-202.0","""event"",""trial"",""time""
""focus"",""0"",""4191""
""fullscreenenter"",""0"",""5758""
","
","""event"",""trial"",""time""
""focus"",""0"",""4191""
","""event"",""trial"",""time""
""fullscreenenter"",""0"",""5758""
","
","null","run_exp/static/audio/clip_7_gummies.m4a","null","","","","","","","",""
"","osn","203","315313","0.0-203.0","""event"",""trial"",""time""
""focus"",""0"",""4191""
""fullscreenenter"",""0"",""5758""
","
","""event"",""trial"",""time""
""focus"",""0"",""4191""
","""event"",""trial"",""time""
""fullscreenenter"",""0"",""5758""
","
","null","run_exp/static/audio/clip_8_osn.m4a","null","","","","","","","",""
"","old_1","204","321821","0.0-204.0","""event"",""trial"",""time""
""focus"",""0"",""4191""
""fullscreenenter"",""0"",""5758""
","
","""event"",""trial"",""time""
""focus"",""0"",""4191""
","""event"",""trial"",""time""
""fullscreenenter"",""0"",""5758""
","
","null","run_exp/static/audio/clip_9_old_trumpet.m4a","null","","","","","","","",""
"","new_1","205","329328","0.0-205.0","""event"",""trial"",""time""
""focus"",""0"",""4191""
""fullscreenenter"",""0"",""5758""
","
","""event"",""trial"",""time""
""focus"",""0"",""4191""
","""event"",""trial"",""time""
""fullscreenenter"",""0"",""5758""
","
","null","run_exp/static/audio/clip_10_new_balloon.m4a","null","","","","","","","",""
"","similar_1a","206","333836","0.0-206.0","""event"",""trial"",""time""
""focus"",""0"",""4191""
""fullscreenenter"",""0"",""5758""
","
","""event"",""trial"",""time""
""focus"",""0"",""4191""
","""event"",""trial"",""time""
""fullscreenenter"",""0"",""5758""
","
","null","run_exp/static/audio/clip_11a_similar_mop.m4a","null","","","","","","","",""
"","similar_1b","207","340341","0.0-207.0","""event"",""trial"",""time""
""focus"",""0"",""4191""
""fullscreenenter"",""0"",""5758""
","
","""event"",""trial"",""time""
""focus"",""0"",""4191""
","""event"",""trial"",""time""
""fullscreenenter"",""0"",""5758""
","
","null","run_exp/static/audio/clip_11b_similar_mop.m4a","null","","","","","","","",""
"","new_2","208","343846","0.0-208.0","""event"",""trial"",""time""
""focus"",""0"",""4191""
""fullscreenenter"",""0"",""5758""
","
","""event"",""trial"",""time""
""focus"",""0"",""4191""
","""event"",""trial"",""time""
""fullscreenenter"",""0"",""5758""
","
","null","run_exp/static/audio/clip_12_new_stoplight.m4a","null","","","","","","","",""
"","old_2","209","347349","0.0-209.0","""event"",""trial"",""time""
""focus"",""0"",""4191""
""fullscreenenter"",""0"",""5758""
","
","""event"",""trial"",""time""
""focus"",""0"",""4191""
","""event"",""trial"",""time""
""fullscreenenter"",""0"",""5758""
","
","null","run_exp/static/audio/clip_13_old_baseball.m4a","null","","","","","","","",""
"","similar_2a","210","350856","0.0-210.0","""event"",""trial"",""time""
""focus"",""0"",""4191""
""fullscreenenter"",""0"",""5758""
","
","""event"",""trial"",""time""
""focus"",""0"",""4191""
","""event"",""trial"",""time""
""fullscreenenter"",""0"",""5758""
","
","null","run_exp/static/audio/clip_14a_similar_gummies.m4a","null","","","","","","","",""
"","similar_2b","211","358364","0.0-211.0","""event"",""trial"",""time""
""focus"",""0"",""4191""
""fullscreenenter"",""0"",""5758""
","
","""event"",""trial"",""time""
""focus"",""0"",""4191""
","""event"",""trial"",""time""
""fullscreenenter"",""0"",""5758""
","
","null","run_exp/static/audio/clip_14b_similar_gummies.m4a","null","","","","","","","",""
"","practice","212","400477","0.0-212.0","""event"",""trial"",""time""
""focus"",""0"",""4191""
""fullscreenenter"",""0"",""5758""
","
","""event"",""trial"",""time""
""focus"",""0"",""4191""
","""event"",""trial"",""time""
""fullscreenenter"",""0"",""5758""
","
","null","run_exp/static/audio/clip_15_practice.m4a","null","","","","","<div class='center'><p>Lets practice a little to make sure you understand the difference between new, similar, and old. Lets say you saw these three items in the indoor/outdoor game.</p><p> Try your best to remember these images because youll soon be tested on them in a practice game. In the practice game, youll be shown images and youll have to say if they are old (one of the three images belows), similar (similar to one of the images below but not exactly the same), or new (are not one of the images below nor similar to them).</p><p>Once you press the space bar youll be shown these images again but one at time. Then youll begin the practice game.</p><p><img src='run_exp/static/images/tutorial/test/three_indoor_outdoor.png' height='300'></p></div>","","",""
"","html-keyboard-response","213","401523","0.0-213.0","""event"",""trial"",""time""
""focus"",""0"",""4191""
""fullscreenenter"",""0"",""5758""
","
","""event"",""trial"",""time""
""focus"",""0"",""4191""
","""event"",""trial"",""time""
""fullscreenenter"",""0"",""5758""
","
","1043.8999999761581","<div class='center'><p>Lets practice a little to make sure you understand the difference between new, similar, and old. Lets say you saw these three items in the indoor/outdoor game.</p><p> Try your best to remember these images because youll soon be tested on them in a practice game. In the practice game, youll be shown images and youll have to say if they are old (one of the three images belows), similar (similar to one of the images below but not exactly the same), or new (are not one of the images below nor similar to them).</p><p>Once you press the space bar youll be shown these images again but one at time. Then youll begin the practice game.</p><p><img src='run_exp/static/images/tutorial/test/three_indoor_outdoor.png' height='300'></p><div><p><b>[Press the space bar to continue]</b></p></div>","32","","","","","","","",""
"","planet","214","403530","0.0-214.0","""event"",""trial"",""time""
""focus"",""0"",""4191""
""fullscreenenter"",""0"",""5758""
","
","""event"",""trial"",""time""
""focus"",""0"",""4191""
","""event"",""trial"",""time""
""fullscreenenter"",""0"",""5758""
","
","null","run_exp/static/images/tutorial/test/008a.jpg","null","","","","","","","",""
"","boot","215","405537","0.0-215.0","""event"",""trial"",""time""
""focus"",""0"",""4191""
""fullscreenenter"",""0"",""5758""
","
","""event"",""trial"",""time""
""focus"",""0"",""4191""
","""event"",""trial"",""time""
""fullscreenenter"",""0"",""5758""
","
","null","run_exp/static/images/tutorial/test/011a.jpg","null","","","","","","","",""
"","lemon","216","407543","0.0-216.0","""event"",""trial"",""time""
""focus"",""0"",""4191""
""fullscreenenter"",""0"",""5758""
","
","""event"",""trial"",""time""
""focus"",""0"",""4191""
","""event"",""trial"",""time""
""fullscreenenter"",""0"",""5758""
","
","null","run_exp/static/images/tutorial/test/018a.jpg","null","","","","","","","",""
"","practice_q1","217","409933","0.0-217.0","""event"",""trial"",""time""
""focus"",""0"",""4191""
""fullscreenenter"",""0"",""5758""
","
","""event"",""trial"",""time""
""focus"",""0"",""4191""
","""event"",""trial"",""time""
""fullscreenenter"",""0"",""5758""
","
","2386.5999999940395","run_exp/static/audio/clip_16_practice_question.m4a","78","","","","","","","",""
"","correct","218","411808","0.0-218.0-0.0","""event"",""trial"",""time""
""focus"",""0"",""4191""
""fullscreenenter"",""0"",""5758""
","
","""event"",""trial"",""time""
""focus"",""0"",""4191""
","""event"",""trial"",""time""
""fullscreenenter"",""0"",""5758""
","
","null","run_exp/static/audio/clip_17_correct.m4a","null","","","","","<div class='center'><p>That's correct!</p></div>","","",""
"","html-keyboard-response","219","412941","0.0-218.0-1.0","""event"",""trial"",""time""
""focus"",""0"",""4191""
""fullscreenenter"",""0"",""5758""
","
","""event"",""trial"",""time""
""focus"",""0"",""4191""
","""event"",""trial"",""time""
""fullscreenenter"",""0"",""5758""
","
","1130.9000000059605","<div class='center'><p>That's correct!</p><div><p><b>[Press the space bar to continue]</b></p></div>","32","","","","","","","",""
"","practice_q2","220","414756","0.0-218.0-2.0","""event"",""trial"",""time""
""focus"",""0"",""4191""
""fullscreenenter"",""0"",""5758""
","
","""event"",""trial"",""time""
""focus"",""0"",""4191""
","""event"",""trial"",""time""
""fullscreenenter"",""0"",""5758""
","
","1813.0999999940395","run_exp/static/audio/clip_16_practice_question.m4a","86","","","","","","","",""
"","correct","221","416638","0.0-219.0-0.0","""event"",""trial"",""time""
""focus"",""0"",""4191""
""fullscreenenter"",""0"",""5758""
","
","""event"",""trial"",""time""
""focus"",""0"",""4191""
","""event"",""trial"",""time""
""fullscreenenter"",""0"",""5758""
","
","null","run_exp/static/audio/clip_17_correct.m4a","null","","","","","<div class='center'><p>That's correct!</p></div>","","",""
"","html-keyboard-response","222","417227","0.0-219.0-1.0","""event"",""trial"",""time""
""focus"",""0"",""4191""
""fullscreenenter"",""0"",""5758""
","
","""event"",""trial"",""time""
""focus"",""0"",""4191""
","""event"",""trial"",""time""
""fullscreenenter"",""0"",""5758""
","
","587.0999999940395","<div class='center'><p>That's correct!</p><div><p><b>[Press the space bar to continue]</b></p></div>","32","","","","","","","",""
"","practice_q3","223","419298","0.0-219.0-2.0","""event"",""trial"",""time""
""focus"",""0"",""4191""
""fullscreenenter"",""0"",""5758""
","
","""event"",""trial"",""time""
""focus"",""0"",""4191""
","""event"",""trial"",""time""
""fullscreenenter"",""0"",""5758""
","
","2069.5999999940395","run_exp/static/audio/clip_16_practice_question.m4a","66","","","","","","","",""
"","correct","224","421259","0.0-220.0-0.0","""event"",""trial"",""time""
""focus"",""0"",""4191""
""fullscreenenter"",""0"",""5758""
","
","""event"",""trial"",""time""
""focus"",""0"",""4191""
","""event"",""trial"",""time""
""fullscreenenter"",""0"",""5758""
","
","null","run_exp/static/audio/clip_17_correct.m4a","null","","","","","<div class='center'><p>That's correct!</p></div>","","",""
"","html-keyboard-response","225","421937","0.0-220.0-1.0","""event"",""trial"",""time""
""focus"",""0"",""4191""
""fullscreenenter"",""0"",""5758""
","
","""event"",""trial"",""time""
""focus"",""0"",""4191""
","""event"",""trial"",""time""
""fullscreenenter"",""0"",""5758""
","
","677.2999999821186","<div class='center'><p>That's correct!</p><div><p><b>[Press the space bar to continue]</b></p></div>","32","","","","","","","",""
"","begin_text","226","440392","0.0-221.0-0.0","""event"",""trial"",""time""
""focus"",""0"",""4191""
""fullscreenenter"",""0"",""5758""
","
","""event"",""trial"",""time""
""focus"",""0"",""4191""
","""event"",""trial"",""time""
""fullscreenenter"",""0"",""5758""
","
","null","run_exp/static/audio/clip_22_begin_test.m4a","null","","","","","<div class='center'><p>On to the real game where well test your memory of items from the indoor/outdoor game. For each item, you need to indicate if the item is <b>old</b> by pressing the <b>v</b> key, <b>similar</b> by pressing the <b>b</b> key, or <b>new</b> by pressing the <b>n</b> key. </p></div>","","",""
"","html-keyboard-response","227","440875","0.0-221.0-1.0","""event"",""trial"",""time""
""focus"",""0"",""4191""
""fullscreenenter"",""0"",""5758""
","
","""event"",""trial"",""time""
""focus"",""0"",""4191""
","""event"",""trial"",""time""
""fullscreenenter"",""0"",""5758""
","
","480.7999999821186","<div class='center'><p>On to the real game where well test your memory of items from the indoor/outdoor game. For each item, you need to indicate if the item is <b>old</b> by pressing the <b>v</b> key, <b>similar</b> by pressing the <b>b</b> key, or <b>new</b> by pressing the <b>n</b> key. </p><div><p><b>[Press the space bar to continue]</b></p></div>","32","","","","","","","",""
"","image","228","442139","0.0-222.0-0.0","""event"",""trial"",""time""
""focus"",""0"",""4191""
""fullscreenenter"",""0"",""5758""
","
","""event"",""trial"",""time""
""focus"",""0"",""4191""
","""event"",""trial"",""time""
""fullscreenenter"",""0"",""5758""
","
","1261.0999999940395","run_exp/static/images/Set 6_rs/063a.jpg","86","","","","","","test","TR","2"
"","show_choice","229","442644","0.0-222.0-1.0","""event"",""trial"",""time""
""focus"",""0"",""4191""
""fullscreenenter"",""0"",""5758""
","
","""event"",""trial"",""time""
""focus"",""0"",""4191""
","""event"",""trial"",""time""
""fullscreenenter"",""0"",""5758""
","
","null","run_exp/static/images/Set 6_rs/063a.jpg","null","","","","","","test","TR",""
"","html-keyboard-response","230","443151","0.0-222.0-2.0","""event"",""trial"",""time""
""focus"",""0"",""4191""
""fullscreenenter"",""0"",""5758""
","
","""event"",""trial"",""time""
""focus"",""0"",""4191""
","""event"",""trial"",""time""
""fullscreenenter"",""0"",""5758""
","
","null","<p></p>","null","","","","","","","",""
"","image","231","444937","0.0-223.0-0.0","""event"",""trial"",""time""
""focus"",""0"",""4191""
""fullscreenenter"",""0"",""5758""
","
","""event"",""trial"",""time""
""focus"",""0"",""4191""
","""event"",""trial"",""time""
""fullscreenenter"",""0"",""5758""
","
","1784.7999999821186","run_exp/static/images/Set 6_rs/172a.jpg","86","","","","","","test","TR","1"
"","show_choice","232","445442","0.0-223.0-1.0","""event"",""trial"",""time""
""focus"",""0"",""4191""
""fullscreenenter"",""0"",""5758""
","
","""event"",""trial"",""time""
""focus"",""0"",""4191""
","""event"",""trial"",""time""
""fullscreenenter"",""0"",""5758""
","
","null","run_exp/static/images/Set 6_rs/172a.jpg","null","","","","","","test","TR",""
"","html-keyboard-response","233","445945","0.0-223.0-2.0","""event"",""trial"",""time""
""focus"",""0"",""4191""
""fullscreenenter"",""0"",""5758""
","
","""event"",""trial"",""time""
""focus"",""0"",""4191""
","""event"",""trial"",""time""
""fullscreenenter"",""0"",""5758""
","
","null","<p></p>","null","","","","","","","",""
"","image","234","447157","0.0-224.0-0.0","""event"",""trial"",""time""
""focus"",""0"",""4191""
""fullscreenenter"",""0"",""5758""
","
","""event"",""trial"",""time""
""focus"",""0"",""4191""
","""event"",""trial"",""time""
""fullscreenenter"",""0"",""5758""
","
","1210.300000011921","run_exp/static/images/Set 6_rs/171a.jpg","78","","","","","","test","TF","1"
"","show_choice","235","447662","0.0-224.0-1.0","""event"",""trial"",""time""
""focus"",""0"",""4191""
""fullscreenenter"",""0"",""5758""
","
","""event"",""trial"",""time""
""focus"",""0"",""4191""
","""event"",""trial"",""time""
""fullscreenenter"",""0"",""5758""
","
","null","run_exp/static/images/Set 6_rs/171a.jpg","null","","","","","","test","TF",""
"","html-keyboard-response","236","448169","0.0-224.0-2.0","""event"",""trial"",""time""
""focus"",""0"",""4191""
""fullscreenenter"",""0"",""5758""
","
","""event"",""trial"",""time""
""focus"",""0"",""4191""
","""event"",""trial"",""time""
""fullscreenenter"",""0"",""5758""
","
","null","<p></p>","null","","","","","","","",""
"","image","237","449007","0.0-225.0-0.0","""event"",""trial"",""time""
""focus"",""0"",""4191""
""fullscreenenter"",""0"",""5758""
","
","""event"",""trial"",""time""
""focus"",""0"",""4191""
","""event"",""trial"",""time""
""fullscreenenter"",""0"",""5758""
","
","835.8999999761581","run_exp/static/images/Set 6_rs/112a.jpg","86","","","","","","test","TR","5"
"","show_choice","238","449512","0.0-225.0-1.0","""event"",""trial"",""time""
""focus"",""0"",""4191""
""fullscreenenter"",""0"",""5758""
","
","""event"",""trial"",""time""
""focus"",""0"",""4191""
","""event"",""trial"",""time""
""fullscreenenter"",""0"",""5758""
","
","null","run_exp/static/images/Set 6_rs/112a.jpg","null","","","","","","test","TR",""
"","html-keyboard-response","239","450018","0.0-225.0-2.0","""event"",""trial"",""time""
""focus"",""0"",""4191""
""fullscreenenter"",""0"",""5758""
","
","""event"",""trial"",""time""
""focus"",""0"",""4191""
","""event"",""trial"",""time""
""fullscreenenter"",""0"",""5758""
","
","null","<p></p>","null","","","","","","","",""
"","image","240","450749","0.0-226.0-0.0","""event"",""trial"",""time""
""focus"",""0"",""4191""
""fullscreenenter"",""0"",""5758""
","
","""event"",""trial"",""time""
""focus"",""0"",""4191""
","""event"",""trial"",""time""
""fullscreenenter"",""0"",""5758""
","
","728.7000000178814","run_exp/static/images/Set 6_rs/166a.jpg","86","","","","","","test","TR","1"
"","show_choice","241","451253","0.0-226.0-1.0","""event"",""trial"",""time""
""focus"",""0"",""4191""
""fullscreenenter"",""0"",""5758""
","
","""event"",""trial"",""time""
""focus"",""0"",""4191""
","""event"",""trial"",""time""
""fullscreenenter"",""0"",""5758""
","
","null","run_exp/static/images/Set 6_rs/166a.jpg","null","","","","","","test","TR",""
"","html-keyboard-response","242","451760","0.0-226.0-2.0","""event"",""trial"",""time""
""focus"",""0"",""4191""
""fullscreenenter"",""0"",""5758""
","
","""event"",""trial"",""time""
""focus"",""0"",""4191""
","""event"",""trial"",""time""
""fullscreenenter"",""0"",""5758""
","
","null","<p></p>","null","","","","","","","",""
"","image","243","453414","0.0-227.0-0.0","""event"",""trial"",""time""
""focus"",""0"",""4191""
""fullscreenenter"",""0"",""5758""
","
","""event"",""trial"",""time""
""focus"",""0"",""4191""
","""event"",""trial"",""time""
""fullscreenenter"",""0"",""5758""
","
","1652.2999999821186","run_exp/static/images/Set 6_rs/086a.jpg","78","","","","","","test","TF","1"
"","show_choice","244","453916","0.0-227.0-1.0","""event"",""trial"",""time""
""focus"",""0"",""4191""
""fullscreenenter"",""0"",""5758""
","
","""event"",""trial"",""time""
""focus"",""0"",""4191""
","""event"",""trial"",""time""
""fullscreenenter"",""0"",""5758""
","
","null","run_exp/static/images/Set 6_rs/086a.jpg","null","","","","","","test","TF",""
"","html-keyboard-response","245","454421","0.0-227.0-2.0","""event"",""trial"",""time""
""focus"",""0"",""4191""
""fullscreenenter"",""0"",""5758""
","
","""event"",""trial"",""time""
""focus"",""0"",""4191""
","""event"",""trial"",""time""
""fullscreenenter"",""0"",""5758""
","
","null","<p></p>","null","","","","","","","",""
"","image","246","455552","0.0-228.0-0.0","""event"",""trial"",""time""
""focus"",""0"",""4191""
""fullscreenenter"",""0"",""5758""
","
","""event"",""trial"",""time""
""focus"",""0"",""4191""
","""event"",""trial"",""time""
""fullscreenenter"",""0"",""5758""
","
","1128.800000011921","run_exp/static/images/Set 6_rs/076a.jpg","86","","","","","","test","TR","4"
"","show_choice","247","456057","0.0-228.0-1.0","""event"",""trial"",""time""
""focus"",""0"",""4191""
""fullscreenenter"",""0"",""5758""
","
","""event"",""trial"",""time""
""focus"",""0"",""4191""
","""event"",""trial"",""time""
""fullscreenenter"",""0"",""5758""
","
","null","run_exp/static/images/Set 6_rs/076a.jpg","null","","","","","","test","TR",""
"","html-keyboard-response","248","456563","0.0-228.0-2.0","""event"",""trial"",""time""
""focus"",""0"",""4191""
""fullscreenenter"",""0"",""5758""
","
","""event"",""trial"",""time""
""focus"",""0"",""4191""
","""event"",""trial"",""time""
""fullscreenenter"",""0"",""5758""
","
","null","<p></p>","null","","","","","","","",""
"","image","249","457527","0.0-229.0-0.0","""event"",""trial"",""time""
""focus"",""0"",""4191""
""fullscreenenter"",""0"",""5758""
","
","""event"",""trial"",""time""
""focus"",""0"",""4191""
","""event"",""trial"",""time""
""fullscreenenter"",""0"",""5758""
","
","961.7000000178814","run_exp/static/images/Set 6_rs/169a.jpg","86","","","","","","test","TR","4"
"","show_choice","250","458032","0.0-229.0-1.0","""event"",""trial"",""time""
""focus"",""0"",""4191""
""fullscreenenter"",""0"",""5758""
","
","""event"",""trial"",""time""
""focus"",""0"",""4191""
","""event"",""trial"",""time""
""fullscreenenter"",""0"",""5758""
","
","null","run_exp/static/images/Set 6_rs/169a.jpg","null","","","","","","test","TR",""
"","html-keyboard-response","251","458539","0.0-229.0-2.0","""event"",""trial"",""time""
""focus"",""0"",""4191""
""fullscreenenter"",""0"",""5758""
","
","""event"",""trial"",""time""
""focus"",""0"",""4191""
","""event"",""trial"",""time""
""fullscreenenter"",""0"",""5758""
","
","null","<p></p>","null","","","","","","","",""
"","image","252","459773","0.0-230.0-0.0","""event"",""trial"",""time""
""focus"",""0"",""4191""
""fullscreenenter"",""0"",""5758""
","
","""event"",""trial"",""time""
""focus"",""0"",""4191""
","""event"",""trial"",""time""
""fullscreenenter"",""0"",""5758""
","
","1231.5999999940395","run_exp/static/images/Set 6_rs/066b.jpg","66","","","","","","test","TL","5"
"","show_choice","253","460277","0.0-230.0-1.0","""event"",""trial"",""time""
""focus"",""0"",""4191""
""fullscreenenter"",""0"",""5758""
","
","""event"",""trial"",""time""
""focus"",""0"",""4191""
","""event"",""trial"",""time""
""fullscreenenter"",""0"",""5758""
","
","null","run_exp/static/images/Set 6_rs/066b.jpg","null","","","","","","test","TL",""
"","html-keyboard-response","254","460781","0.0-230.0-2.0","""event"",""trial"",""time""
""focus"",""0"",""4191""
""fullscreenenter"",""0"",""5758""
","
","""event"",""trial"",""time""
""focus"",""0"",""4191""
","""event"",""trial"",""time""
""fullscreenenter"",""0"",""5758""
","
","null","<p></p>","null","","","","","","","",""
"","image","255","461878","0.0-231.0-0.0","""event"",""trial"",""time""
""focus"",""0"",""4191""
""fullscreenenter"",""0"",""5758""
","
","""event"",""trial"",""time""
""focus"",""0"",""4191""
","""event"",""trial"",""time""
""fullscreenenter"",""0"",""5758""
","
","1095.300000011921","run_exp/static/images/Set 6_rs/085b.jpg","86","","","","","","test","TL","1"
"","show_choice","256","462380","0.0-231.0-1.0","""event"",""trial"",""time""
""focus"",""0"",""4191""
""fullscreenenter"",""0"",""5758""
","
","""event"",""trial"",""time""
""focus"",""0"",""4191""
","""event"",""trial"",""time""
""fullscreenenter"",""0"",""5758""
","
","null","run_exp/static/images/Set 6_rs/085b.jpg","null","","","","","","test","TL",""
"","html-keyboard-response","257","462886","0.0-231.0-2.0","""event"",""trial"",""time""
""focus"",""0"",""4191""
""fullscreenenter"",""0"",""5758""
","
","""event"",""trial"",""time""
""focus"",""0"",""4191""
","""event"",""trial"",""time""
""fullscreenenter"",""0"",""5758""
","
","null","<p></p>","null","","","","","","","",""
"","image","258","463666","0.0-232.0-0.0","""event"",""trial"",""time""
""focus"",""0"",""4191""
""fullscreenenter"",""0"",""5758""
","
","""event"",""trial"",""time""
""focus"",""0"",""4191""
","""event"",""trial"",""time""
""fullscreenenter"",""0"",""5758""
","
","777.6000000238419","run_exp/static/images/Set 6_rs/126a.jpg","86","","","","","","test","TR","2"
"","show_choice","259","464171","0.0-232.0-1.0","""event"",""trial"",""time""
""focus"",""0"",""4191""
""fullscreenenter"",""0"",""5758""
","
","""event"",""trial"",""time""
""focus"",""0"",""4191""
","""event"",""trial"",""time""
""fullscreenenter"",""0"",""5758""
","
","null","run_exp/static/images/Set 6_rs/126a.jpg","null","","","","","","test","TR",""
"","html-keyboard-response","260","464678","0.0-232.0-2.0","""event"",""trial"",""time""
""focus"",""0"",""4191""
""fullscreenenter"",""0"",""5758""
","
","""event"",""trial"",""time""
""focus"",""0"",""4191""
","""event"",""trial"",""time""
""fullscreenenter"",""0"",""5758""
","
","null","<p></p>","null","","","","","","","",""
"","image","261","465357","0.0-233.0-0.0","""event"",""trial"",""time""
""focus"",""0"",""4191""
""fullscreenenter"",""0"",""5758""
","
","""event"",""trial"",""time""
""focus"",""0"",""4191""
","""event"",""trial"",""time""
""fullscreenenter"",""0"",""5758""
","
","676.5999999940395","run_exp/static/images/Set 6_rs/186a.jpg","86","","","","","","test","TR","5"
"","show_choice","262","465861","0.0-233.0-1.0","""event"",""trial"",""time""
""focus"",""0"",""4191""
""fullscreenenter"",""0"",""5758""
","
","""event"",""trial"",""time""
""focus"",""0"",""4191""
","""event"",""trial"",""time""
""fullscreenenter"",""0"",""5758""
","
","null","run_exp/static/images/Set 6_rs/186a.jpg","null","","","","","","test","TR",""
"","html-keyboard-response","263","466367","0.0-233.0-2.0","""event"",""trial"",""time""
""focus"",""0"",""4191""
""fullscreenenter"",""0"",""5758""
","
","""event"",""trial"",""time""
""focus"",""0"",""4191""
","""event"",""trial"",""time""
""fullscreenenter"",""0"",""5758""
","
","null","<p></p>","null","","","","","","","",""
"","image","264","467676","0.0-234.0-0.0","""event"",""trial"",""time""
""focus"",""0"",""4191""
""fullscreenenter"",""0"",""5758""
","
","""event"",""trial"",""time""
""focus"",""0"",""4191""
","""event"",""trial"",""time""
""fullscreenenter"",""0"",""5758""
","
","1306.5","run_exp/static/images/Set 6_rs/014b.jpg","66","","","","","","test","TL","5"
"","show_choice","265","468181","0.0-234.0-1.0","""event"",""trial"",""time""
""focus"",""0"",""4191""
""fullscreenenter"",""0"",""5758""
","
