"success","trial_type","trial_index","time_elapsed","internal_node_id","interactions","blur_events","focus_events","fullscreenenter_events","fullscreenexit_events","rt","stimulus","key_press","subject_id","participant_id","age","gender","prompt","phase","condition","lure_bin"
"true","fullscreen","0","6087","0.0-0.0","""event"",""trial"",""time""
""fullscreenenter"",""0"",""5105""
","
","
","""event"",""trial"",""time""
""fullscreenenter"",""0"",""5105""
","
","","","","","","","","","","",""
"","pavlovia","1","6093","0.0-1.0","""event"",""trial"",""time""
""fullscreenenter"",""0"",""5105""
","
","
","""event"",""trial"",""time""
""fullscreenenter"",""0"",""5105""
","
","","","","","","","","","","",""
"","welcome","2","40986","0.0-2.0","""event"",""trial"",""time""
""fullscreenenter"",""0"",""5105""
","
","
","""event"",""trial"",""time""
""fullscreenenter"",""0"",""5105""
","
","null","run_exp/static/audio/clip_1_welcome.m4a","null","590","29","11","Male","<div class='center'><p>Welcome to the third part of the study! First, you'll be shown pictures of items one at a time. For each picture, you have to decide if the item is typically found indoors or outdoors.</p><p>If you think it's usually found indoors, then press <b>v</b> key on your keyboard. If you think it's usually found outdoors, then press the <b>n</b> key.There will be reminders on the screen to help you remember which keys to press. </p><p>If you're not sure whether the item is an indoor item or an outdoor item, go ahead and take a guess but try your best not to skip that choice. </p></div>","","",""
"","html-keyboard-response","3","41680","0.0-3.0","""event"",""trial"",""time""
""fullscreenenter"",""0"",""5105""
","
","
","""event"",""trial"",""time""
""fullscreenenter"",""0"",""5105""
","
","689.8000000119209","<div class='center'><p>Welcome to the third part of the study! First, you'll be shown pictures of items one at a time. For each picture, you have to decide if the item is typically found indoors or outdoors.</p><p>If you think it's usually found indoors, then press <b>v</b> key on your keyboard. If you think it's usually found outdoors, then press the <b>n</b> key.There will be reminders on the screen to help you remember which keys to press. </p><p>If you're not sure whether the item is an indoor item or an outdoor item, go ahead and take a guess but try your best not to skip that choice. </p><div><p><b>[Press the space bar to continue]</b></p></div>","32","","","","","","","",""
"","image","4","43693","0.0-4.0","""event"",""trial"",""time""
""fullscreenenter"",""0"",""5105""
","
","
","""event"",""trial"",""time""
""fullscreenenter"",""0"",""5105""
","
","null","run_exp/static/images/Set 6_rs/008a.jpg","null","","","","","","learn","SL",""
"","show_choice","5","45713","0.0-5.0","""event"",""trial"",""time""
""fullscreenenter"",""0"",""5105""
","
","
","""event"",""trial"",""time""
""fullscreenenter"",""0"",""5105""
","
","null","run_exp/static/images/blank.png","null","","","","","","learn","SL",""
"","html-keyboard-response","6","46233","0.0-6.0","""event"",""trial"",""time""
""fullscreenenter"",""0"",""5105""
","
","
","""event"",""trial"",""time""
""fullscreenenter"",""0"",""5105""
","
","null","<p></p>","null","","","","","","","",""
"","image","7","47280","0.0-7.0","""event"",""trial"",""time""
""fullscreenenter"",""0"",""5105""
","
","
","""event"",""trial"",""time""
""fullscreenenter"",""0"",""5105""
","
","1045.2999999821186","run_exp/static/images/Set 6_rs/023a.jpg","86","","","","","","learn","SR",""
"","show_choice","8","48244","0.0-8.0","""event"",""trial"",""time""
""fullscreenenter"",""0"",""5105""
","
","
","""event"",""trial"",""time""
""fullscreenenter"",""0"",""5105""
","
","null","run_exp/static/images/Set 6_rs/023a.jpg","null","","","","","","learn","SR",""
"","html-keyboard-response","9","48763","0.0-9.0","""event"",""trial"",""time""
""fullscreenenter"",""0"",""5105""
","
","
","""event"",""trial"",""time""
""fullscreenenter"",""0"",""5105""
","
","null","<p></p>","null","","","","","","","",""
"","image","10","49600","0.0-10.0","""event"",""trial"",""time""
""fullscreenenter"",""0"",""5105""
","
","
","""event"",""trial"",""time""
""fullscreenenter"",""0"",""5105""
","
","835","run_exp/static/images/Set 6_rs/073a.jpg","86","","","","","","learn","SL",""
"","show_choice","11","50783","0.0-11.0","""event"",""trial"",""time""
""fullscreenenter"",""0"",""5105""
","
","
","""event"",""trial"",""time""
""fullscreenenter"",""0"",""5105""
","
","null","run_exp/static/images/Set 6_rs/073a.jpg","null","","","","","","learn","SL",""
"","html-keyboard-response","12","51293","0.0-12.0","""event"",""trial"",""time""
""fullscreenenter"",""0"",""5105""
","
","
","""event"",""trial"",""time""
""fullscreenenter"",""0"",""5105""
","
","null","<p></p>","null","","","","","","","",""
"","image","13","52100","0.0-13.0","""event"",""trial"",""time""
""fullscreenenter"",""0"",""5105""
","
","
","""event"",""trial"",""time""
""fullscreenenter"",""0"",""5105""
","
","805.1000000238419","run_exp/static/images/Set 6_rs/050a.jpg","86","","","","","","learn","SL",""
"","show_choice","14","53307","0.0-14.0","""event"",""trial"",""time""
""fullscreenenter"",""0"",""5105""
","
","
","""event"",""trial"",""time""
""fullscreenenter"",""0"",""5105""
","
","null","run_exp/static/images/Set 6_rs/050a.jpg","null","","","","","","learn","SL",""
"","html-keyboard-response","15","53809","0.0-15.0","""event"",""trial"",""time""
""fullscreenenter"",""0"",""5105""
","
","
","""event"",""trial"",""time""
""fullscreenenter"",""0"",""5105""
","
","null","<p></p>","null","","","","","","","",""
"","image","16","54429","0.0-16.0","""event"",""trial"",""time""
""fullscreenenter"",""0"",""5105""
","
","
","""event"",""trial"",""time""
""fullscreenenter"",""0"",""5105""
","
","619.3999999761581","run_exp/static/images/Set 6_rs/138a.jpg","78","","","","","","learn","SL",""
"","show_choice","17","55815","0.0-17.0","""event"",""trial"",""time""
""fullscreenenter"",""0"",""5105""
","
","
","""event"",""trial"",""time""
""fullscreenenter"",""0"",""5105""
","
","null","run_exp/static/images/Set 6_rs/138a.jpg","null","","","","","","learn","SL",""
"","html-keyboard-response","18","56317","0.0-18.0","""event"",""trial"",""time""
""fullscreenenter"",""0"",""5105""
","
","
","""event"",""trial"",""time""
""fullscreenenter"",""0"",""5105""
","
","null","<p></p>","null","","","","","","","",""
"","image","19","57159","0.0-19.0","""event"",""trial"",""time""
""fullscreenenter"",""0"",""5105""
","
","
","""event"",""trial"",""time""
""fullscreenenter"",""0"",""5105""
","
","841.3999999761581","run_exp/static/images/Set 6_rs/064a.jpg","86","","","","","","learn","SR",""
"","show_choice","20","58329","0.0-20.0","""event"",""trial"",""time""
""fullscreenenter"",""0"",""5105""
","
","
","""event"",""trial"",""time""
""fullscreenenter"",""0"",""5105""
","
","null","run_exp/static/images/Set 6_rs/064a.jpg","null","","","","","","learn","SR",""
"","html-keyboard-response","21","58831","0.0-21.0","""event"",""trial"",""time""
""fullscreenenter"",""0"",""5105""
","
","
","""event"",""trial"",""time""
""fullscreenenter"",""0"",""5105""
","
","null","<p></p>","null","","","","","","","",""
"","image","22","60442","0.0-22.0","""event"",""trial"",""time""
""fullscreenenter"",""0"",""5105""
","
","
","""event"",""trial"",""time""
""fullscreenenter"",""0"",""5105""
","
","1608.1000000238419","run_exp/static/images/Set 6_rs/123a.jpg","86","","","","","","learn","SL",""
"","show_choice","23","60845","0.0-23.0","""event"",""trial"",""time""
""fullscreenenter"",""0"",""5105""
","
","
","""event"",""trial"",""time""
""fullscreenenter"",""0"",""5105""
","
","null","run_exp/static/images/Set 6_rs/123a.jpg","null","","","","","","learn","SL",""
"","html-keyboard-response","24","61362","0.0-24.0","""event"",""trial"",""time""
""fullscreenenter"",""0"",""5105""
","
","
","""event"",""trial"",""time""
""fullscreenenter"",""0"",""5105""
","
","null","<p></p>","null","","","","","","","",""
"","image","25","62341","0.0-25.0","""event"",""trial"",""time""
""fullscreenenter"",""0"",""5105""
","
","
","""event"",""trial"",""time""
""fullscreenenter"",""0"",""5105""
","
","977.5999999940395","run_exp/static/images/Set 6_rs/121a.jpg","86","","","","","","learn","SR",""
"","show_choice","26","63374","0.0-26.0","""event"",""trial"",""time""
""fullscreenenter"",""0"",""5105""
","
","
","""event"",""trial"",""time""
""fullscreenenter"",""0"",""5105""
","
","null","run_exp/static/images/Set 6_rs/121a.jpg","null","","","","","","learn","SR",""
"","html-keyboard-response","27","63878","0.0-27.0","""event"",""trial"",""time""
""fullscreenenter"",""0"",""5105""
","
","
","""event"",""trial"",""time""
""fullscreenenter"",""0"",""5105""
","
","null","<p></p>","null","","","","","","","",""
"","image","28","65111","0.0-28.0","""event"",""trial"",""time""
""fullscreenenter"",""0"",""5105""
","
","
","""event"",""trial"",""time""
""fullscreenenter"",""0"",""5105""
","
","1231.0999999940395","run_exp/static/images/Set 6_rs/017a.jpg","86","","","","","","learn","SL",""
"","show_choice","29","65887","0.0-29.0","""event"",""trial"",""time""
""fullscreenenter"",""0"",""5105""
","
","
","""event"",""trial"",""time""
""fullscreenenter"",""0"",""5105""
","
","null","run_exp/static/images/Set 6_rs/017a.jpg","null","","","","","","learn","SL",""
"","html-keyboard-response","30","66403","0.0-30.0","""event"",""trial"",""time""
""fullscreenenter"",""0"",""5105""
","
","
","""event"",""trial"",""time""
""fullscreenenter"",""0"",""5105""
","
","null","<p></p>","null","","","","","","","",""
"","image","31","67832","0.0-31.0","""event"",""trial"",""time""
""fullscreenenter"",""0"",""5105""
","
","
","""event"",""trial"",""time""
""fullscreenenter"",""0"",""5105""
","
","1426","run_exp/static/images/Set 6_rs/066a.jpg","86","","","","","","learn","SL",""
"","show_choice","32","68418","0.0-32.0","""event"",""trial"",""time""
""fullscreenenter"",""0"",""5105""
","
","
","""event"",""trial"",""time""
""fullscreenenter"",""0"",""5105""
","
","null","run_exp/static/images/Set 6_rs/066a.jpg","null","","","","","","learn","SL",""
"","html-keyboard-response","33","68926","0.0-33.0","""event"",""trial"",""time""
""fullscreenenter"",""0"",""5105""
","
","
","""event"",""trial"",""time""
""fullscreenenter"",""0"",""5105""
","
","null","<p></p>","null","","","","","","","",""
"","image","34","70002","0.0-34.0","""event"",""trial"",""time""
""fullscreenenter"",""0"",""5105""
","
","
","""event"",""trial"",""time""
""fullscreenenter"",""0"",""5105""
","
","1073","run_exp/static/images/Set 6_rs/177a.jpg","78","","","","","","learn","SR",""
"","show_choice","35","70946","0.0-35.0","""event"",""trial"",""time""
""fullscreenenter"",""0"",""5105""
","
","
","""event"",""trial"",""time""
""fullscreenenter"",""0"",""5105""
","
","null","run_exp/static/images/Set 6_rs/177a.jpg","null","","","","","","learn","SR",""
"","html-keyboard-response","36","71454","0.0-36.0","""event"",""trial"",""time""
""fullscreenenter"",""0"",""5105""
","
","
","""event"",""trial"",""time""
""fullscreenenter"",""0"",""5105""
","
","null","<p></p>","null","","","","","","","",""
"","image","37","72521","0.0-37.0","""event"",""trial"",""time""
""fullscreenenter"",""0"",""5105""
","
","
","""event"",""trial"",""time""
""fullscreenenter"",""0"",""5105""
","
","1065.699999988079","run_exp/static/images/Set 6_rs/019a.jpg","86","","","","","","learn","SL",""
"","show_choice","38","73472","0.0-38.0","""event"",""trial"",""time""
""fullscreenenter"",""0"",""5105""
","
","
","""event"",""trial"",""time""
""fullscreenenter"",""0"",""5105""
","
","null","run_exp/static/images/Set 6_rs/019a.jpg","null","","","","","","learn","SL",""
"","html-keyboard-response","39","73984","0.0-39.0","""event"",""trial"",""time""
""fullscreenenter"",""0"",""5105""
","
","
","""event"",""trial"",""time""
""fullscreenenter"",""0"",""5105""
","
","null","<p></p>","null","","","","","","","",""
"","image","40","74831","0.0-40.0","""event"",""trial"",""time""
""fullscreenenter"",""0"",""5105""
","
","
","""event"",""trial"",""time""
""fullscreenenter"",""0"",""5105""
","
","844.3000000119209","run_exp/static/images/Set 6_rs/025a.jpg","78","","","","","","learn","SL",""
"","show_choice","41","75989","0.0-41.0","""event"",""trial"",""time""
""fullscreenenter"",""0"",""5105""
","
","
","""event"",""trial"",""time""
""fullscreenenter"",""0"",""5105""
","
","null","run_exp/static/images/Set 6_rs/025a.jpg","null","","","","","","learn","SL",""
"","html-keyboard-response","42","76501","0.0-42.0","""event"",""trial"",""time""
""fullscreenenter"",""0"",""5105""
","
","
","""event"",""trial"",""time""
""fullscreenenter"",""0"",""5105""
","
","null","<p></p>","null","","","","","","","",""
"","image","43","77261","0.0-43.0","""event"",""trial"",""time""
""fullscreenenter"",""0"",""5105""
","
","
","""event"",""trial"",""time""
""fullscreenenter"",""0"",""5105""
","
","757.9000000059605","run_exp/static/images/Set 6_rs/116a.jpg","78","","","","","","learn","SL",""
"","show_choice","44","78517","0.0-44.0","""event"",""trial"",""time""
""fullscreenenter"",""0"",""5105""
","
","
","""event"",""trial"",""time""
""fullscreenenter"",""0"",""5105""
","
","null","run_exp/static/images/Set 6_rs/116a.jpg","null","","","","","","learn","SL",""
"","html-keyboard-response","45","79034","0.0-45.0","""event"",""trial"",""time""
""fullscreenenter"",""0"",""5105""
","
","
","""event"",""trial"",""time""
""fullscreenenter"",""0"",""5105""
","
","null","<p></p>","null","","","","","","","",""
"","image","46","80699","0.0-46.0","""event"",""trial"",""time""
""fullscreenenter"",""0"",""5105""
","
","
","""event"",""trial"",""time""
""fullscreenenter"",""0"",""5105""
","
","1663.5999999940395","run_exp/static/images/Set 6_rs/129a.jpg","86","","","","","","learn","SL",""
"","show_choice","47","81045","0.0-47.0","""event"",""trial"",""time""
""fullscreenenter"",""0"",""5105""
","
","
","""event"",""trial"",""time""
""fullscreenenter"",""0"",""5105""
","
","null","run_exp/static/images/Set 6_rs/129a.jpg","null","","","","","","learn","SL",""
"","html-keyboard-response","48","81552","0.0-48.0","""event"",""trial"",""time""
""fullscreenenter"",""0"",""5105""
","
","
","""event"",""trial"",""time""
""fullscreenenter"",""0"",""5105""
","
","null","<p></p>","null","","","","","","","",""
"","image","49","82951","0.0-49.0","""event"",""trial"",""time""
""fullscreenenter"",""0"",""5105""
","
","
","""event"",""trial"",""time""
""fullscreenenter"",""0"",""5105""
","
","1396.800000011921","run_exp/static/images/Set 6_rs/152a.jpg","86","","","","","","learn","SR",""
"","show_choice","50","83557","0.0-50.0","""event"",""trial"",""time""
""fullscreenenter"",""0"",""5105""
","
","
","""event"",""trial"",""time""
""fullscreenenter"",""0"",""5105""
","
","null","run_exp/static/images/Set 6_rs/152a.jpg","null","","","","","","learn","SR",""
"","html-keyboard-response","51","84073","0.0-51.0","""event"",""trial"",""time""
""fullscreenenter"",""0"",""5105""
","
","
","""event"",""trial"",""time""
""fullscreenenter"",""0"",""5105""
","
","null","<p></p>","null","","","","","","","",""
"","image","52","85280","0.0-52.0","""event"",""trial"",""time""
""fullscreenenter"",""0"",""5105""
","
","
","""event"",""trial"",""time""
""fullscreenenter"",""0"",""5105""
","
","1204.7000000178814","run_exp/static/images/Set 6_rs/131a.jpg","86","","","","","","learn","SR",""
"","show_choice","53","86089","0.0-53.0","""event"",""trial"",""time""
""fullscreenenter"",""0"",""5105""
","
","
","""event"",""trial"",""time""
""fullscreenenter"",""0"",""5105""
","
","null","run_exp/static/images/Set 6_rs/131a.jpg","null","","","","","","learn","SR",""
"","html-keyboard-response","54","86603","0.0-54.0","""event"",""trial"",""time""
""fullscreenenter"",""0"",""5105""
","
","
","""event"",""trial"",""time""
""fullscreenenter"",""0"",""5105""
","
","null","<p></p>","null","","","","","","","",""
"","image","55","88351","0.0-55.0","""event"",""trial"",""time""
""fullscreenenter"",""0"",""5105""
","
","
","""event"",""trial"",""time""
""fullscreenenter"",""0"",""5105""
","
","1745.199999988079","run_exp/static/images/Set 6_rs/167a.jpg","86","","","","","","learn","SL",""
"","show_choice","56","88617","0.0-56.0","""event"",""trial"",""time""
""fullscreenenter"",""0"",""5105""
","
","
","""event"",""trial"",""time""
""fullscreenenter"",""0"",""5105""
","
","null","run_exp/static/images/Set 6_rs/167a.jpg","null","","","","","","learn","SL",""
"","html-keyboard-response","57","89132","0.0-57.0","""event"",""trial"",""time""
""fullscreenenter"",""0"",""5105""
","
","
","""event"",""trial"",""time""
""fullscreenenter"",""0"",""5105""
","
","null","<p></p>","null","","","","","","","",""
"","image","58","90341","0.0-58.0","""event"",""trial"",""time""
""fullscreenenter"",""0"",""5105""
","
","
","""event"",""trial"",""time""
""fullscreenenter"",""0"",""5105""
","
","1206.199999988079","run_exp/static/images/Set 6_rs/117a.jpg","86","","","","","","learn","SL",""
"","show_choice","59","91147","0.0-59.0","""event"",""trial"",""time""
""fullscreenenter"",""0"",""5105""
","
","
","""event"",""trial"",""time""
""fullscreenenter"",""0"",""5105""
","
","null","run_exp/static/images/Set 6_rs/117a.jpg","null","","","","","","learn","SL",""
"","html-keyboard-response","60","91651","0.0-60.0","""event"",""trial"",""time""
""fullscreenenter"",""0"",""5105""
","
","
","""event"",""trial"",""time""
""fullscreenenter"",""0"",""5105""
","
","null","<p></p>","null","","","","","","","",""
"","image","61","92412","0.0-61.0","""event"",""trial"",""time""
""fullscreenenter"",""0"",""5105""
","
","
","""event"",""trial"",""time""
""fullscreenenter"",""0"",""5105""
","
","758.8000000119209","run_exp/static/images/Set 6_rs/079a.jpg","86","","","","","","learn","SL",""
"","show_choice","62","93670","0.0-62.0","""event"",""trial"",""time""
""fullscreenenter"",""0"",""5105""
","
","
","""event"",""trial"",""time""
""fullscreenenter"",""0"",""5105""
","
","null","run_exp/static/images/Set 6_rs/079a.jpg","null","","","","","","learn","SL",""
"","html-keyboard-response","63","94183","0.0-63.0","""event"",""trial"",""time""
""fullscreenenter"",""0"",""5105""
","
","
","""event"",""trial"",""time""
""fullscreenenter"",""0"",""5105""
","
","null","<p></p>","null","","","","","","","",""
"","image","64","95042","0.0-64.0","""event"",""trial"",""time""
""fullscreenenter"",""0"",""5105""
","
","
","""event"",""trial"",""time""
""fullscreenenter"",""0"",""5105""
","
","856.8000000119209","run_exp/static/images/Set 6_rs/166a.jpg","86","","","","","","learn","SR",""
"","show_choice","65","96189","0.0-65.0","""event"",""trial"",""time""
""fullscreenenter"",""0"",""5105""
","
","
","""event"",""trial"",""time""
""fullscreenenter"",""0"",""5105""
","
","null","run_exp/static/images/Set 6_rs/166a.jpg","null","","","","","","learn","SR",""
"","html-keyboard-response","66","96698","0.0-66.0","""event"",""trial"",""time""
""fullscreenenter"",""0"",""5105""
","
","
","""event"",""trial"",""time""
""fullscreenenter"",""0"",""5105""
","
","null","<p></p>","null","","","","","","","",""
"","image","67","98712","0.0-67.0","""event"",""trial"",""time""
""fullscreenenter"",""0"",""5105""
","
","
","""event"",""trial"",""time""
""fullscreenenter"",""0"",""5105""
","
","null","run_exp/static/images/Set 6_rs/187a.jpg","null","","","","","","learn","SR",""
"","show_choice","68","100714","0.0-68.0","""event"",""trial"",""time""
""fullscreenenter"",""0"",""5105""
","
","
","""event"",""trial"",""time""
""fullscreenenter"",""0"",""5105""
","
","null","run_exp/static/images/blank.png","null","","","","","","learn","SR",""
"","html-keyboard-response","69","101225","0.0-69.0","""event"",""trial"",""time""
""fullscreenenter"",""0"",""5105""
","
","
","""event"",""trial"",""time""
""fullscreenenter"",""0"",""5105""
","
","null","<p></p>","null","","","","","","","",""
"","image","70","102181","0.0-70.0","""event"",""trial"",""time""
""fullscreenenter"",""0"",""5105""
","
","
","""event"",""trial"",""time""
""fullscreenenter"",""0"",""5105""
","
","953.9000000059605","run_exp/static/images/Set 6_rs/024a.jpg","86","","","","","","learn","SR",""
"","show_choice","71","103233","0.0-71.0","""event"",""trial"",""time""
""fullscreenenter"",""0"",""5105""
","
","
","""event"",""trial"",""time""
""fullscreenenter"",""0"",""5105""
","
","null","run_exp/static/images/Set 6_rs/024a.jpg","null","","","","","","learn","SR",""
"","html-keyboard-response","72","103747","0.0-72.0","""event"",""trial"",""time""
""fullscreenenter"",""0"",""5105""
","
","
","""event"",""trial"",""time""
""fullscreenenter"",""0"",""5105""
","
","null","<p></p>","null","","","","","","","",""
"","image","73","104690","0.0-73.0","""event"",""trial"",""time""
""fullscreenenter"",""0"",""5105""
","
","
","""event"",""trial"",""time""
""fullscreenenter"",""0"",""5105""
","
","941","run_exp/static/images/Set 6_rs/141a.jpg","86","","","","","","learn","SR",""
"","show_choice","74","105758","0.0-74.0","""event"",""trial"",""time""
""fullscreenenter"",""0"",""5105""
","
","
","""event"",""trial"",""time""
""fullscreenenter"",""0"",""5105""
","
","null","run_exp/static/images/Set 6_rs/141a.jpg","null","","","","","","learn","SR",""
"","html-keyboard-response","75","106273","0.0-75.0","""event"",""trial"",""time""
""fullscreenenter"",""0"",""5105""
","
","
","""event"",""trial"",""time""
""fullscreenenter"",""0"",""5105""
","
","null","<p></p>","null","","","","","","","",""
"","image","76","107159","0.0-76.0","""event"",""trial"",""time""
""fullscreenenter"",""0"",""5105""
","
","
","""event"",""trial"",""time""
""fullscreenenter"",""0"",""5105""
","
","883.8999999761581","run_exp/static/images/Set 6_rs/186a.jpg","86","","","","","","learn","SR",""
"","show_choice","77","108278","0.0-77.0","""event"",""trial"",""time""
""fullscreenenter"",""0"",""5105""
","
","
","""event"",""trial"",""time""
""fullscreenenter"",""0"",""5105""
","
","null","run_exp/static/images/Set 6_rs/186a.jpg","null","","","","","","learn","SR",""
"","html-keyboard-response","78","108781","0.0-78.0","""event"",""trial"",""time""
""fullscreenenter"",""0"",""5105""
","
","
","""event"",""trial"",""time""
""fullscreenenter"",""0"",""5105""
","
","null","<p></p>","null","","","","","","","",""
"","image","79","109680","0.0-79.0","""event"",""trial"",""time""
""fullscreenenter"",""0"",""5105""
","
","
","""event"",""trial"",""time""
""fullscreenenter"",""0"",""5105""
","
","896.6999999880791","run_exp/static/images/Set 6_rs/144a.jpg","86","","","","","","learn","SL",""
"","show_choice","80","110795","0.0-80.0","""event"",""trial"",""time""
""fullscreenenter"",""0"",""5105""
","
","
","""event"",""trial"",""time""
""fullscreenenter"",""0"",""5105""
","
","null","run_exp/static/images/Set 6_rs/144a.jpg","null","","","","","","learn","SL",""
"","html-keyboard-response","81","111299","0.0-81.0","""event"",""trial"",""time""
""fullscreenenter"",""0"",""5105""
","
","
","""event"",""trial"",""time""
""fullscreenenter"",""0"",""5105""
","
","null","<p></p>","null","","","","","","","",""
"","image","82","112341","0.0-82.0","""event"",""trial"",""time""
""fullscreenenter"",""0"",""5105""
","
","
","""event"",""trial"",""time""
""fullscreenenter"",""0"",""5105""
","
","1038.5","run_exp/static/images/Set 6_rs/154a.jpg","86","","","","","","learn","SR",""
"","show_choice","83","113315","0.0-83.0","""event"",""trial"",""time""
""fullscreenenter"",""0"",""5105""
","
","
","""event"",""trial"",""time""
""fullscreenenter"",""0"",""5105""
","
","null","run_exp/static/images/Set 6_rs/154a.jpg","null","","","","","","learn","SR",""
"","html-keyboard-response","84","113816","0.0-84.0","""event"",""trial"",""time""
""fullscreenenter"",""0"",""5105""
","
","
","""event"",""trial"",""time""
""fullscreenenter"",""0"",""5105""
","
","null","<p></p>","null","","","","","","","",""
"","image","85","114601","0.0-85.0","""event"",""trial"",""time""
""fullscreenenter"",""0"",""5105""
","
","
","""event"",""trial"",""time""
""fullscreenenter"",""0"",""5105""
","
","782.1999999880791","run_exp/static/images/Set 6_rs/108a.jpg","78","","","","","","learn","SR",""
"","show_choice","86","115834","0.0-86.0","""event"",""trial"",""time""
""fullscreenenter"",""0"",""5105""
","
","
","""event"",""trial"",""time""
""fullscreenenter"",""0"",""5105""
","
","null","run_exp/static/images/Set 6_rs/108a.jpg","null","","","","","","learn","SR",""
"","html-keyboard-response","87","116344","0.0-87.0","""event"",""trial"",""time""
""fullscreenenter"",""0"",""5105""
","
","
","""event"",""trial"",""time""
""fullscreenenter"",""0"",""5105""
","
","null","<p></p>","null","","","","","","","",""
"","image","88","117030","0.0-88.0","""event"",""trial"",""time""
""fullscreenenter"",""0"",""5105""
","
","
","""event"",""trial"",""time""
""fullscreenenter"",""0"",""5105""
","
","684.3999999761581","run_exp/static/images/Set 6_rs/091a.jpg","78","","","","","","learn","SL",""
"","show_choice","89","118348","0.0-89.0","""event"",""trial"",""time""
""fullscreenenter"",""0"",""5105""
","
","
","""event"",""trial"",""time""
""fullscreenenter"",""0"",""5105""
","
","null","run_exp/static/images/Set 6_rs/091a.jpg","null","","","","","","learn","SL",""
"","html-keyboard-response","90","118850","0.0-90.0","""event"",""trial"",""time""
""fullscreenenter"",""0"",""5105""
","
","
","""event"",""trial"",""time""
""fullscreenenter"",""0"",""5105""
","
","null","<p></p>","null","","","","","","","",""
"","image","91","119841","0.0-91.0","""event"",""trial"",""time""
""fullscreenenter"",""0"",""5105""
","
","
","""event"",""trial"",""time""
""fullscreenenter"",""0"",""5105""
","
","987.5","run_exp/static/images/Set 6_rs/007a.jpg","86","","","","","","learn","SR",""
"","show_choice","92","120865","0.0-92.0","""event"",""trial"",""time""
""fullscreenenter"",""0"",""5105""
","
","
","""event"",""trial"",""time""
""fullscreenenter"",""0"",""5105""
","
","null","run_exp/static/images/Set 6_rs/007a.jpg","null","","","","","","learn","SR",""
"","html-keyboard-response","93","121381","0.0-93.0","""event"",""trial"",""time""
""fullscreenenter"",""0"",""5105""
","
","
","""event"",""trial"",""time""
""fullscreenenter"",""0"",""5105""
","
","null","<p></p>","null","","","","","","","",""
"","image","94","122981","0.0-94.0","""event"",""trial"",""time""
""fullscreenenter"",""0"",""5105""
","
","
","""event"",""trial"",""time""
""fullscreenenter"",""0"",""5105""
","
","1596.5999999940395","run_exp/static/images/Set 6_rs/063a.jpg","86","","","","","","learn","SR",""
"","show_choice","95","123390","0.0-95.0","""event"",""trial"",""time""
""fullscreenenter"",""0"",""5105""
","
","
","""event"",""trial"",""time""
""fullscreenenter"",""0"",""5105""
","
","null","run_exp/static/images/Set 6_rs/063a.jpg","null","","","","","","learn","SR",""
"","html-keyboard-response","96","123896","0.0-96.0","""event"",""trial"",""time""
""fullscreenenter"",""0"",""5105""
","
","
","""event"",""trial"",""time""
""fullscreenenter"",""0"",""5105""
","
","null","<p></p>","null","","","","","","","",""
"","image","97","124869","0.0-97.0","""event"",""trial"",""time""
""fullscreenenter"",""0"",""5105""
","
","
","""event"",""trial"",""time""
""fullscreenenter"",""0"",""5105""
","
","972.0999999940395","run_exp/static/images/Set 6_rs/055a.jpg","86","","","","","","learn","SL",""
"","show_choice","98","125909","0.0-98.0","""event"",""trial"",""time""
""fullscreenenter"",""0"",""5105""
","
","
","""event"",""trial"",""time""
""fullscreenenter"",""0"",""5105""
","
","null","run_exp/static/images/Set 6_rs/055a.jpg","null","","","","","","learn","SL",""
"","html-keyboard-response","99","126415","0.0-99.0","""event"",""trial"",""time""
""fullscreenenter"",""0"",""5105""
","
","
","""event"",""trial"",""time""
""fullscreenenter"",""0"",""5105""
","
","null","<p></p>","null","","","","","","","",""
"","image","100","127150","0.0-100.0","""event"",""trial"",""time""
""fullscreenenter"",""0"",""5105""
","
","
","""event"",""trial"",""time""
""fullscreenenter"",""0"",""5105""
","
","733.2000000178814","run_exp/static/images/Set 6_rs/071a.jpg","78","","","","","","learn","SL",""
"","show_choice","101","128429","0.0-101.0","""event"",""trial"",""time""
""fullscreenenter"",""0"",""5105""
","
","
","""event"",""trial"",""time""
""fullscreenenter"",""0"",""5105""
","
","null","run_exp/static/images/Set 6_rs/071a.jpg","null","","","","","","learn","SL",""
"","html-keyboard-response","102","128938","0.0-102.0","""event"",""trial"",""time""
""fullscreenenter"",""0"",""5105""
","
","
","""event"",""trial"",""time""
""fullscreenenter"",""0"",""5105""
","
","null","<p></p>","null","","","","","","","",""
"","image","103","129729","0.0-103.0","""event"",""trial"",""time""
""fullscreenenter"",""0"",""5105""
","
","
","""event"",""trial"",""time""
""fullscreenenter"",""0"",""5105""
","
","788.9000000059605","run_exp/static/images/Set 6_rs/095a.jpg","86","","","","","","learn","SL",""
"","show_choice","104","130946","0.0-104.0","""event"",""trial"",""time""
""fullscreenenter"",""0"",""5105""
","
","
","""event"",""trial"",""time""
""fullscreenenter"",""0"",""5105""
","
","null","run_exp/static/images/Set 6_rs/095a.jpg","null","","","","","","learn","SL",""
"","html-keyboard-response","105","131461","0.0-105.0","""event"",""trial"",""time""
""fullscreenenter"",""0"",""5105""
","
","
","""event"",""trial"",""time""
""fullscreenenter"",""0"",""5105""
","
","null","<p></p>","null","","","","","","","",""
"","image","106","132941","0.0-106.0","""event"",""trial"",""time""
""fullscreenenter"",""0"",""5105""
","
","
","""event"",""trial"",""time""
""fullscreenenter"",""0"",""5105""
","
","1477.4000000059605","run_exp/static/images/Set 6_rs/126a.jpg","78","","","","","","learn","SR",""
"","show_choice","107","133472","0.0-107.0","""event"",""trial"",""time""
""fullscreenenter"",""0"",""5105""
","
","
","""event"",""trial"",""time""
""fullscreenenter"",""0"",""5105""
","
","null","run_exp/static/images/Set 6_rs/126a.jpg","null","","","","","","learn","SR",""
"","html-keyboard-response","108","133980","0.0-108.0","""event"",""trial"",""time""
""fullscreenenter"",""0"",""5105""
","
","
","""event"",""trial"",""time""
""fullscreenenter"",""0"",""5105""
","
","null","<p></p>","null","","","","","","","",""
"","image","109","134941","0.0-109.0","""event"",""trial"",""time""
""fullscreenenter"",""0"",""5105""
","
","
","""event"",""trial"",""time""
""fullscreenenter"",""0"",""5105""
","
","958.5999999940395","run_exp/static/images/Set 6_rs/088a.jpg","86","","","","","","learn","SR",""
"","show_choice","110","135990","0.0-110.0","""event"",""trial"",""time""
""fullscreenenter"",""0"",""5105""
","
","
","""event"",""trial"",""time""
""fullscreenenter"",""0"",""5105""
","
","null","run_exp/static/images/Set 6_rs/088a.jpg","null","","","","","","learn","SR",""
"","html-keyboard-response","111","136506","0.0-111.0","""event"",""trial"",""time""
""fullscreenenter"",""0"",""5105""
","
","
","""event"",""trial"",""time""
""fullscreenenter"",""0"",""5105""
","
","null","<p></p>","null","","","","","","","",""
"","image","112","138260","0.0-112.0","""event"",""trial"",""time""
""fullscreenenter"",""0"",""5105""
","
","
","""event"",""trial"",""time""
""fullscreenenter"",""0"",""5105""
","
","1751.2999999821186","run_exp/static/images/Set 6_rs/168a.jpg","86","","","","","","learn","SL",""
"","show_choice","113","138511","0.0-113.0","""event"",""trial"",""time""
""fullscreenenter"",""0"",""5105""
","
","
","""event"",""trial"",""time""
""fullscreenenter"",""0"",""5105""
","
","null","run_exp/static/images/Set 6_rs/168a.jpg","null","","","","","","learn","SL",""
"","html-keyboard-response","114","139018","0.0-114.0","""event"",""trial"",""time""
""fullscreenenter"",""0"",""5105""
","
","
","""event"",""trial"",""time""
""fullscreenenter"",""0"",""5105""
","
","null","<p></p>","null","","","","","","","",""
"","image","115","139911","0.0-115.0","""event"",""trial"",""time""
""fullscreenenter"",""0"",""5105""
","
","
","""event"",""trial"",""time""
""fullscreenenter"",""0"",""5105""
","
","890.2999999821186","run_exp/static/images/Set 6_rs/061a.jpg","78","","","","","","learn","SR",""
"","show_choice","116","141035","0.0-116.0","""event"",""trial"",""time""
""fullscreenenter"",""0"",""5105""
","
","
","""event"",""trial"",""time""
""fullscreenenter"",""0"",""5105""
","
","null","run_exp/static/images/Set 6_rs/061a.jpg","null","","","","","","learn","SR",""
"","html-keyboard-response","117","141543","0.0-117.0","""event"",""trial"",""time""
""fullscreenenter"",""0"",""5105""
","
","
","""event"",""trial"",""time""
""fullscreenenter"",""0"",""5105""
","
","null","<p></p>","null","","","","","","","",""
"","image","118","142811","0.0-118.0","""event"",""trial"",""time""
""fullscreenenter"",""0"",""5105""
","
","
","""event"",""trial"",""time""
""fullscreenenter"",""0"",""5105""
","
","1265.2999999821186","run_exp/static/images/Set 6_rs/122a.jpg","78","","","","","","learn","SR",""
"","show_choice","119","143553","0.0-119.0","""event"",""trial"",""time""
""fullscreenenter"",""0"",""5105""
","
","
","""event"",""trial"",""time""
""fullscreenenter"",""0"",""5105""
","
","null","run_exp/static/images/Set 6_rs/122a.jpg","null","","","","","","learn","SR",""
"","html-keyboard-response","120","144061","0.0-120.0","""event"",""trial"",""time""
""fullscreenenter"",""0"",""5105""
","
","
","""event"",""trial"",""time""
""fullscreenenter"",""0"",""5105""
","
","null","<p></p>","null","","","","","","","",""
"","image","121","145080","0.0-121.0","""event"",""trial"",""time""
""fullscreenenter"",""0"",""5105""
","
","
","""event"",""trial"",""time""
""fullscreenenter"",""0"",""5105""
","
","1016.9000000059605","run_exp/static/images/Set 6_rs/045a.jpg","86","","","","","","learn","SR",""
"","show_choice","122","146076","0.0-122.0","""event"",""trial"",""time""
""fullscreenenter"",""0"",""5105""
","
","
","""event"",""trial"",""time""
""fullscreenenter"",""0"",""5105""
","
","null","run_exp/static/images/Set 6_rs/045a.jpg","null","","","","","","learn","SR",""
"","html-keyboard-response","123","146579","0.0-123.0","""event"",""trial"",""time""
""fullscreenenter"",""0"",""5105""
","
","
","""event"",""trial"",""time""
""fullscreenenter"",""0"",""5105""
","
","null","<p></p>","null","","","","","","","",""
"","image","124","147549","0.0-124.0","""event"",""trial"",""time""
""fullscreenenter"",""0"",""5105""
","
","
","""event"",""trial"",""time""
""fullscreenenter"",""0"",""5105""
","
","968.0999999940395","run_exp/static/images/Set 6_rs/006a.jpg","86","","","","","","learn","SL",""
"","show_choice","125","148595","0.0-125.0","""event"",""trial"",""time""
""fullscreenenter"",""0"",""5105""
","
","
","""event"",""trial"",""time""
""fullscreenenter"",""0"",""5105""
","
","null","run_exp/static/images/Set 6_rs/006a.jpg","null","","","","","","learn","SL",""
"","html-keyboard-response","126","149110","0.0-126.0","""event"",""trial"",""time""
""fullscreenenter"",""0"",""5105""
","
","
","""event"",""trial"",""time""
""fullscreenenter"",""0"",""5105""
","
","null","<p></p>","null","","","","","","","",""
"","image","127","150030","0.0-127.0","""event"",""trial"",""time""
""fullscreenenter"",""0"",""5105""
","
","
","""event"",""trial"",""time""
""fullscreenenter"",""0"",""5105""
","
","917.6000000238419","run_exp/static/images/Set 6_rs/134a.jpg","86","","","","","","learn","SR",""
"","show_choice","128","151120","0.0-128.0","""event"",""trial"",""time""
""fullscreenenter"",""0"",""5105""
","
","
","""event"",""trial"",""time""
""fullscreenenter"",""0"",""5105""
","
","null","run_exp/static/images/Set 6_rs/134a.jpg","null","","","","","","learn","SR",""
"","html-keyboard-response","129","151625","0.0-129.0","""event"",""trial"",""time""
""fullscreenenter"",""0"",""5105""
","
","
","""event"",""trial"",""time""
""fullscreenenter"",""0"",""5105""
","
","null","<p></p>","null","","","","","","","",""
"","image","130","152379","0.0-130.0","""event"",""trial"",""time""
""fullscreenenter"",""0"",""5105""
","
","
","""event"",""trial"",""time""
""fullscreenenter"",""0"",""5105""
","
","752.5999999940395","run_exp/static/images/Set 6_rs/172a.jpg","78","","","","","","learn","SR",""
"","show_choice","131","153629","0.0-131.0","""event"",""trial"",""time""
""fullscreenenter"",""0"",""5105""
","
","
","""event"",""trial"",""time""
""fullscreenenter"",""0"",""5105""
","
","null","run_exp/static/images/Set 6_rs/172a.jpg","null","","","","","","learn","SR",""
"","html-keyboard-response","132","154142","0.0-132.0","""event"",""trial"",""time""
""fullscreenenter"",""0"",""5105""
","
","
","""event"",""trial"",""time""
""fullscreenenter"",""0"",""5105""
","
","null","<p></p>","null","","","","","","","",""
"","image","133","155041","0.0-133.0","""event"",""trial"",""time""
""fullscreenenter"",""0"",""5105""
","
","
","""event"",""trial"",""time""
""fullscreenenter"",""0"",""5105""
","
","895.8000000119209","run_exp/static/images/Set 6_rs/016a.jpg","86","","","","","","learn","SL",""
"","show_choice","134","156156","0.0-134.0","""event"",""trial"",""time""
""fullscreenenter"",""0"",""5105""
","
","
","""event"",""trial"",""time""
""fullscreenenter"",""0"",""5105""
","
","null","run_exp/static/images/Set 6_rs/016a.jpg","null","","","","","","learn","SL",""
"","html-keyboard-response","135","156673","0.0-135.0","""event"",""trial"",""time""
""fullscreenenter"",""0"",""5105""
","
","
","""event"",""trial"",""time""
""fullscreenenter"",""0"",""5105""
","
","null","<p></p>","null","","","","","","","",""
"","image","136","157831","0.0-136.0","""event"",""trial"",""time""
""fullscreenenter"",""0"",""5105""
","
","
","""event"",""trial"",""time""
""fullscreenenter"",""0"",""5105""
","
","1155.199999988079","run_exp/static/images/Set 6_rs/012a.jpg","86","","","","","","learn","SR",""
"","show_choice","137","158685","0.0-137.0","""event"",""trial"",""time""
""fullscreenenter"",""0"",""5105""
","
","
","""event"",""trial"",""time""
""fullscreenenter"",""0"",""5105""
","
","null","run_exp/static/images/Set 6_rs/012a.jpg","null","","","","","","learn","SR",""
"","html-keyboard-response","138","159189","0.0-138.0","""event"",""trial"",""time""
""fullscreenenter"",""0"",""5105""
","
","
","""event"",""trial"",""time""
""fullscreenenter"",""0"",""5105""
","
","null","<p></p>","null","","","","","","","",""
"","image","139","160210","0.0-139.0","""event"",""trial"",""time""
""fullscreenenter"",""0"",""5105""
","
","
","""event"",""trial"",""time""
""fullscreenenter"",""0"",""5105""
","
","1018.3000000119209","run_exp/static/images/Set 6_rs/150a.jpg","86","","","","","","learn","SR",""
"","show_choice","140","161197","0.0-140.0","""event"",""trial"",""time""
""fullscreenenter"",""0"",""5105""
","
","
","""event"",""trial"",""time""
""fullscreenenter"",""0"",""5105""
","
","null","run_exp/static/images/Set 6_rs/150a.jpg","null","","","","","","learn","SR",""
"","html-keyboard-response","141","161711","0.0-141.0","""event"",""trial"",""time""
""fullscreenenter"",""0"",""5105""
","
","
","""event"",""trial"",""time""
""fullscreenenter"",""0"",""5105""
","
","null","<p></p>","null","","","","","","","",""
"","image","142","163090","0.0-142.0","""event"",""trial"",""time""
""fullscreenenter"",""0"",""5105""
","
","
","""event"",""trial"",""time""
""fullscreenenter"",""0"",""5105""
","
","1377","run_exp/static/images/Set 6_rs/076a.jpg","78","","","","","","learn","SR",""
"","show_choice","143","163717","0.0-143.0","""event"",""trial"",""time""
""fullscreenenter"",""0"",""5105""
","
","
","""event"",""trial"",""time""
""fullscreenenter"",""0"",""5105""
","
","null","run_exp/static/images/Set 6_rs/076a.jpg","null","","","","","","learn","SR",""
"","html-keyboard-response","144","164223","0.0-144.0","""event"",""trial"",""time""
""fullscreenenter"",""0"",""5105""
","
","
","""event"",""trial"",""time""
""fullscreenenter"",""0"",""5105""
","
","null","<p></p>","null","","","","","","","",""
"","image","145","165320","0.0-145.0","""event"",""trial"",""time""
""fullscreenenter"",""0"",""5105""
","
","
","""event"",""trial"",""time""
""fullscreenenter"",""0"",""5105""
","
","1093.9000000059605","run_exp/static/images/Set 6_rs/074a.jpg","86","","","","","","learn","SL",""
"","show_choice","146","166241","0.0-146.0","""event"",""trial"",""time""
""fullscreenenter"",""0"",""5105""
","
","
","""event"",""trial"",""time""
""fullscreenenter"",""0"",""5105""
","
","null","run_exp/static/images/Set 6_rs/074a.jpg","null","","","","","","learn","SL",""
"","html-keyboard-response","147","166757","0.0-147.0","""event"",""trial"",""time""
""fullscreenenter"",""0"",""5105""
","
","
","""event"",""trial"",""time""
""fullscreenenter"",""0"",""5105""
","
","null","<p></p>","null","","","","","","","",""
"","image","148","168430","0.0-148.0","""event"",""trial"",""time""
""fullscreenenter"",""0"",""5105""
","
","
","""event"",""trial"",""time""
""fullscreenenter"",""0"",""5105""
","
","1670.800000011921","run_exp/static/images/Set 6_rs/089a.jpg","86","","","","","","learn","SL",""
"","show_choice","149","168768","0.0-149.0","""event"",""trial"",""time""
""fullscreenenter"",""0"",""5105""
","
","
","""event"",""trial"",""time""
""fullscreenenter"",""0"",""5105""
","
","null","run_exp/static/images/Set 6_rs/089a.jpg","null","","","","","","learn","SL",""
"","html-keyboard-response","150","169275","0.0-150.0","""event"",""trial"",""time""
""fullscreenenter"",""0"",""5105""
","
","
","""event"",""trial"",""time""
""fullscreenenter"",""0"",""5105""
","
","null","<p></p>","null","","","","","","","",""
"","image","151","170311","0.0-151.0","""event"",""trial"",""time""
""fullscreenenter"",""0"",""5105""
","
","
","""event"",""trial"",""time""
""fullscreenenter"",""0"",""5105""
","
","1033.199999988079","run_exp/static/images/Set 6_rs/075a.jpg","78","","","","","","learn","SR",""
"","show_choice","152","171281","0.0-152.0","""event"",""trial"",""time""
""fullscreenenter"",""0"",""5105""
","
","
","""event"",""trial"",""time""
""fullscreenenter"",""0"",""5105""
","
","null","run_exp/static/images/Set 6_rs/075a.jpg","null","","","","","","learn","SR",""
"","html-keyboard-response","153","171788","0.0-153.0","""event"",""trial"",""time""
""fullscreenenter"",""0"",""5105""
","
","
","""event"",""trial"",""time""
""fullscreenenter"",""0"",""5105""
","
","null","<p></p>","null","","","","","","","",""
"","image","154","172681","0.0-154.0","""event"",""trial"",""time""
""fullscreenenter"",""0"",""5105""
","
","
","""event"",""trial"",""time""
""fullscreenenter"",""0"",""5105""
","
","890.3000000119209","run_exp/static/images/Set 6_rs/085a.jpg","78","","","","","","learn","SL",""
"","show_choice","155","173798","0.0-155.0","""event"",""trial"",""time""
""fullscreenenter"",""0"",""5105""
","
","
","""event"",""trial"",""time""
""fullscreenenter"",""0"",""5105""
","
","null","run_exp/static/images/Set 6_rs/085a.jpg","null","","","","","","learn","SL",""
"","html-keyboard-response","156","174304","0.0-156.0","""event"",""trial"",""time""
""fullscreenenter"",""0"",""5105""
","
","
","""event"",""trial"",""time""
""fullscreenenter"",""0"",""5105""
","
","null","<p></p>","null","","","","","","","",""
"","image","157","175871","0.0-157.0","""event"",""trial"",""time""
""fullscreenenter"",""0"",""5105""
","
","
","""event"",""trial"",""time""
""fullscreenenter"",""0"",""5105""
","
","1564.800000011921","run_exp/static/images/Set 6_rs/014a.jpg","86","","","","","","learn","SL",""
"","show_choice","158","176310","0.0-158.0","""event"",""trial"",""time""
""fullscreenenter"",""0"",""5105""
","
","
","""event"",""trial"",""time""
""fullscreenenter"",""0"",""5105""
","
","null","run_exp/static/images/Set 6_rs/014a.jpg","null","","","","","","learn","SL",""
"","html-keyboard-response","159","176823","0.0-159.0","""event"",""trial"",""time""
""fullscreenenter"",""0"",""5105""
","
","
","""event"",""trial"",""time""
""fullscreenenter"",""0"",""5105""
","
","null","<p></p>","null","","","","","","","",""
"","image","160","178490","0.0-160.0","""event"",""trial"",""time""
""fullscreenenter"",""0"",""5105""
","
","
","""event"",""trial"",""time""
""fullscreenenter"",""0"",""5105""
","
","1664.5999999940395","run_exp/static/images/Set 6_rs/057a.jpg","86","","","","","","learn","SL",""
"","show_choice","161","178838","0.0-161.0","""event"",""trial"",""time""
""fullscreenenter"",""0"",""5105""
","
","
","""event"",""trial"",""time""
""fullscreenenter"",""0"",""5105""
","
","null","run_exp/static/images/Set 6_rs/057a.jpg","null","","","","","","learn","SL",""
"","html-keyboard-response","162","179341","0.0-162.0","""event"",""trial"",""time""
""fullscreenenter"",""0"",""5105""
","
","
","""event"",""trial"",""time""
""fullscreenenter"",""0"",""5105""
","
","null","<p></p>","null","","","","","","","",""
"","image","163","180421","0.0-163.0","""event"",""trial"",""time""
""fullscreenenter"",""0"",""5105""
","
","
","""event"",""trial"",""time""
""fullscreenenter"",""0"",""5105""
","
","1077.7999999821186","run_exp/static/images/Set 6_rs/111a.jpg","86","","","","","","learn","SL",""
"","show_choice","164","181346","0.0-164.0","""event"",""trial"",""time""
""fullscreenenter"",""0"",""5105""
","
","
","""event"",""trial"",""time""
""fullscreenenter"",""0"",""5105""
","
","null","run_exp/static/images/Set 6_rs/111a.jpg","null","","","","","","learn","SL",""
"","html-keyboard-response","165","181855","0.0-165.0","""event"",""trial"",""time""
""fullscreenenter"",""0"",""5105""
","
","
","""event"",""trial"",""time""
""fullscreenenter"",""0"",""5105""
","
","null","<p></p>","null","","","","","","","",""
"","image","166","183181","0.0-166.0","""event"",""trial"",""time""
""fullscreenenter"",""0"",""5105""
","
","
","""event"",""trial"",""time""
""fullscreenenter"",""0"",""5105""
","
","1323.5","run_exp/static/images/Set 6_rs/191a.jpg","86","","","","","","learn","SL",""
"","show_choice","167","183862","0.0-167.0","""event"",""trial"",""time""
""fullscreenenter"",""0"",""5105""
","
","
","""event"",""trial"",""time""
""fullscreenenter"",""0"",""5105""
","
","null","run_exp/static/images/Set 6_rs/191a.jpg","null","","","","","","learn","SL",""
"","html-keyboard-response","168","184371","0.0-168.0","""event"",""trial"",""time""
""fullscreenenter"",""0"",""5105""
","
","
","""event"",""trial"",""time""
""fullscreenenter"",""0"",""5105""
","
","null","<p></p>","null","","","","","","","",""
"","image","169","185360","0.0-169.0","""event"",""trial"",""time""
""fullscreenenter"",""0"",""5105""
","
","
","""event"",""trial"",""time""
""fullscreenenter"",""0"",""5105""
","
","986","run_exp/static/images/Set 6_rs/010a.jpg","86","","","","","","learn","SR",""
"","show_choice","170","186385","0.0-170.0","""event"",""trial"",""time""
""fullscreenenter"",""0"",""5105""
","
","
","""event"",""trial"",""time""
""fullscreenenter"",""0"",""5105""
","
","null","run_exp/static/images/Set 6_rs/010a.jpg","null","","","","","","learn","SR",""
"","html-keyboard-response","171","186891","0.0-171.0","""event"",""trial"",""time""
""fullscreenenter"",""0"",""5105""
","
","
","""event"",""trial"",""time""
""fullscreenenter"",""0"",""5105""
","
","null","<p></p>","null","","","","","","","",""
"","image","172","187710","0.0-172.0","""event"",""trial"",""time""
""fullscreenenter"",""0"",""5105""
","
","
","""event"",""trial"",""time""
""fullscreenenter"",""0"",""5105""
","
","817.4000000059605","run_exp/static/images/Set 6_rs/070a.jpg","86","","","","","","learn","SR",""
"","show_choice","173","188903","0.0-173.0","""event"",""trial"",""time""
""fullscreenenter"",""0"",""5105""
","
","
","""event"",""trial"",""time""
""fullscreenenter"",""0"",""5105""
","
","null","run_exp/static/images/Set 6_rs/070a.jpg","null","","","","","","learn","SR",""
"","html-keyboard-response","174","189420","0.0-174.0","""event"",""trial"",""time""
""fullscreenenter"",""0"",""5105""
","
","
","""event"",""trial"",""time""
""fullscreenenter"",""0"",""5105""
","
","null","<p></p>","null","","","","","","","",""
"","image","175","190329","0.0-175.0","""event"",""trial"",""time""
""fullscreenenter"",""0"",""5105""
","
","
","""event"",""trial"",""time""
""fullscreenenter"",""0"",""5105""
","
","906.9000000059605","run_exp/static/images/Set 6_rs/062a.jpg","86","","","","","","learn","SL",""
"","show_choice","176","191423","0.0-176.0","""event"",""trial"",""time""
""fullscreenenter"",""0"",""5105""
","
","
","""event"",""trial"",""time""
""fullscreenenter"",""0"",""5105""
","
","null","run_exp/static/images/Set 6_rs/062a.jpg","null","","","","","","learn","SL",""
"","html-keyboard-response","177","191937","0.0-177.0","""event"",""trial"",""time""
""fullscreenenter"",""0"",""5105""
","
","
","""event"",""trial"",""time""
""fullscreenenter"",""0"",""5105""
","
","null","<p></p>","null","","","","","","","",""
"","image","178","192940","0.0-178.0","""event"",""trial"",""time""
""fullscreenenter"",""0"",""5105""
","
","
","""event"",""trial"",""time""
""fullscreenenter"",""0"",""5105""
","
","1001.7999999821186","run_exp/static/images/Set 6_rs/112a.jpg","86","","","","","","learn","SR",""
"","show_choice","179","193953","0.0-179.0","""event"",""trial"",""time""
""fullscreenenter"",""0"",""5105""
","
","
","""event"",""trial"",""time""
""fullscreenenter"",""0"",""5105""
","
","null","run_exp/static/images/Set 6_rs/112a.jpg","null","","","","","","learn","SR",""
"","html-keyboard-response","180","194460","0.0-180.0","""event"",""trial"",""time""
""fullscreenenter"",""0"",""5105""
","
","
","""event"",""trial"",""time""
""fullscreenenter"",""0"",""5105""
","
","null","<p></p>","null","","","","","","","",""
"","image","181","195220","0.0-181.0","""event"",""trial"",""time""
""fullscreenenter"",""0"",""5105""
","
","
","""event"",""trial"",""time""
""fullscreenenter"",""0"",""5105""
","
","757.1000000238419","run_exp/static/images/Set 6_rs/178a.jpg","78","","","","","","learn","SR",""
"","show_choice","182","196465","0.0-182.0","""event"",""trial"",""time""
""fullscreenenter"",""0"",""5105""
","
","
","""event"",""trial"",""time""
""fullscreenenter"",""0"",""5105""
","
","null","run_exp/static/images/Set 6_rs/178a.jpg","null","","","","","","learn","SR",""
"","html-keyboard-response","183","196974","0.0-183.0","""event"",""trial"",""time""
""fullscreenenter"",""0"",""5105""
","
","
","""event"",""trial"",""time""
""fullscreenenter"",""0"",""5105""
","
","null","<p></p>","null","","","","","","","",""
"","image","184","197689","0.0-184.0","""event"",""trial"",""time""
""fullscreenenter"",""0"",""5105""
","
","
","""event"",""trial"",""time""
""fullscreenenter"",""0"",""5105""
","
","712.8999999761581","run_exp/static/images/Set 6_rs/169a.jpg","78","","","","","","learn","SR",""
"","show_choice","185","198982","0.0-185.0","""event"",""trial"",""time""
""fullscreenenter"",""0"",""5105""
","
","
","""event"",""trial"",""time""
""fullscreenenter"",""0"",""5105""
","
","null","run_exp/static/images/Set 6_rs/169a.jpg","null","","","","","","learn","SR",""
"","html-keyboard-response","186","199491","0.0-186.0","""event"",""trial"",""time""
""fullscreenenter"",""0"",""5105""
","
","
","""event"",""trial"",""time""
""fullscreenenter"",""0"",""5105""
","
","null","<p></p>","null","","","","","","","",""
"","image","187","200429","0.0-187.0","""event"",""trial"",""time""
""fullscreenenter"",""0"",""5105""
","
","
","""event"",""trial"",""time""
""fullscreenenter"",""0"",""5105""
","
","935.3000000119209","run_exp/static/images/Set 6_rs/036a.jpg","86","","","","","","learn","SL",""
"","show_choice","188","201495","0.0-188.0","""event"",""trial"",""time""
""fullscreenenter"",""0"",""5105""
","
","
","""event"",""trial"",""time""
""fullscreenenter"",""0"",""5105""
","
","null","run_exp/static/images/Set 6_rs/036a.jpg","null","","","","","","learn","SL",""
"","html-keyboard-response","189","202001","0.0-189.0","""event"",""trial"",""time""
""fullscreenenter"",""0"",""5105""
","
","
","""event"",""trial"",""time""
""fullscreenenter"",""0"",""5105""
","
","null","<p></p>","null","","","","","","","",""
"","image","190","203171","0.0-190.0","""event"",""trial"",""time""
""fullscreenenter"",""0"",""5105""
","
","
","""event"",""trial"",""time""
""fullscreenenter"",""0"",""5105""
","
","1166.5","run_exp/static/images/Set 6_rs/132a.jpg","86","","","","","","learn","SR",""
"","show_choice","191","204012","0.0-191.0","""event"",""trial"",""time""
""fullscreenenter"",""0"",""5105""
","
","
","""event"",""trial"",""time""
""fullscreenenter"",""0"",""5105""
","
","null","run_exp/static/images/Set 6_rs/132a.jpg","null","","","","","","learn","SR",""
"","html-keyboard-response","192","204520","0.0-192.0","""event"",""trial"",""time""
""fullscreenenter"",""0"",""5105""
","
","
","""event"",""trial"",""time""
""fullscreenenter"",""0"",""5105""
","
","null","<p></p>","null","","","","","","","",""
"","image","193","205639","0.0-193.0","""event"",""trial"",""time""
""fullscreenenter"",""0"",""5105""
","
","
","""event"",""trial"",""time""
""fullscreenenter"",""0"",""5105""
","
","1117.3999999761581","run_exp/static/images/Set 6_rs/181a.jpg","78","","","","","","learn","SL",""
"","show_choice","194","206526","0.0-194.0","""event"",""trial"",""time""
""fullscreenenter"",""0"",""5105""
","
","
","""event"",""trial"",""time""
""fullscreenenter"",""0"",""5105""
","
","null","run_exp/static/images/Set 6_rs/181a.jpg","null","","","","","","learn","SL",""
"","html-keyboard-response","195","207037","0.0-195.0","""event"",""trial"",""time""
""fullscreenenter"",""0"",""5105""
","
","
","""event"",""trial"",""time""
""fullscreenenter"",""0"",""5105""
","
","null","<p></p>","null","","","","","","","",""
"","test_intro","196","244073","0.0-196.0","""event"",""trial"",""time""
""fullscreenenter"",""0"",""5105""
","
","
","""event"",""trial"",""time""
""fullscreenenter"",""0"",""5105""
","
","null","run_exp/static/audio/clip_2_memory.m4a","null","","","","","<div class='center'><p>Now, lets see how much you remember about the items you just saw.  For each item, you need to indicate if it was <b>old</b> by pressing the <b>v</b> key, <b>similar</b> by pressing the <b>b</b> key, or <b>new</b> by pressing the <b>n</b> key.</p><p>Old refers to an item that you saw before in the indoor/outdoor game that you just played, new refers to an item you have <b>not</b> seen before within the indoor/outdoor game, and similar refers to an item that is similar to an item youve seen before but is not exactly the same. </p><p>Before we begin, lets go over some brief demonstrations to make sure you understand.</p></div>","","",""
"","html-keyboard-response","197","244570","0.0-197.0","""event"",""trial"",""time""
""fullscreenenter"",""0"",""5105""
","
","
","""event"",""trial"",""time""
""fullscreenenter"",""0"",""5105""
","
","488.69999998807907","<div class='center'><p>Now, lets see how much you remember about the items you just saw.  For each item, you need to indicate if it was <b>old</b> by pressing the <b>v</b> key, <b>similar</b> by pressing the <b>b</b> key, or <b>new</b> by pressing the <b>n</b> key.</p><p>Old refers to an item that you saw before in the indoor/outdoor game that you just played, new refers to an item you have <b>not</b> seen before within the indoor/outdoor game, and similar refers to an item that is similar to an item youve seen before but is not exactly the same. </p><p>Before we begin, lets go over some brief demonstrations to make sure you understand.</p><div><p><b>[Press the space bar to continue]</b></p></div>","32","","","","","","","",""
"","items","198","252082","0.0-198.0","""event"",""trial"",""time""
""fullscreenenter"",""0"",""5105""
","
","
","""event"",""trial"",""time""
""fullscreenenter"",""0"",""5105""
","
","null","run_exp/static/audio/clip_3_items.m4a","null","","","","","","","",""
"","mop","199","256591","0.0-199.0","""event"",""trial"",""time""
""fullscreenenter"",""0"",""5105""
","
","
","""event"",""trial"",""time""
""fullscreenenter"",""0"",""5105""
","
","null","run_exp/static/audio/clip_4_mop.m4a","null","","","","","","","",""
"","baseball","200","260106","0.0-200.0","""event"",""trial"",""time""
""fullscreenenter"",""0"",""5105""
","
","
","""event"",""trial"",""time""
""fullscreenenter"",""0"",""5105""
","
","null","run_exp/static/audio/clip_5_baseball.m4a","null","","","","","","","",""
"","trumpet","201","263622","0.0-201.0","""event"",""trial"",""time""
""fullscreenenter"",""0"",""5105""
","
","
","""event"",""trial"",""time""
""fullscreenenter"",""0"",""5105""
","
","null","run_exp/static/audio/clip_6_trumpet.m4a","null","","","","","","","",""
"","gummies","202","267141","0.0-202.0","""event"",""trial"",""time""
""fullscreenenter"",""0"",""5105""
","
","
","""event"",""trial"",""time""
""fullscreenenter"",""0"",""5105""
","
","null","run_exp/static/audio/clip_7_gummies.m4a","null","","","","","","","",""
"","osn","203","271662","0.0-203.0","""event"",""trial"",""time""
""fullscreenenter"",""0"",""5105""
","
","
","""event"",""trial"",""time""
""fullscreenenter"",""0"",""5105""
","
","null","run_exp/static/audio/clip_8_osn.m4a","null","","","","","","","",""
"","old_1","204","278181","0.0-204.0","""event"",""trial"",""time""
""fullscreenenter"",""0"",""5105""
","
","
","""event"",""trial"",""time""
""fullscreenenter"",""0"",""5105""
","
","null","run_exp/static/audio/clip_9_old_trumpet.m4a","null","","","","","","","",""
"","new_1","205","285692","0.0-205.0","""event"",""trial"",""time""
""fullscreenenter"",""0"",""5105""
","
","
","""event"",""trial"",""time""
""fullscreenenter"",""0"",""5105""
","
","null","run_exp/static/audio/clip_10_new_balloon.m4a","null","","","","","","","",""
"","similar_1a","206","290202","0.0-206.0","""event"",""trial"",""time""
""fullscreenenter"",""0"",""5105""
","
","
","""event"",""trial"",""time""
""fullscreenenter"",""0"",""5105""
","
","null","run_exp/static/audio/clip_11a_similar_mop.m4a","null","","","","","","","",""
"","similar_1b","207","296707","0.0-207.0","""event"",""trial"",""time""
""fullscreenenter"",""0"",""5105""
","
","
","""event"",""trial"",""time""
""fullscreenenter"",""0"",""5105""
","
","null","run_exp/static/audio/clip_11b_similar_mop.m4a","null","","","","","","","",""
"","new_2","208","300212","0.0-208.0","""event"",""trial"",""time""
""fullscreenenter"",""0"",""5105""
","
","
","""event"",""trial"",""time""
""fullscreenenter"",""0"",""5105""
","
","null","run_exp/static/audio/clip_12_new_stoplight.m4a","null","","","","","","","",""
"","old_2","209","303721","0.0-209.0","""event"",""trial"",""time""
""fullscreenenter"",""0"",""5105""
","
","
","""event"",""trial"",""time""
""fullscreenenter"",""0"",""5105""
","
","null","run_exp/static/audio/clip_13_old_baseball.m4a","null","","","","","","","",""
"","similar_2a","210","307229","0.0-210.0","""event"",""trial"",""time""
""fullscreenenter"",""0"",""5105""
","
","
","""event"",""trial"",""time""
""fullscreenenter"",""0"",""5105""
","
","null","run_exp/static/audio/clip_14a_similar_gummies.m4a","null","","","","","","","",""
"","similar_2b","211","314752","0.0-211.0","""event"",""trial"",""time""
""fullscreenenter"",""0"",""5105""
","
","
","""event"",""trial"",""time""
""fullscreenenter"",""0"",""5105""
","
","null","run_exp/static/audio/clip_14b_similar_gummies.m4a","null","","","","","","","",""
"","practice","212","356872","0.0-212.0","""event"",""trial"",""time""
""fullscreenenter"",""0"",""5105""
","
","
","""event"",""trial"",""time""
""fullscreenenter"",""0"",""5105""
","
","null","run_exp/static/audio/clip_15_practice.m4a","null","","","","","<div class='center'><p>Lets practice a little to make sure you understand the difference between new, similar, and old. Lets say you saw these three items in the indoor/outdoor game.</p><p> Try your best to remember these images because youll soon be tested on them in a practice game. In the practice game, youll be shown images and youll have to say if they are old (one of the three images belows), similar (similar to one of the images below but not exactly the same), or new (are not one of the images below nor similar to them).</p><p>Once you press the space bar youll be shown these images again but one at time. Then youll begin the practice game.</p><p><img src='run_exp/static/images/tutorial/test/three_indoor_outdoor.png' height='300'></p></div>","","",""
"","html-keyboard-response","213","357607","0.0-213.0","""event"",""trial"",""time""
""fullscreenenter"",""0"",""5105""
","
","
","""event"",""trial"",""time""
""fullscreenenter"",""0"",""5105""
","
","733.5999999940395","<div class='center'><p>Lets practice a little to make sure you understand the difference between new, similar, and old. Lets say you saw these three items in the indoor/outdoor game.</p><p> Try your best to remember these images because youll soon be tested on them in a practice game. In the practice game, youll be shown images and youll have to say if they are old (one of the three images belows), similar (similar to one of the images below but not exactly the same), or new (are not one of the images below nor similar to them).</p><p>Once you press the space bar youll be shown these images again but one at time. Then youll begin the practice game.</p><p><img src='run_exp/static/images/tutorial/test/three_indoor_outdoor.png' height='300'></p><div><p><b>[Press the space bar to continue]</b></p></div>","32","","","","","","","",""
"","planet","214","359621","0.0-214.0","""event"",""trial"",""time""
""fullscreenenter"",""0"",""5105""
","
","
","""event"",""trial"",""time""
""fullscreenenter"",""0"",""5105""
","
","null","run_exp/static/images/tutorial/test/008a.jpg","null","","","","","","","",""
"","boot","215","361631","0.0-215.0","""event"",""trial"",""time""
""fullscreenenter"",""0"",""5105""
","
","
","""event"",""trial"",""time""
""fullscreenenter"",""0"",""5105""
","
","null","run_exp/static/images/tutorial/test/011a.jpg","null","","","","","","","",""
"","lemon","216","363641","0.0-216.0","""event"",""trial"",""time""
""fullscreenenter"",""0"",""5105""
","
","
","""event"",""trial"",""time""
""fullscreenenter"",""0"",""5105""
","
","null","run_exp/static/images/tutorial/test/018a.jpg","null","","","","","","","",""
"","practice_q1","217","367828","0.0-217.0","""event"",""trial"",""time""
""fullscreenenter"",""0"",""5105""
","
","
","""event"",""trial"",""time""
""fullscreenenter"",""0"",""5105""
","
","4186.5","run_exp/static/audio/clip_16_practice_question.m4a","86","","","","","","","",""
"","incorrect_q1","218","370690","0.0-218.0-0.0","""event"",""trial"",""time""
""fullscreenenter"",""0"",""5105""
","
","
","""event"",""trial"",""time""
""fullscreenenter"",""0"",""5105""
","
","null","run_exp/static/audio/clip_18_incorrect_new.m4a","null","","","","","<div class='center'><p>Thats incorrect. Its new.</p></div>","","",""
"","html-keyboard-response","219","371405","0.0-218.0-1.0","""event"",""trial"",""time""
""fullscreenenter"",""0"",""5105""
","
","
","""event"",""trial"",""time""
""fullscreenenter"",""0"",""5105""
","
","714.3000000119209","<div class='center'><p>Thats incorrect. Its new.</p><div><p><b>[Press the space bar to continue]</b></p></div>","32","","","","","","","",""
"","practice_q2","220","374727","0.0-218.0-2.0","""event"",""trial"",""time""
""fullscreenenter"",""0"",""5105""
","
","
","""event"",""trial"",""time""
""fullscreenenter"",""0"",""5105""
","
","3319.7000000178814","run_exp/static/audio/clip_16_practice_question.m4a","86","","","","","","","",""
"","correct","221","376632","0.0-219.0-0.0","""event"",""trial"",""time""
""fullscreenenter"",""0"",""5105""
","
","
","""event"",""trial"",""time""
""fullscreenenter"",""0"",""5105""
","
","null","run_exp/static/audio/clip_17_correct.m4a","null","","","","","<div class='center'><p>That's correct!</p></div>","","",""
"","html-keyboard-response","222","377346","0.0-219.0-1.0","""event"",""trial"",""time""
""fullscreenenter"",""0"",""5105""
","
","
","""event"",""trial"",""time""
""fullscreenenter"",""0"",""5105""
","
","712","<div class='center'><p>That's correct!</p><div><p><b>[Press the space bar to continue]</b></p></div>","32","","","","","","","",""
"","practice_q3","223","378608","0.0-219.0-2.0","""event"",""trial"",""time""
""fullscreenenter"",""0"",""5105""
","
","
","""event"",""trial"",""time""
""fullscreenenter"",""0"",""5105""
","
","1258.1000000238419","run_exp/static/audio/clip_16_practice_question.m4a","66","","","","","","","",""
"","correct","224","380511","0.0-220.0-0.0","""event"",""trial"",""time""
""fullscreenenter"",""0"",""5105""
","
","
","""event"",""trial"",""time""
""fullscreenenter"",""0"",""5105""
","
","null","run_exp/static/audio/clip_17_correct.m4a","null","","","","","<div class='center'><p>That's correct!</p></div>","","",""
"","html-keyboard-response","225","381417","0.0-220.0-1.0","""event"",""trial"",""time""
""fullscreenenter"",""0"",""5105""
","
","
","""event"",""trial"",""time""
""fullscreenenter"",""0"",""5105""
","
","902.7000000178814","<div class='center'><p>That's correct!</p><div><p><b>[Press the space bar to continue]</b></p></div>","32","","","","","","","",""
"","repeat","226","386192","0.0-221.0-0.0","""event"",""trial"",""time""
""fullscreenenter"",""0"",""5105""
","
","
","""event"",""trial"",""time""
""fullscreenenter"",""0"",""5105""
","
","null","run_exp/static/audio/clip_21_practice_again.m4a","null","","","","","<div class='center'><p>Oops. you missed at least one of these questions. Let's try practicing again. </p></div>","","",""
"","html-keyboard-response","227","386877","0.0-221.0-1.0","""event"",""trial"",""time""
""fullscreenenter"",""0"",""5105""
","
","
","""event"",""trial"",""time""
""fullscreenenter"",""0"",""5105""
","
","682.5","<div class='center'><p>Oops. you missed at least one of these questions. Let's try practicing again. </p><div><p><b>[Press the space bar to continue]</b></p></div>","32","","","","","","","",""
"","practice_q1","228","388318","0.0-221.0-2.0","""event"",""trial"",""time""
""fullscreenenter"",""0"",""5105""
","
","
","""event"",""trial"",""time""
""fullscreenenter"",""0"",""5105""
","
","1435.5","run_exp/static/audio/clip_16_practice_question.m4a","78","","","","","","","",""
"","correct","229","390231","0.0-222.0-0.0","""event"",""trial"",""time""
""fullscreenenter"",""0"",""5105""
","
","
","""event"",""trial"",""time""
""fullscreenenter"",""0"",""5105""
","
","null","run_exp/static/audio/clip_17_correct.m4a","null","","","","","<div class='center'><p>That's correct!</p></div>","","",""
"","html-keyboard-response","230","391038","0.0-222.0-1.0","""event"",""trial"",""time""
""fullscreenenter"",""0"",""5105""
","
","
","""event"",""trial"",""time""
""fullscreenenter"",""0"",""5105""
","
","803.9000000059605","<div class='center'><p>That's correct!</p><div><p><b>[Press the space bar to continue]</b></p></div>","32","","","","","","","",""
"","practice_q2","231","392227","0.0-222.0-2.0","""event"",""trial"",""time""
""fullscreenenter"",""0"",""5105""
","
","
","""event"",""trial"",""time""
""fullscreenenter"",""0"",""5105""
","
","1184.800000011921","run_exp/static/audio/clip_16_practice_question.m4a","86","","","","","","","",""
"","correct","232","394130","0.0-223.0-0.0","""event"",""trial"",""time""
""fullscreenenter"",""0"",""5105""
","
","
","""event"",""trial"",""time""
""fullscreenenter"",""0"",""5105""
","
","null","run_exp/static/audio/clip_17_correct.m4a","null","","","","","<div class='center'><p>That's correct!</p></div>","","",""
"","html-keyboard-response","233","394717","0.0-223.0-1.0","""event"",""trial"",""time""
""fullscreenenter"",""0"",""5105""
","
","
","""event"",""trial"",""time""
""fullscreenenter"",""0"",""5105""
","
","585.3999999761581","<div class='center'><p>That's correct!</p><div><p><b>[Press the space bar to continue]</b></p></div>","32","","","","","","","",""
"","practice_q3","234","395367","0.0-223.0-2.0","""event"",""trial"",""time""
""fullscreenenter"",""0"",""5105""
","
","
","""event"",""trial"",""time""
""fullscreenenter"",""0"",""5105""
","
","644.8000000119209","run_exp/static/audio/clip_16_practice_question.m4a","66","","","","","","","",""
"","correct","235","397452","0.0-224.0-0.0","""event"",""trial"",""time""
""fullscreenenter"",""0"",""5105""
","
","
","""event"",""trial"",""time""
""fullscreenenter"",""0"",""5105""
","
","null","run_exp/static/audio/clip_17_correct.m4a","null","","","","","<div class='center'><p>That's correct!</p></div>","","",""
"","html-keyboard-response","236","398068","0.0-224.0-1.0","""event"",""trial"",""time""
""fullscreenenter"",""0"",""5105""
","
","
","""event"",""trial"",""time""
""fullscreenenter"",""0"",""5105""
","
","611.5","<div class='center'><p>That's correct!</p><div><p><b>[Press the space bar to continue]</b></p></div>","32","","","","","","","",""
"","begin_text","237","416570","0.0-225.0-0.0","""event"",""trial"",""time""
""fullscreenenter"",""0"",""5105""
","
","
","""event"",""trial"",""time""
""fullscreenenter"",""0"",""5105""
","
","null","run_exp/static/audio/clip_22_begin_test.m4a","null","","","","","<div class='center'><p>On to the real game where well test your memory of items from the indoor/outdoor game. For each item, you need to indicate if the item is <b>old</b> by pressing the <b>v</b> key, <b>similar</b> by pressing the <b>b</b> key, or <b>new</b> by pressing the <b>n</b> key. </p></div>","","",""
"","html-keyboard-response","238","417688","0.0-225.0-1.0","""event"",""trial"",""time""
""fullscreenenter"",""0"",""5105""
","
","
","""event"",""trial"",""time""
""fullscreenenter"",""0"",""5105""
","
","1115.4000000059605","<div class='center'><p>On to the real game where well test your memory of items from the indoor/outdoor game. For each item, you need to indicate if the item is <b>old</b> by pressing the <b>v</b> key, <b>similar</b> by pressing the <b>b</b> key, or <b>new</b> by pressing the <b>n</b> key. </p><div><p><b>[Press the space bar to continue]</b></p></div>","32","","","","","","","",""
"","image","239","420338","0.0-226.0-0.0","""event"",""trial"",""time""
""fullscreenenter"",""0"",""5105""
","
","
","""event"",""trial"",""time""
""fullscreenenter"",""0"",""5105""
","
","2645.9000000059605","run_exp/static/images/Set 6_rs/085b.jpg","86","","","","","","test","TL","1"
"","show_choice","240","420860","0.0-226.0-1.0","""event"",""trial"",""time""
""fullscreenenter"",""0"",""5105""
","
","
","""event"",""trial"",""time""
""fullscreenenter"",""0"",""5105""
","
","null","run_exp/static/images/Set 6_rs/085b.jpg","null","","","","","","test","TL",""
"","html-keyboard-response","241","421380","0.0-226.0-2.0","""event"",""trial"",""time""
""fullscreenenter"",""0"",""5105""
","
","
","""event"",""trial"",""time""
""fullscreenenter"",""0"",""5105""
","
","null","<p></p>","null","","","","","","","",""
"","image","242","423047","0.0-227.0-0.0","""event"",""trial"",""time""
""fullscreenenter"",""0"",""5105""
","
","
","""event"",""trial"",""time""
""fullscreenenter"",""0"",""5105""
","
","1664.199999988079","run_exp/static/images/Set 6_rs/078a.jpg","78","","","","","","test","TF","1"
"","show_choice","243","423560","0.0-227.0-1.0","""event"",""trial"",""time""
""fullscreenenter"",""0"",""5105""
","
","
","""event"",""trial"",""time""
""fullscreenenter"",""0"",""5105""
","
","null","run_exp/static/images/Set 6_rs/078a.jpg","null","","","","","","test","TF",""
"","html-keyboard-response","244","424080","0.0-227.0-2.0","""event"",""trial"",""time""
""fullscreenenter"",""0"",""5105""
","
","
","""event"",""trial"",""time""
""fullscreenenter"",""0"",""5105""
","
","null","<p></p>","null","","","","","","","",""
"","image","245","425560","0.0-228.0-0.0","""event"",""trial"",""time""
""fullscreenenter"",""0"",""5105""
","
","
","""event"",""trial"",""time""
""fullscreenenter"",""0"",""5105""
","
","1474.7000000178814","run_exp/static/images/Set 6_rs/073b.jpg","66","","","","","","test","TL","3"
"","show_choice","246","426082","0.0-228.0-1.0","""event"",""trial"",""time""
""fullscreenenter"",""0"",""5105""
","
","
","""event"",""trial"",""time""
""fullscreenenter"",""0"",""5105""
","
","null","run_exp/static/images/Set 6_rs/073b.jpg","null","","","","","","test","TL",""
"","html-keyboard-response","247","426602","0.0-228.0-2.0","""event"",""trial"",""time""
""fullscreenenter"",""0"",""5105""
","
","
","""event"",""trial"",""time""
""fullscreenenter"",""0"",""5105""
","
","null","<p></p>","null","","","","","","","",""
"","image","248","428108","0.0-229.0-0.0","""event"",""trial"",""time""
""fullscreenenter"",""0"",""5105""
","
","
","""event"",""trial"",""time""
""fullscreenenter"",""0"",""5105""
","
","1503.2000000178814","run_exp/static/images/Set 6_rs/140a.jpg","66","","","","","","test","TF","1"
"","show_choice","249","428619","0.0-229.0-1.0","""event"",""trial"",""time""
""fullscreenenter"",""0"",""5105""
","
","
","""event"",""trial"",""time""
""fullscreenenter"",""0"",""5105""
","
","null","run_exp/static/images/Set 6_rs/140a.jpg","null","","","","","","test","TF",""
"","html-keyboard-response","250","429137","0.0-229.0-2.0","""event"",""trial"",""time""
""fullscreenenter"",""0"",""5105""
","
","
","""event"",""trial"",""time""
""fullscreenenter"",""0"",""5105""
","
","null","<p></p>","null","","","","","","","",""
"","image","251","431188","0.0-230.0-0.0","""event"",""trial"",""time""
""fullscreenenter"",""0"",""5105""
","
","
","""event"",""trial"",""time""
""fullscreenenter"",""0"",""5105""
","
","2049.2999999821186","run_exp/static/images/Set 6_rs/074b.jpg","66","","","","","","test","TL","4"
"","show_choice","252","431693","0.0-230.0-1.0","""event"",""trial"",""time""
""fullscreenenter"",""0"",""5105""
","
","
","""event"",""trial"",""time""
""fullscreenenter"",""0"",""5105""
","
","null","run_exp/static/images/Set 6_rs/074b.jpg","null","","","","","","test","TL",""
"","html-keyboard-response","253","432204","0.0-230.0-2.0","""event"",""trial"",""time""
""fullscreenenter"",""0"",""5105""
","
","
","""event"",""trial"",""time""
""fullscreenenter"",""0"",""5105""
","
","null","<p></p>","null","","","","","","","",""
"","image","254","433459","0.0-231.0-0.0","""event"",""trial"",""time""
""fullscreenenter"",""0"",""5105""
","
","
","""event"",""trial"",""time""
""fullscreenenter"",""0"",""5105""
","
","1254","run_exp/static/images/Set 6_rs/008b.jpg","66","","","","","","test","TL","2"
"","show_choice","255","433971","0.0-231.0-1.0","""event"",""trial"",""time""
""fullscreenenter"",""0"",""5105""
","
","
","""event"",""trial"",""time""
""fullscreenenter"",""0"",""5105""
","
","null","run_exp/static/images/Set 6_rs/008b.jpg","null","","","","","","test","TL",""
"","html-keyboard-response","256","434488","0.0-231.0-2.0","""event"",""trial"",""time""
""fullscreenenter"",""0"",""5105""
","
","
","""event"",""trial"",""time""
""fullscreenenter"",""0"",""5105""
","
","null","<p></p>","null","","","","","","","",""
"","image","257","436820","0.0-232.0-0.0","""event"",""trial"",""time""
""fullscreenenter"",""0"",""5105""
","
","
","""event"",""trial"",""time""
""fullscreenenter"",""0"",""5105""
","
","2327.7000000178814","run_exp/static/images/Set 6_rs/086a.jpg","78","","","","","","test","TF","1"
"","show_choice","258","437328","0.0-232.0-1.0","""event"",""trial"",""time""
""fullscreenenter"",""0"",""5105""
","
","
","""event"",""trial"",""time""
""fullscreenenter"",""0"",""5105""
","
","null","run_exp/static/images/Set 6_rs/086a.jpg","null","","","","","","test","TF",""
"","html-keyboard-response","259","437838","0.0-232.0-2.0","""event"",""trial"",""time""
""fullscreenenter"",""0"",""5105""
","
","
","""event"",""trial"",""time""
""fullscreenenter"",""0"",""5105""
","
","null","<p></p>","null","","","","","","","",""
"","image","260","438848","0.0-233.0-0.0","""event"",""trial"",""time""
""fullscreenenter"",""0"",""5105""
","
","
","""event"",""trial"",""time""
""fullscreenenter"",""0"",""5105""
","
","1007.5","run_exp/static/images/Set 6_rs/123b.jpg","86","","","","","","test","TL","2"
"","show_choice","261","439353","0.0-233.0-1.0","""event"",""trial"",""time""
""fullscreenenter"",""0"",""5105""
","
","
","""event"",""trial"",""time""
""fullscreenenter"",""0"",""5105""
","
","null","run_exp/static/images/Set 6_rs/123b.jpg","null","","","","","","test","TL",""
"","html-keyboard-response","262","439859","0.0-233.0-2.0","""event"",""trial"",""time""
""fullscreenenter"",""0"",""5105""
","
","
","""event"",""trial"",""time""
""fullscreenenter"",""0"",""5105""
","
","null","<p></p>","null","","","","","","","",""
"","image","263","440959","0.0-234.0-0.0","""event"",""trial"",""time""
""fullscreenenter"",""0"",""5105""
","
","
","""event"",""trial"",""time""
""fullscreenenter"",""0"",""5105""
","
","1097.4000000059605","run_exp/static/images/Set 6_rs/088a.jpg","86","","","","","","test","TR","2"
"","show_choice","264","441469","0.0-234.0-1.0","""event"",""trial"",""time""
""fullscreenenter"",""0"",""5105""
","
","
","""event"",""trial"",""time""
""fullscreenenter"",""0"",""5105""
","
","null","run_exp/static/images/Set 6_rs/088a.jpg","null","","","","","","test","TR",""
"","html-keyboard-response","265","441985","0.0-234.0-2.0","""event"",""trial"",""time""
""fullscreenenter"",""0"",""5105""
","
","
","""event"",""trial"",""time""
""fullscreenenter"",""0"",""5105""
","
","null","<p></p>","null","","","","","","","",""
"","image","266","444238","0.0-235.0-0.0","""event"",""trial"",""time""
""fullscreenenter"",""0"",""5105""
","
","
","""event"",""trial"",""time""
""fullscreenenter"",""0"",""5105""
","
","2250","run_exp/static/images/Set 6_rs/138b.jpg","66","","","","","","test","TL","1"
"","show_choice","267","444754","0.0-235.0-1.0","""event"",""trial"",""time""
""fullscreenenter"",""0"",""5105""
","
","
","""event"",""trial"",""time""
""fullscreenenter"",""0"",""5105""
","
","null","run_exp/static/images/Set 6_rs/138b.jpg","null","","","","","","test","TL",""
"","html-keyboard-response","268","445270","0.0-235.0-2.0","""event"",""trial"",""time""
""fullscreenenter"",""0"",""5105""
","
","
","""event"",""trial"",""time""
""fullscreenenter"",""0"",""5105""
","
","null","<p></p>","null","","","","","","","",""
"","image","269","446608","0.0-236.0-0.0","""event"",""trial"",""time""
""fullscreenenter"",""0"",""5105""
","
","
","""event"",""trial"",""time""
""fullscreenenter"",""0"",""5105""
","
","1335.9000000059605","run_exp/static/images/Set 6_rs/191b.jpg","66","","","","","","test","TL","2"
"","show_choice","270","447119","0.0-236.0-1.0","""event"",""trial"",""time""
""fullscreenenter"",""0"",""5105""
","
","
","""event"",""trial"",""time""
""fullscreenenter"",""0"",""5105""
","
","null","run_exp/static/images/Set 6_rs/191b.jpg","null","","","","","","test","TL",""
"","html-keyboard-response","271","447622","0.0-236.0-2.0","""event"",""trial"",""time""
""fullscreenenter"",""0"",""5105""
","
","
","""event"",""trial"",""time""
""fullscreenenter"",""0"",""5105""
","
","null","<p></p>","null","","","","","","","",""
"","image","272","449338","0.0-237.0-0.0","""event"",""trial"",""time""
""fullscreenenter"",""0"",""5105""
","
","
","""event"",""trial"",""time""
""fullscreenenter"",""0"",""5105""
","
","1713.699999988079","run_exp/static/images/Set 6_rs/012a.jpg","86","","","","","","test","TR","1"
"","show_choice","273","449846","0.0-237.0-1.0","""event"",""trial"",""time""
""fullscreenenter"",""0"",""5105""
","
","
","""event"",""trial"",""time""
""fullscreenenter"",""0"",""5105""
","
","null","run_exp/static/images/Set 6_rs/012a.jpg","null","","","","","","test","TR",""
"","html-keyboard-response","274","450355","0.0-237.0-2.0","""event"",""trial"",""time""
""fullscreenenter"",""0"",""5105""
","
","
","""event"",""trial"",""time""
""fullscreenenter"",""0"",""5105""
","
","null","<p></p>","null","","","","","","","",""
"","image","275","451418","0.0-238.0-0.0","""event"",""trial"",""time""
""fullscreenenter"",""0"",""5105""
","
","
","""event"",""trial"",""time""
""fullscreenenter"",""0"",""5105""
","
","1060.4000000059605","run_exp/static/images/Set 6_rs/062b.jpg","86","","","","","","test","TL","1"
"","show_choice","276","451924","0.0-238.0-1.0","""event"",""trial"",""time""
""fullscreenenter"",""0"",""5105""
","
","
","""event"",""trial"",""time""
""fullscreenenter"",""0"",""5105""
","
","null","run_exp/static/images/Set 6_rs/062b.jpg","null","","","","","","test","TL",""
"","html-keyboard-response","277","452438","0.0-238.0-2.0","""event"",""trial"",""time""
""fullscreenenter"",""0"",""5105""
","
","
","""event"",""trial"",""time""
""fullscreenenter"",""0"",""5105""
","
","null","<p></p>","null","","","","","","","",""
"","image","278","453468","0.0-239.0-0.0","""event"",""trial"",""time""
""fullscreenenter"",""0"",""5105""
","
","
","""event"",""trial"",""time""
""fullscreenenter"",""0"",""5105""
","
","1027.2999999821186","run_exp/static/images/Set 6_rs/022a.jpg","78","","","","","","test","TF","4"
"","show_choice","279","453970","0.0-239.0-1.0","""event"",""trial"",""time""
""fullscreenenter"",""0"",""5105""
","
","
","""event"",""trial"",""time""
""fullscreenenter"",""0"",""5105""
","
","null","run_exp/static/images/Set 6_rs/022a.jpg","null","","","","","","test","TF",""
"","html-keyboard-response","280","454475","0.0-239.0-2.0","""event"",""trial"",""time""
""fullscreenenter"",""0"",""5105""
","
","
","""event"",""trial"",""time""
""fullscreenenter"",""0"",""5105""
","
","null","<p></p>","null","","","","","","","",""
"","image","281","455588","0.0-240.0-0.0","""event"",""trial"",""time""
""fullscreenenter"",""0"",""5105""
","
","
","""event"",""trial"",""time""
""fullscreenenter"",""0"",""5105""
","
","1111.199999988079","run_exp/static/images/Set 6_rs/052a.jpg","78","","","","","","test","TF","1"
"","show_choice","282","456104","0.0-240.0-1.0","""event"",""trial"",""time""
""fullscreenenter"",""0"",""5105""
","
","
","""event"",""trial"",""time""
""fullscreenenter"",""0"",""5105""
","
","null","run_exp/static/images/Set 6_rs/052a.jpg","null","","","","","","test","TF",""
"","html-keyboard-response","283","456617","0.0-240.0-2.0","""event"",""trial"",""time""
""fullscreenenter"",""0"",""5105""
","
","
","""event"",""trial"",""time""
""fullscreenenter"",""0"",""5105""
","
","null","<p></p>","null","","","","","","","",""
"","image","284","458618","0.0-241.0-0.0","""event"",""trial"",""time""
""fullscreenenter"",""0"",""5105""
","
","
","""event"",""trial"",""time""
""fullscreenenter"",""0"",""5105""
","
","1997.5999999940395","run_exp/static/images/Set 6_rs/006b.jpg","66","","","","","","test","TL","2"
"","show_choice","285","459128","0.0-241.0-1.0","""event"",""trial"",""time""
""fullscreenenter"",""0"",""5105""
","
","
","""event"",""trial"",""time""
""fullscreenenter"",""0"",""5105""
","
","null","run_exp/static/images/Set 6_rs/006b.jpg","null","","","","","","test","TL",""
"","html-keyboard-response","286","459635","0.0-241.0-2.0","""event"",""trial"",""time""
""fullscreenenter"",""0"",""5105""
","
","
","""event"",""trial"",""time""
""fullscreenenter"",""0"",""5105""
","
","null","<p></p>","null","","","","","","","",""
"","image","287","460857","0.0-242.0-0.0","""event"",""trial"",""time""
""fullscreenenter"",""0"",""5105""
","
","
","""event"",""trial"",""time""
""fullscreenenter"",""0"",""5105""
","
","1219.3999999761581","run_exp/static/images/Set 6_rs/170a.jpg","66","","","","","","test","TF","2"
"","show_choice","288","461368","0.0-242.0-1.0","""event"",""trial"",""time""
""fullscreenenter"",""0"",""5105""
","
","
","""event"",""trial"",""time""
""fullscreenenter"",""0"",""5105""
","
","null","run_exp/static/images/Set 6_rs/170a.jpg","null","","","","","","test","TF",""
"","html-keyboard-response","289","461884","0.0-242.0-2.0","""event"",""trial"",""time""
""fullscreenenter"",""0"",""5105""
","
","
","""event"",""trial"",""time""
""fullscreenenter"",""0"",""5105""
","
","null","<p></p>","null","","","","","","","",""
"","image","290","463548","0.0-243.0-0.0","""event"",""trial"",""time""
""fullscreenenter"",""0"",""5105""
","
","
","""event"",""trial"",""time""
""fullscreenenter"",""0"",""5105""
","
","1661.5","run_exp/static/images/Set 6_rs/024a.jpg","86","","","","","","test","TR","5"
"","show_choice","291","464058","0.0-243.0-1.0","""event"",""trial"",""time""
""fullscreenenter"",""0"",""5105""
","
","
","""event"",""trial"",""time""
""fullscreenenter"",""0"",""5105""
","
","null","run_exp/static/images/Set 6_rs/024a.jpg","null","","","","","","test","TR",""
"","html-keyboard-response","292","464570","0.0-243.0-2.0","""event"",""trial"",""time""
""fullscreenenter"",""0"",""5105""
","
","
","""event"",""trial"",""time""
""fullscreenenter"",""0"",""5105""
","
","null","<p></p>","null","","","","","","","",""
"","image","293","466338","0.0-244.0-0.0","""event"",""trial"",""time""
""fullscreenenter"",""0"",""5105""
","
","
","""event"",""trial"",""time""
""fullscreenenter"",""0"",""5105""
","
","1766.5999999940395","run_exp/static/images/Set 6_rs/064a.jpg","86","","","","","","test","TR","5"
"","show_choice","294","466852","0.0-244.0-1.0","""event"",""trial"",""time""
""fullscreenenter"",""0"",""5105""
","
","
","""event"",""trial"",""time""
""fullscreenenter"",""0"",""5105""
","
","null","run_exp/static/images/Set 6_rs/064a.jpg","null","","","","","","test","TR",""
"","html-keyboard-response","295","467369","0.0-244.0-2.0","""event"",""trial"",""time""
""fullscreenenter"",""0"",""5105""
","
","
","""event"",""trial"",""time""
""fullscreenenter"",""0"",""5105""
","
","null","<p></p>","null","","","","","","","",""
"","image","296","468628","0.0-245.0-0.0","""event"",""trial"",""time""
""fullscreenenter"",""0"",""5105""
","
","
","""event"",""trial"",""time""
""fullscreenenter"",""0"",""5105""
","
","1256.7999999821186","run_exp/static/images/Set 6_rs/028a.jpg","78","","","","","","test","TF","1"
"","show_choice","297","469143","0.0-245.0-1.0","""event"",""trial"",""time""
""fullscreenenter"",""0"",""5105""
","
","
","""event"",""trial"",""time""
""fullscreenenter"",""0"",""5105""
","
","null","run_exp/static/images/Set 6_rs/028a.jpg","null","","","","","","test","TF",""
"","html-keyboard-response","298","469650","0.0-245.0-2.0","""event"",""trial"",""time""
""fullscreenenter"",""0"",""5105""
","
","
","""event"",""trial"",""time""
""fullscreenenter"",""0"",""5105""
","
","null","<p></p>","null","","","","","","","",""
"","image","299","470558","0.0-246.0-0.0","""event"",""trial"",""time""
""fullscreenenter"",""0"",""5105""
","
","
","""event"",""trial"",""time""
""fullscreenenter"",""0"",""5105""
","
","905.6999999880791","run_exp/static/images/Set 6_rs/007a.jpg","78","","","","","","test","TR","3"
"","show_choice","300","471067","0.0-246.0-1.0","""event"",""trial"",""time""
""fullscreenenter"",""0"",""5105""
","
","
","""event"",""trial"",""time""
""fullscreenenter"",""0"",""5105""
","
","null","run_exp/static/images/Set 6_rs/007a.jpg","null","","","","","","test","TR",""
"","html-keyboard-response","301","471584","0.0-246.0-2.0","""event"",""trial"",""time""
""fullscreenenter"",""0"",""5105""
","
","
","""event"",""trial"",""time""
""fullscreenenter"",""0"",""5105""
","
","null","<p></p>","null","","","","","","","",""
"","image","302","473057","0.0-247.0-0.0","""event"",""trial"",""time""
""fullscreenenter"",""0"",""5105""
","
","
","""event"",""trial"",""time""
""fullscreenenter"",""0"",""5105""
","
","1470.8999999761581","run_exp/static/images/Set 6_rs/155a.jpg","86","","","","","","test","TF","4"
"","show_choice","303","473565","0.0-247.0-1.0","""event"",""trial"",""time""
""fullscreenenter"",""0"",""5105""
","
","
","""event"",""trial"",""time""
""fullscreenenter"",""0"",""5105""
","
","null","run_exp/static/images/Set 6_rs/155a.jpg","null","","","","","","test","TF",""
"","html-keyboard-response","304","474081","0.0-247.0-2.0","""event"",""trial"",""time""
""fullscreenenter"",""0"",""5105""
","
","
","""event"",""trial"",""time""
""fullscreenenter"",""0"",""5105""
","
","null","<p></p>","null","","","","","","","",""
"","image","305","475008","0.0-248.0-0.0","""event"",""trial"",""time""
""fullscreenenter"",""0"",""5105""
","
","
","""event"",""trial"",""time""
""fullscreenenter"",""0"",""5105""
","
","924.2000000178814","run_exp/static/images/Set 6_rs/105a.jpg","78","","","","","","test","TF","5"
"","show_choice","306","475517","0.0-248.0-1.0","""event"",""trial"",""time""
""fullscreenenter"",""0"",""5105""
","
","
","""event"",""trial"",""time""
""fullscreenenter"",""0"",""5105""
","
","null","run_exp/static/images/Set 6_rs/105a.jpg","null","","","","","","test","TF",""
"","html-keyboard-response","307","476032","0.0-248.0-2.0","""event"",""trial"",""time""
""fullscreenenter"",""0"",""5105""
","
","
","""event"",""trial"",""time""
""fullscreenenter"",""0"",""5105""
","
","null","<p></p>","null","","","","","","","",""
"","image","308","477319","0.0-249.0-0.0","""event"",""trial"",""time""
""fullscreenenter"",""0"",""5105""
","
","
","""event"",""trial"",""time""
""fullscreenenter"",""0"",""5105""
","
","1283.5","run_exp/static/images/Set 6_rs/171a.jpg","78","","","","","","test","TF","1"
"","show_choice","309","477832","0.0-249.0-1.0","""event"",""trial"",""time""
""fullscreenenter"",""0"",""5105""
","
","
","""event"",""trial"",""time""
""fullscreenenter"",""0"",""5105""
","
","null","run_exp/static/images/Set 6_rs/171a.jpg","null","","","","","","test","TF",""
"","html-keyboard-response","310","478348","0.0-249.0-2.0","""event"",""trial"",""time""
""fullscreenenter"",""0"",""5105""
","
","
","""event"",""trial"",""time""
""fullscreenenter"",""0"",""5105""
","
","null","<p></p>","null","","","","","","","",""
"","image","311","479839","0.0-250.0-0.0","""event"",""trial"",""time""
""fullscreenenter"",""0"",""5105""
","
","
","""event"",""trial"",""time""
""fullscreenenter"",""0"",""5105""
","
","1488","run_exp/static/images/Set 6_rs/061a.jpg","86","","","","","","test","TR","5"
"","show_choice","312","480349","0.0-250.0-1.0","""event"",""trial"",""time""
""fullscreenenter"",""0"",""5105""
","
","
","""event"",""trial"",""time""
""fullscreenenter"",""0"",""5105""
","
","null","run_exp/static/images/Set 6_rs/061a.jpg","null","","","","","","test","TR",""
"","html-keyboard-response","313","480865","0.0-250.0-2.0","""event"",""trial"",""time""
""fullscreenenter"",""0"",""5105""
","
","
","""event"",""trial"",""time""
""fullscreenenter"",""0"",""5105""
","
","null","<p></p>","null","","","","","","","",""
"","image","314","482217","0.0-251.0-0.0","""event"",""trial"",""time""
""fullscreenenter"",""0"",""5105""
","
","
","""event"",""trial"",""time""
""fullscreenenter"",""0"",""5105""
","
","1350","run_exp/static/images/Set 6_rs/056a.jpg","66","","","","","","test","TF","3"
"","show_choice","315","482733","0.0-251.0-1.0","""event"",""trial"",""time""
""fullscreenenter"",""0"",""5105""
","
","
","""event"",""trial"",""time""
""fullscreenenter"",""0"",""5105""
","
","null","run_exp/static/images/Set 6_rs/056a.jpg","null","","","","","","test","TF",""
"","html-keyboard-response","316","483249","0.0-251.0-2.0","""event"",""trial"",""time""
""fullscreenenter"",""0"",""5105""
","
","
","""event"",""trial"",""time""
""fullscreenenter"",""0"",""5105""
","
","null","<p></p>","null","","","","","","","",""
"","image","317","485138","0.0-252.0-0.0","""event"",""trial"",""time""
""fullscreenenter"",""0"",""5105""
","
","
","""event"",""trial"",""time""
""fullscreenenter"",""0"",""5105""
","
","1887.8999999761581","run_exp/static/images/Set 6_rs/150a.jpg","86","","","","","","test","TR","1"
"","show_choice","318","485653","0.0-252.0-1.0","""event"",""trial"",""time""
""fullscreenenter"",""0"",""5105""
","
","
","""event"",""trial"",""time""
""fullscreenenter"",""0"",""5105""
","
","null","run_exp/static/images/Set 6_rs/150a.jpg","null","","","","","","test","TR",""
"","html-keyboard-response","319","486165","0.0-252.0-2.0","""event"",""trial"",""time""
""fullscreenenter"",""0"",""5105""
","
","
","""event"",""trial"",""time""
""fullscreenenter"",""0"",""5105""
","
","null","<p></p>","null","","","","","","","",""
"","image","320","487737","0.0-253.0-0.0","""event"",""trial"",""time""
""fullscreenenter"",""0"",""5105""
","
","
","""event"",""trial"",""time""
""fullscreenenter"",""0"",""5105""
","
","1569.9000000059605","run_exp/static/images/Set 6_rs/090a.jpg","66","","","","","","test","TF","5"
"","show_choice","321","488243","0.0-253.0-1.0","""event"",""trial"",""time""
""fullscreenenter"",""0"",""5105""
","
","
","""event"",""trial"",""time""
""fullscreenenter"",""0"",""5105""
","
","null","run_exp/static/images/Set 6_rs/090a.jpg","null","","","","","","test","TF",""
"","html-keyboard-response","322","488745","0.0-253.0-2.0","""event"",""trial"",""time""
""fullscreenenter"",""0"",""5105""
","
","
","""event"",""trial"",""time""
""fullscreenenter"",""0"",""5105""
","
","null","<p></p>","null","","","","","","","",""
"","image","323","490958","0.0-254.0-0.0","""event"",""trial"",""time""
""fullscreenenter"",""0"",""5105""
","
","
","""event"",""trial"",""time""
""fullscreenenter"",""0"",""5105""
","
","2212","run_exp/static/images/Set 6_rs/122a.jpg","86","","","","","","test","TR","5"
"","show_choice","324","491467","0.0-254.0-1.0","""event"",""trial"",""time""
""fullscreenenter"",""0"",""5105""
","
","
","""event"",""trial"",""time""
""fullscreenenter"",""0"",""5105""
","
","null","run_exp/static/images/Set 6_rs/122a.jpg","null","","","","","","test","TR",""
"","html-keyboard-response","325","491980","0.0-254.0-2.0","""event"",""trial"",""time""
""fullscreenenter"",""0"",""5105""
","
","
","""event"",""trial"",""time""
""fullscreenenter"",""0"",""5105""
","
","null","<p></p>","null","","","","","","","",""
"","image","326","493938","0.0-255.0-0.0","""event"",""trial"",""time""
""fullscreenenter"",""0"",""5105""
","
","
","""event"",""trial"",""time""
""fullscreenenter"",""0"",""5105""
","
","1955.8999999761581","run_exp/static/images/Set 6_rs/190a.jpg","78","","","","","","test","TF","3"
"","show_choice","327","494445","0.0-255.0-1.0","""event"",""trial"",""time""
""fullscreenenter"",""0"",""5105""
","
","
","""event"",""trial"",""time""
""fullscreenenter"",""0"",""5105""
","
","null","run_exp/static/images/Set 6_rs/190a.jpg","null","","","","","","test","TF",""
"","html-keyboard-response","328","494947","0.0-255.0-2.0","""event"",""trial"",""time""
""fullscreenenter"",""0"",""5105""
","
","
","""event"",""trial"",""time""
""fullscreenenter"",""0"",""5105""
","
","null","<p></p>","null","","","","","","","",""
"","image","329","496459","0.0-256.0-0.0","""event"",""trial"",""time""
""fullscreenenter"",""0"",""5105""
","
","
","""event"",""trial"",""time""
""fullscreenenter"",""0"",""5105""
","
","1509","run_exp/static/images/Set 6_rs/070a.jpg","86","","","","","","test","TR","2"
"","show_choice","330","496963","0.0-256.0-1.0","""event"",""trial"",""time""
""fullscreenenter"",""0"",""5105""
","
","
","""event"",""trial"",""time""
""fullscreenenter"",""0"",""5105""
","
","null","run_exp/static/images/Set 6_rs/070a.jpg","null","","","","","","test","TR",""
"","html-keyboard-response","331","497467","0.0-256.0-2.0","""event"",""trial"",""time""
""fullscreenenter"",""0"",""5105""
","
","
","""event"",""trial"",""time""
""fullscreenenter"",""0"",""5105""
","
","null","<p></p>","null","","","","","","","",""
"","image","332","499108","0.0-257.0-0.0","""event"",""trial"",""time""
""fullscreenenter"",""0"",""5105""
","
","
","""event"",""trial"",""time""
""fullscreenenter"",""0"",""5105""
","
","1639.4000000059605","run_exp/static/images/Set 6_rs/047a.jpg","66","","","","","","test","TF","3"
"","show_choice","333","499614","0.0-257.0-1.0","""event"",""trial"",""time""
""fullscreenenter"",""0"",""5105""
","
","
","""event"",""trial"",""time""
""fullscreenenter"",""0"",""5105""
","
","null","run_exp/static/images/Set 6_rs/047a.jpg","null","","","","","","test","TF",""
"","html-keyboard-response","334","500129","0.0-257.0-2.0","""event"",""trial"",""time""
""fullscreenenter"",""0"",""5105""
","
","
","""event"",""trial"",""time""
""fullscreenenter"",""0"",""5105""
","
","null","<p></p>","null","","","","","","","",""
"","image","335","501358","0.0-258.0-0.0","""event"",""trial"",""time""
""fullscreenenter"",""0"",""5105""
","
","
","""event"",""trial"",""time""
""fullscreenenter"",""0"",""5105""
","
","1227","run_exp/static/images/Set 6_rs/017b.jpg","66","","","","","","test","TL","3"
"","show_choice","336","501865","0.0-258.0-1.0","""event"",""trial"",""time""
""fullscreenenter"",""0"",""5105""
","
","
","""event"",""trial"",""time""
""fullscreenenter"",""0"",""5105""
","
","null","run_exp/static/images/Set 6_rs/017b.jpg","null","","","","","","test","TL",""
"","html-keyboard-response","337","502382","0.0-258.0-2.0","""event"",""trial"",""time""
""fullscreenenter"",""0"",""5105""
","
","
","""event"",""trial"",""time""
""fullscreenenter"",""0"",""5105""
","
","null","<p></p>","null","","","","","","","",""
"","image","338","503578","0.0-259.0-0.0","""event"",""trial"",""time""
""fullscreenenter"",""0"",""5105""
","
","
","""event"",""trial"",""time""
""fullscreenenter"",""0"",""5105""
","
