"success","trial_type","trial_index","time_elapsed","internal_node_id","interactions","blur_events","focus_events","fullscreenenter_events","fullscreenexit_events","rt","stimulus","key_press","subject_id","participant_id","age","gender","prompt","phase","condition","lure_bin"
"true","fullscreen","0","4843","0.0-0.0","""event"",""trial"",""time""
""blur"",""0"",""543""
""focus"",""0"",""2209""
""fullscreenenter"",""0"",""3864""
","""event"",""trial"",""time""
""blur"",""0"",""543""
","""event"",""trial"",""time""
""focus"",""0"",""2209""
","""event"",""trial"",""time""
""fullscreenenter"",""0"",""3864""
","
","","","","","","","","","","",""
"","pavlovia","1","4846","0.0-1.0","""event"",""trial"",""time""
""blur"",""0"",""543""
""focus"",""0"",""2209""
""fullscreenenter"",""0"",""3864""
","""event"",""trial"",""time""
""blur"",""0"",""543""
","""event"",""trial"",""time""
""focus"",""0"",""2209""
","""event"",""trial"",""time""
""fullscreenenter"",""0"",""3864""
","
","","","","","","","","","","",""
"","welcome","2","39677","0.0-2.0","""event"",""trial"",""time""
""blur"",""0"",""543""
""focus"",""0"",""2209""
""fullscreenenter"",""0"",""3864""
","""event"",""trial"",""time""
""blur"",""0"",""543""
","""event"",""trial"",""time""
""focus"",""0"",""2209""
","""event"",""trial"",""time""
""fullscreenenter"",""0"",""3864""
","
","null","run_exp/static/audio/clip_1_welcome.m4a","null","476","774","12","Female","<div class='center'><p>Welcome to the third part of the study! First, you'll be shown pictures of items one at a time. For each picture, you have to decide if the item is typically found indoors or outdoors.</p><p>If you think it's usually found indoors, then press <b>v</b> key on your keyboard. If you think it's usually found outdoors, then press the <b>n</b> key.There will be reminders on the screen to help you remember which keys to press. </p><p>If you're not sure whether the item is an indoor item or an outdoor item, go ahead and take a guess but try your best not to skip that choice. </p></div>","","",""
"","html-keyboard-response","3","39934","0.0-3.0","""event"",""trial"",""time""
""blur"",""0"",""543""
""focus"",""0"",""2209""
""fullscreenenter"",""0"",""3864""
","""event"",""trial"",""time""
""blur"",""0"",""543""
","""event"",""trial"",""time""
""focus"",""0"",""2209""
","""event"",""trial"",""time""
""fullscreenenter"",""0"",""3864""
","
","253.40000000596046","<div class='center'><p>Welcome to the third part of the study! First, you'll be shown pictures of items one at a time. For each picture, you have to decide if the item is typically found indoors or outdoors.</p><p>If you think it's usually found indoors, then press <b>v</b> key on your keyboard. If you think it's usually found outdoors, then press the <b>n</b> key.There will be reminders on the screen to help you remember which keys to press. </p><p>If you're not sure whether the item is an indoor item or an outdoor item, go ahead and take a guess but try your best not to skip that choice. </p><div><p><b>[Press the space bar to continue]</b></p></div>","32","","","","","","","",""
"","image","4","41936","0.0-4.0","""event"",""trial"",""time""
""blur"",""0"",""543""
""focus"",""0"",""2209""
""fullscreenenter"",""0"",""3864""
","""event"",""trial"",""time""
""blur"",""0"",""543""
","""event"",""trial"",""time""
""focus"",""0"",""2209""
","""event"",""trial"",""time""
""fullscreenenter"",""0"",""3864""
","
","null","run_exp/static/images/Set 6_rs/012a.jpg","null","","","","","","learn","SR",""
"","show_choice","5","43940","0.0-5.0","""event"",""trial"",""time""
""blur"",""0"",""543""
""focus"",""0"",""2209""
""fullscreenenter"",""0"",""3864""
","""event"",""trial"",""time""
""blur"",""0"",""543""
","""event"",""trial"",""time""
""focus"",""0"",""2209""
","""event"",""trial"",""time""
""fullscreenenter"",""0"",""3864""
","
","null","run_exp/static/images/blank.png","null","","","","","","learn","SR",""
"","html-keyboard-response","6","44442","0.0-6.0","""event"",""trial"",""time""
""blur"",""0"",""543""
""focus"",""0"",""2209""
""fullscreenenter"",""0"",""3864""
","""event"",""trial"",""time""
""blur"",""0"",""543""
","""event"",""trial"",""time""
""focus"",""0"",""2209""
","""event"",""trial"",""time""
""fullscreenenter"",""0"",""3864""
","
","null","<p></p>","null","","","","","","","",""
"","image","7","45074","0.0-7.0","""event"",""trial"",""time""
""blur"",""0"",""543""
""focus"",""0"",""2209""
""fullscreenenter"",""0"",""3864""
","""event"",""trial"",""time""
""blur"",""0"",""543""
","""event"",""trial"",""time""
""focus"",""0"",""2209""
","""event"",""trial"",""time""
""fullscreenenter"",""0"",""3864""
","
","631.3999999761581","run_exp/static/images/Set 6_rs/108a.jpg","86","","","","","","learn","SR",""
"","show_choice","8","46444","0.0-8.0","""event"",""trial"",""time""
""blur"",""0"",""543""
""focus"",""0"",""2209""
""fullscreenenter"",""0"",""3864""
","""event"",""trial"",""time""
""blur"",""0"",""543""
","""event"",""trial"",""time""
""focus"",""0"",""2209""
","""event"",""trial"",""time""
""fullscreenenter"",""0"",""3864""
","
","null","run_exp/static/images/Set 6_rs/108a.jpg","null","","","","","","learn","SR",""
"","html-keyboard-response","9","46949","0.0-9.0","""event"",""trial"",""time""
""blur"",""0"",""543""
""focus"",""0"",""2209""
""fullscreenenter"",""0"",""3864""
","""event"",""trial"",""time""
""blur"",""0"",""543""
","""event"",""trial"",""time""
""focus"",""0"",""2209""
","""event"",""trial"",""time""
""fullscreenenter"",""0"",""3864""
","
","null","<p></p>","null","","","","","","","",""
"","image","10","48404","0.0-10.0","""event"",""trial"",""time""
""blur"",""0"",""543""
""focus"",""0"",""2209""
""fullscreenenter"",""0"",""3864""
","""event"",""trial"",""time""
""blur"",""0"",""543""
","""event"",""trial"",""time""
""focus"",""0"",""2209""
","""event"",""trial"",""time""
""fullscreenenter"",""0"",""3864""
","
","1454.300000011921","run_exp/static/images/Set 6_rs/073a.jpg","86","","","","","","learn","SL",""
"","show_choice","11","48951","0.0-11.0","""event"",""trial"",""time""
""blur"",""0"",""543""
""focus"",""0"",""2209""
""fullscreenenter"",""0"",""3864""
","""event"",""trial"",""time""
""blur"",""0"",""543""
","""event"",""trial"",""time""
""focus"",""0"",""2209""
","""event"",""trial"",""time""
""fullscreenenter"",""0"",""3864""
","
","null","run_exp/static/images/Set 6_rs/073a.jpg","null","","","","","","learn","SL",""
"","html-keyboard-response","12","49456","0.0-12.0","""event"",""trial"",""time""
""blur"",""0"",""543""
""focus"",""0"",""2209""
""fullscreenenter"",""0"",""3864""
","""event"",""trial"",""time""
""blur"",""0"",""543""
","""event"",""trial"",""time""
""focus"",""0"",""2209""
","""event"",""trial"",""time""
""fullscreenenter"",""0"",""3864""
","
","null","<p></p>","null","","","","","","","",""
"","image","13","50609","0.0-13.0","""event"",""trial"",""time""
""blur"",""0"",""543""
""focus"",""0"",""2209""
""fullscreenenter"",""0"",""3864""
","""event"",""trial"",""time""
""blur"",""0"",""543""
","""event"",""trial"",""time""
""focus"",""0"",""2209""
","""event"",""trial"",""time""
""fullscreenenter"",""0"",""3864""
","
","1152.9000000059605","run_exp/static/images/Set 6_rs/006a.jpg","86","","","","","","learn","SL",""
"","show_choice","14","51462","0.0-14.0","""event"",""trial"",""time""
""blur"",""0"",""543""
""focus"",""0"",""2209""
""fullscreenenter"",""0"",""3864""
","""event"",""trial"",""time""
""blur"",""0"",""543""
","""event"",""trial"",""time""
""focus"",""0"",""2209""
","""event"",""trial"",""time""
""fullscreenenter"",""0"",""3864""
","
","null","run_exp/static/images/Set 6_rs/006a.jpg","null","","","","","","learn","SL",""
"","html-keyboard-response","15","51963","0.0-15.0","""event"",""trial"",""time""
""blur"",""0"",""543""
""focus"",""0"",""2209""
""fullscreenenter"",""0"",""3864""
","""event"",""trial"",""time""
""blur"",""0"",""543""
","""event"",""trial"",""time""
""focus"",""0"",""2209""
","""event"",""trial"",""time""
""fullscreenenter"",""0"",""3864""
","
","null","<p></p>","null","","","","","","","",""
"","image","16","53422","0.0-16.0","""event"",""trial"",""time""
""blur"",""0"",""543""
""focus"",""0"",""2209""
""fullscreenenter"",""0"",""3864""
","""event"",""trial"",""time""
""blur"",""0"",""543""
","""event"",""trial"",""time""
""focus"",""0"",""2209""
","""event"",""trial"",""time""
""fullscreenenter"",""0"",""3864""
","
","1457.800000011921","run_exp/static/images/Set 6_rs/063a.jpg","78","","","","","","learn","SR",""
"","show_choice","17","53967","0.0-17.0","""event"",""trial"",""time""
""blur"",""0"",""543""
""focus"",""0"",""2209""
""fullscreenenter"",""0"",""3864""
","""event"",""trial"",""time""
""blur"",""0"",""543""
","""event"",""trial"",""time""
""focus"",""0"",""2209""
","""event"",""trial"",""time""
""fullscreenenter"",""0"",""3864""
","
","null","run_exp/static/images/Set 6_rs/063a.jpg","null","","","","","","learn","SR",""
"","html-keyboard-response","18","54468","0.0-18.0","""event"",""trial"",""time""
""blur"",""0"",""543""
""focus"",""0"",""2209""
""fullscreenenter"",""0"",""3864""
","""event"",""trial"",""time""
""blur"",""0"",""543""
","""event"",""trial"",""time""
""focus"",""0"",""2209""
","""event"",""trial"",""time""
""fullscreenenter"",""0"",""3864""
","
","null","<p></p>","null","","","","","","","",""
"","image","19","55818","0.0-19.0","""event"",""trial"",""time""
""blur"",""0"",""543""
""focus"",""0"",""2209""
""fullscreenenter"",""0"",""3864""
","""event"",""trial"",""time""
""blur"",""0"",""543""
","""event"",""trial"",""time""
""focus"",""0"",""2209""
","""event"",""trial"",""time""
""fullscreenenter"",""0"",""3864""
","
","1348.7999999821186","run_exp/static/images/Set 6_rs/138a.jpg","78","","","","","","learn","SL",""
"","show_choice","20","56474","0.0-20.0","""event"",""trial"",""time""
""blur"",""0"",""543""
""focus"",""0"",""2209""
""fullscreenenter"",""0"",""3864""
","""event"",""trial"",""time""
""blur"",""0"",""543""
","""event"",""trial"",""time""
""focus"",""0"",""2209""
","""event"",""trial"",""time""
""fullscreenenter"",""0"",""3864""
","
","null","run_exp/static/images/Set 6_rs/138a.jpg","null","","","","","","learn","SL",""
"","html-keyboard-response","21","56975","0.0-21.0","""event"",""trial"",""time""
""blur"",""0"",""543""
""focus"",""0"",""2209""
""fullscreenenter"",""0"",""3864""
","""event"",""trial"",""time""
""blur"",""0"",""543""
","""event"",""trial"",""time""
""focus"",""0"",""2209""
","""event"",""trial"",""time""
""fullscreenenter"",""0"",""3864""
","
","null","<p></p>","null","","","","","","","",""
"","image","22","58529","0.0-22.0","""event"",""trial"",""time""
""blur"",""0"",""543""
""focus"",""0"",""2209""
""fullscreenenter"",""0"",""3864""
","""event"",""trial"",""time""
""blur"",""0"",""543""
","""event"",""trial"",""time""
""focus"",""0"",""2209""
","""event"",""trial"",""time""
""fullscreenenter"",""0"",""3864""
","
","1553.5999999940395","run_exp/static/images/Set 6_rs/181a.jpg","86","","","","","","learn","SL",""
"","show_choice","23","58976","0.0-23.0","""event"",""trial"",""time""
""blur"",""0"",""543""
""focus"",""0"",""2209""
""fullscreenenter"",""0"",""3864""
","""event"",""trial"",""time""
""blur"",""0"",""543""
","""event"",""trial"",""time""
""focus"",""0"",""2209""
","""event"",""trial"",""time""
""fullscreenenter"",""0"",""3864""
","
","null","run_exp/static/images/Set 6_rs/181a.jpg","null","","","","","","learn","SL",""
"","html-keyboard-response","24","59482","0.0-24.0","""event"",""trial"",""time""
""blur"",""0"",""543""
""focus"",""0"",""2209""
""fullscreenenter"",""0"",""3864""
","""event"",""trial"",""time""
""blur"",""0"",""543""
","""event"",""trial"",""time""
""focus"",""0"",""2209""
","""event"",""trial"",""time""
""fullscreenenter"",""0"",""3864""
","
","null","<p></p>","null","","","","","","","",""
"","image","25","61286","0.0-25.0","""event"",""trial"",""time""
""blur"",""0"",""543""
""focus"",""0"",""2209""
""fullscreenenter"",""0"",""3864""
","""event"",""trial"",""time""
""blur"",""0"",""543""
","""event"",""trial"",""time""
""focus"",""0"",""2209""
","""event"",""trial"",""time""
""fullscreenenter"",""0"",""3864""
","
","1803.5999999940395","run_exp/static/images/Set 6_rs/152a.jpg","78","","","","","","learn","SR",""
"","show_choice","26","61483","0.0-26.0","""event"",""trial"",""time""
""blur"",""0"",""543""
""focus"",""0"",""2209""
""fullscreenenter"",""0"",""3864""
","""event"",""trial"",""time""
""blur"",""0"",""543""
","""event"",""trial"",""time""
""focus"",""0"",""2209""
","""event"",""trial"",""time""
""fullscreenenter"",""0"",""3864""
","
","null","run_exp/static/images/Set 6_rs/152a.jpg","null","","","","","","learn","SR",""
"","html-keyboard-response","27","61988","0.0-27.0","""event"",""trial"",""time""
""blur"",""0"",""543""
""focus"",""0"",""2209""
""fullscreenenter"",""0"",""3864""
","""event"",""trial"",""time""
""blur"",""0"",""543""
","""event"",""trial"",""time""
""focus"",""0"",""2209""
","""event"",""trial"",""time""
""fullscreenenter"",""0"",""3864""
","
","null","<p></p>","null","","","","","","","",""
"","image","28","63988","0.0-28.0","""event"",""trial"",""time""
""blur"",""0"",""543""
""focus"",""0"",""2209""
""fullscreenenter"",""0"",""3864""
","""event"",""trial"",""time""
""blur"",""0"",""543""
","""event"",""trial"",""time""
""focus"",""0"",""2209""
","""event"",""trial"",""time""
""fullscreenenter"",""0"",""3864""
","
","null","run_exp/static/images/Set 6_rs/079a.jpg","null","","","","","","learn","SL",""
"","show_choice","29","65989","0.0-29.0","""event"",""trial"",""time""
""blur"",""0"",""543""
""focus"",""0"",""2209""
""fullscreenenter"",""0"",""3864""
","""event"",""trial"",""time""
""blur"",""0"",""543""
","""event"",""trial"",""time""
""focus"",""0"",""2209""
","""event"",""trial"",""time""
""fullscreenenter"",""0"",""3864""
","
","null","run_exp/static/images/blank.png","null","","","","","","learn","SL",""
"","html-keyboard-response","30","66492","0.0-30.0","""event"",""trial"",""time""
""blur"",""0"",""543""
""focus"",""0"",""2209""
""fullscreenenter"",""0"",""3864""
","""event"",""trial"",""time""
""blur"",""0"",""543""
","""event"",""trial"",""time""
""focus"",""0"",""2209""
","""event"",""trial"",""time""
""fullscreenenter"",""0"",""3864""
","
","null","<p></p>","null","","","","","","","",""
"","image","31","67349","0.0-31.0","""event"",""trial"",""time""
""blur"",""0"",""543""
""focus"",""0"",""2209""
""fullscreenenter"",""0"",""3864""
","""event"",""trial"",""time""
""blur"",""0"",""543""
","""event"",""trial"",""time""
""focus"",""0"",""2209""
","""event"",""trial"",""time""
""fullscreenenter"",""0"",""3864""
","
","856.9000000059605","run_exp/static/images/Set 6_rs/050a.jpg","78","","","","","","learn","SL",""
"","show_choice","32","68497","0.0-32.0","""event"",""trial"",""time""
""blur"",""0"",""543""
""focus"",""0"",""2209""
""fullscreenenter"",""0"",""3864""
","""event"",""trial"",""time""
""blur"",""0"",""543""
","""event"",""trial"",""time""
""focus"",""0"",""2209""
","""event"",""trial"",""time""
""fullscreenenter"",""0"",""3864""
","
","null","run_exp/static/images/Set 6_rs/050a.jpg","null","","","","","","learn","SL",""
"","html-keyboard-response","33","69003","0.0-33.0","""event"",""trial"",""time""
""blur"",""0"",""543""
""focus"",""0"",""2209""
""fullscreenenter"",""0"",""3864""
","""event"",""trial"",""time""
""blur"",""0"",""543""
","""event"",""trial"",""time""
""focus"",""0"",""2209""
","""event"",""trial"",""time""
""fullscreenenter"",""0"",""3864""
","
","null","<p></p>","null","","","","","","","",""
"","image","34","70837","0.0-34.0","""event"",""trial"",""time""
""blur"",""0"",""543""
""focus"",""0"",""2209""
""fullscreenenter"",""0"",""3864""
","""event"",""trial"",""time""
""blur"",""0"",""543""
","""event"",""trial"",""time""
""focus"",""0"",""2209""
","""event"",""trial"",""time""
""fullscreenenter"",""0"",""3864""
","
","1833","run_exp/static/images/Set 6_rs/117a.jpg","78","","","","","","learn","SL",""
"","show_choice","35","71007","0.0-35.0","""event"",""trial"",""time""
""blur"",""0"",""543""
""focus"",""0"",""2209""
""fullscreenenter"",""0"",""3864""
","""event"",""trial"",""time""
""blur"",""0"",""543""
","""event"",""trial"",""time""
""focus"",""0"",""2209""
","""event"",""trial"",""time""
""fullscreenenter"",""0"",""3864""
","
","null","run_exp/static/images/Set 6_rs/117a.jpg","null","","","","","","learn","SL",""
"","html-keyboard-response","36","71508","0.0-36.0","""event"",""trial"",""time""
""blur"",""0"",""543""
""focus"",""0"",""2209""
""fullscreenenter"",""0"",""3864""
","""event"",""trial"",""time""
""blur"",""0"",""543""
","""event"",""trial"",""time""
""focus"",""0"",""2209""
","""event"",""trial"",""time""
""fullscreenenter"",""0"",""3864""
","
","null","<p></p>","null","","","","","","","",""
"","image","37","72581","0.0-37.0","""event"",""trial"",""time""
""blur"",""0"",""543""
""focus"",""0"",""2209""
""fullscreenenter"",""0"",""3864""
","""event"",""trial"",""time""
""blur"",""0"",""543""
","""event"",""trial"",""time""
""focus"",""0"",""2209""
","""event"",""trial"",""time""
""fullscreenenter"",""0"",""3864""
","
","1072","run_exp/static/images/Set 6_rs/177a.jpg","86","","","","","","learn","SR",""
"","show_choice","38","73514","0.0-38.0","""event"",""trial"",""time""
""blur"",""0"",""543""
""focus"",""0"",""2209""
""fullscreenenter"",""0"",""3864""
","""event"",""trial"",""time""
""blur"",""0"",""543""
","""event"",""trial"",""time""
""focus"",""0"",""2209""
","""event"",""trial"",""time""
""fullscreenenter"",""0"",""3864""
","
","null","run_exp/static/images/Set 6_rs/177a.jpg","null","","","","","","learn","SR",""
"","html-keyboard-response","39","74015","0.0-39.0","""event"",""trial"",""time""
""blur"",""0"",""543""
""focus"",""0"",""2209""
""fullscreenenter"",""0"",""3864""
","""event"",""trial"",""time""
""blur"",""0"",""543""
","""event"",""trial"",""time""
""focus"",""0"",""2209""
","""event"",""trial"",""time""
""fullscreenenter"",""0"",""3864""
","
","null","<p></p>","null","","","","","","","",""
"","image","40","75460","0.0-40.0","""event"",""trial"",""time""
""blur"",""0"",""543""
""focus"",""0"",""2209""
""fullscreenenter"",""0"",""3864""
","""event"",""trial"",""time""
""blur"",""0"",""543""
","""event"",""trial"",""time""
""focus"",""0"",""2209""
","""event"",""trial"",""time""
""fullscreenenter"",""0"",""3864""
","
","1444.6000000238419","run_exp/static/images/Set 6_rs/150a.jpg","78","","","","","","learn","SR",""
"","show_choice","41","76021","0.0-41.0","""event"",""trial"",""time""
""blur"",""0"",""543""
""focus"",""0"",""2209""
""fullscreenenter"",""0"",""3864""
","""event"",""trial"",""time""
""blur"",""0"",""543""
","""event"",""trial"",""time""
""focus"",""0"",""2209""
","""event"",""trial"",""time""
""fullscreenenter"",""0"",""3864""
","
","null","run_exp/static/images/Set 6_rs/150a.jpg","null","","","","","","learn","SR",""
"","html-keyboard-response","42","76526","0.0-42.0","""event"",""trial"",""time""
""blur"",""0"",""543""
""focus"",""0"",""2209""
""fullscreenenter"",""0"",""3864""
","""event"",""trial"",""time""
""blur"",""0"",""543""
","""event"",""trial"",""time""
""focus"",""0"",""2209""
","""event"",""trial"",""time""
""fullscreenenter"",""0"",""3864""
","
","null","<p></p>","null","","","","","","","",""
"","image","43","78059","0.0-43.0","""event"",""trial"",""time""
""blur"",""0"",""543""
""focus"",""0"",""2209""
""fullscreenenter"",""0"",""3864""
","""event"",""trial"",""time""
""blur"",""0"",""543""
","""event"",""trial"",""time""
""focus"",""0"",""2209""
","""event"",""trial"",""time""
""fullscreenenter"",""0"",""3864""
","
","1532.5","run_exp/static/images/Set 6_rs/095a.jpg","78","","","","","","learn","SL",""
"","show_choice","44","78531","0.0-44.0","""event"",""trial"",""time""
""blur"",""0"",""543""
""focus"",""0"",""2209""
""fullscreenenter"",""0"",""3864""
","""event"",""trial"",""time""
""blur"",""0"",""543""
","""event"",""trial"",""time""
""focus"",""0"",""2209""
","""event"",""trial"",""time""
""fullscreenenter"",""0"",""3864""
","
","null","run_exp/static/images/Set 6_rs/095a.jpg","null","","","","","","learn","SL",""
"","html-keyboard-response","45","79032","0.0-45.0","""event"",""trial"",""time""
""blur"",""0"",""543""
""focus"",""0"",""2209""
""fullscreenenter"",""0"",""3864""
","""event"",""trial"",""time""
""blur"",""0"",""543""
","""event"",""trial"",""time""
""focus"",""0"",""2209""
","""event"",""trial"",""time""
""fullscreenenter"",""0"",""3864""
","
","null","<p></p>","null","","","","","","","",""
"","image","46","80040","0.0-46.0","""event"",""trial"",""time""
""blur"",""0"",""543""
""focus"",""0"",""2209""
""fullscreenenter"",""0"",""3864""
","""event"",""trial"",""time""
""blur"",""0"",""543""
","""event"",""trial"",""time""
""focus"",""0"",""2209""
","""event"",""trial"",""time""
""fullscreenenter"",""0"",""3864""
","
","1006.9000000059605","run_exp/static/images/Set 6_rs/057a.jpg","86","","","","","","learn","SL",""
"","show_choice","47","81037","0.0-47.0","""event"",""trial"",""time""
""blur"",""0"",""543""
""focus"",""0"",""2209""
""fullscreenenter"",""0"",""3864""
","""event"",""trial"",""time""
""blur"",""0"",""543""
","""event"",""trial"",""time""
""focus"",""0"",""2209""
","""event"",""trial"",""time""
""fullscreenenter"",""0"",""3864""
","
","null","run_exp/static/images/Set 6_rs/057a.jpg","null","","","","","","learn","SL",""
"","html-keyboard-response","48","81543","0.0-48.0","""event"",""trial"",""time""
""blur"",""0"",""543""
""focus"",""0"",""2209""
""fullscreenenter"",""0"",""3864""
","""event"",""trial"",""time""
""blur"",""0"",""543""
","""event"",""trial"",""time""
""focus"",""0"",""2209""
","""event"",""trial"",""time""
""fullscreenenter"",""0"",""3864""
","
","null","<p></p>","null","","","","","","","",""
"","image","49","82706","0.0-49.0","""event"",""trial"",""time""
""blur"",""0"",""543""
""focus"",""0"",""2209""
""fullscreenenter"",""0"",""3864""
","""event"",""trial"",""time""
""blur"",""0"",""543""
","""event"",""trial"",""time""
""focus"",""0"",""2209""
","""event"",""trial"",""time""
""fullscreenenter"",""0"",""3864""
","
","1162.2999999821186","run_exp/static/images/Set 6_rs/134a.jpg","86","","","","","","learn","SR",""
"","show_choice","50","83548","0.0-50.0","""event"",""trial"",""time""
""blur"",""0"",""543""
""focus"",""0"",""2209""
""fullscreenenter"",""0"",""3864""
","""event"",""trial"",""time""
""blur"",""0"",""543""
","""event"",""trial"",""time""
""focus"",""0"",""2209""
","""event"",""trial"",""time""
""fullscreenenter"",""0"",""3864""
","
","null","run_exp/static/images/Set 6_rs/134a.jpg","null","","","","","","learn","SR",""
"","html-keyboard-response","51","84049","0.0-51.0","""event"",""trial"",""time""
""blur"",""0"",""543""
""focus"",""0"",""2209""
""fullscreenenter"",""0"",""3864""
","""event"",""trial"",""time""
""blur"",""0"",""543""
","""event"",""trial"",""time""
""focus"",""0"",""2209""
","""event"",""trial"",""time""
""fullscreenenter"",""0"",""3864""
","
","null","<p></p>","null","","","","","","","",""
"","image","52","85777","0.0-52.0","""event"",""trial"",""time""
""blur"",""0"",""543""
""focus"",""0"",""2209""
""fullscreenenter"",""0"",""3864""
","""event"",""trial"",""time""
""blur"",""0"",""543""
","""event"",""trial"",""time""
""focus"",""0"",""2209""
","""event"",""trial"",""time""
""fullscreenenter"",""0"",""3864""
","
","1727.0999999940395","run_exp/static/images/Set 6_rs/168a.jpg","78","","","","","","learn","SL",""
"","show_choice","53","86053","0.0-53.0","""event"",""trial"",""time""
""blur"",""0"",""543""
""focus"",""0"",""2209""
""fullscreenenter"",""0"",""3864""
","""event"",""trial"",""time""
""blur"",""0"",""543""
","""event"",""trial"",""time""
""focus"",""0"",""2209""
","""event"",""trial"",""time""
""fullscreenenter"",""0"",""3864""
","
","null","run_exp/static/images/Set 6_rs/168a.jpg","null","","","","","","learn","SL",""
"","html-keyboard-response","54","86558","0.0-54.0","""event"",""trial"",""time""
""blur"",""0"",""543""
""focus"",""0"",""2209""
""fullscreenenter"",""0"",""3864""
","""event"",""trial"",""time""
""blur"",""0"",""543""
","""event"",""trial"",""time""
""focus"",""0"",""2209""
","""event"",""trial"",""time""
""fullscreenenter"",""0"",""3864""
","
","null","<p></p>","null","","","","","","","",""
"","image","55","88083","0.0-55.0","""event"",""trial"",""time""
""blur"",""0"",""543""
""focus"",""0"",""2209""
""fullscreenenter"",""0"",""3864""
","""event"",""trial"",""time""
""blur"",""0"",""543""
","""event"",""trial"",""time""
""focus"",""0"",""2209""
","""event"",""trial"",""time""
""fullscreenenter"",""0"",""3864""
","
","1524","run_exp/static/images/Set 6_rs/045a.jpg","86","","","","","","learn","SR",""
"","show_choice","56","88563","0.0-56.0","""event"",""trial"",""time""
""blur"",""0"",""543""
""focus"",""0"",""2209""
""fullscreenenter"",""0"",""3864""
","""event"",""trial"",""time""
""blur"",""0"",""543""
","""event"",""trial"",""time""
""focus"",""0"",""2209""
","""event"",""trial"",""time""
""fullscreenenter"",""0"",""3864""
","
","null","run_exp/static/images/Set 6_rs/045a.jpg","null","","","","","","learn","SR",""
"","html-keyboard-response","57","89068","0.0-57.0","""event"",""trial"",""time""
""blur"",""0"",""543""
""focus"",""0"",""2209""
""fullscreenenter"",""0"",""3864""
","""event"",""trial"",""time""
""blur"",""0"",""543""
","""event"",""trial"",""time""
""focus"",""0"",""2209""
","""event"",""trial"",""time""
""fullscreenenter"",""0"",""3864""
","
","null","<p></p>","null","","","","","","","",""
"","image","58","90175","0.0-58.0","""event"",""trial"",""time""
""blur"",""0"",""543""
""focus"",""0"",""2209""
""fullscreenenter"",""0"",""3864""
","""event"",""trial"",""time""
""blur"",""0"",""543""
","""event"",""trial"",""time""
""focus"",""0"",""2209""
","""event"",""trial"",""time""
""fullscreenenter"",""0"",""3864""
","
","1106.699999988079","run_exp/static/images/Set 6_rs/070a.jpg","86","","","","","","learn","SR",""
"","show_choice","59","91073","0.0-59.0","""event"",""trial"",""time""
""blur"",""0"",""543""
""focus"",""0"",""2209""
""fullscreenenter"",""0"",""3864""
","""event"",""trial"",""time""
""blur"",""0"",""543""
","""event"",""trial"",""time""
""focus"",""0"",""2209""
","""event"",""trial"",""time""
""fullscreenenter"",""0"",""3864""
","
","null","run_exp/static/images/Set 6_rs/070a.jpg","null","","","","","","learn","SR",""
"","html-keyboard-response","60","91574","0.0-60.0","""event"",""trial"",""time""
""blur"",""0"",""543""
""focus"",""0"",""2209""
""fullscreenenter"",""0"",""3864""
","""event"",""trial"",""time""
""blur"",""0"",""543""
","""event"",""trial"",""time""
""focus"",""0"",""2209""
","""event"",""trial"",""time""
""fullscreenenter"",""0"",""3864""
","
","null","<p></p>","null","","","","","","","",""
"","image","61","92796","0.0-61.0","""event"",""trial"",""time""
""blur"",""0"",""543""
""focus"",""0"",""2209""
""fullscreenenter"",""0"",""3864""
","""event"",""trial"",""time""
""blur"",""0"",""543""
","""event"",""trial"",""time""
""focus"",""0"",""2209""
","""event"",""trial"",""time""
""fullscreenenter"",""0"",""3864""
","
","1221.2999999821186","run_exp/static/images/Set 6_rs/191a.jpg","78","","","","","","learn","SL",""
"","show_choice","62","93577","0.0-62.0","""event"",""trial"",""time""
""blur"",""0"",""543""
""focus"",""0"",""2209""
""fullscreenenter"",""0"",""3864""
","""event"",""trial"",""time""
""blur"",""0"",""543""
","""event"",""trial"",""time""
""focus"",""0"",""2209""
","""event"",""trial"",""time""
""fullscreenenter"",""0"",""3864""
","
","null","run_exp/static/images/Set 6_rs/191a.jpg","null","","","","","","learn","SL",""
"","html-keyboard-response","63","94079","0.0-63.0","""event"",""trial"",""time""
""blur"",""0"",""543""
""focus"",""0"",""2209""
""fullscreenenter"",""0"",""3864""
","""event"",""trial"",""time""
""blur"",""0"",""543""
","""event"",""trial"",""time""
""focus"",""0"",""2209""
","""event"",""trial"",""time""
""fullscreenenter"",""0"",""3864""
","
","null","<p></p>","null","","","","","","","",""
"","image","64","95351","0.0-64.0","""event"",""trial"",""time""
""blur"",""0"",""543""
""focus"",""0"",""2209""
""fullscreenenter"",""0"",""3864""
","""event"",""trial"",""time""
""blur"",""0"",""543""
","""event"",""trial"",""time""
""focus"",""0"",""2209""
","""event"",""trial"",""time""
""fullscreenenter"",""0"",""3864""
","
","1271.5999999940395","run_exp/static/images/Set 6_rs/061a.jpg","86","","","","","","learn","SR",""
"","show_choice","65","96081","0.0-65.0","""event"",""trial"",""time""
""blur"",""0"",""543""
""focus"",""0"",""2209""
""fullscreenenter"",""0"",""3864""
","""event"",""trial"",""time""
""blur"",""0"",""543""
","""event"",""trial"",""time""
""focus"",""0"",""2209""
","""event"",""trial"",""time""
""fullscreenenter"",""0"",""3864""
","
","null","run_exp/static/images/Set 6_rs/061a.jpg","null","","","","","","learn","SR",""
"","html-keyboard-response","66","96585","0.0-66.0","""event"",""trial"",""time""
""blur"",""0"",""543""
""focus"",""0"",""2209""
""fullscreenenter"",""0"",""3864""
","""event"",""trial"",""time""
""blur"",""0"",""543""
","""event"",""trial"",""time""
""focus"",""0"",""2209""
","""event"",""trial"",""time""
""fullscreenenter"",""0"",""3864""
","
","null","<p></p>","null","","","","","","","",""
"","image","67","98321","0.0-67.0","""event"",""trial"",""time""
""blur"",""0"",""543""
""focus"",""0"",""2209""
""fullscreenenter"",""0"",""3864""
","""event"",""trial"",""time""
""blur"",""0"",""543""
","""event"",""trial"",""time""
""focus"",""0"",""2209""
","""event"",""trial"",""time""
""fullscreenenter"",""0"",""3864""
","
","1735.4000000059605","run_exp/static/images/Set 6_rs/141a.jpg","78","","","","","","learn","SR",""
"","show_choice","68","98586","0.0-68.0","""event"",""trial"",""time""
""blur"",""0"",""543""
""focus"",""0"",""2209""
""fullscreenenter"",""0"",""3864""
","""event"",""trial"",""time""
""blur"",""0"",""543""
","""event"",""trial"",""time""
""focus"",""0"",""2209""
","""event"",""trial"",""time""
""fullscreenenter"",""0"",""3864""
","
","null","run_exp/static/images/Set 6_rs/141a.jpg","null","","","","","","learn","SR",""
"","html-keyboard-response","69","99089","0.0-69.0","""event"",""trial"",""time""
""blur"",""0"",""543""
""focus"",""0"",""2209""
""fullscreenenter"",""0"",""3864""
","""event"",""trial"",""time""
""blur"",""0"",""543""
","""event"",""trial"",""time""
""focus"",""0"",""2209""
","""event"",""trial"",""time""
""fullscreenenter"",""0"",""3864""
","
","null","<p></p>","null","","","","","","","",""
"","image","70","100380","0.0-70.0","""event"",""trial"",""time""
""blur"",""0"",""543""
""focus"",""0"",""2209""
""fullscreenenter"",""0"",""3864""
","""event"",""trial"",""time""
""blur"",""0"",""543""
","""event"",""trial"",""time""
""focus"",""0"",""2209""
","""event"",""trial"",""time""
""fullscreenenter"",""0"",""3864""
","
","1289.800000011921","run_exp/static/images/Set 6_rs/132a.jpg","78","","","","","","learn","SR",""
"","show_choice","71","101095","0.0-71.0","""event"",""trial"",""time""
""blur"",""0"",""543""
""focus"",""0"",""2209""
""fullscreenenter"",""0"",""3864""
","""event"",""trial"",""time""
""blur"",""0"",""543""
","""event"",""trial"",""time""
""focus"",""0"",""2209""
","""event"",""trial"",""time""
""fullscreenenter"",""0"",""3864""
","
","null","run_exp/static/images/Set 6_rs/132a.jpg","null","","","","","","learn","SR",""
"","html-keyboard-response","72","101600","0.0-72.0","""event"",""trial"",""time""
""blur"",""0"",""543""
""focus"",""0"",""2209""
""fullscreenenter"",""0"",""3864""
","""event"",""trial"",""time""
""blur"",""0"",""543""
","""event"",""trial"",""time""
""focus"",""0"",""2209""
","""event"",""trial"",""time""
""fullscreenenter"",""0"",""3864""
","
","null","<p></p>","null","","","","","","","",""
"","image","73","102956","0.0-73.0","""event"",""trial"",""time""
""blur"",""0"",""543""
""focus"",""0"",""2209""
""fullscreenenter"",""0"",""3864""
","""event"",""trial"",""time""
""blur"",""0"",""543""
","""event"",""trial"",""time""
""focus"",""0"",""2209""
","""event"",""trial"",""time""
""fullscreenenter"",""0"",""3864""
","
","1356","run_exp/static/images/Set 6_rs/036a.jpg","86","","","","","","learn","SL",""
"","show_choice","74","103601","0.0-74.0","""event"",""trial"",""time""
""blur"",""0"",""543""
""focus"",""0"",""2209""
""fullscreenenter"",""0"",""3864""
","""event"",""trial"",""time""
""blur"",""0"",""543""
","""event"",""trial"",""time""
""focus"",""0"",""2209""
","""event"",""trial"",""time""
""fullscreenenter"",""0"",""3864""
","
","null","run_exp/static/images/Set 6_rs/036a.jpg","null","","","","","","learn","SL",""
"","html-keyboard-response","75","104104","0.0-75.0","""event"",""trial"",""time""
""blur"",""0"",""543""
""focus"",""0"",""2209""
""fullscreenenter"",""0"",""3864""
","""event"",""trial"",""time""
""blur"",""0"",""543""
","""event"",""trial"",""time""
""focus"",""0"",""2209""
","""event"",""trial"",""time""
""fullscreenenter"",""0"",""3864""
","
","null","<p></p>","null","","","","","","","",""
"","image","76","105532","0.0-76.0","""event"",""trial"",""time""
""blur"",""0"",""543""
""focus"",""0"",""2209""
""fullscreenenter"",""0"",""3864""
","""event"",""trial"",""time""
""blur"",""0"",""543""
","""event"",""trial"",""time""
""focus"",""0"",""2209""
","""event"",""trial"",""time""
""fullscreenenter"",""0"",""3864""
","
","1427.3999999761581","run_exp/static/images/Set 6_rs/064a.jpg","78","","","","","","learn","SR",""
"","show_choice","77","106109","0.0-77.0","""event"",""trial"",""time""
""blur"",""0"",""543""
""focus"",""0"",""2209""
""fullscreenenter"",""0"",""3864""
","""event"",""trial"",""time""
""blur"",""0"",""543""
","""event"",""trial"",""time""
""focus"",""0"",""2209""
","""event"",""trial"",""time""
""fullscreenenter"",""0"",""3864""
","
","null","run_exp/static/images/Set 6_rs/064a.jpg","null","","","","","","learn","SR",""
"","html-keyboard-response","78","106615","0.0-78.0","""event"",""trial"",""time""
""blur"",""0"",""543""
""focus"",""0"",""2209""
""fullscreenenter"",""0"",""3864""
","""event"",""trial"",""time""
""blur"",""0"",""543""
","""event"",""trial"",""time""
""focus"",""0"",""2209""
","""event"",""trial"",""time""
""fullscreenenter"",""0"",""3864""
","
","null","<p></p>","null","","","","","","","",""
"","image","79","107951","0.0-79.0","""event"",""trial"",""time""
""blur"",""0"",""543""
""focus"",""0"",""2209""
""fullscreenenter"",""0"",""3864""
","""event"",""trial"",""time""
""blur"",""0"",""543""
","""event"",""trial"",""time""
""focus"",""0"",""2209""
","""event"",""trial"",""time""
""fullscreenenter"",""0"",""3864""
","
","1335","run_exp/static/images/Set 6_rs/131a.jpg","86","","","","","","learn","SR",""
"","show_choice","80","108619","0.0-80.0","""event"",""trial"",""time""
""blur"",""0"",""543""
""focus"",""0"",""2209""
""fullscreenenter"",""0"",""3864""
","""event"",""trial"",""time""
""blur"",""0"",""543""
","""event"",""trial"",""time""
""focus"",""0"",""2209""
","""event"",""trial"",""time""
""fullscreenenter"",""0"",""3864""
","
","null","run_exp/static/images/Set 6_rs/131a.jpg","null","","","","","","learn","SR",""
"","html-keyboard-response","81","109123","0.0-81.0","""event"",""trial"",""time""
""blur"",""0"",""543""
""focus"",""0"",""2209""
""fullscreenenter"",""0"",""3864""
","""event"",""trial"",""time""
""blur"",""0"",""543""
","""event"",""trial"",""time""
""focus"",""0"",""2209""
","""event"",""trial"",""time""
""fullscreenenter"",""0"",""3864""
","
","null","<p></p>","null","","","","","","","",""
"","image","82","110189","0.0-82.0","""event"",""trial"",""time""
""blur"",""0"",""543""
""focus"",""0"",""2209""
""fullscreenenter"",""0"",""3864""
","""event"",""trial"",""time""
""blur"",""0"",""543""
","""event"",""trial"",""time""
""focus"",""0"",""2209""
","""event"",""trial"",""time""
""fullscreenenter"",""0"",""3864""
","
","1065","run_exp/static/images/Set 6_rs/010a.jpg","86","","","","","","learn","SR",""
"","show_choice","83","111129","0.0-83.0","""event"",""trial"",""time""
""blur"",""0"",""543""
""focus"",""0"",""2209""
""fullscreenenter"",""0"",""3864""
","""event"",""trial"",""time""
""blur"",""0"",""543""
","""event"",""trial"",""time""
""focus"",""0"",""2209""
","""event"",""trial"",""time""
""fullscreenenter"",""0"",""3864""
","
","null","run_exp/static/images/Set 6_rs/010a.jpg","null","","","","","","learn","SR",""
"","html-keyboard-response","84","111635","0.0-84.0","""event"",""trial"",""time""
""blur"",""0"",""543""
""focus"",""0"",""2209""
""fullscreenenter"",""0"",""3864""
","""event"",""trial"",""time""
""blur"",""0"",""543""
","""event"",""trial"",""time""
""focus"",""0"",""2209""
","""event"",""trial"",""time""
""fullscreenenter"",""0"",""3864""
","
","null","<p></p>","null","","","","","","","",""
"","image","85","112496","0.0-85.0","""event"",""trial"",""time""
""blur"",""0"",""543""
""focus"",""0"",""2209""
""fullscreenenter"",""0"",""3864""
","""event"",""trial"",""time""
""blur"",""0"",""543""
","""event"",""trial"",""time""
""focus"",""0"",""2209""
","""event"",""trial"",""time""
""fullscreenenter"",""0"",""3864""
","
","860.3000000119209","run_exp/static/images/Set 6_rs/075a.jpg","86","","","","","","learn","SR",""
"","show_choice","86","113636","0.0-86.0","""event"",""trial"",""time""
""blur"",""0"",""543""
""focus"",""0"",""2209""
""fullscreenenter"",""0"",""3864""
","""event"",""trial"",""time""
""blur"",""0"",""543""
","""event"",""trial"",""time""
""focus"",""0"",""2209""
","""event"",""trial"",""time""
""fullscreenenter"",""0"",""3864""
","
","null","run_exp/static/images/Set 6_rs/075a.jpg","null","","","","","","learn","SR",""
"","html-keyboard-response","87","114140","0.0-87.0","""event"",""trial"",""time""
""blur"",""0"",""543""
""focus"",""0"",""2209""
""fullscreenenter"",""0"",""3864""
","""event"",""trial"",""time""
""blur"",""0"",""543""
","""event"",""trial"",""time""
""focus"",""0"",""2209""
","""event"",""trial"",""time""
""fullscreenenter"",""0"",""3864""
","
","null","<p></p>","null","","","","","","","",""
"","image","88","114949","0.0-88.0","""event"",""trial"",""time""
""blur"",""0"",""543""
""focus"",""0"",""2209""
""fullscreenenter"",""0"",""3864""
","""event"",""trial"",""time""
""blur"",""0"",""543""
","""event"",""trial"",""time""
""focus"",""0"",""2209""
","""event"",""trial"",""time""
""fullscreenenter"",""0"",""3864""
","
","807.8000000119209","run_exp/static/images/Set 6_rs/186a.jpg","86","","","","","","learn","SR",""
"","show_choice","89","116144","0.0-89.0","""event"",""trial"",""time""
""blur"",""0"",""543""
""focus"",""0"",""2209""
""fullscreenenter"",""0"",""3864""
","""event"",""trial"",""time""
""blur"",""0"",""543""
","""event"",""trial"",""time""
""focus"",""0"",""2209""
","""event"",""trial"",""time""
""fullscreenenter"",""0"",""3864""
","
","null","run_exp/static/images/Set 6_rs/186a.jpg","null","","","","","","learn","SR",""
"","html-keyboard-response","90","116648","0.0-90.0","""event"",""trial"",""time""
""blur"",""0"",""543""
""focus"",""0"",""2209""
""fullscreenenter"",""0"",""3864""
","""event"",""trial"",""time""
""blur"",""0"",""543""
","""event"",""trial"",""time""
""focus"",""0"",""2209""
","""event"",""trial"",""time""
""fullscreenenter"",""0"",""3864""
","
","null","<p></p>","null","","","","","","","",""
"","image","91","117986","0.0-91.0","""event"",""trial"",""time""
""blur"",""0"",""543""
""focus"",""0"",""2209""
""fullscreenenter"",""0"",""3864""
","""event"",""trial"",""time""
""blur"",""0"",""543""
","""event"",""trial"",""time""
""focus"",""0"",""2209""
","""event"",""trial"",""time""
""fullscreenenter"",""0"",""3864""
","
","1336.6000000238419","run_exp/static/images/Set 6_rs/129a.jpg","86","","","","","","learn","SL",""
"","show_choice","92","118652","0.0-92.0","""event"",""trial"",""time""
""blur"",""0"",""543""
""focus"",""0"",""2209""
""fullscreenenter"",""0"",""3864""
","""event"",""trial"",""time""
""blur"",""0"",""543""
","""event"",""trial"",""time""
""focus"",""0"",""2209""
","""event"",""trial"",""time""
""fullscreenenter"",""0"",""3864""
","
","null","run_exp/static/images/Set 6_rs/129a.jpg","null","","","","","","learn","SL",""
"","html-keyboard-response","93","119155","0.0-93.0","""event"",""trial"",""time""
""blur"",""0"",""543""
""focus"",""0"",""2209""
""fullscreenenter"",""0"",""3864""
","""event"",""trial"",""time""
""blur"",""0"",""543""
","""event"",""trial"",""time""
""focus"",""0"",""2209""
","""event"",""trial"",""time""
""fullscreenenter"",""0"",""3864""
","
","null","<p></p>","null","","","","","","","",""
"","image","94","120191","0.0-94.0","""event"",""trial"",""time""
""blur"",""0"",""543""
""focus"",""0"",""2209""
""fullscreenenter"",""0"",""3864""
","""event"",""trial"",""time""
""blur"",""0"",""543""
","""event"",""trial"",""time""
""focus"",""0"",""2209""
","""event"",""trial"",""time""
""fullscreenenter"",""0"",""3864""
","
","1035.199999988079","run_exp/static/images/Set 6_rs/121a.jpg","78","","","","","","learn","SR",""
"","show_choice","95","121155","0.0-95.0","""event"",""trial"",""time""
""blur"",""0"",""543""
""focus"",""0"",""2209""
""fullscreenenter"",""0"",""3864""
","""event"",""trial"",""time""
""blur"",""0"",""543""
","""event"",""trial"",""time""
""focus"",""0"",""2209""
","""event"",""trial"",""time""
""fullscreenenter"",""0"",""3864""
","
","null","run_exp/static/images/Set 6_rs/121a.jpg","null","","","","","","learn","SR",""
"","html-keyboard-response","96","121656","0.0-96.0","""event"",""trial"",""time""
""blur"",""0"",""543""
""focus"",""0"",""2209""
""fullscreenenter"",""0"",""3864""
","""event"",""trial"",""time""
""blur"",""0"",""543""
","""event"",""trial"",""time""
""focus"",""0"",""2209""
","""event"",""trial"",""time""
""fullscreenenter"",""0"",""3864""
","
","null","<p></p>","null","","","","","","","",""
"","image","97","123161","0.0-97.0","""event"",""trial"",""time""
""blur"",""0"",""543""
""focus"",""0"",""2209""
""fullscreenenter"",""0"",""3864""
","""event"",""trial"",""time""
""blur"",""0"",""543""
","""event"",""trial"",""time""
""focus"",""0"",""2209""
","""event"",""trial"",""time""
""fullscreenenter"",""0"",""3864""
","
","1504.300000011921","run_exp/static/images/Set 6_rs/008a.jpg","86","","","","","","learn","SL",""
"","show_choice","98","123660","0.0-98.0","""event"",""trial"",""time""
""blur"",""0"",""543""
""focus"",""0"",""2209""
""fullscreenenter"",""0"",""3864""
","""event"",""trial"",""time""
""blur"",""0"",""543""
","""event"",""trial"",""time""
""focus"",""0"",""2209""
","""event"",""trial"",""time""
""fullscreenenter"",""0"",""3864""
","
","null","run_exp/static/images/Set 6_rs/008a.jpg","null","","","","","","learn","SL",""
"","html-keyboard-response","99","124164","0.0-99.0","""event"",""trial"",""time""
""blur"",""0"",""543""
""focus"",""0"",""2209""
""fullscreenenter"",""0"",""3864""
","""event"",""trial"",""time""
""blur"",""0"",""543""
","""event"",""trial"",""time""
""focus"",""0"",""2209""
","""event"",""trial"",""time""
""fullscreenenter"",""0"",""3864""
","
","null","<p></p>","null","","","","","","","",""
"","image","100","125017","0.0-100.0","""event"",""trial"",""time""
""blur"",""0"",""543""
""focus"",""0"",""2209""
""fullscreenenter"",""0"",""3864""
","""event"",""trial"",""time""
""blur"",""0"",""543""
","""event"",""trial"",""time""
""focus"",""0"",""2209""
","""event"",""trial"",""time""
""fullscreenenter"",""0"",""3864""
","
","852.7999999821186","run_exp/static/images/Set 6_rs/154a.jpg","86","","","","","","learn","SR",""
"","show_choice","101","126167","0.0-101.0","""event"",""trial"",""time""
""blur"",""0"",""543""
""focus"",""0"",""2209""
""fullscreenenter"",""0"",""3864""
","""event"",""trial"",""time""
""blur"",""0"",""543""
","""event"",""trial"",""time""
""focus"",""0"",""2209""
","""event"",""trial"",""time""
""fullscreenenter"",""0"",""3864""
","
","null","run_exp/static/images/Set 6_rs/154a.jpg","null","","","","","","learn","SR",""
"","html-keyboard-response","102","126672","0.0-102.0","""event"",""trial"",""time""
""blur"",""0"",""543""
""focus"",""0"",""2209""
""fullscreenenter"",""0"",""3864""
","""event"",""trial"",""time""
""blur"",""0"",""543""
","""event"",""trial"",""time""
""focus"",""0"",""2209""
","""event"",""trial"",""time""
""fullscreenenter"",""0"",""3864""
","
","null","<p></p>","null","","","","","","","",""
"","image","103","127515","0.0-103.0","""event"",""trial"",""time""
""blur"",""0"",""543""
""focus"",""0"",""2209""
""fullscreenenter"",""0"",""3864""
","""event"",""trial"",""time""
""blur"",""0"",""543""
","""event"",""trial"",""time""
""focus"",""0"",""2209""
","""event"",""trial"",""time""
""fullscreenenter"",""0"",""3864""
","
","841.7999999821186","run_exp/static/images/Set 6_rs/023a.jpg","86","","","","","","learn","SR",""
"","show_choice","104","128674","0.0-104.0","""event"",""trial"",""time""
""blur"",""0"",""543""
""focus"",""0"",""2209""
""fullscreenenter"",""0"",""3864""
","""event"",""trial"",""time""
""blur"",""0"",""543""
","""event"",""trial"",""time""
""focus"",""0"",""2209""
","""event"",""trial"",""time""
""fullscreenenter"",""0"",""3864""
","
","null","run_exp/static/images/Set 6_rs/023a.jpg","null","","","","","","learn","SR",""
"","html-keyboard-response","105","129175","0.0-105.0","""event"",""trial"",""time""
""blur"",""0"",""543""
""focus"",""0"",""2209""
""fullscreenenter"",""0"",""3864""
","""event"",""trial"",""time""
""blur"",""0"",""543""
","""event"",""trial"",""time""
""focus"",""0"",""2209""
","""event"",""trial"",""time""
""fullscreenenter"",""0"",""3864""
","
","null","<p></p>","null","","","","","","","",""
"","image","106","130248","0.0-106.0","""event"",""trial"",""time""
""blur"",""0"",""543""
""focus"",""0"",""2209""
""fullscreenenter"",""0"",""3864""
","""event"",""trial"",""time""
""blur"",""0"",""543""
","""event"",""trial"",""time""
""focus"",""0"",""2209""
","""event"",""trial"",""time""
""fullscreenenter"",""0"",""3864""
","
","1072.4000000059605","run_exp/static/images/Set 6_rs/071a.jpg","78","","","","","","learn","SL",""
"","show_choice","107","131176","0.0-107.0","""event"",""trial"",""time""
""blur"",""0"",""543""
""focus"",""0"",""2209""
""fullscreenenter"",""0"",""3864""
","""event"",""trial"",""time""
""blur"",""0"",""543""
","""event"",""trial"",""time""
""focus"",""0"",""2209""
","""event"",""trial"",""time""
""fullscreenenter"",""0"",""3864""
","
","null","run_exp/static/images/Set 6_rs/071a.jpg","null","","","","","","learn","SL",""
"","html-keyboard-response","108","131682","0.0-108.0","""event"",""trial"",""time""
""blur"",""0"",""543""
""focus"",""0"",""2209""
""fullscreenenter"",""0"",""3864""
","""event"",""trial"",""time""
""blur"",""0"",""543""
","""event"",""trial"",""time""
""focus"",""0"",""2209""
","""event"",""trial"",""time""
""fullscreenenter"",""0"",""3864""
","
","null","<p></p>","null","","","","","","","",""
"","image","109","132701","0.0-109.0","""event"",""trial"",""time""
""blur"",""0"",""543""
""focus"",""0"",""2209""
""fullscreenenter"",""0"",""3864""
","""event"",""trial"",""time""
""blur"",""0"",""543""
","""event"",""trial"",""time""
""focus"",""0"",""2209""
","""event"",""trial"",""time""
""fullscreenenter"",""0"",""3864""
","
","1018.6000000238419","run_exp/static/images/Set 6_rs/007a.jpg","86","","","","","","learn","SR",""
"","show_choice","110","133686","0.0-110.0","""event"",""trial"",""time""
""blur"",""0"",""543""
""focus"",""0"",""2209""
""fullscreenenter"",""0"",""3864""
","""event"",""trial"",""time""
""blur"",""0"",""543""
","""event"",""trial"",""time""
""focus"",""0"",""2209""
","""event"",""trial"",""time""
""fullscreenenter"",""0"",""3864""
","
","null","run_exp/static/images/Set 6_rs/007a.jpg","null","","","","","","learn","SR",""
"","html-keyboard-response","111","134188","0.0-111.0","""event"",""trial"",""time""
""blur"",""0"",""543""
""focus"",""0"",""2209""
""fullscreenenter"",""0"",""3864""
","""event"",""trial"",""time""
""blur"",""0"",""543""
","""event"",""trial"",""time""
""focus"",""0"",""2209""
","""event"",""trial"",""time""
""fullscreenenter"",""0"",""3864""
","
","null","<p></p>","null","","","","","","","",""
"","image","112","135918","0.0-112.0","""event"",""trial"",""time""
""blur"",""0"",""543""
""focus"",""0"",""2209""
""fullscreenenter"",""0"",""3864""
","""event"",""trial"",""time""
""blur"",""0"",""543""
","""event"",""trial"",""time""
""focus"",""0"",""2209""
","""event"",""trial"",""time""
""fullscreenenter"",""0"",""3864""
","
","1730.2999999821186","run_exp/static/images/Set 6_rs/085a.jpg","78","","","","","","learn","SL",""
"","show_choice","113","136193","0.0-113.0","""event"",""trial"",""time""
""blur"",""0"",""543""
""focus"",""0"",""2209""
""fullscreenenter"",""0"",""3864""
","""event"",""trial"",""time""
""blur"",""0"",""543""
","""event"",""trial"",""time""
""focus"",""0"",""2209""
","""event"",""trial"",""time""
""fullscreenenter"",""0"",""3864""
","
","null","run_exp/static/images/Set 6_rs/085a.jpg","null","","","","","","learn","SL",""
"","html-keyboard-response","114","136693","0.0-114.0","""event"",""trial"",""time""
""blur"",""0"",""543""
""focus"",""0"",""2209""
""fullscreenenter"",""0"",""3864""
","""event"",""trial"",""time""
""blur"",""0"",""543""
","""event"",""trial"",""time""
""focus"",""0"",""2209""
","""event"",""trial"",""time""
""fullscreenenter"",""0"",""3864""
","
","null","<p></p>","null","","","","","","","",""
"","image","115","138450","0.0-115.0","""event"",""trial"",""time""
""blur"",""0"",""543""
""focus"",""0"",""2209""
""fullscreenenter"",""0"",""3864""
","""event"",""trial"",""time""
""blur"",""0"",""543""
","""event"",""trial"",""time""
""focus"",""0"",""2209""
","""event"",""trial"",""time""
""fullscreenenter"",""0"",""3864""
","
","1755.6000000238419","run_exp/static/images/Set 6_rs/172a.jpg","86","","","","","","learn","SR",""
"","show_choice","116","138694","0.0-116.0","""event"",""trial"",""time""
""blur"",""0"",""543""
""focus"",""0"",""2209""
""fullscreenenter"",""0"",""3864""
","""event"",""trial"",""time""
""blur"",""0"",""543""
","""event"",""trial"",""time""
""focus"",""0"",""2209""
","""event"",""trial"",""time""
""fullscreenenter"",""0"",""3864""
","
","null","run_exp/static/images/Set 6_rs/172a.jpg","null","","","","","","learn","SR",""
"","html-keyboard-response","117","139200","0.0-117.0","""event"",""trial"",""time""
""blur"",""0"",""543""
""focus"",""0"",""2209""
""fullscreenenter"",""0"",""3864""
","""event"",""trial"",""time""
""blur"",""0"",""543""
","""event"",""trial"",""time""
""focus"",""0"",""2209""
","""event"",""trial"",""time""
""fullscreenenter"",""0"",""3864""
","
","null","<p></p>","null","","","","","","","",""
"","image","118","140429","0.0-118.0","""event"",""trial"",""time""
""blur"",""0"",""543""
""focus"",""0"",""2209""
""fullscreenenter"",""0"",""3864""
","""event"",""trial"",""time""
""blur"",""0"",""543""
","""event"",""trial"",""time""
""focus"",""0"",""2209""
","""event"",""trial"",""time""
""fullscreenenter"",""0"",""3864""
","
","1228.9000000059605","run_exp/static/images/Set 6_rs/025a.jpg","78","","","","","","learn","SL",""
"","show_choice","119","141206","0.0-119.0","""event"",""trial"",""time""
""blur"",""0"",""543""
""focus"",""0"",""2209""
""fullscreenenter"",""0"",""3864""
","""event"",""trial"",""time""
""blur"",""0"",""543""
","""event"",""trial"",""time""
""focus"",""0"",""2209""
","""event"",""trial"",""time""
""fullscreenenter"",""0"",""3864""
","
","null","run_exp/static/images/Set 6_rs/025a.jpg","null","","","","","","learn","SL",""
"","html-keyboard-response","120","141711","0.0-120.0","""event"",""trial"",""time""
""blur"",""0"",""543""
""focus"",""0"",""2209""
""fullscreenenter"",""0"",""3864""
","""event"",""trial"",""time""
""blur"",""0"",""543""
","""event"",""trial"",""time""
""focus"",""0"",""2209""
","""event"",""trial"",""time""
""fullscreenenter"",""0"",""3864""
","
","null","<p></p>","null","","","","","","","",""
"","image","121","143377","0.0-121.0","""event"",""trial"",""time""
""blur"",""0"",""543""
""focus"",""0"",""2209""
""fullscreenenter"",""0"",""3864""
","""event"",""trial"",""time""
""blur"",""0"",""543""
","""event"",""trial"",""time""
""focus"",""0"",""2209""
","""event"",""trial"",""time""
""fullscreenenter"",""0"",""3864""
","
","1665.300000011921","run_exp/static/images/Set 6_rs/089a.jpg","78","","","","","","learn","SL",""
"","show_choice","122","143712","0.0-122.0","""event"",""trial"",""time""
""blur"",""0"",""543""
""focus"",""0"",""2209""
""fullscreenenter"",""0"",""3864""
","""event"",""trial"",""time""
""blur"",""0"",""543""
","""event"",""trial"",""time""
""focus"",""0"",""2209""
","""event"",""trial"",""time""
""fullscreenenter"",""0"",""3864""
","
","null","run_exp/static/images/Set 6_rs/089a.jpg","null","","","","","","learn","SL",""
"","html-keyboard-response","123","144218","0.0-123.0","""event"",""trial"",""time""
""blur"",""0"",""543""
""focus"",""0"",""2209""
""fullscreenenter"",""0"",""3864""
","""event"",""trial"",""time""
""blur"",""0"",""543""
","""event"",""trial"",""time""
""focus"",""0"",""2209""
","""event"",""trial"",""time""
""fullscreenenter"",""0"",""3864""
","
","null","<p></p>","null","","","","","","","",""
"","image","124","145571","0.0-124.0","""event"",""trial"",""time""
""blur"",""0"",""543""
""focus"",""0"",""2209""
""fullscreenenter"",""0"",""3864""
","""event"",""trial"",""time""
""blur"",""0"",""543""
","""event"",""trial"",""time""
""focus"",""0"",""2209""
","""event"",""trial"",""time""
""fullscreenenter"",""0"",""3864""
","
","1352.7000000178814","run_exp/static/images/Set 6_rs/144a.jpg","86","","","","","","learn","SL",""
"","show_choice","125","146222","0.0-125.0","""event"",""trial"",""time""
""blur"",""0"",""543""
""focus"",""0"",""2209""
""fullscreenenter"",""0"",""3864""
","""event"",""trial"",""time""
""blur"",""0"",""543""
","""event"",""trial"",""time""
""focus"",""0"",""2209""
","""event"",""trial"",""time""
""fullscreenenter"",""0"",""3864""
","
","null","run_exp/static/images/Set 6_rs/144a.jpg","null","","","","","","learn","SL",""
"","html-keyboard-response","126","146727","0.0-126.0","""event"",""trial"",""time""
""blur"",""0"",""543""
""focus"",""0"",""2209""
""fullscreenenter"",""0"",""3864""
","""event"",""trial"",""time""
""blur"",""0"",""543""
","""event"",""trial"",""time""
""focus"",""0"",""2209""
","""event"",""trial"",""time""
""fullscreenenter"",""0"",""3864""
","
","null","<p></p>","null","","","","","","","",""
"","image","127","148406","0.0-127.0","""event"",""trial"",""time""
""blur"",""0"",""543""
""focus"",""0"",""2209""
""fullscreenenter"",""0"",""3864""
","""event"",""trial"",""time""
""blur"",""0"",""543""
","""event"",""trial"",""time""
""focus"",""0"",""2209""
","""event"",""trial"",""time""
""fullscreenenter"",""0"",""3864""
","
","1678","run_exp/static/images/Set 6_rs/111a.jpg","86","","","","","","learn","SL",""
"","show_choice","128","148730","0.0-128.0","""event"",""trial"",""time""
""blur"",""0"",""543""
""focus"",""0"",""2209""
""fullscreenenter"",""0"",""3864""
","""event"",""trial"",""time""
""blur"",""0"",""543""
","""event"",""trial"",""time""
""focus"",""0"",""2209""
","""event"",""trial"",""time""
""fullscreenenter"",""0"",""3864""
","
","null","run_exp/static/images/Set 6_rs/111a.jpg","null","","","","","","learn","SL",""
"","html-keyboard-response","129","149233","0.0-129.0","""event"",""trial"",""time""
""blur"",""0"",""543""
""focus"",""0"",""2209""
""fullscreenenter"",""0"",""3864""
","""event"",""trial"",""time""
""blur"",""0"",""543""
","""event"",""trial"",""time""
""focus"",""0"",""2209""
","""event"",""trial"",""time""
""fullscreenenter"",""0"",""3864""
","
","null","<p></p>","null","","","","","","","",""
"","image","130","150239","0.0-130.0","""event"",""trial"",""time""
""blur"",""0"",""543""
""focus"",""0"",""2209""
""fullscreenenter"",""0"",""3864""
","""event"",""trial"",""time""
""blur"",""0"",""543""
","""event"",""trial"",""time""
""focus"",""0"",""2209""
","""event"",""trial"",""time""
""fullscreenenter"",""0"",""3864""
","
","1005.7000000178814","run_exp/static/images/Set 6_rs/076a.jpg","86","","","","","","learn","SR",""
"","show_choice","131","151239","0.0-131.0","""event"",""trial"",""time""
""blur"",""0"",""543""
""focus"",""0"",""2209""
""fullscreenenter"",""0"",""3864""
","""event"",""trial"",""time""
""blur"",""0"",""543""
","""event"",""trial"",""time""
""focus"",""0"",""2209""
","""event"",""trial"",""time""
""fullscreenenter"",""0"",""3864""
","
","null","run_exp/static/images/Set 6_rs/076a.jpg","null","","","","","","learn","SR",""
"","html-keyboard-response","132","151744","0.0-132.0","""event"",""trial"",""time""
""blur"",""0"",""543""
""focus"",""0"",""2209""
""fullscreenenter"",""0"",""3864""
","""event"",""trial"",""time""
""blur"",""0"",""543""
","""event"",""trial"",""time""
""focus"",""0"",""2209""
","""event"",""trial"",""time""
""fullscreenenter"",""0"",""3864""
","
","null","<p></p>","null","","","","","","","",""
"","image","133","153244","0.0-133.0","""event"",""trial"",""time""
""blur"",""0"",""543""
""focus"",""0"",""2209""
""fullscreenenter"",""0"",""3864""
","""event"",""trial"",""time""
""blur"",""0"",""543""
","""event"",""trial"",""time""
""focus"",""0"",""2209""
","""event"",""trial"",""time""
""fullscreenenter"",""0"",""3864""
","
","1499.1000000238419","run_exp/static/images/Set 6_rs/169a.jpg","78","","","","","","learn","SR",""
"","show_choice","134","153749","0.0-134.0","""event"",""trial"",""time""
""blur"",""0"",""543""
""focus"",""0"",""2209""
""fullscreenenter"",""0"",""3864""
","""event"",""trial"",""time""
""blur"",""0"",""543""
","""event"",""trial"",""time""
""focus"",""0"",""2209""
","""event"",""trial"",""time""
""fullscreenenter"",""0"",""3864""
","
","null","run_exp/static/images/Set 6_rs/169a.jpg","null","","","","","","learn","SR",""
"","html-keyboard-response","135","154249","0.0-135.0","""event"",""trial"",""time""
""blur"",""0"",""543""
""focus"",""0"",""2209""
""fullscreenenter"",""0"",""3864""
","""event"",""trial"",""time""
""blur"",""0"",""543""
","""event"",""trial"",""time""
""focus"",""0"",""2209""
","""event"",""trial"",""time""
""fullscreenenter"",""0"",""3864""
","
","null","<p></p>","null","","","","","","","",""
"","image","136","155831","0.0-136.0","""event"",""trial"",""time""
""blur"",""0"",""543""
""focus"",""0"",""2209""
""fullscreenenter"",""0"",""3864""
","""event"",""trial"",""time""
""blur"",""0"",""543""
","""event"",""trial"",""time""
""focus"",""0"",""2209""
","""event"",""trial"",""time""
""fullscreenenter"",""0"",""3864""
","
","1581.199999988079","run_exp/static/images/Set 6_rs/016a.jpg","86","","","","","","learn","SL",""
"","show_choice","137","156250","0.0-137.0","""event"",""trial"",""time""
""blur"",""0"",""543""
""focus"",""0"",""2209""
""fullscreenenter"",""0"",""3864""
","""event"",""trial"",""time""
""blur"",""0"",""543""
","""event"",""trial"",""time""
""focus"",""0"",""2209""
","""event"",""trial"",""time""
""fullscreenenter"",""0"",""3864""
","
","null","run_exp/static/images/Set 6_rs/016a.jpg","null","","","","","","learn","SL",""
"","html-keyboard-response","138","156753","0.0-138.0","""event"",""trial"",""time""
""blur"",""0"",""543""
""focus"",""0"",""2209""
""fullscreenenter"",""0"",""3864""
","""event"",""trial"",""time""
""blur"",""0"",""543""
","""event"",""trial"",""time""
""focus"",""0"",""2209""
","""event"",""trial"",""time""
""fullscreenenter"",""0"",""3864""
","
","null","<p></p>","null","","","","","","","",""
"","image","139","158306","0.0-139.0","""event"",""trial"",""time""
""blur"",""0"",""543""
""focus"",""0"",""2209""
""fullscreenenter"",""0"",""3864""
","""event"",""trial"",""time""
""blur"",""0"",""543""
","""event"",""trial"",""time""
""focus"",""0"",""2209""
","""event"",""trial"",""time""
""fullscreenenter"",""0"",""3864""
","
","1552.0999999940395","run_exp/static/images/Set 6_rs/014a.jpg","86","","","","","","learn","SL",""
"","show_choice","140","158759","0.0-140.0","""event"",""trial"",""time""
""blur"",""0"",""543""
""focus"",""0"",""2209""
""fullscreenenter"",""0"",""3864""
","""event"",""trial"",""time""
""blur"",""0"",""543""
","""event"",""trial"",""time""
""focus"",""0"",""2209""
","""event"",""trial"",""time""
""fullscreenenter"",""0"",""3864""
","
","null","run_exp/static/images/Set 6_rs/014a.jpg","null","","","","","","learn","SL",""
"","html-keyboard-response","141","159264","0.0-141.0","""event"",""trial"",""time""
""blur"",""0"",""543""
""focus"",""0"",""2209""
""fullscreenenter"",""0"",""3864""
","""event"",""trial"",""time""
""blur"",""0"",""543""
","""event"",""trial"",""time""
""focus"",""0"",""2209""
","""event"",""trial"",""time""
""fullscreenenter"",""0"",""3864""
","
","null","<p></p>","null","","","","","","","",""
"","image","142","160950","0.0-142.0","""event"",""trial"",""time""
""blur"",""0"",""543""
""focus"",""0"",""2209""
""fullscreenenter"",""0"",""3864""
","""event"",""trial"",""time""
""blur"",""0"",""543""
","""event"",""trial"",""time""
""focus"",""0"",""2209""
","""event"",""trial"",""time""
""fullscreenenter"",""0"",""3864""
","
","1684.9000000059605","run_exp/static/images/Set 6_rs/074a.jpg","78","","","","","","learn","SL",""
"","show_choice","143","161266","0.0-143.0","""event"",""trial"",""time""
""blur"",""0"",""543""
""focus"",""0"",""2209""
""fullscreenenter"",""0"",""3864""
","""event"",""trial"",""time""
""blur"",""0"",""543""
","""event"",""trial"",""time""
""focus"",""0"",""2209""
","""event"",""trial"",""time""
""fullscreenenter"",""0"",""3864""
","
","null","run_exp/static/images/Set 6_rs/074a.jpg","null","","","","","","learn","SL",""
"","html-keyboard-response","144","161771","0.0-144.0","""event"",""trial"",""time""
""blur"",""0"",""543""
""focus"",""0"",""2209""
""fullscreenenter"",""0"",""3864""
","""event"",""trial"",""time""
""blur"",""0"",""543""
","""event"",""trial"",""time""
""focus"",""0"",""2209""
","""event"",""trial"",""time""
""fullscreenenter"",""0"",""3864""
","
","null","<p></p>","null","","","","","","","",""
"","image","145","163166","0.0-145.0","""event"",""trial"",""time""
""blur"",""0"",""543""
""focus"",""0"",""2209""
""fullscreenenter"",""0"",""3864""
","""event"",""trial"",""time""
""blur"",""0"",""543""
","""event"",""trial"",""time""
""focus"",""0"",""2209""
","""event"",""trial"",""time""
""fullscreenenter"",""0"",""3864""
","
","1393.9000000059605","run_exp/static/images/Set 6_rs/167a.jpg","86","","","","","","learn","SL",""
"","show_choice","146","163777","0.0-146.0","""event"",""trial"",""time""
""blur"",""0"",""543""
""focus"",""0"",""2209""
""fullscreenenter"",""0"",""3864""
","""event"",""trial"",""time""
""blur"",""0"",""543""
","""event"",""trial"",""time""
""focus"",""0"",""2209""
","""event"",""trial"",""time""
""fullscreenenter"",""0"",""3864""
","
","null","run_exp/static/images/Set 6_rs/167a.jpg","null","","","","","","learn","SL",""
"","html-keyboard-response","147","164278","0.0-147.0","""event"",""trial"",""time""
""blur"",""0"",""543""
""focus"",""0"",""2209""
""fullscreenenter"",""0"",""3864""
","""event"",""trial"",""time""
""blur"",""0"",""543""
","""event"",""trial"",""time""
""focus"",""0"",""2209""
","""event"",""trial"",""time""
""fullscreenenter"",""0"",""3864""
","
","null","<p></p>","null","","","","","","","",""
"","image","148","165506","0.0-148.0","""event"",""trial"",""time""
""blur"",""0"",""543""
""focus"",""0"",""2209""
""fullscreenenter"",""0"",""3864""
","""event"",""trial"",""time""
""blur"",""0"",""543""
","""event"",""trial"",""time""
""focus"",""0"",""2209""
","""event"",""trial"",""time""
""fullscreenenter"",""0"",""3864""
","
","1227.9000000059605","run_exp/static/images/Set 6_rs/017a.jpg","78","","","","","","learn","SL",""
"","show_choice","149","166283","0.0-149.0","""event"",""trial"",""time""
""blur"",""0"",""543""
""focus"",""0"",""2209""
""fullscreenenter"",""0"",""3864""
","""event"",""trial"",""time""
""blur"",""0"",""543""
","""event"",""trial"",""time""
""focus"",""0"",""2209""
","""event"",""trial"",""time""
""fullscreenenter"",""0"",""3864""
","
","null","run_exp/static/images/Set 6_rs/017a.jpg","null","","","","","","learn","SL",""
"","html-keyboard-response","150","166786","0.0-150.0","""event"",""trial"",""time""
""blur"",""0"",""543""
""focus"",""0"",""2209""
""fullscreenenter"",""0"",""3864""
","""event"",""trial"",""time""
""blur"",""0"",""543""
","""event"",""trial"",""time""
""focus"",""0"",""2209""
","""event"",""trial"",""time""
""fullscreenenter"",""0"",""3864""
","
","null","<p></p>","null","","","","","","","",""
"","image","151","167801","0.0-151.0","""event"",""trial"",""time""
""blur"",""0"",""543""
""focus"",""0"",""2209""
""fullscreenenter"",""0"",""3864""
","""event"",""trial"",""time""
""blur"",""0"",""543""
","""event"",""trial"",""time""
""focus"",""0"",""2209""
","""event"",""trial"",""time""
""fullscreenenter"",""0"",""3864""
","
","1014.7000000178814","run_exp/static/images/Set 6_rs/062a.jpg","86","","","","","","learn","SL",""
"","show_choice","152","168790","0.0-152.0","""event"",""trial"",""time""
""blur"",""0"",""543""
""focus"",""0"",""2209""
""fullscreenenter"",""0"",""3864""
","""event"",""trial"",""time""
""blur"",""0"",""543""
","""event"",""trial"",""time""
""focus"",""0"",""2209""
","""event"",""trial"",""time""
""fullscreenenter"",""0"",""3864""
","
","null","run_exp/static/images/Set 6_rs/062a.jpg","null","","","","","","learn","SL",""
"","html-keyboard-response","153","169296","0.0-153.0","""event"",""trial"",""time""
""blur"",""0"",""543""
""focus"",""0"",""2209""
""fullscreenenter"",""0"",""3864""
","""event"",""trial"",""time""
""blur"",""0"",""543""
","""event"",""trial"",""time""
""focus"",""0"",""2209""
","""event"",""trial"",""time""
""fullscreenenter"",""0"",""3864""
","
","null","<p></p>","null","","","","","","","",""
"","image","154","170062","0.0-154.0","""event"",""trial"",""time""
""blur"",""0"",""543""
""focus"",""0"",""2209""
""fullscreenenter"",""0"",""3864""
","""event"",""trial"",""time""
""blur"",""0"",""543""
","""event"",""trial"",""time""
""focus"",""0"",""2209""
","""event"",""trial"",""time""
""fullscreenenter"",""0"",""3864""
","
","766","run_exp/static/images/Set 6_rs/166a.jpg","86","","","","","","learn","SR",""
"","show_choice","155","171301","0.0-155.0","""event"",""trial"",""time""
""blur"",""0"",""543""
""focus"",""0"",""2209""
""fullscreenenter"",""0"",""3864""
","""event"",""trial"",""time""
""blur"",""0"",""543""
","""event"",""trial"",""time""
""focus"",""0"",""2209""
","""event"",""trial"",""time""
""fullscreenenter"",""0"",""3864""
","
","null","run_exp/static/images/Set 6_rs/166a.jpg","null","","","","","","learn","SR",""
"","html-keyboard-response","156","171804","0.0-156.0","""event"",""trial"",""time""
""blur"",""0"",""543""
""focus"",""0"",""2209""
""fullscreenenter"",""0"",""3864""
","""event"",""trial"",""time""
""blur"",""0"",""543""
","""event"",""trial"",""time""
""focus"",""0"",""2209""
","""event"",""trial"",""time""
""fullscreenenter"",""0"",""3864""
","
","null","<p></p>","null","","","","","","","",""
"","image","157","173044","0.0-157.0","""event"",""trial"",""time""
""blur"",""0"",""543""
""focus"",""0"",""2209""
""fullscreenenter"",""0"",""3864""
","""event"",""trial"",""time""
""blur"",""0"",""543""
","""event"",""trial"",""time""
""focus"",""0"",""2209""
","""event"",""trial"",""time""
""fullscreenenter"",""0"",""3864""
","
","1238.800000011921","run_exp/static/images/Set 6_rs/122a.jpg","86","","","","","","learn","SR",""
"","show_choice","158","173808","0.0-158.0","""event"",""trial"",""time""
""blur"",""0"",""543""
""focus"",""0"",""2209""
""fullscreenenter"",""0"",""3864""
","""event"",""trial"",""time""
""blur"",""0"",""543""
","""event"",""trial"",""time""
""focus"",""0"",""2209""
","""event"",""trial"",""time""
""fullscreenenter"",""0"",""3864""
","
","null","run_exp/static/images/Set 6_rs/122a.jpg","null","","","","","","learn","SR",""
"","html-keyboard-response","159","174313","0.0-159.0","""event"",""trial"",""time""
""blur"",""0"",""543""
""focus"",""0"",""2209""
""fullscreenenter"",""0"",""3864""
","""event"",""trial"",""time""
""blur"",""0"",""543""
","""event"",""trial"",""time""
""focus"",""0"",""2209""
","""event"",""trial"",""time""
""fullscreenenter"",""0"",""3864""
","
","null","<p></p>","null","","","","","","","",""
"","image","160","175339","0.0-160.0","""event"",""trial"",""time""
""blur"",""0"",""543""
""focus"",""0"",""2209""
""fullscreenenter"",""0"",""3864""
","""event"",""trial"",""time""
""blur"",""0"",""543""
","""event"",""trial"",""time""
""focus"",""0"",""2209""
","""event"",""trial"",""time""
""fullscreenenter"",""0"",""3864""
","
","1025.4000000059605","run_exp/static/images/Set 6_rs/024a.jpg","86","","","","","","learn","SR",""
"","show_choice","161","176319","0.0-161.0","""event"",""trial"",""time""
""blur"",""0"",""543""
""focus"",""0"",""2209""
""fullscreenenter"",""0"",""3864""
","""event"",""trial"",""time""
""blur"",""0"",""543""
","""event"",""trial"",""time""
""focus"",""0"",""2209""
","""event"",""trial"",""time""
""fullscreenenter"",""0"",""3864""
","
","null","run_exp/static/images/Set 6_rs/024a.jpg","null","","","","","","learn","SR",""
"","html-keyboard-response","162","176821","0.0-162.0","""event"",""trial"",""time""
""blur"",""0"",""543""
""focus"",""0"",""2209""
""fullscreenenter"",""0"",""3864""
","""event"",""trial"",""time""
""blur"",""0"",""543""
","""event"",""trial"",""time""
""focus"",""0"",""2209""
","""event"",""trial"",""time""
""fullscreenenter"",""0"",""3864""
","
","null","<p></p>","null","","","","","","","",""
"","image","163","178590","0.0-163.0","""event"",""trial"",""time""
""blur"",""0"",""543""
""focus"",""0"",""2209""
""fullscreenenter"",""0"",""3864""
","""event"",""trial"",""time""
""blur"",""0"",""543""
","""event"",""trial"",""time""
""focus"",""0"",""2209""
","""event"",""trial"",""time""
""fullscreenenter"",""0"",""3864""
","
","1768.5999999940395","run_exp/static/images/Set 6_rs/123a.jpg","78","","","","","","learn","SL",""
"","show_choice","164","178826","0.0-164.0","""event"",""trial"",""time""
""blur"",""0"",""543""
""focus"",""0"",""2209""
""fullscreenenter"",""0"",""3864""
","""event"",""trial"",""time""
""blur"",""0"",""543""
","""event"",""trial"",""time""
""focus"",""0"",""2209""
","""event"",""trial"",""time""
""fullscreenenter"",""0"",""3864""
","
","null","run_exp/static/images/Set 6_rs/123a.jpg","null","","","","","","learn","SL",""
"","html-keyboard-response","165","179332","0.0-165.0","""event"",""trial"",""time""
""blur"",""0"",""543""
""focus"",""0"",""2209""
""fullscreenenter"",""0"",""3864""
","""event"",""trial"",""time""
""blur"",""0"",""543""
","""event"",""trial"",""time""
""focus"",""0"",""2209""
","""event"",""trial"",""time""
""fullscreenenter"",""0"",""3864""
","
","null","<p></p>","null","","","","","","","",""
"","image","166","180356","0.0-166.0","""event"",""trial"",""time""
""blur"",""0"",""543""
""focus"",""0"",""2209""
""fullscreenenter"",""0"",""3864""
","""event"",""trial"",""time""
""blur"",""0"",""543""
","""event"",""trial"",""time""
""focus"",""0"",""2209""
","""event"",""trial"",""time""
""fullscreenenter"",""0"",""3864""
","
","1023.1999999880791","run_exp/static/images/Set 6_rs/091a.jpg","78","","","","","","learn","SL",""
"","show_choice","167","181338","0.0-167.0","""event"",""trial"",""time""
""blur"",""0"",""543""
""focus"",""0"",""2209""
""fullscreenenter"",""0"",""3864""
","""event"",""trial"",""time""
""blur"",""0"",""543""
","""event"",""trial"",""time""
""focus"",""0"",""2209""
","""event"",""trial"",""time""
""fullscreenenter"",""0"",""3864""
","
","null","run_exp/static/images/Set 6_rs/091a.jpg","null","","","","","","learn","SL",""
"","html-keyboard-response","168","181840","0.0-168.0","""event"",""trial"",""time""
""blur"",""0"",""543""
""focus"",""0"",""2209""
""fullscreenenter"",""0"",""3864""
","""event"",""trial"",""time""
""blur"",""0"",""543""
","""event"",""trial"",""time""
""focus"",""0"",""2209""
","""event"",""trial"",""time""
""fullscreenenter"",""0"",""3864""
","
","null","<p></p>","null","","","","","","","",""
"","image","169","182640","0.0-169.0","""event"",""trial"",""time""
""blur"",""0"",""543""
""focus"",""0"",""2209""
""fullscreenenter"",""0"",""3864""
","""event"",""trial"",""time""
""blur"",""0"",""543""
","""event"",""trial"",""time""
""focus"",""0"",""2209""
","""event"",""trial"",""time""
""fullscreenenter"",""0"",""3864""
","
","798.6000000238419","run_exp/static/images/Set 6_rs/055a.jpg","86","","","","","","learn","SL",""
"","show_choice","170","183841","0.0-170.0","""event"",""trial"",""time""
""blur"",""0"",""543""
""focus"",""0"",""2209""
""fullscreenenter"",""0"",""3864""
","""event"",""trial"",""time""
""blur"",""0"",""543""
","""event"",""trial"",""time""
""focus"",""0"",""2209""
","""event"",""trial"",""time""
""fullscreenenter"",""0"",""3864""
","
","null","run_exp/static/images/Set 6_rs/055a.jpg","null","","","","","","learn","SL",""
"","html-keyboard-response","171","184346","0.0-171.0","""event"",""trial"",""time""
""blur"",""0"",""543""
""focus"",""0"",""2209""
""fullscreenenter"",""0"",""3864""
","""event"",""trial"",""time""
""blur"",""0"",""543""
","""event"",""trial"",""time""
""focus"",""0"",""2209""
","""event"",""trial"",""time""
""fullscreenenter"",""0"",""3864""
","
","null","<p></p>","null","","","","","","","",""
"","image","172","186105","0.0-172.0","""event"",""trial"",""time""
""blur"",""0"",""543""
""focus"",""0"",""2209""
""fullscreenenter"",""0"",""3864""
","""event"",""trial"",""time""
""blur"",""0"",""543""
","""event"",""trial"",""time""
""focus"",""0"",""2209""
","""event"",""trial"",""time""
""fullscreenenter"",""0"",""3864""
","
","1758.2999999821186","run_exp/static/images/Set 6_rs/178a.jpg","78","","","","","","learn","SR",""
"","show_choice","173","186352","0.0-173.0","""event"",""trial"",""time""
""blur"",""0"",""543""
""focus"",""0"",""2209""
""fullscreenenter"",""0"",""3864""
","""event"",""trial"",""time""
""blur"",""0"",""543""
","""event"",""trial"",""time""
""focus"",""0"",""2209""
","""event"",""trial"",""time""
""fullscreenenter"",""0"",""3864""
","
","null","run_exp/static/images/Set 6_rs/178a.jpg","null","","","","","","learn","SR",""
"","html-keyboard-response","174","186852","0.0-174.0","""event"",""trial"",""time""
""blur"",""0"",""543""
""focus"",""0"",""2209""
""fullscreenenter"",""0"",""3864""
","""event"",""trial"",""time""
""blur"",""0"",""543""
","""event"",""trial"",""time""
""focus"",""0"",""2209""
","""event"",""trial"",""time""
""fullscreenenter"",""0"",""3864""
","
","null","<p></p>","null","","","","","","","",""
"","image","175","188051","0.0-175.0","""event"",""trial"",""time""
""blur"",""0"",""543""
""focus"",""0"",""2209""
""fullscreenenter"",""0"",""3864""
","""event"",""trial"",""time""
""blur"",""0"",""543""
","""event"",""trial"",""time""
""focus"",""0"",""2209""
","""event"",""trial"",""time""
""fullscreenenter"",""0"",""3864""
","
","1198.300000011921","run_exp/static/images/Set 6_rs/019a.jpg","86","","","","","","learn","SL",""
"","show_choice","176","188857","0.0-176.0","""event"",""trial"",""time""
""blur"",""0"",""543""
""focus"",""0"",""2209""
""fullscreenenter"",""0"",""3864""
","""event"",""trial"",""time""
""blur"",""0"",""543""
","""event"",""trial"",""time""
""focus"",""0"",""2209""
","""event"",""trial"",""time""
""fullscreenenter"",""0"",""3864""
","
","null","run_exp/static/images/Set 6_rs/019a.jpg","null","","","","","","learn","SL",""
"","html-keyboard-response","177","189359","0.0-177.0","""event"",""trial"",""time""
""blur"",""0"",""543""
""focus"",""0"",""2209""
""fullscreenenter"",""0"",""3864""
","""event"",""trial"",""time""
""blur"",""0"",""543""
","""event"",""trial"",""time""
""focus"",""0"",""2209""
","""event"",""trial"",""time""
""fullscreenenter"",""0"",""3864""
","
","null","<p></p>","null","","","","","","","",""
"","image","178","190908","0.0-178.0","""event"",""trial"",""time""
""blur"",""0"",""543""
""focus"",""0"",""2209""
""fullscreenenter"",""0"",""3864""
","""event"",""trial"",""time""
""blur"",""0"",""543""
","""event"",""trial"",""time""
""focus"",""0"",""2209""
","""event"",""trial"",""time""
""fullscreenenter"",""0"",""3864""
","
","1548.7000000178814","run_exp/static/images/Set 6_rs/088a.jpg","86","","","","","","learn","SR",""
"","show_choice","179","191360","0.0-179.0","""event"",""trial"",""time""
""blur"",""0"",""543""
""focus"",""0"",""2209""
""fullscreenenter"",""0"",""3864""
","""event"",""trial"",""time""
""blur"",""0"",""543""
","""event"",""trial"",""time""
""focus"",""0"",""2209""
","""event"",""trial"",""time""
""fullscreenenter"",""0"",""3864""
","
","null","run_exp/static/images/Set 6_rs/088a.jpg","null","","","","","","learn","SR",""
"","html-keyboard-response","180","191861","0.0-180.0","""event"",""trial"",""time""
""blur"",""0"",""543""
""focus"",""0"",""2209""
""fullscreenenter"",""0"",""3864""
","""event"",""trial"",""time""
""blur"",""0"",""543""
","""event"",""trial"",""time""
""focus"",""0"",""2209""
","""event"",""trial"",""time""
""fullscreenenter"",""0"",""3864""
","
","null","<p></p>","null","","","","","","","",""
"","image","181","193249","0.0-181.0","""event"",""trial"",""time""
""blur"",""0"",""543""
""focus"",""0"",""2209""
""fullscreenenter"",""0"",""3864""
","""event"",""trial"",""time""
""blur"",""0"",""543""
","""event"",""trial"",""time""
""focus"",""0"",""2209""
","""event"",""trial"",""time""
""fullscreenenter"",""0"",""3864""
","
","1386.5999999940395","run_exp/static/images/Set 6_rs/066a.jpg","86","","","","","","learn","SL",""
"","show_choice","182","194530","0.0-182.0","""event"",""trial"",""time""
""blur"",""0"",""543""
""focus"",""0"",""2209""
""fullscreenenter"",""0"",""3864""
","""event"",""trial"",""time""
""blur"",""0"",""543""
","""event"",""trial"",""time""
""focus"",""0"",""2209""
","""event"",""trial"",""time""
""fullscreenenter"",""0"",""3864""
","
","null","run_exp/static/images/Set 6_rs/066a.jpg","null","","","","","","learn","SL",""
"","html-keyboard-response","183","195032","0.0-183.0","""event"",""trial"",""time""
""blur"",""0"",""543""
""focus"",""0"",""2209""
""fullscreenenter"",""0"",""3864""
","""event"",""trial"",""time""
""blur"",""0"",""543""
","""event"",""trial"",""time""
""focus"",""0"",""2209""
","""event"",""trial"",""time""
""fullscreenenter"",""0"",""3864""
","
","null","<p></p>","null","","","","","","","",""
"","image","184","196526","0.0-184.0","""event"",""trial"",""time""
""blur"",""0"",""543""
""focus"",""0"",""2209""
""fullscreenenter"",""0"",""3864""
","""event"",""trial"",""time""
""blur"",""0"",""543""
","""event"",""trial"",""time""
""focus"",""0"",""2209""
","""event"",""trial"",""time""
""fullscreenenter"",""0"",""3864""
","
","1493.2000000178814","run_exp/static/images/Set 6_rs/187a.jpg","86","","","","","","learn","SR",""
"","show_choice","185","197033","0.0-185.0","""event"",""trial"",""time""
""blur"",""0"",""543""
""focus"",""0"",""2209""
""fullscreenenter"",""0"",""3864""
","""event"",""trial"",""time""
""blur"",""0"",""543""
","""event"",""trial"",""time""
""focus"",""0"",""2209""
","""event"",""trial"",""time""
""fullscreenenter"",""0"",""3864""
","
","null","run_exp/static/images/Set 6_rs/187a.jpg","null","","","","","","learn","SR",""
"","html-keyboard-response","186","197535","0.0-186.0","""event"",""trial"",""time""
""blur"",""0"",""543""
""focus"",""0"",""2209""
""fullscreenenter"",""0"",""3864""
","""event"",""trial"",""time""
""blur"",""0"",""543""
","""event"",""trial"",""time""
""focus"",""0"",""2209""
","""event"",""trial"",""time""
""fullscreenenter"",""0"",""3864""
","
","null","<p></p>","null","","","","","","","",""
"","image","187","199170","0.0-187.0","""event"",""trial"",""time""
""blur"",""0"",""543""
""focus"",""0"",""2209""
""fullscreenenter"",""0"",""3864""
","""event"",""trial"",""time""
""blur"",""0"",""543""
","""event"",""trial"",""time""
""focus"",""0"",""2209""
","""event"",""trial"",""time""
""fullscreenenter"",""0"",""3864""
","
","1634.7000000178814","run_exp/static/images/Set 6_rs/112a.jpg","86","","","","","","learn","SR",""
"","show_choice","188","199537","0.0-188.0","""event"",""trial"",""time""
""blur"",""0"",""543""
""focus"",""0"",""2209""
""fullscreenenter"",""0"",""3864""
","""event"",""trial"",""time""
""blur"",""0"",""543""
","""event"",""trial"",""time""
""focus"",""0"",""2209""
","""event"",""trial"",""time""
""fullscreenenter"",""0"",""3864""
","
","null","run_exp/static/images/Set 6_rs/112a.jpg","null","","","","","","learn","SR",""
"","html-keyboard-response","189","200038","0.0-189.0","""event"",""trial"",""time""
""blur"",""0"",""543""
""focus"",""0"",""2209""
""fullscreenenter"",""0"",""3864""
","""event"",""trial"",""time""
""blur"",""0"",""543""
","""event"",""trial"",""time""
""focus"",""0"",""2209""
","""event"",""trial"",""time""
""fullscreenenter"",""0"",""3864""
","
","null","<p></p>","null","","","","","","","",""
"","image","190","201307","0.0-190.0","""event"",""trial"",""time""
""blur"",""0"",""543""
""focus"",""0"",""2209""
""fullscreenenter"",""0"",""3864""
","""event"",""trial"",""time""
""blur"",""0"",""543""
","""event"",""trial"",""time""
""focus"",""0"",""2209""
","""event"",""trial"",""time""
""fullscreenenter"",""0"",""3864""
","
","1269","run_exp/static/images/Set 6_rs/116a.jpg","86","","","","","","learn","SL",""
"","show_choice","191","202043","0.0-191.0","""event"",""trial"",""time""
""blur"",""0"",""543""
""focus"",""0"",""2209""
""fullscreenenter"",""0"",""3864""
","""event"",""trial"",""time""
""blur"",""0"",""543""
","""event"",""trial"",""time""
""focus"",""0"",""2209""
","""event"",""trial"",""time""
""fullscreenenter"",""0"",""3864""
","
","null","run_exp/static/images/Set 6_rs/116a.jpg","null","","","","","","learn","SL",""
"","html-keyboard-response","192","202544","0.0-192.0","""event"",""trial"",""time""
""blur"",""0"",""543""
""focus"",""0"",""2209""
""fullscreenenter"",""0"",""3864""
","""event"",""trial"",""time""
""blur"",""0"",""543""
","""event"",""trial"",""time""
""focus"",""0"",""2209""
","""event"",""trial"",""time""
""fullscreenenter"",""0"",""3864""
","
","null","<p></p>","null","","","","","","","",""
"","image","193","204548","0.0-193.0","""event"",""trial"",""time""
""blur"",""0"",""543""
""focus"",""0"",""2209""
""fullscreenenter"",""0"",""3864""
","""event"",""trial"",""time""
""blur"",""0"",""543""
","""event"",""trial"",""time""
""focus"",""0"",""2209""
","""event"",""trial"",""time""
""fullscreenenter"",""0"",""3864""
","
","null","run_exp/static/images/Set 6_rs/126a.jpg","null","","","","","","learn","SR",""
"","show_choice","194","206555","0.0-194.0","""event"",""trial"",""time""
""blur"",""0"",""543""
""focus"",""0"",""2209""
""fullscreenenter"",""0"",""3864""
","""event"",""trial"",""time""
""blur"",""0"",""543""
","""event"",""trial"",""time""
""focus"",""0"",""2209""
","""event"",""trial"",""time""
""fullscreenenter"",""0"",""3864""
","
","null","run_exp/static/images/blank.png","null","","","","","","learn","SR",""
"","html-keyboard-response","195","207056","0.0-195.0","""event"",""trial"",""time""
""blur"",""0"",""543""
""focus"",""0"",""2209""
""fullscreenenter"",""0"",""3864""
","""event"",""trial"",""time""
""blur"",""0"",""543""
","""event"",""trial"",""time""
""focus"",""0"",""2209""
","""event"",""trial"",""time""
""fullscreenenter"",""0"",""3864""
","
","null","<p></p>","null","","","","","","","",""
"","test_intro","196","244041","0.0-196.0","""event"",""trial"",""time""
""blur"",""0"",""543""
""focus"",""0"",""2209""
""fullscreenenter"",""0"",""3864""
","""event"",""trial"",""time""
""blur"",""0"",""543""
","""event"",""trial"",""time""
""focus"",""0"",""2209""
","""event"",""trial"",""time""
""fullscreenenter"",""0"",""3864""
","
","null","run_exp/static/audio/clip_2_memory.m4a","null","","","","","<div class='center'><p>Now, lets see how much you remember about the items you just saw.  For each item, you need to indicate if it was <b>old</b> by pressing the <b>v</b> key, <b>similar</b> by pressing the <b>b</b> key, or <b>new</b> by pressing the <b>n</b> key.</p><p>Old refers to an item that you saw before in the indoor/outdoor game that you just played, new refers to an item you have <b>not</b> seen before within the indoor/outdoor game, and similar refers to an item that is similar to an item youve seen before but is not exactly the same. </p><p>Before we begin, lets go over some brief demonstrations to make sure you understand.</p></div>","","",""
"","html-keyboard-response","197","244676","0.0-197.0","""event"",""trial"",""time""
""blur"",""0"",""543""
""focus"",""0"",""2209""
""fullscreenenter"",""0"",""3864""
","""event"",""trial"",""time""
""blur"",""0"",""543""
","""event"",""trial"",""time""
""focus"",""0"",""2209""
","""event"",""trial"",""time""
""fullscreenenter"",""0"",""3864""
","
","634.5999999940395","<div class='center'><p>Now, lets see how much you remember about the items you just saw.  For each item, you need to indicate if it was <b>old</b> by pressing the <b>v</b> key, <b>similar</b> by pressing the <b>b</b> key, or <b>new</b> by pressing the <b>n</b> key.</p><p>Old refers to an item that you saw before in the indoor/outdoor game that you just played, new refers to an item you have <b>not</b> seen before within the indoor/outdoor game, and similar refers to an item that is similar to an item youve seen before but is not exactly the same. </p><p>Before we begin, lets go over some brief demonstrations to make sure you understand.</p><div><p><b>[Press the space bar to continue]</b></p></div>","32","","","","","","","",""
"","items","198","252179","0.0-198.0","""event"",""trial"",""time""
""blur"",""0"",""543""
""focus"",""0"",""2209""
""fullscreenenter"",""0"",""3864""
","""event"",""trial"",""time""
""blur"",""0"",""543""
","""event"",""trial"",""time""
""focus"",""0"",""2209""
","""event"",""trial"",""time""
""fullscreenenter"",""0"",""3864""
","
","null","run_exp/static/audio/clip_3_items.m4a","null","","","","","","","",""
"","mop","199","256680","0.0-199.0","""event"",""trial"",""time""
""blur"",""0"",""543""
""focus"",""0"",""2209""
""fullscreenenter"",""0"",""3864""
","""event"",""trial"",""time""
""blur"",""0"",""543""
","""event"",""trial"",""time""
""focus"",""0"",""2209""
","""event"",""trial"",""time""
""fullscreenenter"",""0"",""3864""
","
","null","run_exp/static/audio/clip_4_mop.m4a","null","","","","","","","",""
"","baseball","200","260183","0.0-200.0","""event"",""trial"",""time""
""blur"",""0"",""543""
""focus"",""0"",""2209""
""fullscreenenter"",""0"",""3864""
","""event"",""trial"",""time""
""blur"",""0"",""543""
","""event"",""trial"",""time""
""focus"",""0"",""2209""
","""event"",""trial"",""time""
""fullscreenenter"",""0"",""3864""
","
","null","run_exp/static/audio/clip_5_baseball.m4a","null","","","","","","","",""
"","trumpet","201","263687","0.0-201.0","""event"",""trial"",""time""
""blur"",""0"",""543""
""focus"",""0"",""2209""
""fullscreenenter"",""0"",""3864""
","""event"",""trial"",""time""
""blur"",""0"",""543""
","""event"",""trial"",""time""
""focus"",""0"",""2209""
","""event"",""trial"",""time""
""fullscreenenter"",""0"",""3864""
","
","null","run_exp/static/audio/clip_6_trumpet.m4a","null","","","","","","","",""
"","gummies","202","267189","0.0-202.0","""event"",""trial"",""time""
""blur"",""0"",""543""
""focus"",""0"",""2209""
""fullscreenenter"",""0"",""3864""
","""event"",""trial"",""time""
""blur"",""0"",""543""
","""event"",""trial"",""time""
""focus"",""0"",""2209""
","""event"",""trial"",""time""
""fullscreenenter"",""0"",""3864""
","
","null","run_exp/static/audio/clip_7_gummies.m4a","null","","","","","","","",""
"","osn","203","271693","0.0-203.0","""event"",""trial"",""time""
""blur"",""0"",""543""
""focus"",""0"",""2209""
""fullscreenenter"",""0"",""3864""
","""event"",""trial"",""time""
""blur"",""0"",""543""
","""event"",""trial"",""time""
""focus"",""0"",""2209""
","""event"",""trial"",""time""
""fullscreenenter"",""0"",""3864""
","
","null","run_exp/static/audio/clip_8_osn.m4a","null","","","","","","","",""
"","old_1","204","278197","0.0-204.0","""event"",""trial"",""time""
""blur"",""0"",""543""
""focus"",""0"",""2209""
""fullscreenenter"",""0"",""3864""
","""event"",""trial"",""time""
""blur"",""0"",""543""
","""event"",""trial"",""time""
""focus"",""0"",""2209""
","""event"",""trial"",""time""
""fullscreenenter"",""0"",""3864""
","
","null","run_exp/static/audio/clip_9_old_trumpet.m4a","null","","","","","","","",""
"","new_1","205","285700","0.0-205.0","""event"",""trial"",""time""
""blur"",""0"",""543""
""focus"",""0"",""2209""
""fullscreenenter"",""0"",""3864""
","""event"",""trial"",""time""
""blur"",""0"",""543""
","""event"",""trial"",""time""
""focus"",""0"",""2209""
","""event"",""trial"",""time""
""fullscreenenter"",""0"",""3864""
","
","null","run_exp/static/audio/clip_10_new_balloon.m4a","null","","","","","","","",""
"","similar_1a","206","290202","0.0-206.0","""event"",""trial"",""time""
""blur"",""0"",""543""
""focus"",""0"",""2209""
""fullscreenenter"",""0"",""3864""
","""event"",""trial"",""time""
""blur"",""0"",""543""
","""event"",""trial"",""time""
""focus"",""0"",""2209""
","""event"",""trial"",""time""
""fullscreenenter"",""0"",""3864""
","
","null","run_exp/static/audio/clip_11a_similar_mop.m4a","null","","","","","","","",""
"","similar_1b","207","296706","0.0-207.0","""event"",""trial"",""time""
""blur"",""0"",""543""
""focus"",""0"",""2209""
""fullscreenenter"",""0"",""3864""
","""event"",""trial"",""time""
""blur"",""0"",""543""
","""event"",""trial"",""time""
""focus"",""0"",""2209""
","""event"",""trial"",""time""
""fullscreenenter"",""0"",""3864""
","
","null","run_exp/static/audio/clip_11b_similar_mop.m4a","null","","","","","","","",""
"","new_2","208","300209","0.0-208.0","""event"",""trial"",""time""
""blur"",""0"",""543""
""focus"",""0"",""2209""
""fullscreenenter"",""0"",""3864""
","""event"",""trial"",""time""
""blur"",""0"",""543""
","""event"",""trial"",""time""
""focus"",""0"",""2209""
","""event"",""trial"",""time""
""fullscreenenter"",""0"",""3864""
","
","null","run_exp/static/audio/clip_12_new_stoplight.m4a","null","","","","","","","",""
"","old_2","209","303711","0.0-209.0","""event"",""trial"",""time""
""blur"",""0"",""543""
""focus"",""0"",""2209""
""fullscreenenter"",""0"",""3864""
","""event"",""trial"",""time""
""blur"",""0"",""543""
","""event"",""trial"",""time""
""focus"",""0"",""2209""
","""event"",""trial"",""time""
""fullscreenenter"",""0"",""3864""
","
","null","run_exp/static/audio/clip_13_old_baseball.m4a","null","","","","","","","",""
"","similar_2a","210","307212","0.0-210.0","""event"",""trial"",""time""
""blur"",""0"",""543""
""focus"",""0"",""2209""
""fullscreenenter"",""0"",""3864""
","""event"",""trial"",""time""
""blur"",""0"",""543""
","""event"",""trial"",""time""
""focus"",""0"",""2209""
","""event"",""trial"",""time""
""fullscreenenter"",""0"",""3864""
","
","null","run_exp/static/audio/clip_14a_similar_gummies.m4a","null","","","","","","","",""
"","similar_2b","211","314714","0.0-211.0","""event"",""trial"",""time""
""blur"",""0"",""543""
""focus"",""0"",""2209""
""fullscreenenter"",""0"",""3864""
","""event"",""trial"",""time""
""blur"",""0"",""543""
","""event"",""trial"",""time""
""focus"",""0"",""2209""
","""event"",""trial"",""time""
""fullscreenenter"",""0"",""3864""
","
","null","run_exp/static/audio/clip_14b_similar_gummies.m4a","null","","","","","","","",""
"","practice","212","356818","0.0-212.0","""event"",""trial"",""time""
""blur"",""0"",""543""
""focus"",""0"",""2209""
""fullscreenenter"",""0"",""3864""
","""event"",""trial"",""time""
""blur"",""0"",""543""
","""event"",""trial"",""time""
""focus"",""0"",""2209""
","""event"",""trial"",""time""
""fullscreenenter"",""0"",""3864""
","
","null","run_exp/static/audio/clip_15_practice.m4a","null","","","","","<div class='center'><p>Lets practice a little to make sure you understand the difference between new, similar, and old. Lets say you saw these three items in the indoor/outdoor game.</p><p> Try your best to remember these images because youll soon be tested on them in a practice game. In the practice game, youll be shown images and youll have to say if they are old (one of the three images belows), similar (similar to one of the images below but not exactly the same), or new (are not one of the images below nor similar to them).</p><p>Once you press the space bar youll be shown these images again but one at time. Then youll begin the practice game.</p><p><img src='run_exp/static/images/tutorial/test/three_indoor_outdoor.png' height='300'></p></div>","","",""
"","html-keyboard-response","213","356952","0.0-213.0","""event"",""trial"",""time""
""blur"",""0"",""543""
""focus"",""0"",""2209""
""fullscreenenter"",""0"",""3864""
","""event"",""trial"",""time""
""blur"",""0"",""543""
","""event"",""trial"",""time""
""focus"",""0"",""2209""
","""event"",""trial"",""time""
""fullscreenenter"",""0"",""3864""
","
","133.5","<div class='center'><p>Lets practice a little to make sure you understand the difference between new, similar, and old. Lets say you saw these three items in the indoor/outdoor game.</p><p> Try your best to remember these images because youll soon be tested on them in a practice game. In the practice game, youll be shown images and youll have to say if they are old (one of the three images belows), similar (similar to one of the images below but not exactly the same), or new (are not one of the images below nor similar to them).</p><p>Once you press the space bar youll be shown these images again but one at time. Then youll begin the practice game.</p><p><img src='run_exp/static/images/tutorial/test/three_indoor_outdoor.png' height='300'></p><div><p><b>[Press the space bar to continue]</b></p></div>","32","","","","","","","",""
"","planet","214","358957","0.0-214.0","""event"",""trial"",""time""
""blur"",""0"",""543""
""focus"",""0"",""2209""
""fullscreenenter"",""0"",""3864""
","""event"",""trial"",""time""
""blur"",""0"",""543""
","""event"",""trial"",""time""
""focus"",""0"",""2209""
","""event"",""trial"",""time""
""fullscreenenter"",""0"",""3864""
","
","null","run_exp/static/images/tutorial/test/008a.jpg","null","","","","","","","",""
"","boot","215","360962","0.0-215.0","""event"",""trial"",""time""
""blur"",""0"",""543""
""focus"",""0"",""2209""
""fullscreenenter"",""0"",""3864""
","""event"",""trial"",""time""
""blur"",""0"",""543""
","""event"",""trial"",""time""
""focus"",""0"",""2209""
","""event"",""trial"",""time""
""fullscreenenter"",""0"",""3864""
","
","null","run_exp/static/images/tutorial/test/011a.jpg","null","","","","","","","",""
"","lemon","216","362963","0.0-216.0","""event"",""trial"",""time""
""blur"",""0"",""543""
""focus"",""0"",""2209""
""fullscreenenter"",""0"",""3864""
","""event"",""trial"",""time""
""blur"",""0"",""543""
","""event"",""trial"",""time""
""focus"",""0"",""2209""
","""event"",""trial"",""time""
""fullscreenenter"",""0"",""3864""
","
","null","run_exp/static/images/tutorial/test/018a.jpg","null","","","","","","","",""
"","practice_q1","217","368450","0.0-217.0","""event"",""trial"",""time""
""blur"",""0"",""543""
""focus"",""0"",""2209""
""fullscreenenter"",""0"",""3864""
","""event"",""trial"",""time""
""blur"",""0"",""543""
","""event"",""trial"",""time""
""focus"",""0"",""2209""
","""event"",""trial"",""time""
""fullscreenenter"",""0"",""3864""
","
","5486.700000017881","run_exp/static/audio/clip_16_practice_question.m4a","78","","","","","","","",""
"","correct","218","370332","0.0-218.0-0.0","""event"",""trial"",""time""
""blur"",""0"",""543""
""focus"",""0"",""2209""
""fullscreenenter"",""0"",""3864""
","""event"",""trial"",""time""
""blur"",""0"",""543""
","""event"",""trial"",""time""
""focus"",""0"",""2209""
","""event"",""trial"",""time""
""fullscreenenter"",""0"",""3864""
","
","null","run_exp/static/audio/clip_17_correct.m4a","null","","","","","<div class='center'><p>That's correct!</p></div>","","",""
"","html-keyboard-response","219","371881","0.0-218.0-1.0","""event"",""trial"",""time""
""blur"",""0"",""543""
""focus"",""0"",""2209""
""fullscreenenter"",""0"",""3864""
","""event"",""trial"",""time""
""blur"",""0"",""543""
","""event"",""trial"",""time""
""focus"",""0"",""2209""
","""event"",""trial"",""time""
""fullscreenenter"",""0"",""3864""
","
","1548.199999988079","<div class='center'><p>That's correct!</p><div><p><b>[Press the space bar to continue]</b></p></div>","32","","","","","","","",""
"","practice_q2","220","377551","0.0-218.0-2.0","""event"",""trial"",""time""
""blur"",""0"",""543""
""focus"",""0"",""2209""
""fullscreenenter"",""0"",""3864""
","""event"",""trial"",""time""
""blur"",""0"",""543""
","""event"",""trial"",""time""
""focus"",""0"",""2209""
","""event"",""trial"",""time""
""fullscreenenter"",""0"",""3864""
","
","5669.5","run_exp/static/audio/clip_16_practice_question.m4a","86","","","","","","","",""
"","correct","221","379434","0.0-219.0-0.0","""event"",""trial"",""time""
""blur"",""0"",""543""
""focus"",""0"",""2209""
""fullscreenenter"",""0"",""3864""
