"success","trial_type","trial_index","time_elapsed","internal_node_id","interactions","blur_events","focus_events","fullscreenenter_events","fullscreenexit_events","rt","stimulus","key_press","subject_id","participant_id","age","gender","prompt","phase","condition","lure_bin"
"true","fullscreen","0","8870","0.0-0.0","""event"",""trial"",""time""
""fullscreenenter"",""0"",""7958""
","
","
","""event"",""trial"",""time""
""fullscreenenter"",""0"",""7958""
","
","","","","","","","","","","",""
"","pavlovia","1","8874","0.0-1.0","""event"",""trial"",""time""
""fullscreenenter"",""0"",""7958""
","
","
","""event"",""trial"",""time""
""fullscreenenter"",""0"",""7958""
","
","","","","","","","","","","",""
"","welcome","2","43682","0.0-2.0","""event"",""trial"",""time""
""fullscreenenter"",""0"",""7958""
","
","
","""event"",""trial"",""time""
""fullscreenenter"",""0"",""7958""
","
","null","run_exp/static/audio/clip_1_welcome.m4a","null","553","463","19","Female","<div class='center'><p>Welcome to the third part of the study! First, you'll be shown pictures of items one at a time. For each picture, you have to decide if the item is typically found indoors or outdoors.</p><p>If you think it's usually found indoors, then press <b>v</b> key on your keyboard. If you think it's usually found outdoors, then press the <b>n</b> key.There will be reminders on the screen to help you remember which keys to press. </p><p>If you're not sure whether the item is an indoor item or an outdoor item, go ahead and take a guess but try your best not to skip that choice. </p></div>","","",""
"","html-keyboard-response","3","59591","0.0-3.0","""event"",""trial"",""time""
""fullscreenenter"",""0"",""7958""
","
","
","""event"",""trial"",""time""
""fullscreenenter"",""0"",""7958""
","
","15904.100000023842","<div class='center'><p>Welcome to the third part of the study! First, you'll be shown pictures of items one at a time. For each picture, you have to decide if the item is typically found indoors or outdoors.</p><p>If you think it's usually found indoors, then press <b>v</b> key on your keyboard. If you think it's usually found outdoors, then press the <b>n</b> key.There will be reminders on the screen to help you remember which keys to press. </p><p>If you're not sure whether the item is an indoor item or an outdoor item, go ahead and take a guess but try your best not to skip that choice. </p><div><p><b>[Press the space bar to continue]</b></p></div>","32","","","","","","","",""
"","image","4","60832","0.0-4.0","""event"",""trial"",""time""
""fullscreenenter"",""0"",""7958""
","
","
","""event"",""trial"",""time""
""fullscreenenter"",""0"",""7958""
","
","1236.4000000059605","run_exp/static/images/Set 6_rs/095a.jpg","86","","","","","","learn","SL",""
"","show_choice","5","61597","0.0-5.0","""event"",""trial"",""time""
""fullscreenenter"",""0"",""7958""
","
","
","""event"",""trial"",""time""
""fullscreenenter"",""0"",""7958""
","
","null","run_exp/static/images/Set 6_rs/095a.jpg","null","","","","","","learn","SL",""
"","html-keyboard-response","6","62102","0.0-6.0","""event"",""trial"",""time""
""fullscreenenter"",""0"",""7958""
","
","
","""event"",""trial"",""time""
""fullscreenenter"",""0"",""7958""
","
","null","<p></p>","null","","","","","","","",""
"","image","7","63042","0.0-7.0","""event"",""trial"",""time""
""fullscreenenter"",""0"",""7958""
","
","
","""event"",""trial"",""time""
""fullscreenenter"",""0"",""7958""
","
","938.3000000119209","run_exp/static/images/Set 6_rs/177a.jpg","78","","","","","","learn","SR",""
"","show_choice","8","64109","0.0-8.0","""event"",""trial"",""time""
""fullscreenenter"",""0"",""7958""
","
","
","""event"",""trial"",""time""
""fullscreenenter"",""0"",""7958""
","
","null","run_exp/static/images/Set 6_rs/177a.jpg","null","","","","","","learn","SR",""
"","html-keyboard-response","9","64615","0.0-9.0","""event"",""trial"",""time""
""fullscreenenter"",""0"",""7958""
","
","
","""event"",""trial"",""time""
""fullscreenenter"",""0"",""7958""
","
","null","<p></p>","null","","","","","","","",""
"","image","10","65467","0.0-10.0","""event"",""trial"",""time""
""fullscreenenter"",""0"",""7958""
","
","
","""event"",""trial"",""time""
""fullscreenenter"",""0"",""7958""
","
","850.3000000119209","run_exp/static/images/Set 6_rs/074a.jpg","78","","","","","","learn","SL",""
"","show_choice","11","66622","0.0-11.0","""event"",""trial"",""time""
""fullscreenenter"",""0"",""7958""
","
","
","""event"",""trial"",""time""
""fullscreenenter"",""0"",""7958""
","
","null","run_exp/static/images/Set 6_rs/074a.jpg","null","","","","","","learn","SL",""
"","html-keyboard-response","12","67125","0.0-12.0","""event"",""trial"",""time""
""fullscreenenter"",""0"",""7958""
","
","
","""event"",""trial"",""time""
""fullscreenenter"",""0"",""7958""
","
","null","<p></p>","null","","","","","","","",""
"","image","13","67843","0.0-13.0","""event"",""trial"",""time""
""fullscreenenter"",""0"",""7958""
","
","
","""event"",""trial"",""time""
""fullscreenenter"",""0"",""7958""
","
","716.1999999880791","run_exp/static/images/Set 6_rs/007a.jpg","86","","","","","","learn","SR",""
"","show_choice","14","69128","0.0-14.0","""event"",""trial"",""time""
""fullscreenenter"",""0"",""7958""
","
","
","""event"",""trial"",""time""
""fullscreenenter"",""0"",""7958""
","
","null","run_exp/static/images/Set 6_rs/007a.jpg","null","","","","","","learn","SR",""
"","html-keyboard-response","15","69634","0.0-15.0","""event"",""trial"",""time""
""fullscreenenter"",""0"",""7958""
","
","
","""event"",""trial"",""time""
""fullscreenenter"",""0"",""7958""
","
","null","<p></p>","null","","","","","","","",""
"","image","16","70610","0.0-16.0","""event"",""trial"",""time""
""fullscreenenter"",""0"",""7958""
","
","
","""event"",""trial"",""time""
""fullscreenenter"",""0"",""7958""
","
","974.5999999940395","run_exp/static/images/Set 6_rs/187a.jpg","86","","","","","","learn","SR",""
"","show_choice","17","71641","0.0-17.0","""event"",""trial"",""time""
""fullscreenenter"",""0"",""7958""
","
","
","""event"",""trial"",""time""
""fullscreenenter"",""0"",""7958""
","
","null","run_exp/static/images/Set 6_rs/187a.jpg","null","","","","","","learn","SR",""
"","html-keyboard-response","18","72143","0.0-18.0","""event"",""trial"",""time""
""fullscreenenter"",""0"",""7958""
","
","
","""event"",""trial"",""time""
""fullscreenenter"",""0"",""7958""
","
","null","<p></p>","null","","","","","","","",""
"","image","19","73297","0.0-19.0","""event"",""trial"",""time""
""fullscreenenter"",""0"",""7958""
","
","
","""event"",""trial"",""time""
""fullscreenenter"",""0"",""7958""
","
","1152.7999999821186","run_exp/static/images/Set 6_rs/132a.jpg","86","","","","","","learn","SR",""
"","show_choice","20","74149","0.0-20.0","""event"",""trial"",""time""
""fullscreenenter"",""0"",""7958""
","
","
","""event"",""trial"",""time""
""fullscreenenter"",""0"",""7958""
","
","null","run_exp/static/images/Set 6_rs/132a.jpg","null","","","","","","learn","SR",""
"","html-keyboard-response","21","74655","0.0-21.0","""event"",""trial"",""time""
""fullscreenenter"",""0"",""7958""
","
","
","""event"",""trial"",""time""
""fullscreenenter"",""0"",""7958""
","
","null","<p></p>","null","","","","","","","",""
"","image","22","76306","0.0-22.0","""event"",""trial"",""time""
""fullscreenenter"",""0"",""7958""
","
","
","""event"",""trial"",""time""
""fullscreenenter"",""0"",""7958""
","
","1649","run_exp/static/images/Set 6_rs/191a.jpg","78","","","","","","learn","SL",""
"","show_choice","23","76662","0.0-23.0","""event"",""trial"",""time""
""fullscreenenter"",""0"",""7958""
","
","
","""event"",""trial"",""time""
""fullscreenenter"",""0"",""7958""
","
","null","run_exp/static/images/Set 6_rs/191a.jpg","null","","","","","","learn","SL",""
"","html-keyboard-response","24","77170","0.0-24.0","""event"",""trial"",""time""
""fullscreenenter"",""0"",""7958""
","
","
","""event"",""trial"",""time""
""fullscreenenter"",""0"",""7958""
","
","null","<p></p>","null","","","","","","","",""
"","image","25","78476","0.0-25.0","""event"",""trial"",""time""
""fullscreenenter"",""0"",""7958""
","
","
","""event"",""trial"",""time""
""fullscreenenter"",""0"",""7958""
","
","1304.699999988079","run_exp/static/images/Set 6_rs/050a.jpg","86","","","","","","learn","SL",""
"","show_choice","26","79174","0.0-26.0","""event"",""trial"",""time""
""fullscreenenter"",""0"",""7958""
","
","
","""event"",""trial"",""time""
""fullscreenenter"",""0"",""7958""
","
","null","run_exp/static/images/Set 6_rs/050a.jpg","null","","","","","","learn","SL",""
"","html-keyboard-response","27","79679","0.0-27.0","""event"",""trial"",""time""
""fullscreenenter"",""0"",""7958""
","
","
","""event"",""trial"",""time""
""fullscreenenter"",""0"",""7958""
","
","null","<p></p>","null","","","","","","","",""
"","image","28","80613","0.0-28.0","""event"",""trial"",""time""
""fullscreenenter"",""0"",""7958""
","
","
","""event"",""trial"",""time""
""fullscreenenter"",""0"",""7958""
","
","932.5999999940395","run_exp/static/images/Set 6_rs/064a.jpg","86","","","","","","learn","SR",""
"","show_choice","29","81687","0.0-29.0","""event"",""trial"",""time""
""fullscreenenter"",""0"",""7958""
","
","
","""event"",""trial"",""time""
""fullscreenenter"",""0"",""7958""
","
","null","run_exp/static/images/Set 6_rs/064a.jpg","null","","","","","","learn","SR",""
"","html-keyboard-response","30","82193","0.0-30.0","""event"",""trial"",""time""
""fullscreenenter"",""0"",""7958""
","
","
","""event"",""trial"",""time""
""fullscreenenter"",""0"",""7958""
","
","null","<p></p>","null","","","","","","","",""
"","image","31","83215","0.0-31.0","""event"",""trial"",""time""
""fullscreenenter"",""0"",""7958""
","
","
","""event"",""trial"",""time""
""fullscreenenter"",""0"",""7958""
","
","1021.5","run_exp/static/images/Set 6_rs/181a.jpg","78","","","","","","learn","SL",""
"","show_choice","32","84199","0.0-32.0","""event"",""trial"",""time""
""fullscreenenter"",""0"",""7958""
","
","
","""event"",""trial"",""time""
""fullscreenenter"",""0"",""7958""
","
","null","run_exp/static/images/Set 6_rs/181a.jpg","null","","","","","","learn","SL",""
"","html-keyboard-response","33","84701","0.0-33.0","""event"",""trial"",""time""
""fullscreenenter"",""0"",""7958""
","
","
","""event"",""trial"",""time""
""fullscreenenter"",""0"",""7958""
","
","null","<p></p>","null","","","","","","","",""
"","image","34","86154","0.0-34.0","""event"",""trial"",""time""
""fullscreenenter"",""0"",""7958""
","
","
","""event"",""trial"",""time""
""fullscreenenter"",""0"",""7958""
","
","1451.0999999940395","run_exp/static/images/Set 6_rs/023a.jpg","86","","","","","","learn","SR",""
"","show_choice","35","86708","0.0-35.0","""event"",""trial"",""time""
""fullscreenenter"",""0"",""7958""
","
","
","""event"",""trial"",""time""
""fullscreenenter"",""0"",""7958""
","
","null","run_exp/static/images/Set 6_rs/023a.jpg","null","","","","","","learn","SR",""
"","html-keyboard-response","36","87214","0.0-36.0","""event"",""trial"",""time""
""fullscreenenter"",""0"",""7958""
","
","
","""event"",""trial"",""time""
""fullscreenenter"",""0"",""7958""
","
","null","<p></p>","null","","","","","","","",""
"","image","37","88517","0.0-37.0","""event"",""trial"",""time""
""fullscreenenter"",""0"",""7958""
","
","
","""event"",""trial"",""time""
""fullscreenenter"",""0"",""7958""
","
","1301.5","run_exp/static/images/Set 6_rs/070a.jpg","78","","","","","","learn","SR",""
"","show_choice","38","89217","0.0-38.0","""event"",""trial"",""time""
""fullscreenenter"",""0"",""7958""
","
","
","""event"",""trial"",""time""
""fullscreenenter"",""0"",""7958""
","
","null","run_exp/static/images/Set 6_rs/070a.jpg","null","","","","","","learn","SR",""
"","html-keyboard-response","39","89722","0.0-39.0","""event"",""trial"",""time""
""fullscreenenter"",""0"",""7958""
","
","
","""event"",""trial"",""time""
""fullscreenenter"",""0"",""7958""
","
","null","<p></p>","null","","","","","","","",""
"","image","40","90809","0.0-40.0","""event"",""trial"",""time""
""fullscreenenter"",""0"",""7958""
","
","
","""event"",""trial"",""time""
""fullscreenenter"",""0"",""7958""
","
","1085.5","run_exp/static/images/Set 6_rs/166a.jpg","86","","","","","","learn","SR",""
"","show_choice","41","91729","0.0-41.0","""event"",""trial"",""time""
""fullscreenenter"",""0"",""7958""
","
","
","""event"",""trial"",""time""
""fullscreenenter"",""0"",""7958""
","
","null","run_exp/static/images/Set 6_rs/166a.jpg","null","","","","","","learn","SR",""
"","html-keyboard-response","42","92231","0.0-42.0","""event"",""trial"",""time""
""fullscreenenter"",""0"",""7958""
","
","
","""event"",""trial"",""time""
""fullscreenenter"",""0"",""7958""
","
","null","<p></p>","null","","","","","","","",""
"","image","43","93138","0.0-43.0","""event"",""trial"",""time""
""fullscreenenter"",""0"",""7958""
","
","
","""event"",""trial"",""time""
""fullscreenenter"",""0"",""7958""
","
","906.3000000119209","run_exp/static/images/Set 6_rs/172a.jpg","78","","","","","","learn","SR",""
"","show_choice","44","94234","0.0-44.0","""event"",""trial"",""time""
""fullscreenenter"",""0"",""7958""
","
","
","""event"",""trial"",""time""
""fullscreenenter"",""0"",""7958""
","
","null","run_exp/static/images/Set 6_rs/172a.jpg","null","","","","","","learn","SR",""
"","html-keyboard-response","45","94739","0.0-45.0","""event"",""trial"",""time""
""fullscreenenter"",""0"",""7958""
","
","
","""event"",""trial"",""time""
""fullscreenenter"",""0"",""7958""
","
","null","<p></p>","null","","","","","","","",""
"","image","46","95681","0.0-46.0","""event"",""trial"",""time""
""fullscreenenter"",""0"",""7958""
","
","
","""event"",""trial"",""time""
""fullscreenenter"",""0"",""7958""
","
","940","run_exp/static/images/Set 6_rs/071a.jpg","78","","","","","","learn","SL",""
"","show_choice","47","96746","0.0-47.0","""event"",""trial"",""time""
""fullscreenenter"",""0"",""7958""
","
","
","""event"",""trial"",""time""
""fullscreenenter"",""0"",""7958""
","
","null","run_exp/static/images/Set 6_rs/071a.jpg","null","","","","","","learn","SL",""
"","html-keyboard-response","48","97248","0.0-48.0","""event"",""trial"",""time""
""fullscreenenter"",""0"",""7958""
","
","
","""event"",""trial"",""time""
""fullscreenenter"",""0"",""7958""
","
","null","<p></p>","null","","","","","","","",""
"","image","49","98139","0.0-49.0","""event"",""trial"",""time""
""fullscreenenter"",""0"",""7958""
","
","
","""event"",""trial"",""time""
""fullscreenenter"",""0"",""7958""
","
","890.2999999821186","run_exp/static/images/Set 6_rs/057a.jpg","86","","","","","","learn","SL",""
"","show_choice","50","99255","0.0-50.0","""event"",""trial"",""time""
""fullscreenenter"",""0"",""7958""
","
","
","""event"",""trial"",""time""
""fullscreenenter"",""0"",""7958""
","
","null","run_exp/static/images/Set 6_rs/057a.jpg","null","","","","","","learn","SL",""
"","html-keyboard-response","51","99760","0.0-51.0","""event"",""trial"",""time""
""fullscreenenter"",""0"",""7958""
","
","
","""event"",""trial"",""time""
""fullscreenenter"",""0"",""7958""
","
","null","<p></p>","null","","","","","","","",""
"","image","52","100957","0.0-52.0","""event"",""trial"",""time""
""fullscreenenter"",""0"",""7958""
","
","
","""event"",""trial"",""time""
""fullscreenenter"",""0"",""7958""
","
","1195.0999999940395","run_exp/static/images/Set 6_rs/112a.jpg","86","","","","","","learn","SR",""
"","show_choice","53","101767","0.0-53.0","""event"",""trial"",""time""
""fullscreenenter"",""0"",""7958""
","
","
","""event"",""trial"",""time""
""fullscreenenter"",""0"",""7958""
","
","null","run_exp/static/images/Set 6_rs/112a.jpg","null","","","","","","learn","SR",""
"","html-keyboard-response","54","102273","0.0-54.0","""event"",""trial"",""time""
""fullscreenenter"",""0"",""7958""
","
","
","""event"",""trial"",""time""
""fullscreenenter"",""0"",""7958""
","
","null","<p></p>","null","","","","","","","",""
"","image","55","103078","0.0-55.0","""event"",""trial"",""time""
""fullscreenenter"",""0"",""7958""
","
","
","""event"",""trial"",""time""
""fullscreenenter"",""0"",""7958""
","
","803.7000000178814","run_exp/static/images/Set 6_rs/088a.jpg","86","","","","","","learn","SR",""
"","show_choice","56","104276","0.0-56.0","""event"",""trial"",""time""
""fullscreenenter"",""0"",""7958""
","
","
","""event"",""trial"",""time""
""fullscreenenter"",""0"",""7958""
","
","null","run_exp/static/images/Set 6_rs/088a.jpg","null","","","","","","learn","SR",""
"","html-keyboard-response","57","104779","0.0-57.0","""event"",""trial"",""time""
""fullscreenenter"",""0"",""7958""
","
","
","""event"",""trial"",""time""
""fullscreenenter"",""0"",""7958""
","
","null","<p></p>","null","","","","","","","",""
"","image","58","105624","0.0-58.0","""event"",""trial"",""time""
""fullscreenenter"",""0"",""7958""
","
","
","""event"",""trial"",""time""
""fullscreenenter"",""0"",""7958""
","
","844.0999999940395","run_exp/static/images/Set 6_rs/024a.jpg","86","","","","","","learn","SR",""
"","show_choice","59","106784","0.0-59.0","""event"",""trial"",""time""
""fullscreenenter"",""0"",""7958""
","
","
","""event"",""trial"",""time""
""fullscreenenter"",""0"",""7958""
","
","null","run_exp/static/images/Set 6_rs/024a.jpg","null","","","","","","learn","SR",""
"","html-keyboard-response","60","107286","0.0-60.0","""event"",""trial"",""time""
""fullscreenenter"",""0"",""7958""
","
","
","""event"",""trial"",""time""
""fullscreenenter"",""0"",""7958""
","
","null","<p></p>","null","","","","","","","",""
"","image","61","108024","0.0-61.0","""event"",""trial"",""time""
""fullscreenenter"",""0"",""7958""
","
","
","""event"",""trial"",""time""
""fullscreenenter"",""0"",""7958""
","
","736.3999999761581","run_exp/static/images/Set 6_rs/134a.jpg","86","","","","","","learn","SR",""
"","show_choice","62","109292","0.0-62.0","""event"",""trial"",""time""
""fullscreenenter"",""0"",""7958""
","
","
","""event"",""trial"",""time""
""fullscreenenter"",""0"",""7958""
","
","null","run_exp/static/images/Set 6_rs/134a.jpg","null","","","","","","learn","SR",""
"","html-keyboard-response","63","109799","0.0-63.0","""event"",""trial"",""time""
""fullscreenenter"",""0"",""7958""
","
","
","""event"",""trial"",""time""
""fullscreenenter"",""0"",""7958""
","
","null","<p></p>","null","","","","","","","",""
"","image","64","111123","0.0-64.0","""event"",""trial"",""time""
""fullscreenenter"",""0"",""7958""
","
","
","""event"",""trial"",""time""
""fullscreenenter"",""0"",""7958""
","
","1322.800000011921","run_exp/static/images/Set 6_rs/108a.jpg","78","","","","","","learn","SR",""
"","show_choice","65","111806","0.0-65.0","""event"",""trial"",""time""
""fullscreenenter"",""0"",""7958""
","
","
","""event"",""trial"",""time""
""fullscreenenter"",""0"",""7958""
","
","null","run_exp/static/images/Set 6_rs/108a.jpg","null","","","","","","learn","SR",""
"","html-keyboard-response","66","112307","0.0-66.0","""event"",""trial"",""time""
""fullscreenenter"",""0"",""7958""
","
","
","""event"",""trial"",""time""
""fullscreenenter"",""0"",""7958""
","
","null","<p></p>","null","","","","","","","",""
"","image","67","113453","0.0-67.0","""event"",""trial"",""time""
""fullscreenenter"",""0"",""7958""
","
","
","""event"",""trial"",""time""
""fullscreenenter"",""0"",""7958""
","
","1144.800000011921","run_exp/static/images/Set 6_rs/066a.jpg","86","","","","","","learn","SL",""
"","show_choice","68","114312","0.0-68.0","""event"",""trial"",""time""
""fullscreenenter"",""0"",""7958""
","
","
","""event"",""trial"",""time""
""fullscreenenter"",""0"",""7958""
","
","null","run_exp/static/images/Set 6_rs/066a.jpg","null","","","","","","learn","SL",""
"","html-keyboard-response","69","114818","0.0-69.0","""event"",""trial"",""time""
""fullscreenenter"",""0"",""7958""
","
","
","""event"",""trial"",""time""
""fullscreenenter"",""0"",""7958""
","
","null","<p></p>","null","","","","","","","",""
"","image","70","116190","0.0-70.0","""event"",""trial"",""time""
""fullscreenenter"",""0"",""7958""
","
","
","""event"",""trial"",""time""
""fullscreenenter"",""0"",""7958""
","
","1371.0999999940395","run_exp/static/images/Set 6_rs/138a.jpg","78","","","","","","learn","SL",""
"","show_choice","71","116824","0.0-71.0","""event"",""trial"",""time""
""fullscreenenter"",""0"",""7958""
","
","
","""event"",""trial"",""time""
""fullscreenenter"",""0"",""7958""
","
","null","run_exp/static/images/Set 6_rs/138a.jpg","null","","","","","","learn","SL",""
"","html-keyboard-response","72","117325","0.0-72.0","""event"",""trial"",""time""
""fullscreenenter"",""0"",""7958""
","
","
","""event"",""trial"",""time""
""fullscreenenter"",""0"",""7958""
","
","null","<p></p>","null","","","","","","","",""
"","image","73","118302","0.0-73.0","""event"",""trial"",""time""
""fullscreenenter"",""0"",""7958""
","
","
","""event"",""trial"",""time""
""fullscreenenter"",""0"",""7958""
","
","976.3000000119209","run_exp/static/images/Set 6_rs/141a.jpg","78","","","","","","learn","SR",""
"","show_choice","74","119328","0.0-74.0","""event"",""trial"",""time""
""fullscreenenter"",""0"",""7958""
","
","
","""event"",""trial"",""time""
""fullscreenenter"",""0"",""7958""
","
","null","run_exp/static/images/Set 6_rs/141a.jpg","null","","","","","","learn","SR",""
"","html-keyboard-response","75","119829","0.0-75.0","""event"",""trial"",""time""
""fullscreenenter"",""0"",""7958""
","
","
","""event"",""trial"",""time""
""fullscreenenter"",""0"",""7958""
","
","null","<p></p>","null","","","","","","","",""
"","image","76","121544","0.0-76.0","""event"",""trial"",""time""
""fullscreenenter"",""0"",""7958""
","
","
","""event"",""trial"",""time""
""fullscreenenter"",""0"",""7958""
","
","1713.5999999940395","run_exp/static/images/Set 6_rs/121a.jpg","78","","","","","","learn","SR",""
"","show_choice","77","121836","0.0-77.0","""event"",""trial"",""time""
""fullscreenenter"",""0"",""7958""
","
","
","""event"",""trial"",""time""
""fullscreenenter"",""0"",""7958""
","
","null","run_exp/static/images/Set 6_rs/121a.jpg","null","","","","","","learn","SR",""
"","html-keyboard-response","78","122342","0.0-78.0","""event"",""trial"",""time""
""fullscreenenter"",""0"",""7958""
","
","
","""event"",""trial"",""time""
""fullscreenenter"",""0"",""7958""
","
","null","<p></p>","null","","","","","","","",""
"","image","79","123665","0.0-79.0","""event"",""trial"",""time""
""fullscreenenter"",""0"",""7958""
","
","
","""event"",""trial"",""time""
""fullscreenenter"",""0"",""7958""
","
","1321.6000000238419","run_exp/static/images/Set 6_rs/014a.jpg","86","","","","","","learn","SL",""
"","show_choice","80","124345","0.0-80.0","""event"",""trial"",""time""
""fullscreenenter"",""0"",""7958""
","
","
","""event"",""trial"",""time""
""fullscreenenter"",""0"",""7958""
","
","null","run_exp/static/images/Set 6_rs/014a.jpg","null","","","","","","learn","SL",""
"","html-keyboard-response","81","124848","0.0-81.0","""event"",""trial"",""time""
""fullscreenenter"",""0"",""7958""
","
","
","""event"",""trial"",""time""
""fullscreenenter"",""0"",""7958""
","
","null","<p></p>","null","","","","","","","",""
"","image","82","126849","0.0-82.0","""event"",""trial"",""time""
""fullscreenenter"",""0"",""7958""
","
","
","""event"",""trial"",""time""
""fullscreenenter"",""0"",""7958""
","
","null","run_exp/static/images/Set 6_rs/017a.jpg","null","","","","","","learn","SL",""
"","show_choice","83","128855","0.0-83.0","""event"",""trial"",""time""
""fullscreenenter"",""0"",""7958""
","
","
","""event"",""trial"",""time""
""fullscreenenter"",""0"",""7958""
","
","null","run_exp/static/images/blank.png","null","","","","","","learn","SL",""
"","html-keyboard-response","84","129361","0.0-84.0","""event"",""trial"",""time""
""fullscreenenter"",""0"",""7958""
","
","
","""event"",""trial"",""time""
""fullscreenenter"",""0"",""7958""
","
","null","<p></p>","null","","","","","","","",""
"","image","85","130151","0.0-85.0","""event"",""trial"",""time""
""fullscreenenter"",""0"",""7958""
","
","
","""event"",""trial"",""time""
""fullscreenenter"",""0"",""7958""
","
","787.7999999821186","run_exp/static/images/Set 6_rs/129a.jpg","86","","","","","","learn","SL",""
"","show_choice","86","131367","0.0-86.0","""event"",""trial"",""time""
""fullscreenenter"",""0"",""7958""
","
","
","""event"",""trial"",""time""
""fullscreenenter"",""0"",""7958""
","
","null","run_exp/static/images/Set 6_rs/129a.jpg","null","","","","","","learn","SL",""
"","html-keyboard-response","87","131872","0.0-87.0","""event"",""trial"",""time""
""fullscreenenter"",""0"",""7958""
","
","
","""event"",""trial"",""time""
""fullscreenenter"",""0"",""7958""
","
","null","<p></p>","null","","","","","","","",""
"","image","88","132790","0.0-88.0","""event"",""trial"",""time""
""fullscreenenter"",""0"",""7958""
","
","
","""event"",""trial"",""time""
""fullscreenenter"",""0"",""7958""
","
","917.1999999880791","run_exp/static/images/Set 6_rs/016a.jpg","86","","","","","","learn","SL",""
"","show_choice","89","133878","0.0-89.0","""event"",""trial"",""time""
""fullscreenenter"",""0"",""7958""
","
","
","""event"",""trial"",""time""
""fullscreenenter"",""0"",""7958""
","
","null","run_exp/static/images/Set 6_rs/016a.jpg","null","","","","","","learn","SL",""
"","html-keyboard-response","90","134384","0.0-90.0","""event"",""trial"",""time""
""fullscreenenter"",""0"",""7958""
","
","
","""event"",""trial"",""time""
""fullscreenenter"",""0"",""7958""
","
","null","<p></p>","null","","","","","","","",""
"","image","91","135351","0.0-91.0","""event"",""trial"",""time""
""fullscreenenter"",""0"",""7958""
","
","
","""event"",""trial"",""time""
""fullscreenenter"",""0"",""7958""
","
","965.5","run_exp/static/images/Set 6_rs/186a.jpg","86","","","","","","learn","SR",""
"","show_choice","92","136388","0.0-92.0","""event"",""trial"",""time""
""fullscreenenter"",""0"",""7958""
","
","
","""event"",""trial"",""time""
""fullscreenenter"",""0"",""7958""
","
","null","run_exp/static/images/Set 6_rs/186a.jpg","null","","","","","","learn","SR",""
"","html-keyboard-response","93","136890","0.0-93.0","""event"",""trial"",""time""
""fullscreenenter"",""0"",""7958""
","
","
","""event"",""trial"",""time""
""fullscreenenter"",""0"",""7958""
","
","null","<p></p>","null","","","","","","","",""
"","image","94","137939","0.0-94.0","""event"",""trial"",""time""
""fullscreenenter"",""0"",""7958""
","
","
","""event"",""trial"",""time""
""fullscreenenter"",""0"",""7958""
","
","1048.4000000059605","run_exp/static/images/Set 6_rs/073a.jpg","86","","","","","","learn","SL",""
"","show_choice","95","138896","0.0-95.0","""event"",""trial"",""time""
""fullscreenenter"",""0"",""7958""
","
","
","""event"",""trial"",""time""
""fullscreenenter"",""0"",""7958""
","
","null","run_exp/static/images/Set 6_rs/073a.jpg","null","","","","","","learn","SL",""
"","html-keyboard-response","96","139401","0.0-96.0","""event"",""trial"",""time""
""fullscreenenter"",""0"",""7958""
","
","
","""event"",""trial"",""time""
""fullscreenenter"",""0"",""7958""
","
","null","<p></p>","null","","","","","","","",""
"","image","97","140169","0.0-97.0","""event"",""trial"",""time""
""fullscreenenter"",""0"",""7958""
","
","
","""event"",""trial"",""time""
""fullscreenenter"",""0"",""7958""
","
","767.2000000178814","run_exp/static/images/Set 6_rs/167a.jpg","86","","","","","","learn","SL",""
"","show_choice","98","141407","0.0-98.0","""event"",""trial"",""time""
""fullscreenenter"",""0"",""7958""
","
","
","""event"",""trial"",""time""
""fullscreenenter"",""0"",""7958""
","
","null","run_exp/static/images/Set 6_rs/167a.jpg","null","","","","","","learn","SL",""
"","html-keyboard-response","99","141913","0.0-99.0","""event"",""trial"",""time""
""fullscreenenter"",""0"",""7958""
","
","
","""event"",""trial"",""time""
""fullscreenenter"",""0"",""7958""
","
","null","<p></p>","null","","","","","","","",""
"","image","100","142810","0.0-100.0","""event"",""trial"",""time""
""fullscreenenter"",""0"",""7958""
","
","
","""event"",""trial"",""time""
""fullscreenenter"",""0"",""7958""
","
","895.7999999821186","run_exp/static/images/Set 6_rs/006a.jpg","86","","","","","","learn","SL",""
"","show_choice","101","143920","0.0-101.0","""event"",""trial"",""time""
""fullscreenenter"",""0"",""7958""
","
","
","""event"",""trial"",""time""
""fullscreenenter"",""0"",""7958""
","
","null","run_exp/static/images/Set 6_rs/006a.jpg","null","","","","","","learn","SL",""
"","html-keyboard-response","102","144425","0.0-102.0","""event"",""trial"",""time""
""fullscreenenter"",""0"",""7958""
","
","
","""event"",""trial"",""time""
""fullscreenenter"",""0"",""7958""
","
","null","<p></p>","null","","","","","","","",""
"","image","103","145840","0.0-103.0","""event"",""trial"",""time""
""fullscreenenter"",""0"",""7958""
","
","
","""event"",""trial"",""time""
""fullscreenenter"",""0"",""7958""
","
","1413.3999999761581","run_exp/static/images/Set 6_rs/117a.jpg","78","","","","","","learn","SL",""
"","show_choice","104","146432","0.0-104.0","""event"",""trial"",""time""
""fullscreenenter"",""0"",""7958""
","
","
","""event"",""trial"",""time""
""fullscreenenter"",""0"",""7958""
","
","null","run_exp/static/images/Set 6_rs/117a.jpg","null","","","","","","learn","SL",""
"","html-keyboard-response","105","146933","0.0-105.0","""event"",""trial"",""time""
""fullscreenenter"",""0"",""7958""
","
","
","""event"",""trial"",""time""
""fullscreenenter"",""0"",""7958""
","
","null","<p></p>","null","","","","","","","",""
"","image","106","147793","0.0-106.0","""event"",""trial"",""time""
""fullscreenenter"",""0"",""7958""
","
","
","""event"",""trial"",""time""
""fullscreenenter"",""0"",""7958""
","
","858.5999999940395","run_exp/static/images/Set 6_rs/085a.jpg","78","","","","","","learn","SL",""
"","show_choice","107","148937","0.0-107.0","""event"",""trial"",""time""
""fullscreenenter"",""0"",""7958""
","
","
","""event"",""trial"",""time""
""fullscreenenter"",""0"",""7958""
","
","null","run_exp/static/images/Set 6_rs/085a.jpg","null","","","","","","learn","SL",""
"","html-keyboard-response","108","149441","0.0-108.0","""event"",""trial"",""time""
""fullscreenenter"",""0"",""7958""
","
","
","""event"",""trial"",""time""
""fullscreenenter"",""0"",""7958""
","
","null","<p></p>","null","","","","","","","",""
"","image","109","150524","0.0-109.0","""event"",""trial"",""time""
""fullscreenenter"",""0"",""7958""
","
","
","""event"",""trial"",""time""
""fullscreenenter"",""0"",""7958""
","
","1081.4000000059605","run_exp/static/images/Set 6_rs/116a.jpg","86","","","","","","learn","SL",""
"","show_choice","110","151448","0.0-110.0","""event"",""trial"",""time""
""fullscreenenter"",""0"",""7958""
","
","
","""event"",""trial"",""time""
""fullscreenenter"",""0"",""7958""
","
","null","run_exp/static/images/Set 6_rs/116a.jpg","null","","","","","","learn","SL",""
"","html-keyboard-response","111","151954","0.0-111.0","""event"",""trial"",""time""
""fullscreenenter"",""0"",""7958""
","
","
","""event"",""trial"",""time""
""fullscreenenter"",""0"",""7958""
","
","null","<p></p>","null","","","","","","","",""
"","image","112","153262","0.0-112.0","""event"",""trial"",""time""
""fullscreenenter"",""0"",""7958""
","
","
","""event"",""trial"",""time""
""fullscreenenter"",""0"",""7958""
","
","1307.0999999940395","run_exp/static/images/Set 6_rs/045a.jpg","86","","","","","","learn","SR",""
"","show_choice","113","153960","0.0-113.0","""event"",""trial"",""time""
""fullscreenenter"",""0"",""7958""
","
","
","""event"",""trial"",""time""
""fullscreenenter"",""0"",""7958""
","
","null","run_exp/static/images/Set 6_rs/045a.jpg","null","","","","","","learn","SR",""
"","html-keyboard-response","114","154460","0.0-114.0","""event"",""trial"",""time""
""fullscreenenter"",""0"",""7958""
","
","
","""event"",""trial"",""time""
""fullscreenenter"",""0"",""7958""
","
","null","<p></p>","null","","","","","","","",""
"","image","115","156004","0.0-115.0","""event"",""trial"",""time""
""fullscreenenter"",""0"",""7958""
","
","
","""event"",""trial"",""time""
""fullscreenenter"",""0"",""7958""
","
","1541.300000011921","run_exp/static/images/Set 6_rs/008a.jpg","86","","","","","","learn","SL",""
"","show_choice","116","156464","0.0-116.0","""event"",""trial"",""time""
""fullscreenenter"",""0"",""7958""
","
","
","""event"",""trial"",""time""
""fullscreenenter"",""0"",""7958""
","
","null","run_exp/static/images/Set 6_rs/008a.jpg","null","","","","","","learn","SL",""
"","html-keyboard-response","117","156969","0.0-117.0","""event"",""trial"",""time""
""fullscreenenter"",""0"",""7958""
","
","
","""event"",""trial"",""time""
""fullscreenenter"",""0"",""7958""
","
","null","<p></p>","null","","","","","","","",""
"","image","118","158056","0.0-118.0","""event"",""trial"",""time""
""fullscreenenter"",""0"",""7958""
","
","
","""event"",""trial"",""time""
""fullscreenenter"",""0"",""7958""
","
","1086.4000000059605","run_exp/static/images/Set 6_rs/150a.jpg","86","","","","","","learn","SR",""
"","show_choice","119","158973","0.0-119.0","""event"",""trial"",""time""
""fullscreenenter"",""0"",""7958""
","
","
","""event"",""trial"",""time""
""fullscreenenter"",""0"",""7958""
","
","null","run_exp/static/images/Set 6_rs/150a.jpg","null","","","","","","learn","SR",""
"","html-keyboard-response","120","159478","0.0-120.0","""event"",""trial"",""time""
""fullscreenenter"",""0"",""7958""
","
","
","""event"",""trial"",""time""
""fullscreenenter"",""0"",""7958""
","
","null","<p></p>","null","","","","","","","",""
"","image","121","160603","0.0-121.0","""event"",""trial"",""time""
""fullscreenenter"",""0"",""7958""
","
","
","""event"",""trial"",""time""
""fullscreenenter"",""0"",""7958""
","
","1122.699999988079","run_exp/static/images/Set 6_rs/063a.jpg","86","","","","","","learn","SR",""
"","show_choice","122","161485","0.0-122.0","""event"",""trial"",""time""
""fullscreenenter"",""0"",""7958""
","
","
","""event"",""trial"",""time""
""fullscreenenter"",""0"",""7958""
","
","null","run_exp/static/images/Set 6_rs/063a.jpg","null","","","","","","learn","SR",""
"","html-keyboard-response","123","161989","0.0-123.0","""event"",""trial"",""time""
""fullscreenenter"",""0"",""7958""
","
","
","""event"",""trial"",""time""
""fullscreenenter"",""0"",""7958""
","
","null","<p></p>","null","","","","","","","",""
"","image","124","162919","0.0-124.0","""event"",""trial"",""time""
""fullscreenenter"",""0"",""7958""
","
","
","""event"",""trial"",""time""
""fullscreenenter"",""0"",""7958""
","
","928.9000000059605","run_exp/static/images/Set 6_rs/012a.jpg","86","","","","","","learn","SR",""
"","show_choice","125","163996","0.0-125.0","""event"",""trial"",""time""
""fullscreenenter"",""0"",""7958""
","
","
","""event"",""trial"",""time""
""fullscreenenter"",""0"",""7958""
","
","null","run_exp/static/images/Set 6_rs/012a.jpg","null","","","","","","learn","SR",""
"","html-keyboard-response","126","164498","0.0-126.0","""event"",""trial"",""time""
""fullscreenenter"",""0"",""7958""
","
","
","""event"",""trial"",""time""
""fullscreenenter"",""0"",""7958""
","
","null","<p></p>","null","","","","","","","",""
"","image","127","165465","0.0-127.0","""event"",""trial"",""time""
""fullscreenenter"",""0"",""7958""
","
","
","""event"",""trial"",""time""
""fullscreenenter"",""0"",""7958""
","
","966.4000000059605","run_exp/static/images/Set 6_rs/126a.jpg","78","","","","","","learn","SR",""
"","show_choice","128","166502","0.0-128.0","""event"",""trial"",""time""
""fullscreenenter"",""0"",""7958""
","
","
","""event"",""trial"",""time""
""fullscreenenter"",""0"",""7958""
","
","null","run_exp/static/images/Set 6_rs/126a.jpg","null","","","","","","learn","SR",""
"","html-keyboard-response","129","167007","0.0-129.0","""event"",""trial"",""time""
""fullscreenenter"",""0"",""7958""
","
","
","""event"",""trial"",""time""
""fullscreenenter"",""0"",""7958""
","
","null","<p></p>","null","","","","","","","",""
"","image","130","167841","0.0-130.0","""event"",""trial"",""time""
""fullscreenenter"",""0"",""7958""
","
","
","""event"",""trial"",""time""
""fullscreenenter"",""0"",""7958""
","
","832.2000000178814","run_exp/static/images/Set 6_rs/036a.jpg","86","","","","","","learn","SL",""
"","show_choice","131","169014","0.0-131.0","""event"",""trial"",""time""
""fullscreenenter"",""0"",""7958""
","
","
","""event"",""trial"",""time""
""fullscreenenter"",""0"",""7958""
","
","null","run_exp/static/images/Set 6_rs/036a.jpg","null","","","","","","learn","SL",""
"","html-keyboard-response","132","169515","0.0-132.0","""event"",""trial"",""time""
""fullscreenenter"",""0"",""7958""
","
","
","""event"",""trial"",""time""
""fullscreenenter"",""0"",""7958""
","
","null","<p></p>","null","","","","","","","",""
"","image","133","170522","0.0-133.0","""event"",""trial"",""time""
""fullscreenenter"",""0"",""7958""
","
","
","""event"",""trial"",""time""
""fullscreenenter"",""0"",""7958""
","
","1005.3000000119209","run_exp/static/images/Set 6_rs/091a.jpg","78","","","","","","learn","SL",""
"","show_choice","134","171521","0.0-134.0","""event"",""trial"",""time""
""fullscreenenter"",""0"",""7958""
","
","
","""event"",""trial"",""time""
""fullscreenenter"",""0"",""7958""
","
","null","run_exp/static/images/Set 6_rs/091a.jpg","null","","","","","","learn","SL",""
"","html-keyboard-response","135","172027","0.0-135.0","""event"",""trial"",""time""
""fullscreenenter"",""0"",""7958""
","
","
","""event"",""trial"",""time""
""fullscreenenter"",""0"",""7958""
","
","null","<p></p>","null","","","","","","","",""
"","image","136","173084","0.0-136.0","""event"",""trial"",""time""
""fullscreenenter"",""0"",""7958""
","
","
","""event"",""trial"",""time""
""fullscreenenter"",""0"",""7958""
","
","1056.300000011921","run_exp/static/images/Set 6_rs/076a.jpg","78","","","","","","learn","SR",""
"","show_choice","137","174031","0.0-137.0","""event"",""trial"",""time""
""fullscreenenter"",""0"",""7958""
","
","
","""event"",""trial"",""time""
""fullscreenenter"",""0"",""7958""
","
","null","run_exp/static/images/Set 6_rs/076a.jpg","null","","","","","","learn","SR",""
"","html-keyboard-response","138","174536","0.0-138.0","""event"",""trial"",""time""
""fullscreenenter"",""0"",""7958""
","
","
","""event"",""trial"",""time""
""fullscreenenter"",""0"",""7958""
","
","null","<p></p>","null","","","","","","","",""
"","image","139","175481","0.0-139.0","""event"",""trial"",""time""
""fullscreenenter"",""0"",""7958""
","
","
","""event"",""trial"",""time""
""fullscreenenter"",""0"",""7958""
","
","944","run_exp/static/images/Set 6_rs/168a.jpg","86","","","","","","learn","SL",""
"","show_choice","140","176542","0.0-140.0","""event"",""trial"",""time""
""fullscreenenter"",""0"",""7958""
","
","
","""event"",""trial"",""time""
""fullscreenenter"",""0"",""7958""
","
","null","run_exp/static/images/Set 6_rs/168a.jpg","null","","","","","","learn","SL",""
"","html-keyboard-response","141","177044","0.0-141.0","""event"",""trial"",""time""
""fullscreenenter"",""0"",""7958""
","
","
","""event"",""trial"",""time""
""fullscreenenter"",""0"",""7958""
","
","null","<p></p>","null","","","","","","","",""
"","image","142","177982","0.0-142.0","""event"",""trial"",""time""
""fullscreenenter"",""0"",""7958""
","
","
","""event"",""trial"",""time""
""fullscreenenter"",""0"",""7958""
","
","936.6000000238419","run_exp/static/images/Set 6_rs/178a.jpg","78","","","","","","learn","SR",""
"","show_choice","143","179049","0.0-143.0","""event"",""trial"",""time""
""fullscreenenter"",""0"",""7958""
","
","
","""event"",""trial"",""time""
""fullscreenenter"",""0"",""7958""
","
","null","run_exp/static/images/Set 6_rs/178a.jpg","null","","","","","","learn","SR",""
"","html-keyboard-response","144","179555","0.0-144.0","""event"",""trial"",""time""
""fullscreenenter"",""0"",""7958""
","
","
","""event"",""trial"",""time""
""fullscreenenter"",""0"",""7958""
","
","null","<p></p>","null","","","","","","","",""
"","image","145","180511","0.0-145.0","""event"",""trial"",""time""
""fullscreenenter"",""0"",""7958""
","
","
","""event"",""trial"",""time""
""fullscreenenter"",""0"",""7958""
","
","954.2000000178814","run_exp/static/images/Set 6_rs/152a.jpg","86","","","","","","learn","SR",""
"","show_choice","146","181559","0.0-146.0","""event"",""trial"",""time""
""fullscreenenter"",""0"",""7958""
","
","
","""event"",""trial"",""time""
""fullscreenenter"",""0"",""7958""
","
","null","run_exp/static/images/Set 6_rs/152a.jpg","null","","","","","","learn","SR",""
"","html-keyboard-response","147","182061","0.0-147.0","""event"",""trial"",""time""
""fullscreenenter"",""0"",""7958""
","
","
","""event"",""trial"",""time""
""fullscreenenter"",""0"",""7958""
","
","null","<p></p>","null","","","","","","","",""
"","image","148","183988","0.0-148.0","""event"",""trial"",""time""
""fullscreenenter"",""0"",""7958""
","
","
","""event"",""trial"",""time""
""fullscreenenter"",""0"",""7958""
","
","1926.0999999940395","run_exp/static/images/Set 6_rs/122a.jpg","78","","","","","","learn","SR",""
"","show_choice","149","184065","0.0-149.0","""event"",""trial"",""time""
""fullscreenenter"",""0"",""7958""
","
","
","""event"",""trial"",""time""
""fullscreenenter"",""0"",""7958""
","
","null","run_exp/static/images/Set 6_rs/122a.jpg","null","","","","","","learn","SR",""
"","html-keyboard-response","150","184571","0.0-150.0","""event"",""trial"",""time""
""fullscreenenter"",""0"",""7958""
","
","
","""event"",""trial"",""time""
""fullscreenenter"",""0"",""7958""
","
","null","<p></p>","null","","","","","","","",""
"","image","151","185518","0.0-151.0","""event"",""trial"",""time""
""fullscreenenter"",""0"",""7958""
","
","
","""event"",""trial"",""time""
""fullscreenenter"",""0"",""7958""
","
","945.8000000119209","run_exp/static/images/Set 6_rs/111a.jpg","86","","","","","","learn","SL",""
"","show_choice","152","186577","0.0-152.0","""event"",""trial"",""time""
""fullscreenenter"",""0"",""7958""
","
","
","""event"",""trial"",""time""
""fullscreenenter"",""0"",""7958""
","
","null","run_exp/static/images/Set 6_rs/111a.jpg","null","","","","","","learn","SL",""
"","html-keyboard-response","153","187080","0.0-153.0","""event"",""trial"",""time""
""fullscreenenter"",""0"",""7958""
","
","
","""event"",""trial"",""time""
""fullscreenenter"",""0"",""7958""
","
","null","<p></p>","null","","","","","","","",""
"","image","154","187952","0.0-154.0","""event"",""trial"",""time""
""fullscreenenter"",""0"",""7958""
","
","
","""event"",""trial"",""time""
""fullscreenenter"",""0"",""7958""
","
","871.5","run_exp/static/images/Set 6_rs/144a.jpg","86","","","","","","learn","SL",""
"","show_choice","155","189082","0.0-155.0","""event"",""trial"",""time""
""fullscreenenter"",""0"",""7958""
","
","
","""event"",""trial"",""time""
""fullscreenenter"",""0"",""7958""
","
","null","run_exp/static/images/Set 6_rs/144a.jpg","null","","","","","","learn","SL",""
"","html-keyboard-response","156","189587","0.0-156.0","""event"",""trial"",""time""
""fullscreenenter"",""0"",""7958""
","
","
","""event"",""trial"",""time""
""fullscreenenter"",""0"",""7958""
","
","null","<p></p>","null","","","","","","","",""
"","image","157","191594","0.0-157.0","""event"",""trial"",""time""
""fullscreenenter"",""0"",""7958""
","
","
","""event"",""trial"",""time""
""fullscreenenter"",""0"",""7958""
","
","null","run_exp/static/images/Set 6_rs/061a.jpg","null","","","","","","learn","SR",""
"","show_choice","158","193597","0.0-158.0","""event"",""trial"",""time""
""fullscreenenter"",""0"",""7958""
","
","
","""event"",""trial"",""time""
""fullscreenenter"",""0"",""7958""
","
","null","run_exp/static/images/blank.png","null","","","","","","learn","SR",""
"","html-keyboard-response","159","194102","0.0-159.0","""event"",""trial"",""time""
""fullscreenenter"",""0"",""7958""
","
","
","""event"",""trial"",""time""
""fullscreenenter"",""0"",""7958""
","
","null","<p></p>","null","","","","","","","",""
"","image","160","194853","0.0-160.0","""event"",""trial"",""time""
""fullscreenenter"",""0"",""7958""
","
","
","""event"",""trial"",""time""
""fullscreenenter"",""0"",""7958""
","
","749.3000000119209","run_exp/static/images/Set 6_rs/169a.jpg","78","","","","","","learn","SR",""
"","show_choice","161","196105","0.0-161.0","""event"",""trial"",""time""
""fullscreenenter"",""0"",""7958""
","
","
","""event"",""trial"",""time""
""fullscreenenter"",""0"",""7958""
","
","null","run_exp/static/images/Set 6_rs/169a.jpg","null","","","","","","learn","SR",""
"","html-keyboard-response","162","196611","0.0-162.0","""event"",""trial"",""time""
""fullscreenenter"",""0"",""7958""
","
","
","""event"",""trial"",""time""
""fullscreenenter"",""0"",""7958""
","
","null","<p></p>","null","","","","","","","",""
"","image","163","197570","0.0-163.0","""event"",""trial"",""time""
""fullscreenenter"",""0"",""7958""
","
","
","""event"",""trial"",""time""
""fullscreenenter"",""0"",""7958""
","
","958","run_exp/static/images/Set 6_rs/131a.jpg","86","","","","","","learn","SR",""
"","show_choice","164","198617","0.0-164.0","""event"",""trial"",""time""
""fullscreenenter"",""0"",""7958""
","
","
","""event"",""trial"",""time""
""fullscreenenter"",""0"",""7958""
","
","null","run_exp/static/images/Set 6_rs/131a.jpg","null","","","","","","learn","SR",""
"","html-keyboard-response","165","199119","0.0-165.0","""event"",""trial"",""time""
""fullscreenenter"",""0"",""7958""
","
","
","""event"",""trial"",""time""
""fullscreenenter"",""0"",""7958""
","
","null","<p></p>","null","","","","","","","",""
"","image","166","200004","0.0-166.0","""event"",""trial"",""time""
""fullscreenenter"",""0"",""7958""
","
","
","""event"",""trial"",""time""
""fullscreenenter"",""0"",""7958""
","
","884.2999999821186","run_exp/static/images/Set 6_rs/010a.jpg","86","","","","","","learn","SR",""
"","show_choice","167","201125","0.0-167.0","""event"",""trial"",""time""
""fullscreenenter"",""0"",""7958""
","
","
","""event"",""trial"",""time""
""fullscreenenter"",""0"",""7958""
","
","null","run_exp/static/images/Set 6_rs/010a.jpg","null","","","","","","learn","SR",""
"","html-keyboard-response","168","201626","0.0-168.0","""event"",""trial"",""time""
""fullscreenenter"",""0"",""7958""
","
","
","""event"",""trial"",""time""
""fullscreenenter"",""0"",""7958""
","
","null","<p></p>","null","","","","","","","",""
"","image","169","202464","0.0-169.0","""event"",""trial"",""time""
""fullscreenenter"",""0"",""7958""
","
","
","""event"",""trial"",""time""
""fullscreenenter"",""0"",""7958""
","
","836.4000000059605","run_exp/static/images/Set 6_rs/079a.jpg","86","","","","","","learn","SL",""
"","show_choice","170","203633","0.0-170.0","""event"",""trial"",""time""
""fullscreenenter"",""0"",""7958""
","
","
","""event"",""trial"",""time""
""fullscreenenter"",""0"",""7958""
","
","null","run_exp/static/images/Set 6_rs/079a.jpg","null","","","","","","learn","SL",""
"","html-keyboard-response","171","204139","0.0-171.0","""event"",""trial"",""time""
""fullscreenenter"",""0"",""7958""
","
","
","""event"",""trial"",""time""
""fullscreenenter"",""0"",""7958""
","
","null","<p></p>","null","","","","","","","",""
"","image","172","204867","0.0-172.0","""event"",""trial"",""time""
""fullscreenenter"",""0"",""7958""
","
","
","""event"",""trial"",""time""
""fullscreenenter"",""0"",""7958""
","
","726.3999999761581","run_exp/static/images/Set 6_rs/154a.jpg","86","","","","","","learn","SR",""
"","show_choice","173","206145","0.0-173.0","""event"",""trial"",""time""
""fullscreenenter"",""0"",""7958""
","
","
","""event"",""trial"",""time""
""fullscreenenter"",""0"",""7958""
","
","null","run_exp/static/images/Set 6_rs/154a.jpg","null","","","","","","learn","SR",""
"","html-keyboard-response","174","206651","0.0-174.0","""event"",""trial"",""time""
""fullscreenenter"",""0"",""7958""
","
","
","""event"",""trial"",""time""
""fullscreenenter"",""0"",""7958""
","
","null","<p></p>","null","","","","","","","",""
"","image","175","207586","0.0-175.0","""event"",""trial"",""time""
""fullscreenenter"",""0"",""7958""
","
","
","""event"",""trial"",""time""
""fullscreenenter"",""0"",""7958""
","
","934","run_exp/static/images/Set 6_rs/075a.jpg","86","","","","","","learn","SR",""
"","show_choice","176","208654","0.0-176.0","""event"",""trial"",""time""
""fullscreenenter"",""0"",""7958""
","
","
","""event"",""trial"",""time""
""fullscreenenter"",""0"",""7958""
","
","null","run_exp/static/images/Set 6_rs/075a.jpg","null","","","","","","learn","SR",""
"","html-keyboard-response","177","209155","0.0-177.0","""event"",""trial"",""time""
""fullscreenenter"",""0"",""7958""
","
","
","""event"",""trial"",""time""
""fullscreenenter"",""0"",""7958""
","
","null","<p></p>","null","","","","","","","",""
"","image","178","209718","0.0-178.0","""event"",""trial"",""time""
""fullscreenenter"",""0"",""7958""
","
","
","""event"",""trial"",""time""
""fullscreenenter"",""0"",""7958""
","
","562.1999999880791","run_exp/static/images/Set 6_rs/025a.jpg","78","","","","","","learn","SL",""
"","show_choice","179","211158","0.0-179.0","""event"",""trial"",""time""
""fullscreenenter"",""0"",""7958""
","
","
","""event"",""trial"",""time""
""fullscreenenter"",""0"",""7958""
","
","null","run_exp/static/images/Set 6_rs/025a.jpg","null","","","","","","learn","SL",""
"","html-keyboard-response","180","211663","0.0-180.0","""event"",""trial"",""time""
""fullscreenenter"",""0"",""7958""
","
","
","""event"",""trial"",""time""
""fullscreenenter"",""0"",""7958""
","
","null","<p></p>","null","","","","","","","",""
"","image","181","212415","0.0-181.0","""event"",""trial"",""time""
""fullscreenenter"",""0"",""7958""
","
","
","""event"",""trial"",""time""
""fullscreenenter"",""0"",""7958""
","
","748.5999999940395","run_exp/static/images/Set 6_rs/019a.jpg","86","","","","","","learn","SL",""
"","show_choice","182","213670","0.0-182.0","""event"",""trial"",""time""
""fullscreenenter"",""0"",""7958""
","
","
","""event"",""trial"",""time""
""fullscreenenter"",""0"",""7958""
","
","null","run_exp/static/images/Set 6_rs/019a.jpg","null","","","","","","learn","SL",""
"","html-keyboard-response","183","214174","0.0-183.0","""event"",""trial"",""time""
""fullscreenenter"",""0"",""7958""
","
","
","""event"",""trial"",""time""
""fullscreenenter"",""0"",""7958""
","
","null","<p></p>","null","","","","","","","",""
"","image","184","215283","0.0-184.0","""event"",""trial"",""time""
""fullscreenenter"",""0"",""7958""
","
","
","""event"",""trial"",""time""
""fullscreenenter"",""0"",""7958""
","
","1108.0999999940395","run_exp/static/images/Set 6_rs/089a.jpg","86","","","","","","learn","SL",""
"","show_choice","185","216181","0.0-185.0","""event"",""trial"",""time""
""fullscreenenter"",""0"",""7958""
","
","
","""event"",""trial"",""time""
""fullscreenenter"",""0"",""7958""
","
","null","run_exp/static/images/Set 6_rs/089a.jpg","null","","","","","","learn","SL",""
"","html-keyboard-response","186","216687","0.0-186.0","""event"",""trial"",""time""
""fullscreenenter"",""0"",""7958""
","
","
","""event"",""trial"",""time""
""fullscreenenter"",""0"",""7958""
","
","null","<p></p>","null","","","","","","","",""
"","image","187","217556","0.0-187.0","""event"",""trial"",""time""
""fullscreenenter"",""0"",""7958""
","
","
","""event"",""trial"",""time""
""fullscreenenter"",""0"",""7958""
","
","868","run_exp/static/images/Set 6_rs/123a.jpg","78","","","","","","learn","SL",""
"","show_choice","188","218690","0.0-188.0","""event"",""trial"",""time""
""fullscreenenter"",""0"",""7958""
","
","
","""event"",""trial"",""time""
""fullscreenenter"",""0"",""7958""
","
","null","run_exp/static/images/Set 6_rs/123a.jpg","null","","","","","","learn","SL",""
"","html-keyboard-response","189","219193","0.0-189.0","""event"",""trial"",""time""
""fullscreenenter"",""0"",""7958""
","
","
","""event"",""trial"",""time""
""fullscreenenter"",""0"",""7958""
","
","null","<p></p>","null","","","","","","","",""
"","image","190","219947","0.0-190.0","""event"",""trial"",""time""
""fullscreenenter"",""0"",""7958""
","
","
","""event"",""trial"",""time""
""fullscreenenter"",""0"",""7958""
","
","752.8000000119209","run_exp/static/images/Set 6_rs/055a.jpg","86","","","","","","learn","SL",""
"","show_choice","191","221195","0.0-191.0","""event"",""trial"",""time""
""fullscreenenter"",""0"",""7958""
","
","
","""event"",""trial"",""time""
""fullscreenenter"",""0"",""7958""
","
","null","run_exp/static/images/Set 6_rs/055a.jpg","null","","","","","","learn","SL",""
"","html-keyboard-response","192","221701","0.0-192.0","""event"",""trial"",""time""
""fullscreenenter"",""0"",""7958""
","
","
","""event"",""trial"",""time""
""fullscreenenter"",""0"",""7958""
","
","null","<p></p>","null","","","","","","","",""
"","image","193","222418","0.0-193.0","""event"",""trial"",""time""
""fullscreenenter"",""0"",""7958""
","
","
","""event"",""trial"",""time""
""fullscreenenter"",""0"",""7958""
","
","715.8000000119209","run_exp/static/images/Set 6_rs/062a.jpg","86","","","","","","learn","SL",""
"","show_choice","194","223707","0.0-194.0","""event"",""trial"",""time""
""fullscreenenter"",""0"",""7958""
","
","
","""event"",""trial"",""time""
""fullscreenenter"",""0"",""7958""
","
","null","run_exp/static/images/Set 6_rs/062a.jpg","null","","","","","","learn","SL",""
"","html-keyboard-response","195","224213","0.0-195.0","""event"",""trial"",""time""
""fullscreenenter"",""0"",""7958""
","
","
","""event"",""trial"",""time""
""fullscreenenter"",""0"",""7958""
","
","null","<p></p>","null","","","","","","","",""
"","test_intro","196","261148","0.0-196.0","""event"",""trial"",""time""
""fullscreenenter"",""0"",""7958""
","
","
","""event"",""trial"",""time""
""fullscreenenter"",""0"",""7958""
","
","null","run_exp/static/audio/clip_2_memory.m4a","null","","","","","<div class='center'><p>Now, lets see how much you remember about the items you just saw.  For each item, you need to indicate if it was <b>old</b> by pressing the <b>v</b> key, <b>similar</b> by pressing the <b>b</b> key, or <b>new</b> by pressing the <b>n</b> key.</p><p>Old refers to an item that you saw before in the indoor/outdoor game that you just played, new refers to an item you have <b>not</b> seen before within the indoor/outdoor game, and similar refers to an item that is similar to an item youve seen before but is not exactly the same. </p><p>Before we begin, lets go over some brief demonstrations to make sure you understand.</p></div>","","",""
"","html-keyboard-response","197","263054","0.0-197.0","""event"",""trial"",""time""
""fullscreenenter"",""0"",""7958""
","
","
","""event"",""trial"",""time""
""fullscreenenter"",""0"",""7958""
","
","1903.800000011921","<div class='center'><p>Now, lets see how much you remember about the items you just saw.  For each item, you need to indicate if it was <b>old</b> by pressing the <b>v</b> key, <b>similar</b> by pressing the <b>b</b> key, or <b>new</b> by pressing the <b>n</b> key.</p><p>Old refers to an item that you saw before in the indoor/outdoor game that you just played, new refers to an item you have <b>not</b> seen before within the indoor/outdoor game, and similar refers to an item that is similar to an item youve seen before but is not exactly the same. </p><p>Before we begin, lets go over some brief demonstrations to make sure you understand.</p><div><p><b>[Press the space bar to continue]</b></p></div>","32","","","","","","","",""
"","items","198","270560","0.0-198.0","""event"",""trial"",""time""
""fullscreenenter"",""0"",""7958""
","
","
","""event"",""trial"",""time""
""fullscreenenter"",""0"",""7958""
","
","null","run_exp/static/audio/clip_3_items.m4a","null","","","","","","","",""
"","mop","199","275066","0.0-199.0","""event"",""trial"",""time""
""fullscreenenter"",""0"",""7958""
","
","
","""event"",""trial"",""time""
""fullscreenenter"",""0"",""7958""
","
","null","run_exp/static/audio/clip_4_mop.m4a","null","","","","","","","",""
"","baseball","200","278568","0.0-200.0","""event"",""trial"",""time""
""fullscreenenter"",""0"",""7958""
","
","
","""event"",""trial"",""time""
""fullscreenenter"",""0"",""7958""
","
","null","run_exp/static/audio/clip_5_baseball.m4a","null","","","","","","","",""
"","trumpet","201","282075","0.0-201.0","""event"",""trial"",""time""
""fullscreenenter"",""0"",""7958""
","
","
","""event"",""trial"",""time""
""fullscreenenter"",""0"",""7958""
","
","null","run_exp/static/audio/clip_6_trumpet.m4a","null","","","","","","","",""
"","gummies","202","285583","0.0-202.0","""event"",""trial"",""time""
""fullscreenenter"",""0"",""7958""
","
","
","""event"",""trial"",""time""
""fullscreenenter"",""0"",""7958""
","
","null","run_exp/static/audio/clip_7_gummies.m4a","null","","","","","","","",""
"","osn","203","290089","0.0-203.0","""event"",""trial"",""time""
""fullscreenenter"",""0"",""7958""
","
","
","""event"",""trial"",""time""
""fullscreenenter"",""0"",""7958""
","
","null","run_exp/static/audio/clip_8_osn.m4a","null","","","","","","","",""
"","old_1","204","296597","0.0-204.0","""event"",""trial"",""time""
""fullscreenenter"",""0"",""7958""
","
","
","""event"",""trial"",""time""
""fullscreenenter"",""0"",""7958""
","
","null","run_exp/static/audio/clip_9_old_trumpet.m4a","null","","","","","","","",""
"","new_1","205","304103","0.0-205.0","""event"",""trial"",""time""
""fullscreenenter"",""0"",""7958""
","
","
","""event"",""trial"",""time""
""fullscreenenter"",""0"",""7958""
","
","null","run_exp/static/audio/clip_10_new_balloon.m4a","null","","","","","","","",""
"","similar_1a","206","308609","0.0-206.0","""event"",""trial"",""time""
""fullscreenenter"",""0"",""7958""
","
","
","""event"",""trial"",""time""
""fullscreenenter"",""0"",""7958""
","
","null","run_exp/static/audio/clip_11a_similar_mop.m4a","null","","","","","","","",""
"","similar_1b","207","315116","0.0-207.0","""event"",""trial"",""time""
""fullscreenenter"",""0"",""7958""
","
","
","""event"",""trial"",""time""
""fullscreenenter"",""0"",""7958""
","
","null","run_exp/static/audio/clip_11b_similar_mop.m4a","null","","","","","","","",""
"","new_2","208","318619","0.0-208.0","""event"",""trial"",""time""
""fullscreenenter"",""0"",""7958""
","
","
","""event"",""trial"",""time""
""fullscreenenter"",""0"",""7958""
","
","null","run_exp/static/audio/clip_12_new_stoplight.m4a","null","","","","","","","",""
"","old_2","209","322125","0.0-209.0","""event"",""trial"",""time""
""fullscreenenter"",""0"",""7958""
","
","
","""event"",""trial"",""time""
""fullscreenenter"",""0"",""7958""
","
","null","run_exp/static/audio/clip_13_old_baseball.m4a","null","","","","","","","",""
"","similar_2a","210","325631","0.0-210.0","""event"",""trial"",""time""
""fullscreenenter"",""0"",""7958""
","
","
","""event"",""trial"",""time""
""fullscreenenter"",""0"",""7958""
","
","null","run_exp/static/audio/clip_14a_similar_gummies.m4a","null","","","","","","","",""
"","similar_2b","211","333139","0.0-211.0","""event"",""trial"",""time""
""fullscreenenter"",""0"",""7958""
","
","
","""event"",""trial"",""time""
""fullscreenenter"",""0"",""7958""
","
","null","run_exp/static/audio/clip_14b_similar_gummies.m4a","null","","","","","","","",""
"","practice","212","375255","0.0-212.0","""event"",""trial"",""time""
""fullscreenenter"",""0"",""7958""
","
","
","""event"",""trial"",""time""
""fullscreenenter"",""0"",""7958""
","
","null","run_exp/static/audio/clip_15_practice.m4a","null","","","","","<div class='center'><p>Lets practice a little to make sure you understand the difference between new, similar, and old. Lets say you saw these three items in the indoor/outdoor game.</p><p> Try your best to remember these images because youll soon be tested on them in a practice game. In the practice game, youll be shown images and youll have to say if they are old (one of the three images belows), similar (similar to one of the images below but not exactly the same), or new (are not one of the images below nor similar to them).</p><p>Once you press the space bar youll be shown these images again but one at time. Then youll begin the practice game.</p><p><img src='run_exp/static/images/tutorial/test/three_indoor_outdoor.png' height='300'></p></div>","","",""
"","html-keyboard-response","213","376527","0.0-213.0","""event"",""trial"",""time""
""fullscreenenter"",""0"",""7958""
","
","
","""event"",""trial"",""time""
""fullscreenenter"",""0"",""7958""
","
","1270.4000000059605","<div class='center'><p>Lets practice a little to make sure you understand the difference between new, similar, and old. Lets say you saw these three items in the indoor/outdoor game.</p><p> Try your best to remember these images because youll soon be tested on them in a practice game. In the practice game, youll be shown images and youll have to say if they are old (one of the three images belows), similar (similar to one of the images below but not exactly the same), or new (are not one of the images below nor similar to them).</p><p>Once you press the space bar youll be shown these images again but one at time. Then youll begin the practice game.</p><p><img src='run_exp/static/images/tutorial/test/three_indoor_outdoor.png' height='300'></p><div><p><b>[Press the space bar to continue]</b></p></div>","32","","","","","","","",""
"","planet","214","378528","0.0-214.0","""event"",""trial"",""time""
""fullscreenenter"",""0"",""7958""
","
","
","""event"",""trial"",""time""
""fullscreenenter"",""0"",""7958""
","
","null","run_exp/static/images/tutorial/test/008a.jpg","null","","","","","","","",""
"","boot","215","380534","0.0-215.0","""event"",""trial"",""time""
""fullscreenenter"",""0"",""7958""
","
","
","""event"",""trial"",""time""
""fullscreenenter"",""0"",""7958""
","
","null","run_exp/static/images/tutorial/test/011a.jpg","null","","","","","","","",""
"","lemon","216","382538","0.0-216.0","""event"",""trial"",""time""
""fullscreenenter"",""0"",""7958""
","
","
","""event"",""trial"",""time""
""fullscreenenter"",""0"",""7958""
","
","null","run_exp/static/images/tutorial/test/018a.jpg","null","","","","","","","",""
"","practice_q1","217","386652","0.0-217.0","""event"",""trial"",""time""
""fullscreenenter"",""0"",""7958""
","
","
","""event"",""trial"",""time""
""fullscreenenter"",""0"",""7958""
","
","4111.300000011921","run_exp/static/audio/clip_16_practice_question.m4a","78","","","","","","","",""
"","correct","218","388537","0.0-218.0-0.0","""event"",""trial"",""time""
""fullscreenenter"",""0"",""7958""
","
","
","""event"",""trial"",""time""
""fullscreenenter"",""0"",""7958""
","
","null","run_exp/static/audio/clip_17_correct.m4a","null","","","","","<div class='center'><p>That's correct!</p></div>","","",""
"","html-keyboard-response","219","389598","0.0-218.0-1.0","""event"",""trial"",""time""
""fullscreenenter"",""0"",""7958""
","
","
","""event"",""trial"",""time""
""fullscreenenter"",""0"",""7958""
","
","1059.5999999940395","<div class='center'><p>That's correct!</p><div><p><b>[Press the space bar to continue]</b></p></div>","32","","","","","","","",""
"","practice_q2","220","391340","0.0-218.0-2.0","""event"",""trial"",""time""
""fullscreenenter"",""0"",""7958""
","
","
","""event"",""trial"",""time""
""fullscreenenter"",""0"",""7958""
","
","1740.4000000059605","run_exp/static/audio/clip_16_practice_question.m4a","86","","","","","","","",""
"","correct","221","393227","0.0-219.0-0.0","""event"",""trial"",""time""
""fullscreenenter"",""0"",""7958""
","
","
","""event"",""trial"",""time""
""fullscreenenter"",""0"",""7958""
","
","null","run_exp/static/audio/clip_17_correct.m4a","null","","","","","<div class='center'><p>That's correct!</p></div>","","",""
"","html-keyboard-response","222","393739","0.0-219.0-1.0","""event"",""trial"",""time""
""fullscreenenter"",""0"",""7958""
","
","
","""event"",""trial"",""time""
""fullscreenenter"",""0"",""7958""
","
","510.5","<div class='center'><p>That's correct!</p><div><p><b>[Press the space bar to continue]</b></p></div>","32","","","","","","","",""
"","practice_q3","223","395541","0.0-219.0-2.0","""event"",""trial"",""time""
""fullscreenenter"",""0"",""7958""
","
","
","""event"",""trial"",""time""
""fullscreenenter"",""0"",""7958""
","
","1798.4000000059605","run_exp/static/audio/clip_16_practice_question.m4a","66","","","","","","","",""
"","correct","224","397640","0.0-220.0-0.0","""event"",""trial"",""time""
""fullscreenenter"",""0"",""7958""
","
","
","""event"",""trial"",""time""
""fullscreenenter"",""0"",""7958""
","
","null","run_exp/static/audio/clip_17_correct.m4a","null","","","","","<div class='center'><p>That's correct!</p></div>","","",""
"","html-keyboard-response","225","398382","0.0-220.0-1.0","""event"",""trial"",""time""
""fullscreenenter"",""0"",""7958""
","
","
","""event"",""trial"",""time""
""fullscreenenter"",""0"",""7958""
","
","741.5999999940395","<div class='center'><p>That's correct!</p><div><p><b>[Press the space bar to continue]</b></p></div>","32","","","","","","","",""
"","begin_text","226","416866","0.0-221.0-0.0","""event"",""trial"",""time""
""fullscreenenter"",""0"",""7958""
","
","
","""event"",""trial"",""time""
""fullscreenenter"",""0"",""7958""
","
","null","run_exp/static/audio/clip_22_begin_test.m4a","null","","","","","<div class='center'><p>On to the real game where well test your memory of items from the indoor/outdoor game. For each item, you need to indicate if the item is <b>old</b> by pressing the <b>v</b> key, <b>similar</b> by pressing the <b>b</b> key, or <b>new</b> by pressing the <b>n</b> key. </p></div>","","",""
"","html-keyboard-response","227","418307","0.0-221.0-1.0","""event"",""trial"",""time""
""fullscreenenter"",""0"",""7958""
","
","
","""event"",""trial"",""time""
""fullscreenenter"",""0"",""7958""
","
","1439.2000000178814","<div class='center'><p>On to the real game where well test your memory of items from the indoor/outdoor game. For each item, you need to indicate if the item is <b>old</b> by pressing the <b>v</b> key, <b>similar</b> by pressing the <b>b</b> key, or <b>new</b> by pressing the <b>n</b> key. </p><div><p><b>[Press the space bar to continue]</b></p></div>","32","","","","","","","",""
"","image","228","419387","0.0-222.0-0.0","""event"",""trial"",""time""
""fullscreenenter"",""0"",""7958""
","
","
","""event"",""trial"",""time""
""fullscreenenter"",""0"",""7958""
","
","1078.5999999940395","run_exp/static/images/Set 6_rs/152a.jpg","86","","","","","","test","TR","2"
"","show_choice","229","419889","0.0-222.0-1.0","""event"",""trial"",""time""
""fullscreenenter"",""0"",""7958""
","
","
","""event"",""trial"",""time""
""fullscreenenter"",""0"",""7958""
","
","null","run_exp/static/images/Set 6_rs/152a.jpg","null","","","","","","test","TR",""
"","html-keyboard-response","230","420395","0.0-222.0-2.0","""event"",""trial"",""time""
""fullscreenenter"",""0"",""7958""
","
","
","""event"",""trial"",""time""
""fullscreenenter"",""0"",""7958""
","
","null","<p></p>","null","","","","","","","",""
"","image","231","421420","0.0-223.0-0.0","""event"",""trial"",""time""
""fullscreenenter"",""0"",""7958""
","
","
","""event"",""trial"",""time""
""fullscreenenter"",""0"",""7958""
","
","1023","run_exp/static/images/Set 6_rs/149a.jpg","78","","","","","","test","TF","1"
"","show_choice","232","421922","0.0-223.0-1.0","""event"",""trial"",""time""
""fullscreenenter"",""0"",""7958""
","
","
","""event"",""trial"",""time""
""fullscreenenter"",""0"",""7958""
","
","null","run_exp/static/images/Set 6_rs/149a.jpg","null","","","","","","test","TF",""
"","html-keyboard-response","233","422425","0.0-223.0-2.0","""event"",""trial"",""time""
""fullscreenenter"",""0"",""7958""
","
","
","""event"",""trial"",""time""
""fullscreenenter"",""0"",""7958""
","
","null","<p></p>","null","","","","","","","",""
"","image","234","423448","0.0-224.0-0.0","""event"",""trial"",""time""
""fullscreenenter"",""0"",""7958""
","
","
","""event"",""trial"",""time""
""fullscreenenter"",""0"",""7958""
","
","1022.3000000119209","run_exp/static/images/Set 6_rs/075a.jpg","86","","","","","","test","TR","1"
"","show_choice","235","423950","0.0-224.0-1.0","""event"",""trial"",""time""
""fullscreenenter"",""0"",""7958""
","
","
","""event"",""trial"",""time""
""fullscreenenter"",""0"",""7958""
","
","null","run_exp/static/images/Set 6_rs/075a.jpg","null","","","","","","test","TR",""
"","html-keyboard-response","236","424454","0.0-224.0-2.0","""event"",""trial"",""time""
""fullscreenenter"",""0"",""7958""
","
","
","""event"",""trial"",""time""
""fullscreenenter"",""0"",""7958""
","
","null","<p></p>","null","","","","","","","",""
"","image","237","425673","0.0-225.0-0.0","""event"",""trial"",""time""
""fullscreenenter"",""0"",""7958""
","
","
","""event"",""trial"",""time""
""fullscreenenter"",""0"",""7958""
","
","1217.5999999940395","run_exp/static/images/Set 6_rs/090a.jpg","78","","","","","","test","TF","5"
"","show_choice","238","426177","0.0-225.0-1.0","""event"",""trial"",""time""
""fullscreenenter"",""0"",""7958""
","
","
","""event"",""trial"",""time""
""fullscreenenter"",""0"",""7958""
","
","null","run_exp/static/images/Set 6_rs/090a.jpg","null","","","","","","test","TF",""
"","html-keyboard-response","239","426679","0.0-225.0-2.0","""event"",""trial"",""time""
""fullscreenenter"",""0"",""7958""
","
","
","""event"",""trial"",""time""
""fullscreenenter"",""0"",""7958""
","
","null","<p></p>","null","","","","","","","",""
"","image","240","427867","0.0-226.0-0.0","""event"",""trial"",""time""
""fullscreenenter"",""0"",""7958""
","
","
","""event"",""trial"",""time""
""fullscreenenter"",""0"",""7958""
","
","1186.5999999940395","run_exp/static/images/Set 6_rs/077a.jpg","86","","","","","","test","TF","3"
"","show_choice","241","428370","0.0-226.0-1.0","""event"",""trial"",""time""
""fullscreenenter"",""0"",""7958""
","
","
","""event"",""trial"",""time""
""fullscreenenter"",""0"",""7958""
","
","null","run_exp/static/images/Set 6_rs/077a.jpg","null","","","","","","test","TF",""
"","html-keyboard-response","242","428873","0.0-226.0-2.0","""event"",""trial"",""time""
""fullscreenenter"",""0"",""7958""
","
","
","""event"",""trial"",""time""
""fullscreenenter"",""0"",""7958""
","
","null","<p></p>","null","","","","","","","",""
"","image","243","430061","0.0-227.0-0.0","""event"",""trial"",""time""
""fullscreenenter"",""0"",""7958""
","
","
","""event"",""trial"",""time""
""fullscreenenter"",""0"",""7958""
","
","1186.5999999940395","run_exp/static/images/Set 6_rs/167b.jpg","66","","","","","","test","TL","2"
"","show_choice","244","430564","0.0-227.0-1.0","""event"",""trial"",""time""
""fullscreenenter"",""0"",""7958""
","
","
","""event"",""trial"",""time""
""fullscreenenter"",""0"",""7958""
","
","null","run_exp/static/images/Set 6_rs/167b.jpg","null","","","","","","test","TL",""
"","html-keyboard-response","245","431069","0.0-227.0-2.0","""event"",""trial"",""time""
""fullscreenenter"",""0"",""7958""
","
","
","""event"",""trial"",""time""
""fullscreenenter"",""0"",""7958""
","
","null","<p></p>","null","","","","","","","",""
"","image","246","432070","0.0-228.0-0.0","""event"",""trial"",""time""
""fullscreenenter"",""0"",""7958""
","
","
","""event"",""trial"",""time""
""fullscreenenter"",""0"",""7958""
","
","999.3000000119209","run_exp/static/images/Set 6_rs/085b.jpg","66","","","","","","test","TL","1"
"","show_choice","247","432575","0.0-228.0-1.0","""event"",""trial"",""time""
""fullscreenenter"",""0"",""7958""
","
","
","""event"",""trial"",""time""
""fullscreenenter"",""0"",""7958""
","
","null","run_exp/static/images/Set 6_rs/085b.jpg","null","","","","","","test","TL",""
"","html-keyboard-response","248","433077","0.0-228.0-2.0","""event"",""trial"",""time""
""fullscreenenter"",""0"",""7958""
","
","
","""event"",""trial"",""time""
""fullscreenenter"",""0"",""7958""
","
","null","<p></p>","null","","","","","","","",""
"","image","249","434021","0.0-229.0-0.0","""event"",""trial"",""time""
""fullscreenenter"",""0"",""7958""
","
","
","""event"",""trial"",""time""
""fullscreenenter"",""0"",""7958""
","
","943.1000000238419","run_exp/static/images/Set 6_rs/071b.jpg","66","","","","","","test","TL","4"
"","show_choice","250","434526","0.0-229.0-1.0","""event"",""trial"",""time""
""fullscreenenter"",""0"",""7958""
","
","
","""event"",""trial"",""time""
""fullscreenenter"",""0"",""7958""
","
","null","run_exp/static/images/Set 6_rs/071b.jpg","null","","","","","","test","TL",""
"","html-keyboard-response","251","435032","0.0-229.0-2.0","""event"",""trial"",""time""
""fullscreenenter"",""0"",""7958""
","
","
","""event"",""trial"",""time""
""fullscreenenter"",""0"",""7958""
","
","null","<p></p>","null","","","","","","","",""
"","image","252","435849","0.0-230.0-0.0","""event"",""trial"",""time""
""fullscreenenter"",""0"",""7958""
","
","
","""event"",""trial"",""time""
""fullscreenenter"",""0"",""7958""
","
","815.0999999940395","run_exp/static/images/Set 6_rs/035a.jpg","78","","","","","","test","TF","4"
"","show_choice","253","436354","0.0-230.0-1.0","""event"",""trial"",""time""
""fullscreenenter"",""0"",""7958""
","
","
","""event"",""trial"",""time""
""fullscreenenter"",""0"",""7958""
","
","null","run_exp/static/images/Set 6_rs/035a.jpg","null","","","","","","test","TF",""
"","html-keyboard-response","254","436859","0.0-230.0-2.0","""event"",""trial"",""time""
""fullscreenenter"",""0"",""7958""
","
","
","""event"",""trial"",""time""
""fullscreenenter"",""0"",""7958""
","
","null","<p></p>","null","","","","","","","",""
"","image","255","437778","0.0-231.0-0.0","""event"",""trial"",""time""
""fullscreenenter"",""0"",""7958""
","
","
","""event"",""trial"",""time""
""fullscreenenter"",""0"",""7958""
","
","917.0999999940395","run_exp/static/images/Set 6_rs/048a.jpg","78","","","","","","test","TF","4"
"","show_choice","256","438283","0.0-231.0-1.0","""event"",""trial"",""time""
""fullscreenenter"",""0"",""7958""
","
","
","""event"",""trial"",""time""
""fullscreenenter"",""0"",""7958""
","
","null","run_exp/static/images/Set 6_rs/048a.jpg","null","","","","","","test","TF",""
"","html-keyboard-response","257","438786","0.0-231.0-2.0","""event"",""trial"",""time""
""fullscreenenter"",""0"",""7958""
","
","
","""event"",""trial"",""time""
""fullscreenenter"",""0"",""7958""
","
","null","<p></p>","null","","","","","","","",""
"","image","258","439756","0.0-232.0-0.0","""event"",""trial"",""time""
""fullscreenenter"",""0"",""7958""
","
","
","""event"",""trial"",""time""
""fullscreenenter"",""0"",""7958""
","
","968.3000000119209","run_exp/static/images/Set 6_rs/168b.jpg","66","","","","","","test","TL","3"
"","show_choice","259","440261","0.0-232.0-1.0","""event"",""trial"",""time""
""fullscreenenter"",""0"",""7958""
","
","
","""event"",""trial"",""time""
""fullscreenenter"",""0"",""7958""
","
","null","run_exp/static/images/Set 6_rs/168b.jpg","null","","","","","","test","TL",""
"","html-keyboard-response","260","440767","0.0-232.0-2.0","""event"",""trial"",""time""
""fullscreenenter"",""0"",""7958""
","
","
","""event"",""trial"",""time""
""fullscreenenter"",""0"",""7958""
","
","null","<p></p>","null","","","","","","","",""
"","image","261","441454","0.0-233.0-0.0","""event"",""trial"",""time""
""fullscreenenter"",""0"",""7958""
","
","
","""event"",""trial"",""time""
""fullscreenenter"",""0"",""7958""
","
","685","run_exp/static/images/Set 6_rs/045a.jpg","86","","","","","","test","TR","2"
"","show_choice","262","441958","0.0-233.0-1.0","""event"",""trial"",""time""
""fullscreenenter"",""0"",""7958""
","
","
","""event"",""trial"",""time""
""fullscreenenter"",""0"",""7958""
","
","null","run_exp/static/images/Set 6_rs/045a.jpg","null","","","","","","test","TR",""
"","html-keyboard-response","263","442461","0.0-233.0-2.0","""event"",""trial"",""time""
""fullscreenenter"",""0"",""7958""
","
","
","""event"",""trial"",""time""
""fullscreenenter"",""0"",""7958""
","
","null","<p></p>","null","","","","","","","",""
"","image","264","443305","0.0-234.0-0.0","""event"",""trial"",""time""
""fullscreenenter"",""0"",""7958""
","
","
","""event"",""trial"",""time""
""fullscreenenter"",""0"",""7958""
","
","842.2999999821186","run_exp/static/images/Set 6_rs/063a.jpg","86","","","","","","test","TR","2"
"","show_choice","265","443809","0.0-234.0-1.0","""event"",""trial"",""time""
""fullscreenenter"",""0"",""7958""
","
","
","""event"",""trial"",""time""
""fullscreenenter"",""0"",""7958""
","
","null","run_exp/static/images/Set 6_rs/063a.jpg","null","","","","","","test","TR",""
"","html-keyboard-response","266","444314","0.0-234.0-2.0","""event"",""trial"",""time""
""fullscreenenter"",""0"",""7958""
","
","
","""event"",""trial"",""time""
""fullscreenenter"",""0"",""7958""
","
","null","<p></p>","null","","","","","","","",""
"","image","267","445204","0.0-235.0-0.0","""event"",""trial"",""time""
""fullscreenenter"",""0"",""7958""
","
","
","""event"",""trial"",""time""
""fullscreenenter"",""0"",""7958""
","
","888.1999999880791","run_exp/static/images/Set 6_rs/133a.jpg","78","","","","","","test","TF","4"
"","show_choice","268","445707","0.0-235.0-1.0","""event"",""trial"",""time""
""fullscreenenter"",""0"",""7958""
","
","
","""event"",""trial"",""time""
""fullscreenenter"",""0"",""7958""
","
","null","run_exp/static/images/Set 6_rs/133a.jpg","null","","","","","","test","TF",""
"","html-keyboard-response","269","446211","0.0-235.0-2.0","""event"",""trial"",""time""
""fullscreenenter"",""0"",""7958""
","
","
","""event"",""trial"",""time""
""fullscreenenter"",""0"",""7958""
","
","null","<p></p>","null","","","","","","","",""
"","image","270","447127","0.0-236.0-0.0","""event"",""trial"",""time""
""fullscreenenter"",""0"",""7958""
","
","
","""event"",""trial"",""time""
""fullscreenenter"",""0"",""7958""
","
","914.2000000178814","run_exp/static/images/Set 6_rs/190a.jpg","78","","","","","","test","TF","3"
"","show_choice","271","447632","0.0-236.0-1.0","""event"",""trial"",""time""
""fullscreenenter"",""0"",""7958""
","
","
","""event"",""trial"",""time""
""fullscreenenter"",""0"",""7958""
","
","null","run_exp/static/images/Set 6_rs/190a.jpg","null","","","","","","test","TF",""
"","html-keyboard-response","272","448138","0.0-236.0-2.0","""event"",""trial"",""time""
""fullscreenenter"",""0"",""7958""
","
","
","""event"",""trial"",""time""
""fullscreenenter"",""0"",""7958""
","
","null","<p></p>","null","","","","","","","",""
"","image","273","448899","0.0-237.0-0.0","""event"",""trial"",""time""
""fullscreenenter"",""0"",""7958""
","
","
","""event"",""trial"",""time""
""fullscreenenter"",""0"",""7958""
","
","758.5","run_exp/static/images/Set 6_rs/086a.jpg","78","","","","","","test","TF","1"
"","show_choice","274","449400","0.0-237.0-1.0","""event"",""trial"",""time""
""fullscreenenter"",""0"",""7958""
","
","
","""event"",""trial"",""time""
""fullscreenenter"",""0"",""7958""
","
","null","run_exp/static/images/Set 6_rs/086a.jpg","null","","","","","","test","TF",""
"","html-keyboard-response","275","449906","0.0-237.0-2.0","""event"",""trial"",""time""
""fullscreenenter"",""0"",""7958""
","
","
","""event"",""trial"",""time""
""fullscreenenter"",""0"",""7958""
","
","null","<p></p>","null","","","","","","","",""
"","image","276","450963","0.0-238.0-0.0","""event"",""trial"",""time""
""fullscreenenter"",""0"",""7958""
","
","
","""event"",""trial"",""time""
""fullscreenenter"",""0"",""7958""
","
","1055.5999999940395","run_exp/static/images/Set 6_rs/136a.jpg","78","","","","","","test","TF","4"
"","show_choice","277","451468","0.0-238.0-1.0","""event"",""trial"",""time""
""fullscreenenter"",""0"",""7958""
","
","
","""event"",""trial"",""time""
""fullscreenenter"",""0"",""7958""
","
","null","run_exp/static/images/Set 6_rs/136a.jpg","null","","","","","","test","TF",""
"","html-keyboard-response","278","451974","0.0-238.0-2.0","""event"",""trial"",""time""
""fullscreenenter"",""0"",""7958""
","
","
","""event"",""trial"",""time""
""fullscreenenter"",""0"",""7958""
","
","null","<p></p>","null","","","","","","","",""
"","image","279","453036","0.0-239.0-0.0","""event"",""trial"",""time""
""fullscreenenter"",""0"",""7958""
","
","
","""event"",""trial"",""time""
""fullscreenenter"",""0"",""7958""
","
","1061","run_exp/static/images/Set 6_rs/111b.jpg","66","","","","","","test","TL","3"
"","show_choice","280","453538","0.0-239.0-1.0","""event"",""trial"",""time""
""fullscreenenter"",""0"",""7958""
","
","
","""event"",""trial"",""time""
""fullscreenenter"",""0"",""7958""
","
","null","run_exp/static/images/Set 6_rs/111b.jpg","null","","","","","","test","TL",""
"","html-keyboard-response","281","454042","0.0-239.0-2.0","""event"",""trial"",""time""
""fullscreenenter"",""0"",""7958""
","
","
","""event"",""trial"",""time""
""fullscreenenter"",""0"",""7958""
","
","null","<p></p>","null","","","","","","","",""
"","image","282","455080","0.0-240.0-0.0","""event"",""trial"",""time""
""fullscreenenter"",""0"",""7958""
","
","
","""event"",""trial"",""time""
""fullscreenenter"",""0"",""7958""
","
","1037.199999988079","run_exp/static/images/Set 6_rs/105a.jpg","86","","","","","","test","TF","5"
"","show_choice","283","455582","0.0-240.0-1.0","""event"",""trial"",""time""
""fullscreenenter"",""0"",""7958""
","
","
","""event"",""trial"",""time""
""fullscreenenter"",""0"",""7958""
","
","null","run_exp/static/images/Set 6_rs/105a.jpg","null","","","","","","test","TF",""
"","html-keyboard-response","284","456084","0.0-240.0-2.0","""event"",""trial"",""time""
""fullscreenenter"",""0"",""7958""
","
","
","""event"",""trial"",""time""
""fullscreenenter"",""0"",""7958""
","
","null","<p></p>","null","","","","","","","",""
"","image","285","457204","0.0-241.0-0.0","""event"",""trial"",""time""
""fullscreenenter"",""0"",""7958""
","
","
","""event"",""trial"",""time""
""fullscreenenter"",""0"",""7958""
","
","1118.7000000178814","run_exp/static/images/Set 6_rs/108a.jpg","86","","","","","","test","TR","5"
"","show_choice","286","457706","0.0-241.0-1.0","""event"",""trial"",""time""
""fullscreenenter"",""0"",""7958""
","
","
","""event"",""trial"",""time""
""fullscreenenter"",""0"",""7958""
","
","null","run_exp/static/images/Set 6_rs/108a.jpg","null","","","","","","test","TR",""
"","html-keyboard-response","287","458210","0.0-241.0-2.0","""event"",""trial"",""time""
""fullscreenenter"",""0"",""7958""
","
","
","""event"",""trial"",""time""
""fullscreenenter"",""0"",""7958""
","
","null","<p></p>","null","","","","","","","",""
"","image","288","459137","0.0-242.0-0.0","""event"",""trial"",""time""
""fullscreenenter"",""0"",""7958""
","
","
","""event"",""trial"",""time""
""fullscreenenter"",""0"",""7958""
","
","925.6999999880791","run_exp/static/images/Set 6_rs/024a.jpg","86","","","","","","test","TR","5"
"","show_choice","289","459640","0.0-242.0-1.0","""event"",""trial"",""time""
""fullscreenenter"",""0"",""7958""
","
","
","""event"",""trial"",""time""
""fullscreenenter"",""0"",""7958""
","
","null","run_exp/static/images/Set 6_rs/024a.jpg","null","","","","","","test","TR",""
"","html-keyboard-response","290","460146","0.0-242.0-2.0","""event"",""trial"",""time""
""fullscreenenter"",""0"",""7958""
","
","
","""event"",""trial"",""time""
""fullscreenenter"",""0"",""7958""
","
","null","<p></p>","null","","","","","","","",""
"","image","291","461219","0.0-243.0-0.0","""event"",""trial"",""time""
""fullscreenenter"",""0"",""7958""
","
","
","""event"",""trial"",""time""
""fullscreenenter"",""0"",""7958""
","
","1071.7000000178814","run_exp/static/images/Set 6_rs/186a.jpg","86","","","","","","test","TR","5"
"","show_choice","292","461724","0.0-243.0-1.0","""event"",""trial"",""time""
""fullscreenenter"",""0"",""7958""
","
","
","""event"",""trial"",""time""
""fullscreenenter"",""0"",""7958""
","
","null","run_exp/static/images/Set 6_rs/186a.jpg","null","","","","","","test","TR",""
"","html-keyboard-response","293","462227","0.0-243.0-2.0","""event"",""trial"",""time""
""fullscreenenter"",""0"",""7958""
","
","
","""event"",""trial"",""time""
""fullscreenenter"",""0"",""7958""
","
","null","<p></p>","null","","","","","","","",""
"","image","294","463380","0.0-244.0-0.0","""event"",""trial"",""time""
""fullscreenenter"",""0"",""7958""
","
","
","""event"",""trial"",""time""
""fullscreenenter"",""0"",""7958""
","
","1151.4000000059605","run_exp/static/images/Set 6_rs/095b.jpg","78","","","","","","test","TL","5"
"","show_choice","295","463881","0.0-244.0-1.0","""event"",""trial"",""time""
""fullscreenenter"",""0"",""7958""
","
","
","""event"",""trial"",""time""
""fullscreenenter"",""0"",""7958""
","
","null","run_exp/static/images/Set 6_rs/095b.jpg","null","","","","","","test","TL",""
"","html-keyboard-response","296","464385","0.0-244.0-2.0","""event"",""trial"",""time""
""fullscreenenter"",""0"",""7958""
","
","
","""event"",""trial"",""time""
""fullscreenenter"",""0"",""7958""
","
","null","<p></p>","null","","","","","","","",""
"","image","297","466704","0.0-245.0-0.0","""event"",""trial"",""time""
""fullscreenenter"",""0"",""7958""
","
","
","""event"",""trial"",""time""
""fullscreenenter"",""0"",""7958""
","
","2316.9000000059605","run_exp/static/images/Set 6_rs/132a.jpg","86","","","","","","test","TR","5"
"","show_choice","298","467209","0.0-245.0-1.0","""event"",""trial"",""time""
""fullscreenenter"",""0"",""7958""
","
","
","""event"",""trial"",""time""
""fullscreenenter"",""0"",""7958""
","
","null","run_exp/static/images/Set 6_rs/132a.jpg","null","","","","","","test","TR",""
"","html-keyboard-response","299","467710","0.0-245.0-2.0","""event"",""trial"",""time""
""fullscreenenter"",""0"",""7958""
","
","
","""event"",""trial"",""time""
""fullscreenenter"",""0"",""7958""
","
","null","<p></p>","null","","","","","","","",""
"","image","300","468855","0.0-246.0-0.0","""event"",""trial"",""time""
""fullscreenenter"",""0"",""7958""
","
","
","""event"",""trial"",""time""
""fullscreenenter"",""0"",""7958""
","
","1143.9000000059605","run_exp/static/images/Set 6_rs/123b.jpg","66","","","","","","test","TL","2"
"","show_choice","301","469360","0.0-246.0-1.0","""event"",""trial"",""time""
""fullscreenenter"",""0"",""7958""
","
","
","""event"",""trial"",""time""
""fullscreenenter"",""0"",""7958""
","
","null","run_exp/static/images/Set 6_rs/123b.jpg","null","","","","","","test","TL",""
"","html-keyboard-response","302","469866","0.0-246.0-2.0","""event"",""trial"",""time""
""fullscreenenter"",""0"",""7958""
","
","
","""event"",""trial"",""time""
""fullscreenenter"",""0"",""7958""
","
","null","<p></p>","null","","","","","","","",""
"","image","303","470746","0.0-247.0-0.0","""event"",""trial"",""time""
""fullscreenenter"",""0"",""7958""
","
","
","""event"",""trial"",""time""
""fullscreenenter"",""0"",""7958""
","
","879.2000000178814","run_exp/static/images/Set 6_rs/117b.jpg","66","","","","","","test","TL","5"
"","show_choice","304","471250","0.0-247.0-1.0","""event"",""trial"",""time""
""fullscreenenter"",""0"",""7958""
","
","
","""event"",""trial"",""time""
""fullscreenenter"",""0"",""7958""
","
","null","run_exp/static/images/Set 6_rs/117b.jpg","null","","","","","","test","TL",""
"","html-keyboard-response","305","471756","0.0-247.0-2.0","""event"",""trial"",""time""
""fullscreenenter"",""0"",""7958""
","
","
","""event"",""trial"",""time""
""fullscreenenter"",""0"",""7958""
","
","null","<p></p>","null","","","","","","","",""
"","image","306","472893","0.0-248.0-0.0","""event"",""trial"",""time""
""fullscreenenter"",""0"",""7958""
","
","
","""event"",""trial"",""time""
""fullscreenenter"",""0"",""7958""
","
","1135.4000000059605","run_exp/static/images/Set 6_rs/073b.jpg","66","","","","","","test","TL","3"
"","show_choice","307","473398","0.0-248.0-1.0","""event"",""trial"",""time""
""fullscreenenter"",""0"",""7958""
","
","
","""event"",""trial"",""time""
""fullscreenenter"",""0"",""7958""
","
","null","run_exp/static/images/Set 6_rs/073b.jpg","null","","","","","","test","TL",""
"","html-keyboard-response","308","473903","0.0-248.0-2.0","""event"",""trial"",""time""
""fullscreenenter"",""0"",""7958""
","
","
","""event"",""trial"",""time""
""fullscreenenter"",""0"",""7958""
","
","null","<p></p>","null","","","","","","","",""
"","image","309","475241","0.0-249.0-0.0","""event"",""trial"",""time""
""fullscreenenter"",""0"",""7958""
","
","
","""event"",""trial"",""time""
""fullscreenenter"",""0"",""7958""
","
","1336.5999999940395","run_exp/static/images/Set 6_rs/070a.jpg","86","","","","","","test","TR","2"
"","show_choice","310","475743","0.0-249.0-1.0","""event"",""trial"",""time""
""fullscreenenter"",""0"",""7958""
","
","
","""event"",""trial"",""time""
""fullscreenenter"",""0"",""7958""
","
","null","run_exp/static/images/Set 6_rs/070a.jpg","null","","","","","","test","TR",""
"","html-keyboard-response","311","476246","0.0-249.0-2.0","""event"",""trial"",""time""
""fullscreenenter"",""0"",""7958""
","
","
","""event"",""trial"",""time""
""fullscreenenter"",""0"",""7958""
","
","null","<p></p>","null","","","","","","","",""
"","image","312","477130","0.0-250.0-0.0","""event"",""trial"",""time""
""fullscreenenter"",""0"",""7958""
","
","
","""event"",""trial"",""time""
""fullscreenenter"",""0"",""7958""
","
","882.9000000059605","run_exp/static/images/Set 6_rs/118a.jpg","78","","","","","","test","TF","5"
"","show_choice","313","477635","0.0-250.0-1.0","""event"",""trial"",""time""
""fullscreenenter"",""0"",""7958""
","
","
","""event"",""trial"",""time""
""fullscreenenter"",""0"",""7958""
","
","null","run_exp/static/images/Set 6_rs/118a.jpg","null","","","","","","test","TF",""
"","html-keyboard-response","314","478138","0.0-250.0-2.0","""event"",""trial"",""time""
""fullscreenenter"",""0"",""7958""
","
","
","""event"",""trial"",""time""
""fullscreenenter"",""0"",""7958""
","
","null","<p></p>","null","","","","","","","",""
"","image","315","479040","0.0-251.0-0.0","""event"",""trial"",""time""
""fullscreenenter"",""0"",""7958""
","
","
","""event"",""trial"",""time""
""fullscreenenter"",""0"",""7958""
","
","900.8000000119209","run_exp/static/images/Set 6_rs/171a.jpg","78","","","","","","test","TF","1"
"","show_choice","316","479545","0.0-251.0-1.0","""event"",""trial"",""time""
""fullscreenenter"",""0"",""7958""
","
","
","""event"",""trial"",""time""
""fullscreenenter"",""0"",""7958""
","
","null","run_exp/static/images/Set 6_rs/171a.jpg","null","","","","","","test","TF",""
"","html-keyboard-response","317","480051","0.0-251.0-2.0","""event"",""trial"",""time""
""fullscreenenter"",""0"",""7958""
","
","
","""event"",""trial"",""time""
""fullscreenenter"",""0"",""7958""
","
","null","<p></p>","null","","","","","","","",""
"","image","318","481555","0.0-252.0-0.0","""event"",""trial"",""time""
""fullscreenenter"",""0"",""7958""
","
","
","""event"",""trial"",""time""
""fullscreenenter"",""0"",""7958""
","
","1502.4000000059605","run_exp/static/images/Set 6_rs/177a.jpg","86","","","","","","test","TR","5"
"","show_choice","319","482060","0.0-252.0-1.0","""event"",""trial"",""time""
""fullscreenenter"",""0"",""7958""
","
","
","""event"",""trial"",""time""
""fullscreenenter"",""0"",""7958""
","
","null","run_exp/static/images/Set 6_rs/177a.jpg","null","","","","","","test","TR",""
"","html-keyboard-response","320","482564","0.0-252.0-2.0","""event"",""trial"",""time""
""fullscreenenter"",""0"",""7958""
","
","
","""event"",""trial"",""time""
""fullscreenenter"",""0"",""7958""
","
","null","<p></p>","null","","","","","","","",""
"","image","321","483484","0.0-253.0-0.0","""event"",""trial"",""time""
""fullscreenenter"",""0"",""7958""
","
","
","""event"",""trial"",""time""
""fullscreenenter"",""0"",""7958""
","
","919.3000000119209","run_exp/static/images/Set 6_rs/064a.jpg","86","","","","","","test","TR","5"
"","show_choice","322","483989","0.0-253.0-1.0","""event"",""trial"",""time""
""fullscreenenter"",""0"",""7958""
","
","
","""event"",""trial"",""time""
""fullscreenenter"",""0"",""7958""
","
","null","run_exp/static/images/Set 6_rs/064a.jpg","null","","","","","","test","TR",""
"","html-keyboard-response","323","484495","0.0-253.0-2.0","""event"",""trial"",""time""
""fullscreenenter"",""0"",""7958""
","
","
","""event"",""trial"",""time""
""fullscreenenter"",""0"",""7958""
","
","null","<p></p>","null","","","","","","","",""
"","image","324","485656","0.0-254.0-0.0","""event"",""trial"",""time""
""fullscreenenter"",""0"",""7958""
","
","
","""event"",""trial"",""time""
""fullscreenenter"",""0"",""7958""
","
","1159.4000000059605","run_exp/static/images/Set 6_rs/016b.jpg","66","","","","","","test","TL","1"
"","show_choice","325","486159","0.0-254.0-1.0","""event"",""trial"",""time""
""fullscreenenter"",""0"",""7958""
","
","
","""event"",""trial"",""time""
""fullscreenenter"",""0"",""7958""
","
","null","run_exp/static/images/Set 6_rs/016b.jpg","null","","","","","","test","TL",""
"","html-keyboard-response","326","486662","0.0-254.0-2.0","""event"",""trial"",""time""
""fullscreenenter"",""0"",""7958""
","
","
","""event"",""trial"",""time""
""fullscreenenter"",""0"",""7958""
","
","null","<p></p>","null","","","","","","","",""
"","image","327","487706","0.0-255.0-0.0","""event"",""trial"",""time""
""fullscreenenter"",""0"",""7958""
","
","
","""event"",""trial"",""time""
""fullscreenenter"",""0"",""7958""
","
","1042.4000000059605","run_exp/static/images/Set 6_rs/061a.jpg","86","","","","","","test","TR","5"
"","show_choice","328","488208","0.0-255.0-1.0","""event"",""trial"",""time""
""fullscreenenter"",""0"",""7958""
","
","
","""event"",""trial"",""time""
""fullscreenenter"",""0"",""7958""
","
","null","run_exp/static/images/Set 6_rs/061a.jpg","null","","","","","","test","TR",""
"","html-keyboard-response","329","488711","0.0-255.0-2.0","""event"",""trial"",""time""
""fullscreenenter"",""0"",""7958""
","
","
","""event"",""trial"",""time""
""fullscreenenter"",""0"",""7958""
","
","null","<p></p>","null","","","","","","","",""
"","image","330","489532","0.0-256.0-0.0","""event"",""trial"",""time""
""fullscreenenter"",""0"",""7958""
","
","
","""event"",""trial"",""time""
""fullscreenenter"",""0"",""7958""
","
","819.8000000119209","run_exp/static/images/Set 6_rs/134a.jpg","86","","","","","","test","TR","3"
"","show_choice","331","490034","0.0-256.0-1.0","""event"",""trial"",""time""
""fullscreenenter"",""0"",""7958""
","
","
","""event"",""trial"",""time""
""fullscreenenter"",""0"",""7958""
","
","null","run_exp/static/images/Set 6_rs/134a.jpg","null","","","","","","test","TR",""
"","html-keyboard-response","332","490540","0.0-256.0-2.0","""event"",""trial"",""time""
""fullscreenenter"",""0"",""7958""
","
","
","""event"",""trial"",""time""
""fullscreenenter"",""0"",""7958""
","
","null","<p></p>","null","","","","","","","",""
"","image","333","491941","0.0-257.0-0.0","""event"",""trial"",""time""
""fullscreenenter"",""0"",""7958""
","
","
","""event"",""trial"",""time""
""fullscreenenter"",""0"",""7958""
","
","1399.6000000238419","run_exp/static/images/Set 6_rs/191b.jpg","66","","","","","","test","TL","2"
"","show_choice","334","492443","0.0-257.0-1.0","""event"",""trial"",""time""
""fullscreenenter"",""0"",""7958""
","
","
","""event"",""trial"",""time""
""fullscreenenter"",""0"",""7958""
","
","null","run_exp/static/images/Set 6_rs/191b.jpg","null","","","","","","test","TL",""
"","html-keyboard-response","335","492948","0.0-257.0-2.0","""event"",""trial"",""time""
""fullscreenenter"",""0"",""7958""
","
","
","""event"",""trial"",""time""
""fullscreenenter"",""0"",""7958""
","
","null","<p></p>","null","","","","","","","",""
"","image","336","494080","0.0-258.0-0.0","""event"",""trial"",""time""
""fullscreenenter"",""0"",""7958""
","
","
","""event"",""trial"",""time""
""fullscreenenter"",""0"",""7958""
","
","1129.9000000059605","run_exp/static/images/Set 6_rs/076a.jpg","78","","","","","","test","TR","4"
"","show_choice","337","494581","0.0-258.0-1.0","""event"",""trial"",""time""
""fullscreenenter"",""0"",""7958""
","
","
","""event"",""trial"",""time""
""fullscreenenter"",""0"",""7958""
","
","null","run_exp/static/images/Set 6_rs/076a.jpg","null","","","","","","test","TR",""
"","html-keyboard-response","338","495085","0.0-258.0-2.0","""event"",""trial"",""time""
""fullscreenenter"",""0"",""7958""
","
","
","""event"",""trial"",""time""
""fullscreenenter"",""0"",""7958""
","
","null","<p></p>","null","","","","","","","",""
"","image","339","496026","0.0-259.0-0.0","""event"",""trial"",""time""
""fullscreenenter"",""0"",""7958""
","
","
","""event"",""trial"",""time""
""fullscreenenter"",""0"",""7958""
","
","939.2999999821186","run_exp/static/images/Set 6_rs/005a.jpg","78","","","","","","test","TF","5"
"","show_choice","340","496528","0.0-259.0-1.0","""event"",""trial"",""time""
""fullscreenenter"",""0"",""7958""
","
","
","""event"",""trial"",""time""
""fullscreenenter"",""0"",""7958""
","
","null","run_exp/static/images/Set 6_rs/005a.jpg","null","","","","","","test","TF",""
