"success","trial_type","trial_index","time_elapsed","internal_node_id","interactions","blur_events","focus_events","fullscreenenter_events","fullscreenexit_events","rt","stimulus","key_press","subject_id","participant_id","age","gender","prompt","phase","condition","lure_bin"
"true","fullscreen","0","3337","0.0-0.0","""event"",""trial"",""time""
""blur"",""0"",""0""
""focus"",""0"",""0""
""blur"",""0"",""0""
""focus"",""0"",""889""
""fullscreenenter"",""0"",""2344""
","""event"",""trial"",""time""
""blur"",""0"",""0""
""blur"",""0"",""0""
","""event"",""trial"",""time""
""focus"",""0"",""0""
""focus"",""0"",""889""
","""event"",""trial"",""time""
""fullscreenenter"",""0"",""2344""
","
","","","","","","","","","","",""
"","pavlovia","1","3345","0.0-1.0","""event"",""trial"",""time""
""blur"",""0"",""0""
""focus"",""0"",""0""
""blur"",""0"",""0""
""focus"",""0"",""889""
""fullscreenenter"",""0"",""2344""
","""event"",""trial"",""time""
""blur"",""0"",""0""
""blur"",""0"",""0""
","""event"",""trial"",""time""
""focus"",""0"",""0""
""focus"",""0"",""889""
","""event"",""trial"",""time""
""fullscreenenter"",""0"",""2344""
","
","","","","","","","","","","",""
"","welcome","2","38162","0.0-2.0","""event"",""trial"",""time""
""blur"",""0"",""0""
""focus"",""0"",""0""
""blur"",""0"",""0""
""focus"",""0"",""889""
""fullscreenenter"",""0"",""2344""
","""event"",""trial"",""time""
""blur"",""0"",""0""
""blur"",""0"",""0""
","""event"",""trial"",""time""
""focus"",""0"",""0""
""focus"",""0"",""889""
","""event"",""trial"",""time""
""fullscreenenter"",""0"",""2344""
","
","null","run_exp/static/audio/clip_1_welcome.m4a","null","2110","1149","17","Female","<div class='center'><p>Welcome to the third part of the study! First, you'll be shown pictures of items one at a time. For each picture, you have to decide if the item is typically found indoors or outdoors.</p><p>If you think it's usually found indoors, then press <b>v</b> key on your keyboard. If you think it's usually found outdoors, then press the <b>n</b> key.There will be reminders on the screen to help you remember which keys to press. </p><p>If you're not sure whether the item is an indoor item or an outdoor item, go ahead and take a guess but try your best not to skip that choice. </p></div>","","",""
"","html-keyboard-response","3","38963","0.0-3.0","""event"",""trial"",""time""
""blur"",""0"",""0""
""focus"",""0"",""0""
""blur"",""0"",""0""
""focus"",""0"",""889""
""fullscreenenter"",""0"",""2344""
","""event"",""trial"",""time""
""blur"",""0"",""0""
""blur"",""0"",""0""
","""event"",""trial"",""time""
""focus"",""0"",""0""
""focus"",""0"",""889""
","""event"",""trial"",""time""
""fullscreenenter"",""0"",""2344""
","
","798.1000000014901","<div class='center'><p>Welcome to the third part of the study! First, you'll be shown pictures of items one at a time. For each picture, you have to decide if the item is typically found indoors or outdoors.</p><p>If you think it's usually found indoors, then press <b>v</b> key on your keyboard. If you think it's usually found outdoors, then press the <b>n</b> key.There will be reminders on the screen to help you remember which keys to press. </p><p>If you're not sure whether the item is an indoor item or an outdoor item, go ahead and take a guess but try your best not to skip that choice. </p><div><p><b>[Press the space bar to continue]</b></p></div>","32","","","","","","","",""
"","image","4","40967","0.0-4.0","""event"",""trial"",""time""
""blur"",""0"",""0""
""focus"",""0"",""0""
""blur"",""0"",""0""
""focus"",""0"",""889""
""fullscreenenter"",""0"",""2344""
","""event"",""trial"",""time""
""blur"",""0"",""0""
""blur"",""0"",""0""
","""event"",""trial"",""time""
""focus"",""0"",""0""
""focus"",""0"",""889""
","""event"",""trial"",""time""
""fullscreenenter"",""0"",""2344""
","
","null","run_exp/static/images/Set 6_rs/036a.jpg","null","","","","","","learn","SL",""
"","show_choice","5","42973","0.0-5.0","""event"",""trial"",""time""
""blur"",""0"",""0""
""focus"",""0"",""0""
""blur"",""0"",""0""
""focus"",""0"",""889""
""fullscreenenter"",""0"",""2344""
","""event"",""trial"",""time""
""blur"",""0"",""0""
""blur"",""0"",""0""
","""event"",""trial"",""time""
""focus"",""0"",""0""
""focus"",""0"",""889""
","""event"",""trial"",""time""
""fullscreenenter"",""0"",""2344""
","
","null","run_exp/static/images/blank.png","null","","","","","","learn","SL",""
"","html-keyboard-response","6","43480","0.0-6.0","""event"",""trial"",""time""
""blur"",""0"",""0""
""focus"",""0"",""0""
""blur"",""0"",""0""
""focus"",""0"",""889""
""fullscreenenter"",""0"",""2344""
","""event"",""trial"",""time""
""blur"",""0"",""0""
""blur"",""0"",""0""
","""event"",""trial"",""time""
""focus"",""0"",""0""
""focus"",""0"",""889""
","""event"",""trial"",""time""
""fullscreenenter"",""0"",""2344""
","
","null","<p></p>","null","","","","","","","",""
"","image","7","44531","0.0-7.0","""event"",""trial"",""time""
""blur"",""0"",""0""
""focus"",""0"",""0""
""blur"",""0"",""0""
""focus"",""0"",""889""
""fullscreenenter"",""0"",""2344""
","""event"",""trial"",""time""
""blur"",""0"",""0""
""blur"",""0"",""0""
","""event"",""trial"",""time""
""focus"",""0"",""0""
""focus"",""0"",""889""
","""event"",""trial"",""time""
""fullscreenenter"",""0"",""2344""
","
","1048.8000000044703","run_exp/static/images/Set 6_rs/111a.jpg","86","","","","","","learn","SL",""
"","show_choice","8","45487","0.0-8.0","""event"",""trial"",""time""
""blur"",""0"",""0""
""focus"",""0"",""0""
""blur"",""0"",""0""
""focus"",""0"",""889""
""fullscreenenter"",""0"",""2344""
","""event"",""trial"",""time""
""blur"",""0"",""0""
""blur"",""0"",""0""
","""event"",""trial"",""time""
""focus"",""0"",""0""
""focus"",""0"",""889""
","""event"",""trial"",""time""
""fullscreenenter"",""0"",""2344""
","
","null","run_exp/static/images/Set 6_rs/111a.jpg","null","","","","","","learn","SL",""
"","html-keyboard-response","9","45991","0.0-9.0","""event"",""trial"",""time""
""blur"",""0"",""0""
""focus"",""0"",""0""
""blur"",""0"",""0""
""focus"",""0"",""889""
""fullscreenenter"",""0"",""2344""
","""event"",""trial"",""time""
""blur"",""0"",""0""
""blur"",""0"",""0""
","""event"",""trial"",""time""
""focus"",""0"",""0""
""focus"",""0"",""889""
","""event"",""trial"",""time""
""fullscreenenter"",""0"",""2344""
","
","null","<p></p>","null","","","","","","","",""
"","image","10","46754","0.0-10.0","""event"",""trial"",""time""
""blur"",""0"",""0""
""focus"",""0"",""0""
""blur"",""0"",""0""
""focus"",""0"",""889""
""fullscreenenter"",""0"",""2344""
","""event"",""trial"",""time""
""blur"",""0"",""0""
""blur"",""0"",""0""
","""event"",""trial"",""time""
""focus"",""0"",""0""
""focus"",""0"",""889""
","""event"",""trial"",""time""
""fullscreenenter"",""0"",""2344""
","
","761.1000000014901","run_exp/static/images/Set 6_rs/181a.jpg","78","","","","","","learn","SL",""
"","show_choice","11","47995","0.0-11.0","""event"",""trial"",""time""
""blur"",""0"",""0""
""focus"",""0"",""0""
""blur"",""0"",""0""
""focus"",""0"",""889""
""fullscreenenter"",""0"",""2344""
","""event"",""trial"",""time""
""blur"",""0"",""0""
""blur"",""0"",""0""
","""event"",""trial"",""time""
""focus"",""0"",""0""
""focus"",""0"",""889""
","""event"",""trial"",""time""
""fullscreenenter"",""0"",""2344""
","
","null","run_exp/static/images/Set 6_rs/181a.jpg","null","","","","","","learn","SL",""
"","html-keyboard-response","12","48500","0.0-12.0","""event"",""trial"",""time""
""blur"",""0"",""0""
""focus"",""0"",""0""
""blur"",""0"",""0""
""focus"",""0"",""889""
""fullscreenenter"",""0"",""2344""
","""event"",""trial"",""time""
""blur"",""0"",""0""
""blur"",""0"",""0""
","""event"",""trial"",""time""
""focus"",""0"",""0""
""focus"",""0"",""889""
","""event"",""trial"",""time""
""fullscreenenter"",""0"",""2344""
","
","null","<p></p>","null","","","","","","","",""
"","image","13","49236","0.0-13.0","""event"",""trial"",""time""
""blur"",""0"",""0""
""focus"",""0"",""0""
""blur"",""0"",""0""
""focus"",""0"",""889""
""fullscreenenter"",""0"",""2344""
","""event"",""trial"",""time""
""blur"",""0"",""0""
""blur"",""0"",""0""
","""event"",""trial"",""time""
""focus"",""0"",""0""
""focus"",""0"",""889""
","""event"",""trial"",""time""
""fullscreenenter"",""0"",""2344""
","
","734.1000000014901","run_exp/static/images/Set 6_rs/023a.jpg","86","","","","","","learn","SR",""
"","show_choice","14","50507","0.0-14.0","""event"",""trial"",""time""
""blur"",""0"",""0""
""focus"",""0"",""0""
""blur"",""0"",""0""
""focus"",""0"",""889""
""fullscreenenter"",""0"",""2344""
","""event"",""trial"",""time""
""blur"",""0"",""0""
""blur"",""0"",""0""
","""event"",""trial"",""time""
""focus"",""0"",""0""
""focus"",""0"",""889""
","""event"",""trial"",""time""
""fullscreenenter"",""0"",""2344""
","
","null","run_exp/static/images/Set 6_rs/023a.jpg","null","","","","","","learn","SR",""
"","html-keyboard-response","15","51013","0.0-15.0","""event"",""trial"",""time""
""blur"",""0"",""0""
""focus"",""0"",""0""
""blur"",""0"",""0""
""focus"",""0"",""889""
""fullscreenenter"",""0"",""2344""
","""event"",""trial"",""time""
""blur"",""0"",""0""
""blur"",""0"",""0""
","""event"",""trial"",""time""
""focus"",""0"",""0""
""focus"",""0"",""889""
","""event"",""trial"",""time""
""fullscreenenter"",""0"",""2344""
","
","null","<p></p>","null","","","","","","","",""
"","image","16","51688","0.0-16.0","""event"",""trial"",""time""
""blur"",""0"",""0""
""focus"",""0"",""0""
""blur"",""0"",""0""
""focus"",""0"",""889""
""fullscreenenter"",""0"",""2344""
","""event"",""trial"",""time""
""blur"",""0"",""0""
""blur"",""0"",""0""
","""event"",""trial"",""time""
""focus"",""0"",""0""
""focus"",""0"",""889""
","""event"",""trial"",""time""
""fullscreenenter"",""0"",""2344""
","
","672.0999999940395","run_exp/static/images/Set 6_rs/024a.jpg","86","","","","","","learn","SR",""
"","show_choice","17","53021","0.0-17.0","""event"",""trial"",""time""
""blur"",""0"",""0""
""focus"",""0"",""0""
""blur"",""0"",""0""
""focus"",""0"",""889""
""fullscreenenter"",""0"",""2344""
","""event"",""trial"",""time""
""blur"",""0"",""0""
""blur"",""0"",""0""
","""event"",""trial"",""time""
""focus"",""0"",""0""
""focus"",""0"",""889""
","""event"",""trial"",""time""
""fullscreenenter"",""0"",""2344""
","
","null","run_exp/static/images/Set 6_rs/024a.jpg","null","","","","","","learn","SR",""
"","html-keyboard-response","18","53523","0.0-18.0","""event"",""trial"",""time""
""blur"",""0"",""0""
""focus"",""0"",""0""
""blur"",""0"",""0""
""focus"",""0"",""889""
""fullscreenenter"",""0"",""2344""
","""event"",""trial"",""time""
""blur"",""0"",""0""
""blur"",""0"",""0""
","""event"",""trial"",""time""
""focus"",""0"",""0""
""focus"",""0"",""889""
","""event"",""trial"",""time""
""fullscreenenter"",""0"",""2344""
","
","null","<p></p>","null","","","","","","","",""
"","image","19","54503","0.0-19.0","""event"",""trial"",""time""
""blur"",""0"",""0""
""focus"",""0"",""0""
""blur"",""0"",""0""
""focus"",""0"",""889""
""fullscreenenter"",""0"",""2344""
","""event"",""trial"",""time""
""blur"",""0"",""0""
""blur"",""0"",""0""
","""event"",""trial"",""time""
""focus"",""0"",""0""
""focus"",""0"",""889""
","""event"",""trial"",""time""
""fullscreenenter"",""0"",""2344""
","
","977.7000000029802","run_exp/static/images/Set 6_rs/075a.jpg","86","","","","","","learn","SR",""
"","show_choice","20","55528","0.0-20.0","""event"",""trial"",""time""
""blur"",""0"",""0""
""focus"",""0"",""0""
""blur"",""0"",""0""
""focus"",""0"",""889""
""fullscreenenter"",""0"",""2344""
","""event"",""trial"",""time""
""blur"",""0"",""0""
""blur"",""0"",""0""
","""event"",""trial"",""time""
""focus"",""0"",""0""
""focus"",""0"",""889""
","""event"",""trial"",""time""
""fullscreenenter"",""0"",""2344""
","
","null","run_exp/static/images/Set 6_rs/075a.jpg","null","","","","","","learn","SR",""
"","html-keyboard-response","21","56035","0.0-21.0","""event"",""trial"",""time""
""blur"",""0"",""0""
""focus"",""0"",""0""
""blur"",""0"",""0""
""focus"",""0"",""889""
""fullscreenenter"",""0"",""2344""
","""event"",""trial"",""time""
""blur"",""0"",""0""
""blur"",""0"",""0""
","""event"",""trial"",""time""
""focus"",""0"",""0""
""focus"",""0"",""889""
","""event"",""trial"",""time""
""fullscreenenter"",""0"",""2344""
","
","null","<p></p>","null","","","","","","","",""
"","image","22","57295","0.0-22.0","""event"",""trial"",""time""
""blur"",""0"",""0""
""focus"",""0"",""0""
""blur"",""0"",""0""
""focus"",""0"",""889""
""fullscreenenter"",""0"",""2344""
","""event"",""trial"",""time""
""blur"",""0"",""0""
""blur"",""0"",""0""
","""event"",""trial"",""time""
""focus"",""0"",""0""
""focus"",""0"",""889""
","""event"",""trial"",""time""
""fullscreenenter"",""0"",""2344""
","
","1257.6000000014901","run_exp/static/images/Set 6_rs/062a.jpg","78","","","","","","learn","SL",""
"","show_choice","23","58039","0.0-23.0","""event"",""trial"",""time""
""blur"",""0"",""0""
""focus"",""0"",""0""
""blur"",""0"",""0""
""focus"",""0"",""889""
""fullscreenenter"",""0"",""2344""
","""event"",""trial"",""time""
""blur"",""0"",""0""
""blur"",""0"",""0""
","""event"",""trial"",""time""
""focus"",""0"",""0""
""focus"",""0"",""889""
","""event"",""trial"",""time""
""fullscreenenter"",""0"",""2344""
","
","null","run_exp/static/images/Set 6_rs/062a.jpg","null","","","","","","learn","SL",""
"","html-keyboard-response","24","58543","0.0-24.0","""event"",""trial"",""time""
""blur"",""0"",""0""
""focus"",""0"",""0""
""blur"",""0"",""0""
""focus"",""0"",""889""
""fullscreenenter"",""0"",""2344""
","""event"",""trial"",""time""
""blur"",""0"",""0""
""blur"",""0"",""0""
","""event"",""trial"",""time""
""focus"",""0"",""0""
""focus"",""0"",""889""
","""event"",""trial"",""time""
""fullscreenenter"",""0"",""2344""
","
","null","<p></p>","null","","","","","","","",""
"","image","25","60549","0.0-25.0","""event"",""trial"",""time""
""blur"",""0"",""0""
""focus"",""0"",""0""
""blur"",""0"",""0""
""focus"",""0"",""889""
""fullscreenenter"",""0"",""2344""
","""event"",""trial"",""time""
""blur"",""0"",""0""
""blur"",""0"",""0""
","""event"",""trial"",""time""
""focus"",""0"",""0""
""focus"",""0"",""889""
","""event"",""trial"",""time""
""fullscreenenter"",""0"",""2344""
","
","null","run_exp/static/images/Set 6_rs/085a.jpg","null","","","","","","learn","SL",""
"","show_choice","26","62556","0.0-26.0","""event"",""trial"",""time""
""blur"",""0"",""0""
""focus"",""0"",""0""
""blur"",""0"",""0""
""focus"",""0"",""889""
""fullscreenenter"",""0"",""2344""
","""event"",""trial"",""time""
""blur"",""0"",""0""
""blur"",""0"",""0""
","""event"",""trial"",""time""
""focus"",""0"",""0""
""focus"",""0"",""889""
","""event"",""trial"",""time""
""fullscreenenter"",""0"",""2344""
","
","null","run_exp/static/images/blank.png","null","","","","","","learn","SL",""
"","html-keyboard-response","27","63061","0.0-27.0","""event"",""trial"",""time""
""blur"",""0"",""0""
""focus"",""0"",""0""
""blur"",""0"",""0""
""focus"",""0"",""889""
""fullscreenenter"",""0"",""2344""
","""event"",""trial"",""time""
""blur"",""0"",""0""
""blur"",""0"",""0""
","""event"",""trial"",""time""
""focus"",""0"",""0""
""focus"",""0"",""889""
","""event"",""trial"",""time""
""fullscreenenter"",""0"",""2344""
","
","null","<p></p>","null","","","","","","","",""
"","image","28","64133","0.0-28.0","""event"",""trial"",""time""
""blur"",""0"",""0""
""focus"",""0"",""0""
""blur"",""0"",""0""
""focus"",""0"",""889""
""fullscreenenter"",""0"",""2344""
","""event"",""trial"",""time""
""blur"",""0"",""0""
""blur"",""0"",""0""
","""event"",""trial"",""time""
""focus"",""0"",""0""
""focus"",""0"",""889""
","""event"",""trial"",""time""
""fullscreenenter"",""0"",""2344""
","
","1070.4000000059605","run_exp/static/images/Set 6_rs/064a.jpg","78","","","","","","learn","SR",""
"","show_choice","29","65065","0.0-29.0","""event"",""trial"",""time""
""blur"",""0"",""0""
""focus"",""0"",""0""
""blur"",""0"",""0""
""focus"",""0"",""889""
""fullscreenenter"",""0"",""2344""
","""event"",""trial"",""time""
""blur"",""0"",""0""
""blur"",""0"",""0""
","""event"",""trial"",""time""
""focus"",""0"",""0""
""focus"",""0"",""889""
","""event"",""trial"",""time""
""fullscreenenter"",""0"",""2344""
","
","null","run_exp/static/images/Set 6_rs/064a.jpg","null","","","","","","learn","SR",""
"","html-keyboard-response","30","65567","0.0-30.0","""event"",""trial"",""time""
""blur"",""0"",""0""
""focus"",""0"",""0""
""blur"",""0"",""0""
""focus"",""0"",""889""
""fullscreenenter"",""0"",""2344""
","""event"",""trial"",""time""
""blur"",""0"",""0""
""blur"",""0"",""0""
","""event"",""trial"",""time""
""focus"",""0"",""0""
""focus"",""0"",""889""
","""event"",""trial"",""time""
""fullscreenenter"",""0"",""2344""
","
","null","<p></p>","null","","","","","","","",""
"","image","31","66244","0.0-31.0","""event"",""trial"",""time""
""blur"",""0"",""0""
""focus"",""0"",""0""
""blur"",""0"",""0""
""focus"",""0"",""889""
""fullscreenenter"",""0"",""2344""
","""event"",""trial"",""time""
""blur"",""0"",""0""
""blur"",""0"",""0""
","""event"",""trial"",""time""
""focus"",""0"",""0""
""focus"",""0"",""889""
","""event"",""trial"",""time""
""fullscreenenter"",""0"",""2344""
","
","676.2000000029802","run_exp/static/images/Set 6_rs/073a.jpg","86","","","","","","learn","SL",""
"","show_choice","32","67573","0.0-32.0","""event"",""trial"",""time""
""blur"",""0"",""0""
""focus"",""0"",""0""
""blur"",""0"",""0""
""focus"",""0"",""889""
""fullscreenenter"",""0"",""2344""
","""event"",""trial"",""time""
""blur"",""0"",""0""
""blur"",""0"",""0""
","""event"",""trial"",""time""
""focus"",""0"",""0""
""focus"",""0"",""889""
","""event"",""trial"",""time""
""fullscreenenter"",""0"",""2344""
","
","null","run_exp/static/images/Set 6_rs/073a.jpg","null","","","","","","learn","SL",""
"","html-keyboard-response","33","68078","0.0-33.0","""event"",""trial"",""time""
""blur"",""0"",""0""
""focus"",""0"",""0""
""blur"",""0"",""0""
""focus"",""0"",""889""
""fullscreenenter"",""0"",""2344""
","""event"",""trial"",""time""
""blur"",""0"",""0""
""blur"",""0"",""0""
","""event"",""trial"",""time""
""focus"",""0"",""0""
""focus"",""0"",""889""
","""event"",""trial"",""time""
""fullscreenenter"",""0"",""2344""
","
","null","<p></p>","null","","","","","","","",""
"","image","34","68710","0.0-34.0","""event"",""trial"",""time""
""blur"",""0"",""0""
""focus"",""0"",""0""
""blur"",""0"",""0""
""focus"",""0"",""889""
""fullscreenenter"",""0"",""2344""
","""event"",""trial"",""time""
""blur"",""0"",""0""
""blur"",""0"",""0""
","""event"",""trial"",""time""
""focus"",""0"",""0""
""focus"",""0"",""889""
","""event"",""trial"",""time""
""fullscreenenter"",""0"",""2344""
","
","630.2000000029802","run_exp/static/images/Set 6_rs/014a.jpg","86","","","","","","learn","SL",""
"","show_choice","35","70083","0.0-35.0","""event"",""trial"",""time""
""blur"",""0"",""0""
""focus"",""0"",""0""
""blur"",""0"",""0""
""focus"",""0"",""889""
""fullscreenenter"",""0"",""2344""
","""event"",""trial"",""time""
""blur"",""0"",""0""
""blur"",""0"",""0""
","""event"",""trial"",""time""
""focus"",""0"",""0""
""focus"",""0"",""889""
","""event"",""trial"",""time""
""fullscreenenter"",""0"",""2344""
","
","null","run_exp/static/images/Set 6_rs/014a.jpg","null","","","","","","learn","SL",""
"","html-keyboard-response","36","70584","0.0-36.0","""event"",""trial"",""time""
""blur"",""0"",""0""
""focus"",""0"",""0""
""blur"",""0"",""0""
""focus"",""0"",""889""
""fullscreenenter"",""0"",""2344""
","""event"",""trial"",""time""
""blur"",""0"",""0""
""blur"",""0"",""0""
","""event"",""trial"",""time""
""focus"",""0"",""0""
""focus"",""0"",""889""
","""event"",""trial"",""time""
""fullscreenenter"",""0"",""2344""
","
","null","<p></p>","null","","","","","","","",""
"","image","37","71535","0.0-37.0","""event"",""trial"",""time""
""blur"",""0"",""0""
""focus"",""0"",""0""
""blur"",""0"",""0""
""focus"",""0"",""889""
""fullscreenenter"",""0"",""2344""
","""event"",""trial"",""time""
""blur"",""0"",""0""
""blur"",""0"",""0""
","""event"",""trial"",""time""
""focus"",""0"",""0""
""focus"",""0"",""889""
","""event"",""trial"",""time""
""fullscreenenter"",""0"",""2344""
","
","949.8999999985099","run_exp/static/images/Set 6_rs/177a.jpg","78","","","","","","learn","SR",""
"","show_choice","38","72590","0.0-38.0","""event"",""trial"",""time""
""blur"",""0"",""0""
""focus"",""0"",""0""
""blur"",""0"",""0""
""focus"",""0"",""889""
""fullscreenenter"",""0"",""2344""
","""event"",""trial"",""time""
""blur"",""0"",""0""
""blur"",""0"",""0""
","""event"",""trial"",""time""
""focus"",""0"",""0""
""focus"",""0"",""889""
","""event"",""trial"",""time""
""fullscreenenter"",""0"",""2344""
","
","null","run_exp/static/images/Set 6_rs/177a.jpg","null","","","","","","learn","SR",""
"","html-keyboard-response","39","73094","0.0-39.0","""event"",""trial"",""time""
""blur"",""0"",""0""
""focus"",""0"",""0""
""blur"",""0"",""0""
""focus"",""0"",""889""
""fullscreenenter"",""0"",""2344""
","""event"",""trial"",""time""
""blur"",""0"",""0""
""blur"",""0"",""0""
","""event"",""trial"",""time""
""focus"",""0"",""0""
""focus"",""0"",""889""
","""event"",""trial"",""time""
""fullscreenenter"",""0"",""2344""
","
","null","<p></p>","null","","","","","","","",""
"","image","40","74208","0.0-40.0","""event"",""trial"",""time""
""blur"",""0"",""0""
""focus"",""0"",""0""
""blur"",""0"",""0""
""focus"",""0"",""889""
""fullscreenenter"",""0"",""2344""
","""event"",""trial"",""time""
""blur"",""0"",""0""
""blur"",""0"",""0""
","""event"",""trial"",""time""
""focus"",""0"",""0""
""focus"",""0"",""889""
","""event"",""trial"",""time""
""fullscreenenter"",""0"",""2344""
","
","1111.5","run_exp/static/images/Set 6_rs/150a.jpg","86","","","","","","learn","SR",""
"","show_choice","41","75099","0.0-41.0","""event"",""trial"",""time""
""blur"",""0"",""0""
""focus"",""0"",""0""
""blur"",""0"",""0""
""focus"",""0"",""889""
""fullscreenenter"",""0"",""2344""
","""event"",""trial"",""time""
""blur"",""0"",""0""
""blur"",""0"",""0""
","""event"",""trial"",""time""
""focus"",""0"",""0""
""focus"",""0"",""889""
","""event"",""trial"",""time""
""fullscreenenter"",""0"",""2344""
","
","null","run_exp/static/images/Set 6_rs/150a.jpg","null","","","","","","learn","SR",""
"","html-keyboard-response","42","75602","0.0-42.0","""event"",""trial"",""time""
""blur"",""0"",""0""
""focus"",""0"",""0""
""blur"",""0"",""0""
""focus"",""0"",""889""
""fullscreenenter"",""0"",""2344""
","""event"",""trial"",""time""
""blur"",""0"",""0""
""blur"",""0"",""0""
","""event"",""trial"",""time""
""focus"",""0"",""0""
""focus"",""0"",""889""
","""event"",""trial"",""time""
""fullscreenenter"",""0"",""2344""
","
","null","<p></p>","null","","","","","","","",""
"","image","43","76190","0.0-43.0","""event"",""trial"",""time""
""blur"",""0"",""0""
""focus"",""0"",""0""
""blur"",""0"",""0""
""focus"",""0"",""889""
""fullscreenenter"",""0"",""2344""
","""event"",""trial"",""time""
""blur"",""0"",""0""
""blur"",""0"",""0""
","""event"",""trial"",""time""
""focus"",""0"",""0""
""focus"",""0"",""889""
","""event"",""trial"",""time""
""fullscreenenter"",""0"",""2344""
","
","586.3000000044703","run_exp/static/images/Set 6_rs/141a.jpg","86","","","","","","learn","SR",""
"","show_choice","44","77605","0.0-44.0","""event"",""trial"",""time""
""blur"",""0"",""0""
""focus"",""0"",""0""
""blur"",""0"",""0""
""focus"",""0"",""889""
""fullscreenenter"",""0"",""2344""
","""event"",""trial"",""time""
""blur"",""0"",""0""
""blur"",""0"",""0""
","""event"",""trial"",""time""
""focus"",""0"",""0""
""focus"",""0"",""889""
","""event"",""trial"",""time""
""fullscreenenter"",""0"",""2344""
","
","null","run_exp/static/images/Set 6_rs/141a.jpg","null","","","","","","learn","SR",""
"","html-keyboard-response","45","78112","0.0-45.0","""event"",""trial"",""time""
""blur"",""0"",""0""
""focus"",""0"",""0""
""blur"",""0"",""0""
""focus"",""0"",""889""
""fullscreenenter"",""0"",""2344""
","""event"",""trial"",""time""
""blur"",""0"",""0""
""blur"",""0"",""0""
","""event"",""trial"",""time""
""focus"",""0"",""0""
""focus"",""0"",""889""
","""event"",""trial"",""time""
""fullscreenenter"",""0"",""2344""
","
","null","<p></p>","null","","","","","","","",""
"","image","46","79231","0.0-46.0","""event"",""trial"",""time""
""blur"",""0"",""0""
""focus"",""0"",""0""
""blur"",""0"",""0""
""focus"",""0"",""889""
""fullscreenenter"",""0"",""2344""
","""event"",""trial"",""time""
""blur"",""0"",""0""
""blur"",""0"",""0""
","""event"",""trial"",""time""
""focus"",""0"",""0""
""focus"",""0"",""889""
","""event"",""trial"",""time""
""fullscreenenter"",""0"",""2344""
","
","1116.8000000044703","run_exp/static/images/Set 6_rs/116a.jpg","86","","","","","","learn","SL",""
"","show_choice","47","80116","0.0-47.0","""event"",""trial"",""time""
""blur"",""0"",""0""
""focus"",""0"",""0""
""blur"",""0"",""0""
""focus"",""0"",""889""
""fullscreenenter"",""0"",""2344""
","""event"",""trial"",""time""
""blur"",""0"",""0""
""blur"",""0"",""0""
","""event"",""trial"",""time""
""focus"",""0"",""0""
""focus"",""0"",""889""
","""event"",""trial"",""time""
""fullscreenenter"",""0"",""2344""
","
","null","run_exp/static/images/Set 6_rs/116a.jpg","null","","","","","","learn","SL",""
"","html-keyboard-response","48","80621","0.0-48.0","""event"",""trial"",""time""
""blur"",""0"",""0""
""focus"",""0"",""0""
""blur"",""0"",""0""
""focus"",""0"",""889""
""fullscreenenter"",""0"",""2344""
","""event"",""trial"",""time""
""blur"",""0"",""0""
""blur"",""0"",""0""
","""event"",""trial"",""time""
""focus"",""0"",""0""
""focus"",""0"",""889""
","""event"",""trial"",""time""
""fullscreenenter"",""0"",""2344""
","
","null","<p></p>","null","","","","","","","",""
"","image","49","81461","0.0-49.0","""event"",""trial"",""time""
""blur"",""0"",""0""
""focus"",""0"",""0""
""blur"",""0"",""0""
""focus"",""0"",""889""
""fullscreenenter"",""0"",""2344""
","""event"",""trial"",""time""
""blur"",""0"",""0""
""blur"",""0"",""0""
","""event"",""trial"",""time""
""focus"",""0"",""0""
""focus"",""0"",""889""
","""event"",""trial"",""time""
""fullscreenenter"",""0"",""2344""
","
","838","run_exp/static/images/Set 6_rs/063a.jpg","86","","","","","","learn","SR",""
"","show_choice","50","82628","0.0-50.0","""event"",""trial"",""time""
""blur"",""0"",""0""
""focus"",""0"",""0""
""blur"",""0"",""0""
""focus"",""0"",""889""
""fullscreenenter"",""0"",""2344""
","""event"",""trial"",""time""
""blur"",""0"",""0""
""blur"",""0"",""0""
","""event"",""trial"",""time""
""focus"",""0"",""0""
""focus"",""0"",""889""
","""event"",""trial"",""time""
""fullscreenenter"",""0"",""2344""
","
","null","run_exp/static/images/Set 6_rs/063a.jpg","null","","","","","","learn","SR",""
"","html-keyboard-response","51","83133","0.0-51.0","""event"",""trial"",""time""
""blur"",""0"",""0""
""focus"",""0"",""0""
""blur"",""0"",""0""
""focus"",""0"",""889""
""fullscreenenter"",""0"",""2344""
","""event"",""trial"",""time""
""blur"",""0"",""0""
""blur"",""0"",""0""
","""event"",""trial"",""time""
""focus"",""0"",""0""
""focus"",""0"",""889""
","""event"",""trial"",""time""
""fullscreenenter"",""0"",""2344""
","
","null","<p></p>","null","","","","","","","",""
"","image","52","84293","0.0-52.0","""event"",""trial"",""time""
""blur"",""0"",""0""
""focus"",""0"",""0""
""blur"",""0"",""0""
""focus"",""0"",""889""
""fullscreenenter"",""0"",""2344""
","""event"",""trial"",""time""
""blur"",""0"",""0""
""blur"",""0"",""0""
","""event"",""trial"",""time""
""focus"",""0"",""0""
""focus"",""0"",""889""
","""event"",""trial"",""time""
""fullscreenenter"",""0"",""2344""
","
","1157.2000000029802","run_exp/static/images/Set 6_rs/108a.jpg","78","","","","","","learn","SR",""
"","show_choice","53","85140","0.0-53.0","""event"",""trial"",""time""
""blur"",""0"",""0""
""focus"",""0"",""0""
""blur"",""0"",""0""
""focus"",""0"",""889""
""fullscreenenter"",""0"",""2344""
","""event"",""trial"",""time""
""blur"",""0"",""0""
""blur"",""0"",""0""
","""event"",""trial"",""time""
""focus"",""0"",""0""
""focus"",""0"",""889""
","""event"",""trial"",""time""
""fullscreenenter"",""0"",""2344""
","
","null","run_exp/static/images/Set 6_rs/108a.jpg","null","","","","","","learn","SR",""
"","html-keyboard-response","54","85643","0.0-54.0","""event"",""trial"",""time""
""blur"",""0"",""0""
""focus"",""0"",""0""
""blur"",""0"",""0""
""focus"",""0"",""889""
""fullscreenenter"",""0"",""2344""
","""event"",""trial"",""time""
""blur"",""0"",""0""
""blur"",""0"",""0""
","""event"",""trial"",""time""
""focus"",""0"",""0""
""focus"",""0"",""889""
","""event"",""trial"",""time""
""fullscreenenter"",""0"",""2344""
","
","null","<p></p>","null","","","","","","","",""
"","image","55","87387","0.0-55.0","""event"",""trial"",""time""
""blur"",""0"",""0""
""focus"",""0"",""0""
""blur"",""0"",""0""
""focus"",""0"",""889""
""fullscreenenter"",""0"",""2344""
","""event"",""trial"",""time""
""blur"",""0"",""0""
""blur"",""0"",""0""
","""event"",""trial"",""time""
""focus"",""0"",""0""
""focus"",""0"",""889""
","""event"",""trial"",""time""
""fullscreenenter"",""0"",""2344""
","
","1742.2999999970198","run_exp/static/images/Set 6_rs/131a.jpg","86","","","","","","learn","SR",""
"","show_choice","56","87647","0.0-56.0","""event"",""trial"",""time""
""blur"",""0"",""0""
""focus"",""0"",""0""
""blur"",""0"",""0""
""focus"",""0"",""889""
""fullscreenenter"",""0"",""2344""
","""event"",""trial"",""time""
""blur"",""0"",""0""
""blur"",""0"",""0""
","""event"",""trial"",""time""
""focus"",""0"",""0""
""focus"",""0"",""889""
","""event"",""trial"",""time""
""fullscreenenter"",""0"",""2344""
","
","null","run_exp/static/images/Set 6_rs/131a.jpg","null","","","","","","learn","SR",""
"","html-keyboard-response","57","88152","0.0-57.0","""event"",""trial"",""time""
""blur"",""0"",""0""
""focus"",""0"",""0""
""blur"",""0"",""0""
""focus"",""0"",""889""
""fullscreenenter"",""0"",""2344""
","""event"",""trial"",""time""
""blur"",""0"",""0""
""blur"",""0"",""0""
","""event"",""trial"",""time""
""focus"",""0"",""0""
""focus"",""0"",""889""
","""event"",""trial"",""time""
""fullscreenenter"",""0"",""2344""
","
","null","<p></p>","null","","","","","","","",""
"","image","58","89125","0.0-58.0","""event"",""trial"",""time""
""blur"",""0"",""0""
""focus"",""0"",""0""
""blur"",""0"",""0""
""focus"",""0"",""889""
""fullscreenenter"",""0"",""2344""
","""event"",""trial"",""time""
""blur"",""0"",""0""
""blur"",""0"",""0""
","""event"",""trial"",""time""
""focus"",""0"",""0""
""focus"",""0"",""889""
","""event"",""trial"",""time""
""fullscreenenter"",""0"",""2344""
","
","970.4000000059605","run_exp/static/images/Set 6_rs/138a.jpg","78","","","","","","learn","SL",""
"","show_choice","59","90158","0.0-59.0","""event"",""trial"",""time""
""blur"",""0"",""0""
""focus"",""0"",""0""
""blur"",""0"",""0""
""focus"",""0"",""889""
""fullscreenenter"",""0"",""2344""
","""event"",""trial"",""time""
""blur"",""0"",""0""
""blur"",""0"",""0""
","""event"",""trial"",""time""
""focus"",""0"",""0""
""focus"",""0"",""889""
","""event"",""trial"",""time""
""fullscreenenter"",""0"",""2344""
","
","null","run_exp/static/images/Set 6_rs/138a.jpg","null","","","","","","learn","SL",""
"","html-keyboard-response","60","90665","0.0-60.0","""event"",""trial"",""time""
""blur"",""0"",""0""
""focus"",""0"",""0""
""blur"",""0"",""0""
""focus"",""0"",""889""
""fullscreenenter"",""0"",""2344""
","""event"",""trial"",""time""
""blur"",""0"",""0""
""blur"",""0"",""0""
","""event"",""trial"",""time""
""focus"",""0"",""0""
""focus"",""0"",""889""
","""event"",""trial"",""time""
""fullscreenenter"",""0"",""2344""
","
","null","<p></p>","null","","","","","","","",""
"","image","61","91516","0.0-61.0","""event"",""trial"",""time""
""blur"",""0"",""0""
""focus"",""0"",""0""
""blur"",""0"",""0""
""focus"",""0"",""889""
""fullscreenenter"",""0"",""2344""
","""event"",""trial"",""time""
""blur"",""0"",""0""
""blur"",""0"",""0""
","""event"",""trial"",""time""
""focus"",""0"",""0""
""focus"",""0"",""889""
","""event"",""trial"",""time""
""fullscreenenter"",""0"",""2344""
","
","849.8999999985099","run_exp/static/images/Set 6_rs/186a.jpg","86","","","","","","learn","SR",""
"","show_choice","62","92669","0.0-62.0","""event"",""trial"",""time""
""blur"",""0"",""0""
""focus"",""0"",""0""
""blur"",""0"",""0""
""focus"",""0"",""889""
""fullscreenenter"",""0"",""2344""
","""event"",""trial"",""time""
""blur"",""0"",""0""
""blur"",""0"",""0""
","""event"",""trial"",""time""
""focus"",""0"",""0""
""focus"",""0"",""889""
","""event"",""trial"",""time""
""fullscreenenter"",""0"",""2344""
","
","null","run_exp/static/images/Set 6_rs/186a.jpg","null","","","","","","learn","SR",""
"","html-keyboard-response","63","93172","0.0-63.0","""event"",""trial"",""time""
""blur"",""0"",""0""
""focus"",""0"",""0""
""blur"",""0"",""0""
""focus"",""0"",""889""
""fullscreenenter"",""0"",""2344""
","""event"",""trial"",""time""
""blur"",""0"",""0""
""blur"",""0"",""0""
","""event"",""trial"",""time""
""focus"",""0"",""0""
""focus"",""0"",""889""
","""event"",""trial"",""time""
""fullscreenenter"",""0"",""2344""
","
","null","<p></p>","null","","","","","","","",""
"","image","64","93916","0.0-64.0","""event"",""trial"",""time""
""blur"",""0"",""0""
""focus"",""0"",""0""
""blur"",""0"",""0""
""focus"",""0"",""889""
""fullscreenenter"",""0"",""2344""
","""event"",""trial"",""time""
""blur"",""0"",""0""
""blur"",""0"",""0""
","""event"",""trial"",""time""
""focus"",""0"",""0""
""focus"",""0"",""889""
","""event"",""trial"",""time""
""fullscreenenter"",""0"",""2344""
","
","741.6000000014901","run_exp/static/images/Set 6_rs/045a.jpg","86","","","","","","learn","SR",""
"","show_choice","65","95177","0.0-65.0","""event"",""trial"",""time""
""blur"",""0"",""0""
""focus"",""0"",""0""
""blur"",""0"",""0""
""focus"",""0"",""889""
""fullscreenenter"",""0"",""2344""
","""event"",""trial"",""time""
""blur"",""0"",""0""
""blur"",""0"",""0""
","""event"",""trial"",""time""
""focus"",""0"",""0""
""focus"",""0"",""889""
","""event"",""trial"",""time""
""fullscreenenter"",""0"",""2344""
","
","null","run_exp/static/images/Set 6_rs/045a.jpg","null","","","","","","learn","SR",""
"","html-keyboard-response","66","95680","0.0-66.0","""event"",""trial"",""time""
""blur"",""0"",""0""
""focus"",""0"",""0""
""blur"",""0"",""0""
""focus"",""0"",""889""
""fullscreenenter"",""0"",""2344""
","""event"",""trial"",""time""
""blur"",""0"",""0""
""blur"",""0"",""0""
","""event"",""trial"",""time""
""focus"",""0"",""0""
""focus"",""0"",""889""
","""event"",""trial"",""time""
""fullscreenenter"",""0"",""2344""
","
","null","<p></p>","null","","","","","","","",""
"","image","67","96500","0.0-67.0","""event"",""trial"",""time""
""blur"",""0"",""0""
""focus"",""0"",""0""
""blur"",""0"",""0""
""focus"",""0"",""889""
""fullscreenenter"",""0"",""2344""
","""event"",""trial"",""time""
""blur"",""0"",""0""
""blur"",""0"",""0""
","""event"",""trial"",""time""
""focus"",""0"",""0""
""focus"",""0"",""889""
","""event"",""trial"",""time""
""fullscreenenter"",""0"",""2344""
","
","819.0999999940395","run_exp/static/images/Set 6_rs/122a.jpg","86","","","","","","learn","SR",""
"","show_choice","68","97682","0.0-68.0","""event"",""trial"",""time""
""blur"",""0"",""0""
""focus"",""0"",""0""
""blur"",""0"",""0""
""focus"",""0"",""889""
""fullscreenenter"",""0"",""2344""
","""event"",""trial"",""time""
""blur"",""0"",""0""
""blur"",""0"",""0""
","""event"",""trial"",""time""
""focus"",""0"",""0""
""focus"",""0"",""889""
","""event"",""trial"",""time""
""fullscreenenter"",""0"",""2344""
","
","null","run_exp/static/images/Set 6_rs/122a.jpg","null","","","","","","learn","SR",""
"","html-keyboard-response","69","98186","0.0-69.0","""event"",""trial"",""time""
""blur"",""0"",""0""
""focus"",""0"",""0""
""blur"",""0"",""0""
""focus"",""0"",""889""
""fullscreenenter"",""0"",""2344""
","""event"",""trial"",""time""
""blur"",""0"",""0""
""blur"",""0"",""0""
","""event"",""trial"",""time""
""focus"",""0"",""0""
""focus"",""0"",""889""
","""event"",""trial"",""time""
""fullscreenenter"",""0"",""2344""
","
","null","<p></p>","null","","","","","","","",""
"","image","70","99513","0.0-70.0","""event"",""trial"",""time""
""blur"",""0"",""0""
""focus"",""0"",""0""
""blur"",""0"",""0""
""focus"",""0"",""889""
""fullscreenenter"",""0"",""2344""
","""event"",""trial"",""time""
""blur"",""0"",""0""
""blur"",""0"",""0""
","""event"",""trial"",""time""
""focus"",""0"",""0""
""focus"",""0"",""889""
","""event"",""trial"",""time""
""fullscreenenter"",""0"",""2344""
","
","1324.8999999985099","run_exp/static/images/Set 6_rs/006a.jpg","86","","","","","","learn","SL",""
"","show_choice","71","100190","0.0-71.0","""event"",""trial"",""time""
""blur"",""0"",""0""
""focus"",""0"",""0""
""blur"",""0"",""0""
""focus"",""0"",""889""
""fullscreenenter"",""0"",""2344""
","""event"",""trial"",""time""
""blur"",""0"",""0""
""blur"",""0"",""0""
","""event"",""trial"",""time""
""focus"",""0"",""0""
""focus"",""0"",""889""
","""event"",""trial"",""time""
""fullscreenenter"",""0"",""2344""
","
","null","run_exp/static/images/Set 6_rs/006a.jpg","null","","","","","","learn","SL",""
"","html-keyboard-response","72","100694","0.0-72.0","""event"",""trial"",""time""
""blur"",""0"",""0""
""focus"",""0"",""0""
""blur"",""0"",""0""
""focus"",""0"",""889""
""fullscreenenter"",""0"",""2344""
","""event"",""trial"",""time""
""blur"",""0"",""0""
""blur"",""0"",""0""
","""event"",""trial"",""time""
""focus"",""0"",""0""
""focus"",""0"",""889""
","""event"",""trial"",""time""
""fullscreenenter"",""0"",""2344""
","
","null","<p></p>","null","","","","","","","",""
"","image","73","101635","0.0-73.0","""event"",""trial"",""time""
""blur"",""0"",""0""
""focus"",""0"",""0""
""blur"",""0"",""0""
""focus"",""0"",""889""
""fullscreenenter"",""0"",""2344""
","""event"",""trial"",""time""
""blur"",""0"",""0""
""blur"",""0"",""0""
","""event"",""trial"",""time""
""focus"",""0"",""0""
""focus"",""0"",""889""
","""event"",""trial"",""time""
""fullscreenenter"",""0"",""2344""
","
","939.8999999985099","run_exp/static/images/Set 6_rs/025a.jpg","78","","","","","","learn","SL",""
"","show_choice","74","102698","0.0-74.0","""event"",""trial"",""time""
""blur"",""0"",""0""
""focus"",""0"",""0""
""blur"",""0"",""0""
""focus"",""0"",""889""
""fullscreenenter"",""0"",""2344""
","""event"",""trial"",""time""
""blur"",""0"",""0""
""blur"",""0"",""0""
","""event"",""trial"",""time""
""focus"",""0"",""0""
""focus"",""0"",""889""
","""event"",""trial"",""time""
""fullscreenenter"",""0"",""2344""
","
","null","run_exp/static/images/Set 6_rs/025a.jpg","null","","","","","","learn","SL",""
"","html-keyboard-response","75","103204","0.0-75.0","""event"",""trial"",""time""
""blur"",""0"",""0""
""focus"",""0"",""0""
""blur"",""0"",""0""
""focus"",""0"",""889""
""fullscreenenter"",""0"",""2344""
","""event"",""trial"",""time""
""blur"",""0"",""0""
""blur"",""0"",""0""
","""event"",""trial"",""time""
""focus"",""0"",""0""
""focus"",""0"",""889""
","""event"",""trial"",""time""
""fullscreenenter"",""0"",""2344""
","
","null","<p></p>","null","","","","","","","",""
"","image","76","103841","0.0-76.0","""event"",""trial"",""time""
""blur"",""0"",""0""
""focus"",""0"",""0""
""blur"",""0"",""0""
""focus"",""0"",""889""
""fullscreenenter"",""0"",""2344""
","""event"",""trial"",""time""
""blur"",""0"",""0""
""blur"",""0"",""0""
","""event"",""trial"",""time""
""focus"",""0"",""0""
""focus"",""0"",""889""
","""event"",""trial"",""time""
""fullscreenenter"",""0"",""2344""
","
","635.6000000014901","run_exp/static/images/Set 6_rs/057a.jpg","86","","","","","","learn","SL",""
"","show_choice","77","105207","0.0-77.0","""event"",""trial"",""time""
""blur"",""0"",""0""
""focus"",""0"",""0""
""blur"",""0"",""0""
""focus"",""0"",""889""
""fullscreenenter"",""0"",""2344""
","""event"",""trial"",""time""
""blur"",""0"",""0""
""blur"",""0"",""0""
","""event"",""trial"",""time""
""focus"",""0"",""0""
""focus"",""0"",""889""
","""event"",""trial"",""time""
""fullscreenenter"",""0"",""2344""
","
","null","run_exp/static/images/Set 6_rs/057a.jpg","null","","","","","","learn","SL",""
"","html-keyboard-response","78","105713","0.0-78.0","""event"",""trial"",""time""
""blur"",""0"",""0""
""focus"",""0"",""0""
""blur"",""0"",""0""
""focus"",""0"",""889""
""fullscreenenter"",""0"",""2344""
","""event"",""trial"",""time""
""blur"",""0"",""0""
""blur"",""0"",""0""
","""event"",""trial"",""time""
""focus"",""0"",""0""
""focus"",""0"",""889""
","""event"",""trial"",""time""
""fullscreenenter"",""0"",""2344""
","
","null","<p></p>","null","","","","","","","",""
"","image","79","107039","0.0-79.0","""event"",""trial"",""time""
""blur"",""0"",""0""
""focus"",""0"",""0""
""blur"",""0"",""0""
""focus"",""0"",""889""
""fullscreenenter"",""0"",""2344""
","""event"",""trial"",""time""
""blur"",""0"",""0""
""blur"",""0"",""0""
","""event"",""trial"",""time""
""focus"",""0"",""0""
""focus"",""0"",""889""
","""event"",""trial"",""time""
""fullscreenenter"",""0"",""2344""
","
","1324.6999999955297","run_exp/static/images/Set 6_rs/167a.jpg","86","","","","","","learn","SL",""
"","show_choice","80","107719","0.0-80.0","""event"",""trial"",""time""
""blur"",""0"",""0""
""focus"",""0"",""0""
""blur"",""0"",""0""
""focus"",""0"",""889""
""fullscreenenter"",""0"",""2344""
","""event"",""trial"",""time""
""blur"",""0"",""0""
""blur"",""0"",""0""
","""event"",""trial"",""time""
""focus"",""0"",""0""
""focus"",""0"",""889""
","""event"",""trial"",""time""
""fullscreenenter"",""0"",""2344""
","
","null","run_exp/static/images/Set 6_rs/167a.jpg","null","","","","","","learn","SL",""
"","html-keyboard-response","81","108222","0.0-81.0","""event"",""trial"",""time""
""blur"",""0"",""0""
""focus"",""0"",""0""
""blur"",""0"",""0""
""focus"",""0"",""889""
""fullscreenenter"",""0"",""2344""
","""event"",""trial"",""time""
""blur"",""0"",""0""
""blur"",""0"",""0""
","""event"",""trial"",""time""
""focus"",""0"",""0""
""focus"",""0"",""889""
","""event"",""trial"",""time""
""fullscreenenter"",""0"",""2344""
","
","null","<p></p>","null","","","","","","","",""
"","image","82","109847","0.0-82.0","""event"",""trial"",""time""
""blur"",""0"",""0""
""focus"",""0"",""0""
""blur"",""0"",""0""
""focus"",""0"",""889""
""fullscreenenter"",""0"",""2344""
","""event"",""trial"",""time""
""blur"",""0"",""0""
""blur"",""0"",""0""
","""event"",""trial"",""time""
""focus"",""0"",""0""
""focus"",""0"",""889""
","""event"",""trial"",""time""
""fullscreenenter"",""0"",""2344""
","
","1623.2999999970198","run_exp/static/images/Set 6_rs/066a.jpg","78","","","","","","learn","SL",""
"","show_choice","83","110226","0.0-83.0","""event"",""trial"",""time""
""blur"",""0"",""0""
""focus"",""0"",""0""
""blur"",""0"",""0""
""focus"",""0"",""889""
""fullscreenenter"",""0"",""2344""
","""event"",""trial"",""time""
""blur"",""0"",""0""
""blur"",""0"",""0""
","""event"",""trial"",""time""
""focus"",""0"",""0""
""focus"",""0"",""889""
","""event"",""trial"",""time""
""fullscreenenter"",""0"",""2344""
","
","null","run_exp/static/images/Set 6_rs/066a.jpg","null","","","","","","learn","SL",""
"","html-keyboard-response","84","110732","0.0-84.0","""event"",""trial"",""time""
""blur"",""0"",""0""
""focus"",""0"",""0""
""blur"",""0"",""0""
""focus"",""0"",""889""
""fullscreenenter"",""0"",""2344""
","""event"",""trial"",""time""
""blur"",""0"",""0""
""blur"",""0"",""0""
","""event"",""trial"",""time""
""focus"",""0"",""0""
""focus"",""0"",""889""
","""event"",""trial"",""time""
""fullscreenenter"",""0"",""2344""
","
","null","<p></p>","null","","","","","","","",""
"","image","85","111844","0.0-85.0","""event"",""trial"",""time""
""blur"",""0"",""0""
""focus"",""0"",""0""
""blur"",""0"",""0""
""focus"",""0"",""889""
""fullscreenenter"",""0"",""2344""
","""event"",""trial"",""time""
""blur"",""0"",""0""
""blur"",""0"",""0""
","""event"",""trial"",""time""
""focus"",""0"",""0""
""focus"",""0"",""889""
","""event"",""trial"",""time""
""fullscreenenter"",""0"",""2344""
","
","1111","run_exp/static/images/Set 6_rs/126a.jpg","78","","","","","","learn","SR",""
"","show_choice","86","112738","0.0-86.0","""event"",""trial"",""time""
""blur"",""0"",""0""
""focus"",""0"",""0""
""blur"",""0"",""0""
""focus"",""0"",""889""
""fullscreenenter"",""0"",""2344""
","""event"",""trial"",""time""
""blur"",""0"",""0""
""blur"",""0"",""0""
","""event"",""trial"",""time""
""focus"",""0"",""0""
""focus"",""0"",""889""
","""event"",""trial"",""time""
""fullscreenenter"",""0"",""2344""
","
","null","run_exp/static/images/Set 6_rs/126a.jpg","null","","","","","","learn","SR",""
"","html-keyboard-response","87","113242","0.0-87.0","""event"",""trial"",""time""
""blur"",""0"",""0""
""focus"",""0"",""0""
""blur"",""0"",""0""
""focus"",""0"",""889""
""fullscreenenter"",""0"",""2344""
","""event"",""trial"",""time""
""blur"",""0"",""0""
""blur"",""0"",""0""
","""event"",""trial"",""time""
""focus"",""0"",""0""
""focus"",""0"",""889""
","""event"",""trial"",""time""
""fullscreenenter"",""0"",""2344""
","
","null","<p></p>","null","","","","","","","",""
"","image","88","114511","0.0-88.0","""event"",""trial"",""time""
""blur"",""0"",""0""
""focus"",""0"",""0""
""blur"",""0"",""0""
""focus"",""0"",""889""
""fullscreenenter"",""0"",""2344""
","""event"",""trial"",""time""
""blur"",""0"",""0""
""blur"",""0"",""0""
","""event"",""trial"",""time""
""focus"",""0"",""0""
""focus"",""0"",""889""
","""event"",""trial"",""time""
""fullscreenenter"",""0"",""2344""
","
","1267.4000000059605","run_exp/static/images/Set 6_rs/144a.jpg","86","","","","","","learn","SL",""
"","show_choice","89","115245","0.0-89.0","""event"",""trial"",""time""
""blur"",""0"",""0""
""focus"",""0"",""0""
""blur"",""0"",""0""
""focus"",""0"",""889""
""fullscreenenter"",""0"",""2344""
","""event"",""trial"",""time""
""blur"",""0"",""0""
""blur"",""0"",""0""
","""event"",""trial"",""time""
""focus"",""0"",""0""
""focus"",""0"",""889""
","""event"",""trial"",""time""
""fullscreenenter"",""0"",""2344""
","
","null","run_exp/static/images/Set 6_rs/144a.jpg","null","","","","","","learn","SL",""
"","html-keyboard-response","90","115747","0.0-90.0","""event"",""trial"",""time""
""blur"",""0"",""0""
""focus"",""0"",""0""
""blur"",""0"",""0""
""focus"",""0"",""889""
""fullscreenenter"",""0"",""2344""
","""event"",""trial"",""time""
""blur"",""0"",""0""
""blur"",""0"",""0""
","""event"",""trial"",""time""
""focus"",""0"",""0""
""focus"",""0"",""889""
","""event"",""trial"",""time""
""fullscreenenter"",""0"",""2344""
","
","null","<p></p>","null","","","","","","","",""
"","image","91","116421","0.0-91.0","""event"",""trial"",""time""
""blur"",""0"",""0""
""focus"",""0"",""0""
""blur"",""0"",""0""
""focus"",""0"",""889""
""fullscreenenter"",""0"",""2344""
","""event"",""trial"",""time""
""blur"",""0"",""0""
""blur"",""0"",""0""
","""event"",""trial"",""time""
""focus"",""0"",""0""
""focus"",""0"",""889""
","""event"",""trial"",""time""
""fullscreenenter"",""0"",""2344""
","
","672.2000000029802","run_exp/static/images/Set 6_rs/152a.jpg","86","","","","","","learn","SR",""
"","show_choice","92","117752","0.0-92.0","""event"",""trial"",""time""
""blur"",""0"",""0""
""focus"",""0"",""0""
""blur"",""0"",""0""
""focus"",""0"",""889""
""fullscreenenter"",""0"",""2344""
","""event"",""trial"",""time""
""blur"",""0"",""0""
""blur"",""0"",""0""
","""event"",""trial"",""time""
""focus"",""0"",""0""
""focus"",""0"",""889""
","""event"",""trial"",""time""
""fullscreenenter"",""0"",""2344""
","
","null","run_exp/static/images/Set 6_rs/152a.jpg","null","","","","","","learn","SR",""
"","html-keyboard-response","93","118258","0.0-93.0","""event"",""trial"",""time""
""blur"",""0"",""0""
""focus"",""0"",""0""
""blur"",""0"",""0""
""focus"",""0"",""889""
""fullscreenenter"",""0"",""2344""
","""event"",""trial"",""time""
""blur"",""0"",""0""
""blur"",""0"",""0""
","""event"",""trial"",""time""
""focus"",""0"",""0""
""focus"",""0"",""889""
","""event"",""trial"",""time""
""fullscreenenter"",""0"",""2344""
","
","null","<p></p>","null","","","","","","","",""
"","image","94","118904","0.0-94.0","""event"",""trial"",""time""
""blur"",""0"",""0""
""focus"",""0"",""0""
""blur"",""0"",""0""
""focus"",""0"",""889""
""fullscreenenter"",""0"",""2344""
","""event"",""trial"",""time""
""blur"",""0"",""0""
""blur"",""0"",""0""
","""event"",""trial"",""time""
""focus"",""0"",""0""
""focus"",""0"",""889""
","""event"",""trial"",""time""
""fullscreenenter"",""0"",""2344""
","
","643.6999999955297","run_exp/static/images/Set 6_rs/154a.jpg","86","","","","","","learn","SR",""
"","show_choice","95","120265","0.0-95.0","""event"",""trial"",""time""
""blur"",""0"",""0""
""focus"",""0"",""0""
""blur"",""0"",""0""
""focus"",""0"",""889""
""fullscreenenter"",""0"",""2344""
","""event"",""trial"",""time""
""blur"",""0"",""0""
""blur"",""0"",""0""
","""event"",""trial"",""time""
""focus"",""0"",""0""
""focus"",""0"",""889""
","""event"",""trial"",""time""
""fullscreenenter"",""0"",""2344""
","
","null","run_exp/static/images/Set 6_rs/154a.jpg","null","","","","","","learn","SR",""
"","html-keyboard-response","96","120771","0.0-96.0","""event"",""trial"",""time""
""blur"",""0"",""0""
""focus"",""0"",""0""
""blur"",""0"",""0""
""focus"",""0"",""889""
""fullscreenenter"",""0"",""2344""
","""event"",""trial"",""time""
""blur"",""0"",""0""
""blur"",""0"",""0""
","""event"",""trial"",""time""
""focus"",""0"",""0""
""focus"",""0"",""889""
","""event"",""trial"",""time""
""fullscreenenter"",""0"",""2344""
","
","null","<p></p>","null","","","","","","","",""
"","image","97","121613","0.0-97.0","""event"",""trial"",""time""
""blur"",""0"",""0""
""focus"",""0"",""0""
""blur"",""0"",""0""
""focus"",""0"",""889""
""fullscreenenter"",""0"",""2344""
","""event"",""trial"",""time""
""blur"",""0"",""0""
""blur"",""0"",""0""
","""event"",""trial"",""time""
""focus"",""0"",""0""
""focus"",""0"",""889""
","""event"",""trial"",""time""
""fullscreenenter"",""0"",""2344""
","
","839","run_exp/static/images/Set 6_rs/012a.jpg","86","","","","","","learn","SR",""
"","show_choice","98","122779","0.0-98.0","""event"",""trial"",""time""
""blur"",""0"",""0""
""focus"",""0"",""0""
""blur"",""0"",""0""
""focus"",""0"",""889""
""fullscreenenter"",""0"",""2344""
","""event"",""trial"",""time""
""blur"",""0"",""0""
""blur"",""0"",""0""
","""event"",""trial"",""time""
""focus"",""0"",""0""
""focus"",""0"",""889""
","""event"",""trial"",""time""
""fullscreenenter"",""0"",""2344""
","
","null","run_exp/static/images/Set 6_rs/012a.jpg","null","","","","","","learn","SR",""
"","html-keyboard-response","99","123281","0.0-99.0","""event"",""trial"",""time""
""blur"",""0"",""0""
""focus"",""0"",""0""
""blur"",""0"",""0""
""focus"",""0"",""889""
""fullscreenenter"",""0"",""2344""
","""event"",""trial"",""time""
""blur"",""0"",""0""
""blur"",""0"",""0""
","""event"",""trial"",""time""
""focus"",""0"",""0""
""focus"",""0"",""889""
","""event"",""trial"",""time""
""fullscreenenter"",""0"",""2344""
","
","null","<p></p>","null","","","","","","","",""
"","image","100","123839","0.0-100.0","""event"",""trial"",""time""
""blur"",""0"",""0""
""focus"",""0"",""0""
""blur"",""0"",""0""
""focus"",""0"",""889""
""fullscreenenter"",""0"",""2344""
","""event"",""trial"",""time""
""blur"",""0"",""0""
""blur"",""0"",""0""
","""event"",""trial"",""time""
""focus"",""0"",""0""
""focus"",""0"",""889""
","""event"",""trial"",""time""
""fullscreenenter"",""0"",""2344""
","
","556.3000000044703","run_exp/static/images/Set 6_rs/132a.jpg","86","","","","","","learn","SR",""
"","show_choice","101","125284","0.0-101.0","""event"",""trial"",""time""
""blur"",""0"",""0""
""focus"",""0"",""0""
""blur"",""0"",""0""
""focus"",""0"",""889""
""fullscreenenter"",""0"",""2344""
","""event"",""trial"",""time""
""blur"",""0"",""0""
""blur"",""0"",""0""
","""event"",""trial"",""time""
""focus"",""0"",""0""
""focus"",""0"",""889""
","""event"",""trial"",""time""
""fullscreenenter"",""0"",""2344""
","
","null","run_exp/static/images/Set 6_rs/132a.jpg","null","","","","","","learn","SR",""
"","html-keyboard-response","102","125785","0.0-102.0","""event"",""trial"",""time""
""blur"",""0"",""0""
""focus"",""0"",""0""
""blur"",""0"",""0""
""focus"",""0"",""889""
""fullscreenenter"",""0"",""2344""
","""event"",""trial"",""time""
""blur"",""0"",""0""
""blur"",""0"",""0""
","""event"",""trial"",""time""
""focus"",""0"",""0""
""focus"",""0"",""889""
","""event"",""trial"",""time""
""fullscreenenter"",""0"",""2344""
","
","null","<p></p>","null","","","","","","","",""
"","image","103","126931","0.0-103.0","""event"",""trial"",""time""
""blur"",""0"",""0""
""focus"",""0"",""0""
""blur"",""0"",""0""
""focus"",""0"",""889""
""fullscreenenter"",""0"",""2344""
","""event"",""trial"",""time""
""blur"",""0"",""0""
""blur"",""0"",""0""
","""event"",""trial"",""time""
""focus"",""0"",""0""
""focus"",""0"",""889""
","""event"",""trial"",""time""
""fullscreenenter"",""0"",""2344""
","
","1144","run_exp/static/images/Set 6_rs/178a.jpg","86","","","","","","learn","SR",""
"","show_choice","104","127788","0.0-104.0","""event"",""trial"",""time""
""blur"",""0"",""0""
""focus"",""0"",""0""
""blur"",""0"",""0""
""focus"",""0"",""889""
""fullscreenenter"",""0"",""2344""
","""event"",""trial"",""time""
""blur"",""0"",""0""
""blur"",""0"",""0""
","""event"",""trial"",""time""
""focus"",""0"",""0""
""focus"",""0"",""889""
","""event"",""trial"",""time""
""fullscreenenter"",""0"",""2344""
","
","null","run_exp/static/images/Set 6_rs/178a.jpg","null","","","","","","learn","SR",""
"","html-keyboard-response","105","128291","0.0-105.0","""event"",""trial"",""time""
""blur"",""0"",""0""
""focus"",""0"",""0""
""blur"",""0"",""0""
""focus"",""0"",""889""
""fullscreenenter"",""0"",""2344""
","""event"",""trial"",""time""
""blur"",""0"",""0""
""blur"",""0"",""0""
","""event"",""trial"",""time""
""focus"",""0"",""0""
""focus"",""0"",""889""
","""event"",""trial"",""time""
""fullscreenenter"",""0"",""2344""
","
","null","<p></p>","null","","","","","","","",""
"","image","106","129859","0.0-106.0","""event"",""trial"",""time""
""blur"",""0"",""0""
""focus"",""0"",""0""
""blur"",""0"",""0""
""focus"",""0"",""889""
""fullscreenenter"",""0"",""2344""
","""event"",""trial"",""time""
""blur"",""0"",""0""
""blur"",""0"",""0""
","""event"",""trial"",""time""
""focus"",""0"",""0""
""focus"",""0"",""889""
","""event"",""trial"",""time""
""fullscreenenter"",""0"",""2344""
","
","1565.5","run_exp/static/images/Set 6_rs/074a.jpg","86","","","","","","learn","SL",""
"","show_choice","107","130294","0.0-107.0","""event"",""trial"",""time""
""blur"",""0"",""0""
""focus"",""0"",""0""
""blur"",""0"",""0""
""focus"",""0"",""889""
""fullscreenenter"",""0"",""2344""
","""event"",""trial"",""time""
""blur"",""0"",""0""
""blur"",""0"",""0""
","""event"",""trial"",""time""
""focus"",""0"",""0""
""focus"",""0"",""889""
","""event"",""trial"",""time""
""fullscreenenter"",""0"",""2344""
","
","null","run_exp/static/images/Set 6_rs/074a.jpg","null","","","","","","learn","SL",""
"","html-keyboard-response","108","130796","0.0-108.0","""event"",""trial"",""time""
""blur"",""0"",""0""
""focus"",""0"",""0""
""blur"",""0"",""0""
""focus"",""0"",""889""
""fullscreenenter"",""0"",""2344""
","""event"",""trial"",""time""
""blur"",""0"",""0""
""blur"",""0"",""0""
","""event"",""trial"",""time""
""focus"",""0"",""0""
""focus"",""0"",""889""
","""event"",""trial"",""time""
""fullscreenenter"",""0"",""2344""
","
","null","<p></p>","null","","","","","","","",""
"","image","109","131995","0.0-109.0","""event"",""trial"",""time""
""blur"",""0"",""0""
""focus"",""0"",""0""
""blur"",""0"",""0""
""focus"",""0"",""889""
""fullscreenenter"",""0"",""2344""
","""event"",""trial"",""time""
""blur"",""0"",""0""
""blur"",""0"",""0""
","""event"",""trial"",""time""
""focus"",""0"",""0""
""focus"",""0"",""889""
","""event"",""trial"",""time""
""fullscreenenter"",""0"",""2344""
","
","1197.7999999970198","run_exp/static/images/Set 6_rs/117a.jpg","86","","","","","","learn","SL",""
"","show_choice","110","132802","0.0-110.0","""event"",""trial"",""time""
""blur"",""0"",""0""
""focus"",""0"",""0""
""blur"",""0"",""0""
""focus"",""0"",""889""
""fullscreenenter"",""0"",""2344""
","""event"",""trial"",""time""
""blur"",""0"",""0""
""blur"",""0"",""0""
","""event"",""trial"",""time""
""focus"",""0"",""0""
""focus"",""0"",""889""
","""event"",""trial"",""time""
""fullscreenenter"",""0"",""2344""
","
","null","run_exp/static/images/Set 6_rs/117a.jpg","null","","","","","","learn","SL",""
"","html-keyboard-response","111","133308","0.0-111.0","""event"",""trial"",""time""
""blur"",""0"",""0""
""focus"",""0"",""0""
""blur"",""0"",""0""
""focus"",""0"",""889""
""fullscreenenter"",""0"",""2344""
","""event"",""trial"",""time""
""blur"",""0"",""0""
""blur"",""0"",""0""
","""event"",""trial"",""time""
""focus"",""0"",""0""
""focus"",""0"",""889""
","""event"",""trial"",""time""
""fullscreenenter"",""0"",""2344""
","
","null","<p></p>","null","","","","","","","",""
"","image","112","134410","0.0-112.0","""event"",""trial"",""time""
""blur"",""0"",""0""
""focus"",""0"",""0""
""blur"",""0"",""0""
""focus"",""0"",""889""
""fullscreenenter"",""0"",""2344""
","""event"",""trial"",""time""
""blur"",""0"",""0""
""blur"",""0"",""0""
","""event"",""trial"",""time""
""focus"",""0"",""0""
""focus"",""0"",""889""
","""event"",""trial"",""time""
""fullscreenenter"",""0"",""2344""
","
","1099.7999999970198","run_exp/static/images/Set 6_rs/061a.jpg","78","","","","","","learn","SR",""
"","show_choice","113","135313","0.0-113.0","""event"",""trial"",""time""
""blur"",""0"",""0""
""focus"",""0"",""0""
""blur"",""0"",""0""
""focus"",""0"",""889""
""fullscreenenter"",""0"",""2344""
","""event"",""trial"",""time""
""blur"",""0"",""0""
""blur"",""0"",""0""
","""event"",""trial"",""time""
""focus"",""0"",""0""
""focus"",""0"",""889""
","""event"",""trial"",""time""
""fullscreenenter"",""0"",""2344""
","
","null","run_exp/static/images/Set 6_rs/061a.jpg","null","","","","","","learn","SR",""
"","html-keyboard-response","114","135815","0.0-114.0","""event"",""trial"",""time""
""blur"",""0"",""0""
""focus"",""0"",""0""
""blur"",""0"",""0""
""focus"",""0"",""889""
""fullscreenenter"",""0"",""2344""
","""event"",""trial"",""time""
""blur"",""0"",""0""
""blur"",""0"",""0""
","""event"",""trial"",""time""
""focus"",""0"",""0""
""focus"",""0"",""889""
","""event"",""trial"",""time""
""fullscreenenter"",""0"",""2344""
","
","null","<p></p>","null","","","","","","","",""
"","image","115","136605","0.0-115.0","""event"",""trial"",""time""
""blur"",""0"",""0""
""focus"",""0"",""0""
""blur"",""0"",""0""
""focus"",""0"",""889""
""fullscreenenter"",""0"",""2344""
","""event"",""trial"",""time""
""blur"",""0"",""0""
""blur"",""0"",""0""
","""event"",""trial"",""time""
""focus"",""0"",""0""
""focus"",""0"",""889""
","""event"",""trial"",""time""
""fullscreenenter"",""0"",""2344""
","
","787.8999999985099","run_exp/static/images/Set 6_rs/071a.jpg","86","","","","","","learn","SL",""
"","show_choice","116","137818","0.0-116.0","""event"",""trial"",""time""
""blur"",""0"",""0""
""focus"",""0"",""0""
""blur"",""0"",""0""
""focus"",""0"",""889""
""fullscreenenter"",""0"",""2344""
","""event"",""trial"",""time""
""blur"",""0"",""0""
""blur"",""0"",""0""
","""event"",""trial"",""time""
""focus"",""0"",""0""
""focus"",""0"",""889""
","""event"",""trial"",""time""
""fullscreenenter"",""0"",""2344""
","
","null","run_exp/static/images/Set 6_rs/071a.jpg","null","","","","","","learn","SL",""
"","html-keyboard-response","117","138319","0.0-117.0","""event"",""trial"",""time""
""blur"",""0"",""0""
""focus"",""0"",""0""
""blur"",""0"",""0""
""focus"",""0"",""889""
""fullscreenenter"",""0"",""2344""
","""event"",""trial"",""time""
""blur"",""0"",""0""
""blur"",""0"",""0""
","""event"",""trial"",""time""
""focus"",""0"",""0""
""focus"",""0"",""889""
","""event"",""trial"",""time""
""fullscreenenter"",""0"",""2344""
","
","null","<p></p>","null","","","","","","","",""
"","image","118","139086","0.0-118.0","""event"",""trial"",""time""
""blur"",""0"",""0""
""focus"",""0"",""0""
""blur"",""0"",""0""
""focus"",""0"",""889""
""fullscreenenter"",""0"",""2344""
","""event"",""trial"",""time""
""blur"",""0"",""0""
""blur"",""0"",""0""
","""event"",""trial"",""time""
""focus"",""0"",""0""
""focus"",""0"",""889""
","""event"",""trial"",""time""
""fullscreenenter"",""0"",""2344""
","
","765.2000000029802","run_exp/static/images/Set 6_rs/166a.jpg","86","","","","","","learn","SR",""
"","show_choice","119","140322","0.0-119.0","""event"",""trial"",""time""
""blur"",""0"",""0""
""focus"",""0"",""0""
""blur"",""0"",""0""
""focus"",""0"",""889""
""fullscreenenter"",""0"",""2344""
","""event"",""trial"",""time""
""blur"",""0"",""0""
""blur"",""0"",""0""
","""event"",""trial"",""time""
""focus"",""0"",""0""
""focus"",""0"",""889""
","""event"",""trial"",""time""
""fullscreenenter"",""0"",""2344""
","
","null","run_exp/static/images/Set 6_rs/166a.jpg","null","","","","","","learn","SR",""
"","html-keyboard-response","120","140828","0.0-120.0","""event"",""trial"",""time""
""blur"",""0"",""0""
""focus"",""0"",""0""
""blur"",""0"",""0""
""focus"",""0"",""889""
""fullscreenenter"",""0"",""2344""
","""event"",""trial"",""time""
""blur"",""0"",""0""
""blur"",""0"",""0""
","""event"",""trial"",""time""
""focus"",""0"",""0""
""focus"",""0"",""889""
","""event"",""trial"",""time""
""fullscreenenter"",""0"",""2344""
","
","null","<p></p>","null","","","","","","","",""
"","image","121","141982","0.0-121.0","""event"",""trial"",""time""
""blur"",""0"",""0""
""focus"",""0"",""0""
""blur"",""0"",""0""
""focus"",""0"",""889""
""fullscreenenter"",""0"",""2344""
","""event"",""trial"",""time""
""blur"",""0"",""0""
""blur"",""0"",""0""
","""event"",""trial"",""time""
""focus"",""0"",""0""
""focus"",""0"",""889""
","""event"",""trial"",""time""
""fullscreenenter"",""0"",""2344""
","
","1151.6999999955297","run_exp/static/images/Set 6_rs/129a.jpg","86","","","","","","learn","SL",""
"","show_choice","122","142835","0.0-122.0","""event"",""trial"",""time""
""blur"",""0"",""0""
""focus"",""0"",""0""
""blur"",""0"",""0""
""focus"",""0"",""889""
""fullscreenenter"",""0"",""2344""
","""event"",""trial"",""time""
""blur"",""0"",""0""
""blur"",""0"",""0""
","""event"",""trial"",""time""
""focus"",""0"",""0""
""focus"",""0"",""889""
","""event"",""trial"",""time""
""fullscreenenter"",""0"",""2344""
","
","null","run_exp/static/images/Set 6_rs/129a.jpg","null","","","","","","learn","SL",""
"","html-keyboard-response","123","143337","0.0-123.0","""event"",""trial"",""time""
""blur"",""0"",""0""
""focus"",""0"",""0""
""blur"",""0"",""0""
""focus"",""0"",""889""
""fullscreenenter"",""0"",""2344""
","""event"",""trial"",""time""
""blur"",""0"",""0""
""blur"",""0"",""0""
","""event"",""trial"",""time""
""focus"",""0"",""0""
""focus"",""0"",""889""
","""event"",""trial"",""time""
""fullscreenenter"",""0"",""2344""
","
","null","<p></p>","null","","","","","","","",""
"","image","124","144245","0.0-124.0","""event"",""trial"",""time""
""blur"",""0"",""0""
""focus"",""0"",""0""
""blur"",""0"",""0""
""focus"",""0"",""889""
""fullscreenenter"",""0"",""2344""
","""event"",""trial"",""time""
""blur"",""0"",""0""
""blur"",""0"",""0""
","""event"",""trial"",""time""
""focus"",""0"",""0""
""focus"",""0"",""889""
","""event"",""trial"",""time""
""fullscreenenter"",""0"",""2344""
","
","905.7999999970198","run_exp/static/images/Set 6_rs/089a.jpg","86","","","","","","learn","SL",""
"","show_choice","125","145342","0.0-125.0","""event"",""trial"",""time""
""blur"",""0"",""0""
""focus"",""0"",""0""
""blur"",""0"",""0""
""focus"",""0"",""889""
""fullscreenenter"",""0"",""2344""
","""event"",""trial"",""time""
""blur"",""0"",""0""
""blur"",""0"",""0""
","""event"",""trial"",""time""
""focus"",""0"",""0""
""focus"",""0"",""889""
","""event"",""trial"",""time""
""fullscreenenter"",""0"",""2344""
","
","null","run_exp/static/images/Set 6_rs/089a.jpg","null","","","","","","learn","SL",""
"","html-keyboard-response","126","145849","0.0-126.0","""event"",""trial"",""time""
""blur"",""0"",""0""
""focus"",""0"",""0""
""blur"",""0"",""0""
""focus"",""0"",""889""
""fullscreenenter"",""0"",""2344""
","""event"",""trial"",""time""
""blur"",""0"",""0""
""blur"",""0"",""0""
","""event"",""trial"",""time""
""focus"",""0"",""0""
""focus"",""0"",""889""
","""event"",""trial"",""time""
""fullscreenenter"",""0"",""2344""
","
","null","<p></p>","null","","","","","","","",""
"","image","127","146695","0.0-127.0","""event"",""trial"",""time""
""blur"",""0"",""0""
""focus"",""0"",""0""
""blur"",""0"",""0""
""focus"",""0"",""889""
""fullscreenenter"",""0"",""2344""
","""event"",""trial"",""time""
""blur"",""0"",""0""
""blur"",""0"",""0""
","""event"",""trial"",""time""
""focus"",""0"",""0""
""focus"",""0"",""889""
","""event"",""trial"",""time""
""fullscreenenter"",""0"",""2344""
","
","844.6000000014901","run_exp/static/images/Set 6_rs/016a.jpg","86","","","","","","learn","SL",""
"","show_choice","128","147854","0.0-128.0","""event"",""trial"",""time""
""blur"",""0"",""0""
""focus"",""0"",""0""
""blur"",""0"",""0""
""focus"",""0"",""889""
""fullscreenenter"",""0"",""2344""
","""event"",""trial"",""time""
""blur"",""0"",""0""
""blur"",""0"",""0""
","""event"",""trial"",""time""
""focus"",""0"",""0""
""focus"",""0"",""889""
","""event"",""trial"",""time""
""fullscreenenter"",""0"",""2344""
","
","null","run_exp/static/images/Set 6_rs/016a.jpg","null","","","","","","learn","SL",""
"","html-keyboard-response","129","148356","0.0-129.0","""event"",""trial"",""time""
""blur"",""0"",""0""
""focus"",""0"",""0""
""blur"",""0"",""0""
""focus"",""0"",""889""
""fullscreenenter"",""0"",""2344""
","""event"",""trial"",""time""
""blur"",""0"",""0""
""blur"",""0"",""0""
","""event"",""trial"",""time""
""focus"",""0"",""0""
""focus"",""0"",""889""
","""event"",""trial"",""time""
""fullscreenenter"",""0"",""2344""
","
","null","<p></p>","null","","","","","","","",""
"","image","130","149200","0.0-130.0","""event"",""trial"",""time""
""blur"",""0"",""0""
""focus"",""0"",""0""
""blur"",""0"",""0""
""focus"",""0"",""889""
""fullscreenenter"",""0"",""2344""
","""event"",""trial"",""time""
""blur"",""0"",""0""
""blur"",""0"",""0""
","""event"",""trial"",""time""
""focus"",""0"",""0""
""focus"",""0"",""889""
","""event"",""trial"",""time""
""fullscreenenter"",""0"",""2344""
","
","843.1999999955297","run_exp/static/images/Set 6_rs/088a.jpg","86","","","","","","learn","SR",""
"","show_choice","131","150361","0.0-131.0","""event"",""trial"",""time""
""blur"",""0"",""0""
""focus"",""0"",""0""
""blur"",""0"",""0""
""focus"",""0"",""889""
""fullscreenenter"",""0"",""2344""
","""event"",""trial"",""time""
""blur"",""0"",""0""
""blur"",""0"",""0""
","""event"",""trial"",""time""
""focus"",""0"",""0""
""focus"",""0"",""889""
","""event"",""trial"",""time""
""fullscreenenter"",""0"",""2344""
","
","null","run_exp/static/images/Set 6_rs/088a.jpg","null","","","","","","learn","SR",""
"","html-keyboard-response","132","150864","0.0-132.0","""event"",""trial"",""time""
""blur"",""0"",""0""
""focus"",""0"",""0""
""blur"",""0"",""0""
""focus"",""0"",""889""
""fullscreenenter"",""0"",""2344""
","""event"",""trial"",""time""
""blur"",""0"",""0""
""blur"",""0"",""0""
","""event"",""trial"",""time""
""focus"",""0"",""0""
""focus"",""0"",""889""
","""event"",""trial"",""time""
""fullscreenenter"",""0"",""2344""
","
","null","<p></p>","null","","","","","","","",""
"","image","133","152272","0.0-133.0","""event"",""trial"",""time""
""blur"",""0"",""0""
""focus"",""0"",""0""
""blur"",""0"",""0""
""focus"",""0"",""889""
""fullscreenenter"",""0"",""2344""
","""event"",""trial"",""time""
""blur"",""0"",""0""
""blur"",""0"",""0""
","""event"",""trial"",""time""
""focus"",""0"",""0""
""focus"",""0"",""889""
","""event"",""trial"",""time""
""fullscreenenter"",""0"",""2344""
","
","1406.1999999955297","run_exp/static/images/Set 6_rs/017a.jpg","78","","","","","","learn","SL",""
"","show_choice","134","152867","0.0-134.0","""event"",""trial"",""time""
""blur"",""0"",""0""
""focus"",""0"",""0""
""blur"",""0"",""0""
""focus"",""0"",""889""
""fullscreenenter"",""0"",""2344""
","""event"",""trial"",""time""
""blur"",""0"",""0""
""blur"",""0"",""0""
","""event"",""trial"",""time""
""focus"",""0"",""0""
""focus"",""0"",""889""
","""event"",""trial"",""time""
""fullscreenenter"",""0"",""2344""
","
","null","run_exp/static/images/Set 6_rs/017a.jpg","null","","","","","","learn","SL",""
"","html-keyboard-response","135","153370","0.0-135.0","""event"",""trial"",""time""
""blur"",""0"",""0""
""focus"",""0"",""0""
""blur"",""0"",""0""
""focus"",""0"",""889""
""fullscreenenter"",""0"",""2344""
","""event"",""trial"",""time""
""blur"",""0"",""0""
""blur"",""0"",""0""
","""event"",""trial"",""time""
""focus"",""0"",""0""
""focus"",""0"",""889""
","""event"",""trial"",""time""
""fullscreenenter"",""0"",""2344""
","
","null","<p></p>","null","","","","","","","",""
"","image","136","154289","0.0-136.0","""event"",""trial"",""time""
""blur"",""0"",""0""
""focus"",""0"",""0""
""blur"",""0"",""0""
""focus"",""0"",""889""
""fullscreenenter"",""0"",""2344""
","""event"",""trial"",""time""
""blur"",""0"",""0""
""blur"",""0"",""0""
","""event"",""trial"",""time""
""focus"",""0"",""0""
""focus"",""0"",""889""
","""event"",""trial"",""time""
""fullscreenenter"",""0"",""2344""
","
","916.1999999955297","run_exp/static/images/Set 6_rs/169a.jpg","78","","","","","","learn","SR",""
"","show_choice","137","155377","0.0-137.0","""event"",""trial"",""time""
""blur"",""0"",""0""
""focus"",""0"",""0""
""blur"",""0"",""0""
""focus"",""0"",""889""
""fullscreenenter"",""0"",""2344""
","""event"",""trial"",""time""
""blur"",""0"",""0""
""blur"",""0"",""0""
","""event"",""trial"",""time""
""focus"",""0"",""0""
""focus"",""0"",""889""
","""event"",""trial"",""time""
""fullscreenenter"",""0"",""2344""
","
","null","run_exp/static/images/Set 6_rs/169a.jpg","null","","","","","","learn","SR",""
"","html-keyboard-response","138","155884","0.0-138.0","""event"",""trial"",""time""
""blur"",""0"",""0""
""focus"",""0"",""0""
""blur"",""0"",""0""
""focus"",""0"",""889""
""fullscreenenter"",""0"",""2344""
","""event"",""trial"",""time""
""blur"",""0"",""0""
""blur"",""0"",""0""
","""event"",""trial"",""time""
""focus"",""0"",""0""
""focus"",""0"",""889""
","""event"",""trial"",""time""
""fullscreenenter"",""0"",""2344""
","
","null","<p></p>","null","","","","","","","",""
"","image","139","156564","0.0-139.0","""event"",""trial"",""time""
""blur"",""0"",""0""
""focus"",""0"",""0""
""blur"",""0"",""0""
""focus"",""0"",""889""
""fullscreenenter"",""0"",""2344""
","""event"",""trial"",""time""
""blur"",""0"",""0""
""blur"",""0"",""0""
","""event"",""trial"",""time""
""focus"",""0"",""0""
""focus"",""0"",""889""
","""event"",""trial"",""time""
""fullscreenenter"",""0"",""2344""
","
","678","run_exp/static/images/Set 6_rs/172a.jpg","78","","","","","","learn","SR",""
"","show_choice","140","157891","0.0-140.0","""event"",""trial"",""time""
""blur"",""0"",""0""
""focus"",""0"",""0""
""blur"",""0"",""0""
""focus"",""0"",""889""
""fullscreenenter"",""0"",""2344""
","""event"",""trial"",""time""
""blur"",""0"",""0""
""blur"",""0"",""0""
","""event"",""trial"",""time""
""focus"",""0"",""0""
""focus"",""0"",""889""
","""event"",""trial"",""time""
""fullscreenenter"",""0"",""2344""
","
","null","run_exp/static/images/Set 6_rs/172a.jpg","null","","","","","","learn","SR",""
"","html-keyboard-response","141","158392","0.0-141.0","""event"",""trial"",""time""
""blur"",""0"",""0""
""focus"",""0"",""0""
""blur"",""0"",""0""
""focus"",""0"",""889""
""fullscreenenter"",""0"",""2344""
","""event"",""trial"",""time""
""blur"",""0"",""0""
""blur"",""0"",""0""
","""event"",""trial"",""time""
""focus"",""0"",""0""
""focus"",""0"",""889""
","""event"",""trial"",""time""
""fullscreenenter"",""0"",""2344""
","
","null","<p></p>","null","","","","","","","",""
"","image","142","159772","0.0-142.0","""event"",""trial"",""time""
""blur"",""0"",""0""
""focus"",""0"",""0""
""blur"",""0"",""0""
""focus"",""0"",""889""
""fullscreenenter"",""0"",""2344""
","""event"",""trial"",""time""
""blur"",""0"",""0""
""blur"",""0"",""0""
","""event"",""trial"",""time""
""focus"",""0"",""0""
""focus"",""0"",""889""
","""event"",""trial"",""time""
""fullscreenenter"",""0"",""2344""
","
","1377.3000000044703","run_exp/static/images/Set 6_rs/121a.jpg","86","","","","","","learn","SR",""
"","show_choice","143","160396","0.0-143.0","""event"",""trial"",""time""
""blur"",""0"",""0""
""focus"",""0"",""0""
""blur"",""0"",""0""
""focus"",""0"",""889""
""fullscreenenter"",""0"",""2344""
","""event"",""trial"",""time""
""blur"",""0"",""0""
""blur"",""0"",""0""
","""event"",""trial"",""time""
""focus"",""0"",""0""
""focus"",""0"",""889""
","""event"",""trial"",""time""
""fullscreenenter"",""0"",""2344""
","
","null","run_exp/static/images/Set 6_rs/121a.jpg","null","","","","","","learn","SR",""
"","html-keyboard-response","144","160898","0.0-144.0","""event"",""trial"",""time""
""blur"",""0"",""0""
""focus"",""0"",""0""
""blur"",""0"",""0""
""focus"",""0"",""889""
""fullscreenenter"",""0"",""2344""
","""event"",""trial"",""time""
""blur"",""0"",""0""
""blur"",""0"",""0""
","""event"",""trial"",""time""
""focus"",""0"",""0""
""focus"",""0"",""889""
","""event"",""trial"",""time""
""fullscreenenter"",""0"",""2344""
","
","null","<p></p>","null","","","","","","","",""
"","image","145","162128","0.0-145.0","""event"",""trial"",""time""
""blur"",""0"",""0""
""focus"",""0"",""0""
""blur"",""0"",""0""
""focus"",""0"",""889""
""fullscreenenter"",""0"",""2344""
","""event"",""trial"",""time""
""blur"",""0"",""0""
""blur"",""0"",""0""
","""event"",""trial"",""time""
""focus"",""0"",""0""
""focus"",""0"",""889""
","""event"",""trial"",""time""
""fullscreenenter"",""0"",""2344""
","
","1227.3000000044703","run_exp/static/images/Set 6_rs/134a.jpg","86","","","","","","learn","SR",""
"","show_choice","146","162905","0.0-146.0","""event"",""trial"",""time""
""blur"",""0"",""0""
""focus"",""0"",""0""
""blur"",""0"",""0""
""focus"",""0"",""889""
""fullscreenenter"",""0"",""2344""
","""event"",""trial"",""time""
""blur"",""0"",""0""
""blur"",""0"",""0""
","""event"",""trial"",""time""
""focus"",""0"",""0""
""focus"",""0"",""889""
","""event"",""trial"",""time""
""fullscreenenter"",""0"",""2344""
","
","null","run_exp/static/images/Set 6_rs/134a.jpg","null","","","","","","learn","SR",""
"","html-keyboard-response","147","163412","0.0-147.0","""event"",""trial"",""time""
""blur"",""0"",""0""
""focus"",""0"",""0""
""blur"",""0"",""0""
""focus"",""0"",""889""
""fullscreenenter"",""0"",""2344""
","""event"",""trial"",""time""
""blur"",""0"",""0""
""blur"",""0"",""0""
","""event"",""trial"",""time""
""focus"",""0"",""0""
""focus"",""0"",""889""
","""event"",""trial"",""time""
""fullscreenenter"",""0"",""2344""
","
","null","<p></p>","null","","","","","","","",""
"","image","148","164370","0.0-148.0","""event"",""trial"",""time""
""blur"",""0"",""0""
""focus"",""0"",""0""
""blur"",""0"",""0""
""focus"",""0"",""889""
""fullscreenenter"",""0"",""2344""
","""event"",""trial"",""time""
""blur"",""0"",""0""
""blur"",""0"",""0""
","""event"",""trial"",""time""
""focus"",""0"",""0""
""focus"",""0"",""889""
","""event"",""trial"",""time""
""fullscreenenter"",""0"",""2344""
","
","956","run_exp/static/images/Set 6_rs/019a.jpg","86","","","","","","learn","SL",""
"","show_choice","149","165416","0.0-149.0","""event"",""trial"",""time""
""blur"",""0"",""0""
""focus"",""0"",""0""
""blur"",""0"",""0""
""focus"",""0"",""889""
""fullscreenenter"",""0"",""2344""
","""event"",""trial"",""time""
""blur"",""0"",""0""
""blur"",""0"",""0""
","""event"",""trial"",""time""
""focus"",""0"",""0""
""focus"",""0"",""889""
","""event"",""trial"",""time""
""fullscreenenter"",""0"",""2344""
","
","null","run_exp/static/images/Set 6_rs/019a.jpg","null","","","","","","learn","SL",""
"","html-keyboard-response","150","165919","0.0-150.0","""event"",""trial"",""time""
""blur"",""0"",""0""
""focus"",""0"",""0""
""blur"",""0"",""0""
""focus"",""0"",""889""
""fullscreenenter"",""0"",""2344""
","""event"",""trial"",""time""
""blur"",""0"",""0""
""blur"",""0"",""0""
","""event"",""trial"",""time""
""focus"",""0"",""0""
""focus"",""0"",""889""
","""event"",""trial"",""time""
""fullscreenenter"",""0"",""2344""
","
","null","<p></p>","null","","","","","","","",""
"","image","151","166813","0.0-151.0","""event"",""trial"",""time""
""blur"",""0"",""0""
""focus"",""0"",""0""
""blur"",""0"",""0""
""focus"",""0"",""889""
""fullscreenenter"",""0"",""2344""
","""event"",""trial"",""time""
""blur"",""0"",""0""
""blur"",""0"",""0""
","""event"",""trial"",""time""
""focus"",""0"",""0""
""focus"",""0"",""889""
","""event"",""trial"",""time""
""fullscreenenter"",""0"",""2344""
","
","892","run_exp/static/images/Set 6_rs/123a.jpg","78","","","","","","learn","SL",""
"","show_choice","152","167924","0.0-152.0","""event"",""trial"",""time""
""blur"",""0"",""0""
""focus"",""0"",""0""
""blur"",""0"",""0""
""focus"",""0"",""889""
""fullscreenenter"",""0"",""2344""
","""event"",""trial"",""time""
""blur"",""0"",""0""
""blur"",""0"",""0""
","""event"",""trial"",""time""
""focus"",""0"",""0""
""focus"",""0"",""889""
","""event"",""trial"",""time""
""fullscreenenter"",""0"",""2344""
","
","null","run_exp/static/images/Set 6_rs/123a.jpg","null","","","","","","learn","SL",""
"","html-keyboard-response","153","168428","0.0-153.0","""event"",""trial"",""time""
""blur"",""0"",""0""
""focus"",""0"",""0""
""blur"",""0"",""0""
""focus"",""0"",""889""
""fullscreenenter"",""0"",""2344""
","""event"",""trial"",""time""
""blur"",""0"",""0""
""blur"",""0"",""0""
","""event"",""trial"",""time""
""focus"",""0"",""0""
""focus"",""0"",""889""
","""event"",""trial"",""time""
""fullscreenenter"",""0"",""2344""
","
","null","<p></p>","null","","","","","","","",""
"","image","154","169116","0.0-154.0","""event"",""trial"",""time""
""blur"",""0"",""0""
""focus"",""0"",""0""
""blur"",""0"",""0""
""focus"",""0"",""889""
""fullscreenenter"",""0"",""2344""
","""event"",""trial"",""time""
""blur"",""0"",""0""
""blur"",""0"",""0""
","""event"",""trial"",""time""
""focus"",""0"",""0""
""focus"",""0"",""889""
","""event"",""trial"",""time""
""fullscreenenter"",""0"",""2344""
","
","685.6000000014901","run_exp/static/images/Set 6_rs/050a.jpg","86","","","","","","learn","SL",""
"","show_choice","155","170435","0.0-155.0","""event"",""trial"",""time""
""blur"",""0"",""0""
""focus"",""0"",""0""
""blur"",""0"",""0""
""focus"",""0"",""889""
""fullscreenenter"",""0"",""2344""
","""event"",""trial"",""time""
""blur"",""0"",""0""
""blur"",""0"",""0""
","""event"",""trial"",""time""
""focus"",""0"",""0""
""focus"",""0"",""889""
","""event"",""trial"",""time""
""fullscreenenter"",""0"",""2344""
","
","null","run_exp/static/images/Set 6_rs/050a.jpg","null","","","","","","learn","SL",""
"","html-keyboard-response","156","170941","0.0-156.0","""event"",""trial"",""time""
""blur"",""0"",""0""
""focus"",""0"",""0""
""blur"",""0"",""0""
""focus"",""0"",""889""
""fullscreenenter"",""0"",""2344""
","""event"",""trial"",""time""
""blur"",""0"",""0""
""blur"",""0"",""0""
","""event"",""trial"",""time""
""focus"",""0"",""0""
""focus"",""0"",""889""
","""event"",""trial"",""time""
""fullscreenenter"",""0"",""2344""
","
","null","<p></p>","null","","","","","","","",""
"","image","157","171722","0.0-157.0","""event"",""trial"",""time""
""blur"",""0"",""0""
""focus"",""0"",""0""
""blur"",""0"",""0""
""focus"",""0"",""889""
""fullscreenenter"",""0"",""2344""
","""event"",""trial"",""time""
""blur"",""0"",""0""
""blur"",""0"",""0""
","""event"",""trial"",""time""
""focus"",""0"",""0""
""focus"",""0"",""889""
","""event"",""trial"",""time""
""fullscreenenter"",""0"",""2344""
","
","779.1000000014901","run_exp/static/images/Set 6_rs/007a.jpg","86","","","","","","learn","SR",""
"","show_choice","158","172948","0.0-158.0","""event"",""trial"",""time""
""blur"",""0"",""0""
""focus"",""0"",""0""
""blur"",""0"",""0""
""focus"",""0"",""889""
""fullscreenenter"",""0"",""2344""
","""event"",""trial"",""time""
""blur"",""0"",""0""
""blur"",""0"",""0""
","""event"",""trial"",""time""
""focus"",""0"",""0""
""focus"",""0"",""889""
","""event"",""trial"",""time""
""fullscreenenter"",""0"",""2344""
","
","null","run_exp/static/images/Set 6_rs/007a.jpg","null","","","","","","learn","SR",""
"","html-keyboard-response","159","173452","0.0-159.0","""event"",""trial"",""time""
""blur"",""0"",""0""
""focus"",""0"",""0""
""blur"",""0"",""0""
""focus"",""0"",""889""
""fullscreenenter"",""0"",""2344""
","""event"",""trial"",""time""
""blur"",""0"",""0""
""blur"",""0"",""0""
","""event"",""trial"",""time""
""focus"",""0"",""0""
""focus"",""0"",""889""
","""event"",""trial"",""time""
""fullscreenenter"",""0"",""2344""
","
","null","<p></p>","null","","","","","","","",""
"","image","160","174200","0.0-160.0","""event"",""trial"",""time""
""blur"",""0"",""0""
""focus"",""0"",""0""
""blur"",""0"",""0""
""focus"",""0"",""889""
""fullscreenenter"",""0"",""2344""
","""event"",""trial"",""time""
""blur"",""0"",""0""
""blur"",""0"",""0""
","""event"",""trial"",""time""
""focus"",""0"",""0""
""focus"",""0"",""889""
","""event"",""trial"",""time""
""fullscreenenter"",""0"",""2344""
","
","745.3000000044703","run_exp/static/images/Set 6_rs/079a.jpg","86","","","","","","learn","SL",""
"","show_choice","161","175459","0.0-161.0","""event"",""trial"",""time""
""blur"",""0"",""0""
""focus"",""0"",""0""
""blur"",""0"",""0""
""focus"",""0"",""889""
""fullscreenenter"",""0"",""2344""
","""event"",""trial"",""time""
""blur"",""0"",""0""
""blur"",""0"",""0""
","""event"",""trial"",""time""
""focus"",""0"",""0""
""focus"",""0"",""889""
","""event"",""trial"",""time""
""fullscreenenter"",""0"",""2344""
","
","null","run_exp/static/images/Set 6_rs/079a.jpg","null","","","","","","learn","SL",""
"","html-keyboard-response","162","175963","0.0-162.0","""event"",""trial"",""time""
""blur"",""0"",""0""
""focus"",""0"",""0""
""blur"",""0"",""0""
""focus"",""0"",""889""
""fullscreenenter"",""0"",""2344""
","""event"",""trial"",""time""
""blur"",""0"",""0""
""blur"",""0"",""0""
","""event"",""trial"",""time""
""focus"",""0"",""0""
""focus"",""0"",""889""
","""event"",""trial"",""time""
""fullscreenenter"",""0"",""2344""
","
","null","<p></p>","null","","","","","","","",""
"","image","163","176803","0.0-163.0","""event"",""trial"",""time""
""blur"",""0"",""0""
""focus"",""0"",""0""
""blur"",""0"",""0""
""focus"",""0"",""889""
""fullscreenenter"",""0"",""2344""
","""event"",""trial"",""time""
""blur"",""0"",""0""
""blur"",""0"",""0""
","""event"",""trial"",""time""
""focus"",""0"",""0""
""focus"",""0"",""889""
","""event"",""trial"",""time""
""fullscreenenter"",""0"",""2344""
","
","838.8999999985099","run_exp/static/images/Set 6_rs/076a.jpg","78","","","","","","learn","SR",""
"","show_choice","164","177970","0.0-164.0","""event"",""trial"",""time""
""blur"",""0"",""0""
""focus"",""0"",""0""
""blur"",""0"",""0""
""focus"",""0"",""889""
""fullscreenenter"",""0"",""2344""
","""event"",""trial"",""time""
""blur"",""0"",""0""
""blur"",""0"",""0""
","""event"",""trial"",""time""
""focus"",""0"",""0""
""focus"",""0"",""889""
","""event"",""trial"",""time""
""fullscreenenter"",""0"",""2344""
","
","null","run_exp/static/images/Set 6_rs/076a.jpg","null","","","","","","learn","SR",""
"","html-keyboard-response","165","178472","0.0-165.0","""event"",""trial"",""time""
""blur"",""0"",""0""
""focus"",""0"",""0""
""blur"",""0"",""0""
""focus"",""0"",""889""
""fullscreenenter"",""0"",""2344""
","""event"",""trial"",""time""
""blur"",""0"",""0""
""blur"",""0"",""0""
","""event"",""trial"",""time""
""focus"",""0"",""0""
""focus"",""0"",""889""
","""event"",""trial"",""time""
""fullscreenenter"",""0"",""2344""
","
","null","<p></p>","null","","","","","","","",""
"","image","166","179256","0.0-166.0","""event"",""trial"",""time""
""blur"",""0"",""0""
""focus"",""0"",""0""
""blur"",""0"",""0""
""focus"",""0"",""889""
""fullscreenenter"",""0"",""2344""
","""event"",""trial"",""time""
""blur"",""0"",""0""
""blur"",""0"",""0""
","""event"",""trial"",""time""
""focus"",""0"",""0""
""focus"",""0"",""889""
","""event"",""trial"",""time""
""fullscreenenter"",""0"",""2344""
","
","782.2999999970198","run_exp/static/images/Set 6_rs/010a.jpg","86","","","","","","learn","SR",""
"","show_choice","167","180479","0.0-167.0","""event"",""trial"",""time""
""blur"",""0"",""0""
""focus"",""0"",""0""
""blur"",""0"",""0""
""focus"",""0"",""889""
""fullscreenenter"",""0"",""2344""
","""event"",""trial"",""time""
""blur"",""0"",""0""
""blur"",""0"",""0""
","""event"",""trial"",""time""
""focus"",""0"",""0""
""focus"",""0"",""889""
","""event"",""trial"",""time""
""fullscreenenter"",""0"",""2344""
","
","null","run_exp/static/images/Set 6_rs/010a.jpg","null","","","","","","learn","SR",""
"","html-keyboard-response","168","180984","0.0-168.0","""event"",""trial"",""time""
""blur"",""0"",""0""
""focus"",""0"",""0""
""blur"",""0"",""0""
""focus"",""0"",""889""
""fullscreenenter"",""0"",""2344""
","""event"",""trial"",""time""
""blur"",""0"",""0""
""blur"",""0"",""0""
","""event"",""trial"",""time""
""focus"",""0"",""0""
""focus"",""0"",""889""
","""event"",""trial"",""time""
""fullscreenenter"",""0"",""2344""
","
","null","<p></p>","null","","","","","","","",""
"","image","169","181564","0.0-169.0","""event"",""trial"",""time""
""blur"",""0"",""0""
""focus"",""0"",""0""
""blur"",""0"",""0""
""focus"",""0"",""889""
""fullscreenenter"",""0"",""2344""
","""event"",""trial"",""time""
""blur"",""0"",""0""
""blur"",""0"",""0""
","""event"",""trial"",""time""
""focus"",""0"",""0""
""focus"",""0"",""889""
","""event"",""trial"",""time""
""fullscreenenter"",""0"",""2344""
","
","578.2000000029802","run_exp/static/images/Set 6_rs/095a.jpg","86","","","","","","learn","SL",""
"","show_choice","170","182987","0.0-170.0","""event"",""trial"",""time""
""blur"",""0"",""0""
""focus"",""0"",""0""
""blur"",""0"",""0""
""focus"",""0"",""889""
""fullscreenenter"",""0"",""2344""
","""event"",""trial"",""time""
""blur"",""0"",""0""
""blur"",""0"",""0""
","""event"",""trial"",""time""
""focus"",""0"",""0""
""focus"",""0"",""889""
","""event"",""trial"",""time""
""fullscreenenter"",""0"",""2344""
","
","null","run_exp/static/images/Set 6_rs/095a.jpg","null","","","","","","learn","SL",""
"","html-keyboard-response","171","183493","0.0-171.0","""event"",""trial"",""time""
""blur"",""0"",""0""
""focus"",""0"",""0""
""blur"",""0"",""0""
""focus"",""0"",""889""
""fullscreenenter"",""0"",""2344""
","""event"",""trial"",""time""
""blur"",""0"",""0""
""blur"",""0"",""0""
","""event"",""trial"",""time""
""focus"",""0"",""0""
""focus"",""0"",""889""
","""event"",""trial"",""time""
""fullscreenenter"",""0"",""2344""
","
","null","<p></p>","null","","","","","","","",""
"","image","172","184061","0.0-172.0","""event"",""trial"",""time""
""blur"",""0"",""0""
""focus"",""0"",""0""
""blur"",""0"",""0""
""focus"",""0"",""889""
""fullscreenenter"",""0"",""2344""
","""event"",""trial"",""time""
""blur"",""0"",""0""
""blur"",""0"",""0""
","""event"",""trial"",""time""
""focus"",""0"",""0""
""focus"",""0"",""889""
","""event"",""trial"",""time""
""fullscreenenter"",""0"",""2344""
","
","566","run_exp/static/images/Set 6_rs/070a.jpg","86","","","","","","learn","SR",""
"","show_choice","173","185499","0.0-173.0","""event"",""trial"",""time""
""blur"",""0"",""0""
""focus"",""0"",""0""
""blur"",""0"",""0""
""focus"",""0"",""889""
""fullscreenenter"",""0"",""2344""
","""event"",""trial"",""time""
""blur"",""0"",""0""
""blur"",""0"",""0""
","""event"",""trial"",""time""
""focus"",""0"",""0""
""focus"",""0"",""889""
","""event"",""trial"",""time""
""fullscreenenter"",""0"",""2344""
","
","null","run_exp/static/images/Set 6_rs/070a.jpg","null","","","","","","learn","SR",""
"","html-keyboard-response","174","186004","0.0-174.0","""event"",""trial"",""time""
""blur"",""0"",""0""
""focus"",""0"",""0""
""blur"",""0"",""0""
""focus"",""0"",""889""
""fullscreenenter"",""0"",""2344""
","""event"",""trial"",""time""
""blur"",""0"",""0""
""blur"",""0"",""0""
","""event"",""trial"",""time""
""focus"",""0"",""0""
""focus"",""0"",""889""
","""event"",""trial"",""time""
""fullscreenenter"",""0"",""2344""
","
","null","<p></p>","null","","","","","","","",""
"","image","175","187438","0.0-175.0","""event"",""trial"",""time""
""blur"",""0"",""0""
""focus"",""0"",""0""
""blur"",""0"",""0""
""focus"",""0"",""889""
""fullscreenenter"",""0"",""2344""
","""event"",""trial"",""time""
""blur"",""0"",""0""
""blur"",""0"",""0""
","""event"",""trial"",""time""
""focus"",""0"",""0""
""focus"",""0"",""889""
","""event"",""trial"",""time""
""fullscreenenter"",""0"",""2344""
","
","1432.2000000029802","run_exp/static/images/Set 6_rs/191a.jpg","86","","","","","","learn","SL",""
"","show_choice","176","188007","0.0-176.0","""event"",""trial"",""time""
""blur"",""0"",""0""
""focus"",""0"",""0""
""blur"",""0"",""0""
""focus"",""0"",""889""
""fullscreenenter"",""0"",""2344""
","""event"",""trial"",""time""
""blur"",""0"",""0""
""blur"",""0"",""0""
","""event"",""trial"",""time""
""focus"",""0"",""0""
""focus"",""0"",""889""
","""event"",""trial"",""time""
""fullscreenenter"",""0"",""2344""
","
","null","run_exp/static/images/Set 6_rs/191a.jpg","null","","","","","","learn","SL",""
"","html-keyboard-response","177","188514","0.0-177.0","""event"",""trial"",""time""
""blur"",""0"",""0""
""focus"",""0"",""0""
""blur"",""0"",""0""
""focus"",""0"",""889""
""fullscreenenter"",""0"",""2344""
","""event"",""trial"",""time""
""blur"",""0"",""0""
""blur"",""0"",""0""
","""event"",""trial"",""time""
""focus"",""0"",""0""
""focus"",""0"",""889""
","""event"",""trial"",""time""
""fullscreenenter"",""0"",""2344""
","
","null","<p></p>","null","","","","","","","",""
"","image","178","189291","0.0-178.0","""event"",""trial"",""time""
""blur"",""0"",""0""
""focus"",""0"",""0""
""blur"",""0"",""0""
""focus"",""0"",""889""
""fullscreenenter"",""0"",""2344""
","""event"",""trial"",""time""
""blur"",""0"",""0""
""blur"",""0"",""0""
","""event"",""trial"",""time""
""focus"",""0"",""0""
""focus"",""0"",""889""
","""event"",""trial"",""time""
""fullscreenenter"",""0"",""2344""
","
","774.8999999985099","run_exp/static/images/Set 6_rs/008a.jpg","86","","","","","","learn","SL",""
"","show_choice","179","190520","0.0-179.0","""event"",""trial"",""time""
""blur"",""0"",""0""
""focus"",""0"",""0""
""blur"",""0"",""0""
""focus"",""0"",""889""
""fullscreenenter"",""0"",""2344""
","""event"",""trial"",""time""
""blur"",""0"",""0""
""blur"",""0"",""0""
","""event"",""trial"",""time""
""focus"",""0"",""0""
""focus"",""0"",""889""
","""event"",""trial"",""time""
""fullscreenenter"",""0"",""2344""
","
","null","run_exp/static/images/Set 6_rs/008a.jpg","null","","","","","","learn","SL",""
"","html-keyboard-response","180","191022","0.0-180.0","""event"",""trial"",""time""
""blur"",""0"",""0""
""focus"",""0"",""0""
""blur"",""0"",""0""
""focus"",""0"",""889""
""fullscreenenter"",""0"",""2344""
","""event"",""trial"",""time""
""blur"",""0"",""0""
""blur"",""0"",""0""
","""event"",""trial"",""time""
""focus"",""0"",""0""
""focus"",""0"",""889""
","""event"",""trial"",""time""
""fullscreenenter"",""0"",""2344""
","
","null","<p></p>","null","","","","","","","",""
"","image","181","191790","0.0-181.0","""event"",""trial"",""time""
""blur"",""0"",""0""
""focus"",""0"",""0""
""blur"",""0"",""0""
""focus"",""0"",""889""
""fullscreenenter"",""0"",""2344""
","""event"",""trial"",""time""
""blur"",""0"",""0""
""blur"",""0"",""0""
","""event"",""trial"",""time""
""focus"",""0"",""0""
""focus"",""0"",""889""
","""event"",""trial"",""time""
""fullscreenenter"",""0"",""2344""
","
","765.3000000044703","run_exp/static/images/Set 6_rs/055a.jpg","86","","","","","","learn","SL",""
"","show_choice","182","193029","0.0-182.0","""event"",""trial"",""time""
""blur"",""0"",""0""
""focus"",""0"",""0""
""blur"",""0"",""0""
""focus"",""0"",""889""
""fullscreenenter"",""0"",""2344""
","""event"",""trial"",""time""
""blur"",""0"",""0""
""blur"",""0"",""0""
","""event"",""trial"",""time""
""focus"",""0"",""0""
""focus"",""0"",""889""
","""event"",""trial"",""time""
""fullscreenenter"",""0"",""2344""
","
","null","run_exp/static/images/Set 6_rs/055a.jpg","null","","","","","","learn","SL",""
"","html-keyboard-response","183","193533","0.0-183.0","""event"",""trial"",""time""
""blur"",""0"",""0""
""focus"",""0"",""0""
""blur"",""0"",""0""
""focus"",""0"",""889""
""fullscreenenter"",""0"",""2344""
","""event"",""trial"",""time""
""blur"",""0"",""0""
""blur"",""0"",""0""
","""event"",""trial"",""time""
""focus"",""0"",""0""
""focus"",""0"",""889""
","""event"",""trial"",""time""
""fullscreenenter"",""0"",""2344""
","
","null","<p></p>","null","","","","","","","",""
"","image","184","195005","0.0-184.0","""event"",""trial"",""time""
""blur"",""0"",""0""
""focus"",""0"",""0""
""blur"",""0"",""0""
""focus"",""0"",""889""
""fullscreenenter"",""0"",""2344""
","""event"",""trial"",""time""
""blur"",""0"",""0""
""blur"",""0"",""0""
","""event"",""trial"",""time""
""focus"",""0"",""0""
""focus"",""0"",""889""
","""event"",""trial"",""time""
""fullscreenenter"",""0"",""2344""
","
","1469.7999999970198","run_exp/static/images/Set 6_rs/091a.jpg","78","","","","","","learn","SL",""
"","show_choice","185","195541","0.0-185.0","""event"",""trial"",""time""
""blur"",""0"",""0""
""focus"",""0"",""0""
""blur"",""0"",""0""
""focus"",""0"",""889""
""fullscreenenter"",""0"",""2344""
","""event"",""trial"",""time""
""blur"",""0"",""0""
""blur"",""0"",""0""
","""event"",""trial"",""time""
""focus"",""0"",""0""
""focus"",""0"",""889""
","""event"",""trial"",""time""
""fullscreenenter"",""0"",""2344""
","
","null","run_exp/static/images/Set 6_rs/091a.jpg","null","","","","","","learn","SL",""
"","html-keyboard-response","186","196045","0.0-186.0","""event"",""trial"",""time""
""blur"",""0"",""0""
""focus"",""0"",""0""
""blur"",""0"",""0""
""focus"",""0"",""889""
""fullscreenenter"",""0"",""2344""
","""event"",""trial"",""time""
""blur"",""0"",""0""
""blur"",""0"",""0""
","""event"",""trial"",""time""
""focus"",""0"",""0""
""focus"",""0"",""889""
","""event"",""trial"",""time""
""fullscreenenter"",""0"",""2344""
","
","null","<p></p>","null","","","","","","","",""
"","image","187","196578","0.0-187.0","""event"",""trial"",""time""
""blur"",""0"",""0""
""focus"",""0"",""0""
""blur"",""0"",""0""
""focus"",""0"",""889""
""fullscreenenter"",""0"",""2344""
","""event"",""trial"",""time""
""blur"",""0"",""0""
""blur"",""0"",""0""
","""event"",""trial"",""time""
""focus"",""0"",""0""
""focus"",""0"",""889""
","""event"",""trial"",""time""
""fullscreenenter"",""0"",""2344""
","
","531.2000000029802","run_exp/static/images/Set 6_rs/112a.jpg","86","","","","","","learn","SR",""
"","show_choice","188","198052","0.0-188.0","""event"",""trial"",""time""
""blur"",""0"",""0""
""focus"",""0"",""0""
""blur"",""0"",""0""
""focus"",""0"",""889""
""fullscreenenter"",""0"",""2344""
","""event"",""trial"",""time""
""blur"",""0"",""0""
""blur"",""0"",""0""
","""event"",""trial"",""time""
""focus"",""0"",""0""
""focus"",""0"",""889""
","""event"",""trial"",""time""
""fullscreenenter"",""0"",""2344""
","
","null","run_exp/static/images/Set 6_rs/112a.jpg","null","","","","","","learn","SR",""
"","html-keyboard-response","189","198554","0.0-189.0","""event"",""trial"",""time""
""blur"",""0"",""0""
""focus"",""0"",""0""
""blur"",""0"",""0""
""focus"",""0"",""889""
""fullscreenenter"",""0"",""2344""
","""event"",""trial"",""time""
""blur"",""0"",""0""
""blur"",""0"",""0""
","""event"",""trial"",""time""
""focus"",""0"",""0""
""focus"",""0"",""889""
","""event"",""trial"",""time""
""fullscreenenter"",""0"",""2344""
","
","null","<p></p>","null","","","","","","","",""
"","image","190","200238","0.0-190.0","""event"",""trial"",""time""
""blur"",""0"",""0""
""focus"",""0"",""0""
""blur"",""0"",""0""
""focus"",""0"",""889""
""fullscreenenter"",""0"",""2344""
","""event"",""trial"",""time""
""blur"",""0"",""0""
""blur"",""0"",""0""
","""event"",""trial"",""time""
""focus"",""0"",""0""
""focus"",""0"",""889""
","""event"",""trial"",""time""
""fullscreenenter"",""0"",""2344""
","
","1681.3999999985099","run_exp/static/images/Set 6_rs/168a.jpg","86","","","","","","learn","SL",""
"","show_choice","191","200558","0.0-191.0","""event"",""trial"",""time""
""blur"",""0"",""0""
""focus"",""0"",""0""
""blur"",""0"",""0""
""focus"",""0"",""889""
