"success","trial_type","trial_index","time_elapsed","internal_node_id","interactions","blur_events","focus_events","fullscreenenter_events","fullscreenexit_events","rt","stimulus","key_press","subject_id","participant_id","age","gender","prompt","phase","condition","lure_bin"
"true","fullscreen","0","1155498","0.0-0.0","""event"",""trial"",""time""
""blur"",""0"",""0""
""focus"",""0"",""1152376""
""fullscreenenter"",""0"",""1154545""
","""event"",""trial"",""time""
""blur"",""0"",""0""
","""event"",""trial"",""time""
""focus"",""0"",""1152376""
","""event"",""trial"",""time""
""fullscreenenter"",""0"",""1154545""
","
","","","","","","","","","","",""
"","pavlovia","1","1155503","0.0-1.0","""event"",""trial"",""time""
""blur"",""0"",""0""
""focus"",""0"",""1152376""
""fullscreenenter"",""0"",""1154545""
","""event"",""trial"",""time""
""blur"",""0"",""0""
","""event"",""trial"",""time""
""focus"",""0"",""1152376""
","""event"",""trial"",""time""
""fullscreenenter"",""0"",""1154545""
","
","","","","","","","","","","",""
"","welcome","2","1190442","0.0-2.0","""event"",""trial"",""time""
""blur"",""0"",""0""
""focus"",""0"",""1152376""
""fullscreenenter"",""0"",""1154545""
","""event"",""trial"",""time""
""blur"",""0"",""0""
","""event"",""trial"",""time""
""focus"",""0"",""1152376""
","""event"",""trial"",""time""
""fullscreenenter"",""0"",""1154545""
","
","null","run_exp/static/audio/clip_1_welcome.m4a","null","665","386","25","Female","<div class='center'><p>Welcome to the third part of the study! First, you'll be shown pictures of items one at a time. For each picture, you have to decide if the item is typically found indoors or outdoors.</p><p>If you think it's usually found indoors, then press <b>v</b> key on your keyboard. If you think it's usually found outdoors, then press the <b>n</b> key.There will be reminders on the screen to help you remember which keys to press. </p><p>If you're not sure whether the item is an indoor item or an outdoor item, go ahead and take a guess but try your best not to skip that choice. </p></div>","","",""
"","html-keyboard-response","3","1191925","0.0-3.0","""event"",""trial"",""time""
""blur"",""0"",""0""
""focus"",""0"",""1152376""
""fullscreenenter"",""0"",""1154545""
","""event"",""trial"",""time""
""blur"",""0"",""0""
","""event"",""trial"",""time""
""focus"",""0"",""1152376""
","""event"",""trial"",""time""
""fullscreenenter"",""0"",""1154545""
","
","1481.0999999996275","<div class='center'><p>Welcome to the third part of the study! First, you'll be shown pictures of items one at a time. For each picture, you have to decide if the item is typically found indoors or outdoors.</p><p>If you think it's usually found indoors, then press <b>v</b> key on your keyboard. If you think it's usually found outdoors, then press the <b>n</b> key.There will be reminders on the screen to help you remember which keys to press. </p><p>If you're not sure whether the item is an indoor item or an outdoor item, go ahead and take a guess but try your best not to skip that choice. </p><div><p><b>[Press the space bar to continue]</b></p></div>","32","","","","","","","",""
"","image","4","1193932","0.0-4.0","""event"",""trial"",""time""
""blur"",""0"",""0""
""focus"",""0"",""1152376""
""fullscreenenter"",""0"",""1154545""
","""event"",""trial"",""time""
""blur"",""0"",""0""
","""event"",""trial"",""time""
""focus"",""0"",""1152376""
","""event"",""trial"",""time""
""fullscreenenter"",""0"",""1154545""
","
","null","run_exp/static/images/Set 6_rs/186a.jpg","null","","","","","","learn","SR",""
"","show_choice","5","1195937","0.0-5.0","""event"",""trial"",""time""
""blur"",""0"",""0""
""focus"",""0"",""1152376""
""fullscreenenter"",""0"",""1154545""
","""event"",""trial"",""time""
""blur"",""0"",""0""
","""event"",""trial"",""time""
""focus"",""0"",""1152376""
","""event"",""trial"",""time""
""fullscreenenter"",""0"",""1154545""
","
","null","run_exp/static/images/blank.png","null","","","","","","learn","SR",""
"","html-keyboard-response","6","1196442","0.0-6.0","""event"",""trial"",""time""
""blur"",""0"",""0""
""focus"",""0"",""1152376""
""fullscreenenter"",""0"",""1154545""
","""event"",""trial"",""time""
""blur"",""0"",""0""
","""event"",""trial"",""time""
""focus"",""0"",""1152376""
","""event"",""trial"",""time""
""fullscreenenter"",""0"",""1154545""
","
","null","<p></p>","null","","","","","","","",""
"","image","7","1197419","0.0-7.0","""event"",""trial"",""time""
""blur"",""0"",""0""
""focus"",""0"",""1152376""
""fullscreenenter"",""0"",""1154545""
","""event"",""trial"",""time""
""blur"",""0"",""0""
","""event"",""trial"",""time""
""focus"",""0"",""1152376""
","""event"",""trial"",""time""
""fullscreenenter"",""0"",""1154545""
","
","976","run_exp/static/images/Set 6_rs/177a.jpg","78","","","","","","learn","SR",""
"","show_choice","8","1198446","0.0-8.0","""event"",""trial"",""time""
""blur"",""0"",""0""
""focus"",""0"",""1152376""
""fullscreenenter"",""0"",""1154545""
","""event"",""trial"",""time""
""blur"",""0"",""0""
","""event"",""trial"",""time""
""focus"",""0"",""1152376""
","""event"",""trial"",""time""
""fullscreenenter"",""0"",""1154545""
","
","null","run_exp/static/images/Set 6_rs/177a.jpg","null","","","","","","learn","SR",""
"","html-keyboard-response","9","1198950","0.0-9.0","""event"",""trial"",""time""
""blur"",""0"",""0""
""focus"",""0"",""1152376""
""fullscreenenter"",""0"",""1154545""
","""event"",""trial"",""time""
""blur"",""0"",""0""
","""event"",""trial"",""time""
""focus"",""0"",""1152376""
","""event"",""trial"",""time""
""fullscreenenter"",""0"",""1154545""
","
","null","<p></p>","null","","","","","","","",""
"","image","10","1199692","0.0-10.0","""event"",""trial"",""time""
""blur"",""0"",""0""
""focus"",""0"",""1152376""
""fullscreenenter"",""0"",""1154545""
","""event"",""trial"",""time""
""blur"",""0"",""0""
","""event"",""trial"",""time""
""focus"",""0"",""1152376""
","""event"",""trial"",""time""
""fullscreenenter"",""0"",""1154545""
","
","740.5999999996275","run_exp/static/images/Set 6_rs/131a.jpg","86","","","","","","learn","SR",""
"","show_choice","11","1200954","0.0-11.0","""event"",""trial"",""time""
""blur"",""0"",""0""
""focus"",""0"",""1152376""
""fullscreenenter"",""0"",""1154545""
","""event"",""trial"",""time""
""blur"",""0"",""0""
","""event"",""trial"",""time""
""focus"",""0"",""1152376""
","""event"",""trial"",""time""
""fullscreenenter"",""0"",""1154545""
","
","null","run_exp/static/images/Set 6_rs/131a.jpg","null","","","","","","learn","SR",""
"","html-keyboard-response","12","1201457","0.0-12.0","""event"",""trial"",""time""
""blur"",""0"",""0""
""focus"",""0"",""1152376""
""fullscreenenter"",""0"",""1154545""
","""event"",""trial"",""time""
""blur"",""0"",""0""
","""event"",""trial"",""time""
""focus"",""0"",""1152376""
","""event"",""trial"",""time""
""fullscreenenter"",""0"",""1154545""
","
","null","<p></p>","null","","","","","","","",""
"","image","13","1202470","0.0-13.0","""event"",""trial"",""time""
""blur"",""0"",""0""
""focus"",""0"",""1152376""
""fullscreenenter"",""0"",""1154545""
","""event"",""trial"",""time""
""blur"",""0"",""0""
","""event"",""trial"",""time""
""focus"",""0"",""1152376""
","""event"",""trial"",""time""
""fullscreenenter"",""0"",""1154545""
","
","1011.7000000001863","run_exp/static/images/Set 6_rs/166a.jpg","86","","","","","","learn","SR",""
"","show_choice","14","1203462","0.0-14.0","""event"",""trial"",""time""
""blur"",""0"",""0""
""focus"",""0"",""1152376""
""fullscreenenter"",""0"",""1154545""
","""event"",""trial"",""time""
""blur"",""0"",""0""
","""event"",""trial"",""time""
""focus"",""0"",""1152376""
","""event"",""trial"",""time""
""fullscreenenter"",""0"",""1154545""
","
","null","run_exp/static/images/Set 6_rs/166a.jpg","null","","","","","","learn","SR",""
"","html-keyboard-response","15","1203967","0.0-15.0","""event"",""trial"",""time""
""blur"",""0"",""0""
""focus"",""0"",""1152376""
""fullscreenenter"",""0"",""1154545""
","""event"",""trial"",""time""
""blur"",""0"",""0""
","""event"",""trial"",""time""
""focus"",""0"",""1152376""
","""event"",""trial"",""time""
""fullscreenenter"",""0"",""1154545""
","
","null","<p></p>","null","","","","","","","",""
"","image","16","1205123","0.0-16.0","""event"",""trial"",""time""
""blur"",""0"",""0""
""focus"",""0"",""1152376""
""fullscreenenter"",""0"",""1154545""
","""event"",""trial"",""time""
""blur"",""0"",""0""
","""event"",""trial"",""time""
""focus"",""0"",""1152376""
","""event"",""trial"",""time""
""fullscreenenter"",""0"",""1154545""
","
","1155","run_exp/static/images/Set 6_rs/006a.jpg","86","","","","","","learn","SL",""
"","show_choice","17","1205970","0.0-17.0","""event"",""trial"",""time""
""blur"",""0"",""0""
""focus"",""0"",""1152376""
""fullscreenenter"",""0"",""1154545""
","""event"",""trial"",""time""
""blur"",""0"",""0""
","""event"",""trial"",""time""
""focus"",""0"",""1152376""
","""event"",""trial"",""time""
""fullscreenenter"",""0"",""1154545""
","
","null","run_exp/static/images/Set 6_rs/006a.jpg","null","","","","","","learn","SL",""
"","html-keyboard-response","18","1206471","0.0-18.0","""event"",""trial"",""time""
""blur"",""0"",""0""
""focus"",""0"",""1152376""
""fullscreenenter"",""0"",""1154545""
","""event"",""trial"",""time""
""blur"",""0"",""0""
","""event"",""trial"",""time""
""focus"",""0"",""1152376""
","""event"",""trial"",""time""
""fullscreenenter"",""0"",""1154545""
","
","null","<p></p>","null","","","","","","","",""
"","image","19","1207790","0.0-19.0","""event"",""trial"",""time""
""blur"",""0"",""0""
""focus"",""0"",""1152376""
""fullscreenenter"",""0"",""1154545""
","""event"",""trial"",""time""
""blur"",""0"",""0""
","""event"",""trial"",""time""
""focus"",""0"",""1152376""
","""event"",""trial"",""time""
""fullscreenenter"",""0"",""1154545""
","
","1318","run_exp/static/images/Set 6_rs/017a.jpg","86","","","","","","learn","SL",""
"","show_choice","20","1208477","0.0-20.0","""event"",""trial"",""time""
""blur"",""0"",""0""
""focus"",""0"",""1152376""
""fullscreenenter"",""0"",""1154545""
","""event"",""trial"",""time""
""blur"",""0"",""0""
","""event"",""trial"",""time""
""focus"",""0"",""1152376""
","""event"",""trial"",""time""
""fullscreenenter"",""0"",""1154545""
","
","null","run_exp/static/images/Set 6_rs/017a.jpg","null","","","","","","learn","SL",""
"","html-keyboard-response","21","1208982","0.0-21.0","""event"",""trial"",""time""
""blur"",""0"",""0""
""focus"",""0"",""1152376""
""fullscreenenter"",""0"",""1154545""
","""event"",""trial"",""time""
""blur"",""0"",""0""
","""event"",""trial"",""time""
""focus"",""0"",""1152376""
","""event"",""trial"",""time""
""fullscreenenter"",""0"",""1154545""
","
","null","<p></p>","null","","","","","","","",""
"","image","22","1209932","0.0-22.0","""event"",""trial"",""time""
""blur"",""0"",""0""
""focus"",""0"",""1152376""
""fullscreenenter"",""0"",""1154545""
","""event"",""trial"",""time""
""blur"",""0"",""0""
","""event"",""trial"",""time""
""focus"",""0"",""1152376""
","""event"",""trial"",""time""
""fullscreenenter"",""0"",""1154545""
","
","949.1000000005588","run_exp/static/images/Set 6_rs/016a.jpg","86","","","","","","learn","SL",""
"","show_choice","23","1210985","0.0-23.0","""event"",""trial"",""time""
""blur"",""0"",""0""
""focus"",""0"",""1152376""
""fullscreenenter"",""0"",""1154545""
","""event"",""trial"",""time""
""blur"",""0"",""0""
","""event"",""trial"",""time""
""focus"",""0"",""1152376""
","""event"",""trial"",""time""
""fullscreenenter"",""0"",""1154545""
","
","null","run_exp/static/images/Set 6_rs/016a.jpg","null","","","","","","learn","SL",""
"","html-keyboard-response","24","1211486","0.0-24.0","""event"",""trial"",""time""
""blur"",""0"",""0""
""focus"",""0"",""1152376""
""fullscreenenter"",""0"",""1154545""
","""event"",""trial"",""time""
""blur"",""0"",""0""
","""event"",""trial"",""time""
""focus"",""0"",""1152376""
","""event"",""trial"",""time""
""fullscreenenter"",""0"",""1154545""
","
","null","<p></p>","null","","","","","","","",""
"","image","25","1212530","0.0-25.0","""event"",""trial"",""time""
""blur"",""0"",""0""
""focus"",""0"",""1152376""
""fullscreenenter"",""0"",""1154545""
","""event"",""trial"",""time""
""blur"",""0"",""0""
","""event"",""trial"",""time""
""focus"",""0"",""1152376""
","""event"",""trial"",""time""
""fullscreenenter"",""0"",""1154545""
","
","1043.0999999996275","run_exp/static/images/Set 6_rs/036a.jpg","86","","","","","","learn","SL",""
"","show_choice","26","1213492","0.0-26.0","""event"",""trial"",""time""
""blur"",""0"",""0""
""focus"",""0"",""1152376""
""fullscreenenter"",""0"",""1154545""
","""event"",""trial"",""time""
""blur"",""0"",""0""
","""event"",""trial"",""time""
""focus"",""0"",""1152376""
","""event"",""trial"",""time""
""fullscreenenter"",""0"",""1154545""
","
","null","run_exp/static/images/Set 6_rs/036a.jpg","null","","","","","","learn","SL",""
"","html-keyboard-response","27","1213994","0.0-27.0","""event"",""trial"",""time""
""blur"",""0"",""0""
""focus"",""0"",""1152376""
""fullscreenenter"",""0"",""1154545""
","""event"",""trial"",""time""
""blur"",""0"",""0""
","""event"",""trial"",""time""
""focus"",""0"",""1152376""
","""event"",""trial"",""time""
""fullscreenenter"",""0"",""1154545""
","
","null","<p></p>","null","","","","","","","",""
"","image","28","1214788","0.0-28.0","""event"",""trial"",""time""
""blur"",""0"",""0""
""focus"",""0"",""1152376""
""fullscreenenter"",""0"",""1154545""
","""event"",""trial"",""time""
""blur"",""0"",""0""
","""event"",""trial"",""time""
""focus"",""0"",""1152376""
","""event"",""trial"",""time""
""fullscreenenter"",""0"",""1154545""
","
","792.7999999998137","run_exp/static/images/Set 6_rs/132a.jpg","78","","","","","","learn","SR",""
"","show_choice","29","1215997","0.0-29.0","""event"",""trial"",""time""
""blur"",""0"",""0""
""focus"",""0"",""1152376""
""fullscreenenter"",""0"",""1154545""
","""event"",""trial"",""time""
""blur"",""0"",""0""
","""event"",""trial"",""time""
""focus"",""0"",""1152376""
","""event"",""trial"",""time""
""fullscreenenter"",""0"",""1154545""
","
","null","run_exp/static/images/Set 6_rs/132a.jpg","null","","","","","","learn","SR",""
"","html-keyboard-response","30","1216503","0.0-30.0","""event"",""trial"",""time""
""blur"",""0"",""0""
""focus"",""0"",""1152376""
""fullscreenenter"",""0"",""1154545""
","""event"",""trial"",""time""
""blur"",""0"",""0""
","""event"",""trial"",""time""
""focus"",""0"",""1152376""
","""event"",""trial"",""time""
""fullscreenenter"",""0"",""1154545""
","
","null","<p></p>","null","","","","","","","",""
"","image","31","1217436","0.0-31.0","""event"",""trial"",""time""
""blur"",""0"",""0""
""focus"",""0"",""1152376""
""fullscreenenter"",""0"",""1154545""
","""event"",""trial"",""time""
""blur"",""0"",""0""
","""event"",""trial"",""time""
""focus"",""0"",""1152376""
","""event"",""trial"",""time""
""fullscreenenter"",""0"",""1154545""
","
","932","run_exp/static/images/Set 6_rs/088a.jpg","86","","","","","","learn","SR",""
"","show_choice","32","1218509","0.0-32.0","""event"",""trial"",""time""
""blur"",""0"",""0""
""focus"",""0"",""1152376""
""fullscreenenter"",""0"",""1154545""
","""event"",""trial"",""time""
""blur"",""0"",""0""
","""event"",""trial"",""time""
""focus"",""0"",""1152376""
","""event"",""trial"",""time""
""fullscreenenter"",""0"",""1154545""
","
","null","run_exp/static/images/Set 6_rs/088a.jpg","null","","","","","","learn","SR",""
"","html-keyboard-response","33","1219012","0.0-33.0","""event"",""trial"",""time""
""blur"",""0"",""0""
""focus"",""0"",""1152376""
""fullscreenenter"",""0"",""1154545""
","""event"",""trial"",""time""
""blur"",""0"",""0""
","""event"",""trial"",""time""
""focus"",""0"",""1152376""
","""event"",""trial"",""time""
""fullscreenenter"",""0"",""1154545""
","
","null","<p></p>","null","","","","","","","",""
"","image","34","1220484","0.0-34.0","""event"",""trial"",""time""
""blur"",""0"",""0""
""focus"",""0"",""1152376""
""fullscreenenter"",""0"",""1154545""
","""event"",""trial"",""time""
""blur"",""0"",""0""
","""event"",""trial"",""time""
""focus"",""0"",""1152376""
","""event"",""trial"",""time""
""fullscreenenter"",""0"",""1154545""
","
","1471.5999999996275","run_exp/static/images/Set 6_rs/134a.jpg","78","","","","","","learn","SR",""
"","show_choice","35","1221016","0.0-35.0","""event"",""trial"",""time""
""blur"",""0"",""0""
""focus"",""0"",""1152376""
""fullscreenenter"",""0"",""1154545""
","""event"",""trial"",""time""
""blur"",""0"",""0""
","""event"",""trial"",""time""
""focus"",""0"",""1152376""
","""event"",""trial"",""time""
""fullscreenenter"",""0"",""1154545""
","
","null","run_exp/static/images/Set 6_rs/134a.jpg","null","","","","","","learn","SR",""
"","html-keyboard-response","36","1221520","0.0-36.0","""event"",""trial"",""time""
""blur"",""0"",""0""
""focus"",""0"",""1152376""
""fullscreenenter"",""0"",""1154545""
","""event"",""trial"",""time""
""blur"",""0"",""0""
","""event"",""trial"",""time""
""focus"",""0"",""1152376""
","""event"",""trial"",""time""
""fullscreenenter"",""0"",""1154545""
","
","null","<p></p>","null","","","","","","","",""
"","image","37","1222476","0.0-37.0","""event"",""trial"",""time""
""blur"",""0"",""0""
""focus"",""0"",""1152376""
""fullscreenenter"",""0"",""1154545""
","""event"",""trial"",""time""
""blur"",""0"",""0""
","""event"",""trial"",""time""
""focus"",""0"",""1152376""
","""event"",""trial"",""time""
""fullscreenenter"",""0"",""1154545""
","
","954.9000000003725","run_exp/static/images/Set 6_rs/062a.jpg","86","","","","","","learn","SL",""
"","show_choice","38","1223526","0.0-38.0","""event"",""trial"",""time""
""blur"",""0"",""0""
""focus"",""0"",""1152376""
""fullscreenenter"",""0"",""1154545""
","""event"",""trial"",""time""
""blur"",""0"",""0""
","""event"",""trial"",""time""
""focus"",""0"",""1152376""
","""event"",""trial"",""time""
""fullscreenenter"",""0"",""1154545""
","
","null","run_exp/static/images/Set 6_rs/062a.jpg","null","","","","","","learn","SL",""
"","html-keyboard-response","39","1224028","0.0-39.0","""event"",""trial"",""time""
""blur"",""0"",""0""
""focus"",""0"",""1152376""
""fullscreenenter"",""0"",""1154545""
","""event"",""trial"",""time""
""blur"",""0"",""0""
","""event"",""trial"",""time""
""focus"",""0"",""1152376""
","""event"",""trial"",""time""
""fullscreenenter"",""0"",""1154545""
","
","null","<p></p>","null","","","","","","","",""
"","image","40","1224878","0.0-40.0","""event"",""trial"",""time""
""blur"",""0"",""0""
""focus"",""0"",""1152376""
""fullscreenenter"",""0"",""1154545""
","""event"",""trial"",""time""
""blur"",""0"",""0""
","""event"",""trial"",""time""
""focus"",""0"",""1152376""
","""event"",""trial"",""time""
""fullscreenenter"",""0"",""1154545""
","
","849.7999999998137","run_exp/static/images/Set 6_rs/073a.jpg","86","","","","","","learn","SL",""
"","show_choice","41","1226029","0.0-41.0","""event"",""trial"",""time""
""blur"",""0"",""0""
""focus"",""0"",""1152376""
""fullscreenenter"",""0"",""1154545""
","""event"",""trial"",""time""
""blur"",""0"",""0""
","""event"",""trial"",""time""
""focus"",""0"",""1152376""
","""event"",""trial"",""time""
""fullscreenenter"",""0"",""1154545""
","
","null","run_exp/static/images/Set 6_rs/073a.jpg","null","","","","","","learn","SL",""
"","html-keyboard-response","42","1226535","0.0-42.0","""event"",""trial"",""time""
""blur"",""0"",""0""
""focus"",""0"",""1152376""
""fullscreenenter"",""0"",""1154545""
","""event"",""trial"",""time""
""blur"",""0"",""0""
","""event"",""trial"",""time""
""focus"",""0"",""1152376""
","""event"",""trial"",""time""
""fullscreenenter"",""0"",""1154545""
","
","null","<p></p>","null","","","","","","","",""
"","image","43","1227283","0.0-43.0","""event"",""trial"",""time""
""blur"",""0"",""0""
""focus"",""0"",""1152376""
""fullscreenenter"",""0"",""1154545""
","""event"",""trial"",""time""
""blur"",""0"",""0""
","""event"",""trial"",""time""
""focus"",""0"",""1152376""
","""event"",""trial"",""time""
""fullscreenenter"",""0"",""1154545""
","
","747.1000000005588","run_exp/static/images/Set 6_rs/111a.jpg","86","","","","","","learn","SL",""
"","show_choice","44","1228537","0.0-44.0","""event"",""trial"",""time""
""blur"",""0"",""0""
""focus"",""0"",""1152376""
""fullscreenenter"",""0"",""1154545""
","""event"",""trial"",""time""
""blur"",""0"",""0""
","""event"",""trial"",""time""
""focus"",""0"",""1152376""
","""event"",""trial"",""time""
""fullscreenenter"",""0"",""1154545""
","
","null","run_exp/static/images/Set 6_rs/111a.jpg","null","","","","","","learn","SL",""
"","html-keyboard-response","45","1229043","0.0-45.0","""event"",""trial"",""time""
""blur"",""0"",""0""
""focus"",""0"",""1152376""
""fullscreenenter"",""0"",""1154545""
","""event"",""trial"",""time""
""blur"",""0"",""0""
","""event"",""trial"",""time""
""focus"",""0"",""1152376""
","""event"",""trial"",""time""
""fullscreenenter"",""0"",""1154545""
","
","null","<p></p>","null","","","","","","","",""
"","image","46","1229614","0.0-46.0","""event"",""trial"",""time""
""blur"",""0"",""0""
""focus"",""0"",""1152376""
""fullscreenenter"",""0"",""1154545""
","""event"",""trial"",""time""
""blur"",""0"",""0""
","""event"",""trial"",""time""
""focus"",""0"",""1152376""
","""event"",""trial"",""time""
""fullscreenenter"",""0"",""1154545""
","
","570.1000000005588","run_exp/static/images/Set 6_rs/187a.jpg","86","","","","","","learn","SR",""
"","show_choice","47","1231048","0.0-47.0","""event"",""trial"",""time""
""blur"",""0"",""0""
""focus"",""0"",""1152376""
""fullscreenenter"",""0"",""1154545""
","""event"",""trial"",""time""
""blur"",""0"",""0""
","""event"",""trial"",""time""
""focus"",""0"",""1152376""
","""event"",""trial"",""time""
""fullscreenenter"",""0"",""1154545""
","
","null","run_exp/static/images/Set 6_rs/187a.jpg","null","","","","","","learn","SR",""
"","html-keyboard-response","48","1231552","0.0-48.0","""event"",""trial"",""time""
""blur"",""0"",""0""
""focus"",""0"",""1152376""
""fullscreenenter"",""0"",""1154545""
","""event"",""trial"",""time""
""blur"",""0"",""0""
","""event"",""trial"",""time""
""focus"",""0"",""1152376""
","""event"",""trial"",""time""
""fullscreenenter"",""0"",""1154545""
","
","null","<p></p>","null","","","","","","","",""
"","image","49","1232220","0.0-49.0","""event"",""trial"",""time""
""blur"",""0"",""0""
""focus"",""0"",""1152376""
""fullscreenenter"",""0"",""1154545""
","""event"",""trial"",""time""
""blur"",""0"",""0""
","""event"",""trial"",""time""
""focus"",""0"",""1152376""
","""event"",""trial"",""time""
""fullscreenenter"",""0"",""1154545""
","
","666.9000000003725","run_exp/static/images/Set 6_rs/172a.jpg","78","","","","","","learn","SR",""
"","show_choice","50","1233555","0.0-50.0","""event"",""trial"",""time""
""blur"",""0"",""0""
""focus"",""0"",""1152376""
""fullscreenenter"",""0"",""1154545""
","""event"",""trial"",""time""
""blur"",""0"",""0""
","""event"",""trial"",""time""
""focus"",""0"",""1152376""
","""event"",""trial"",""time""
""fullscreenenter"",""0"",""1154545""
","
","null","run_exp/static/images/Set 6_rs/172a.jpg","null","","","","","","learn","SR",""
"","html-keyboard-response","51","1234061","0.0-51.0","""event"",""trial"",""time""
""blur"",""0"",""0""
""focus"",""0"",""1152376""
""fullscreenenter"",""0"",""1154545""
","""event"",""trial"",""time""
""blur"",""0"",""0""
","""event"",""trial"",""time""
""focus"",""0"",""1152376""
","""event"",""trial"",""time""
""fullscreenenter"",""0"",""1154545""
","
","null","<p></p>","null","","","","","","","",""
"","image","52","1234598","0.0-52.0","""event"",""trial"",""time""
""blur"",""0"",""0""
""focus"",""0"",""1152376""
""fullscreenenter"",""0"",""1154545""
","""event"",""trial"",""time""
""blur"",""0"",""0""
","""event"",""trial"",""time""
""focus"",""0"",""1152376""
","""event"",""trial"",""time""
""fullscreenenter"",""0"",""1154545""
","
","536.5","run_exp/static/images/Set 6_rs/141a.jpg","78","","","","","","learn","SR",""
"","show_choice","53","1236064","0.0-53.0","""event"",""trial"",""time""
""blur"",""0"",""0""
""focus"",""0"",""1152376""
""fullscreenenter"",""0"",""1154545""
","""event"",""trial"",""time""
""blur"",""0"",""0""
","""event"",""trial"",""time""
""focus"",""0"",""1152376""
","""event"",""trial"",""time""
""fullscreenenter"",""0"",""1154545""
","
","null","run_exp/static/images/Set 6_rs/141a.jpg","null","","","","","","learn","SR",""
"","html-keyboard-response","54","1236567","0.0-54.0","""event"",""trial"",""time""
""blur"",""0"",""0""
""focus"",""0"",""1152376""
""fullscreenenter"",""0"",""1154545""
","""event"",""trial"",""time""
""blur"",""0"",""0""
","""event"",""trial"",""time""
""focus"",""0"",""1152376""
","""event"",""trial"",""time""
""fullscreenenter"",""0"",""1154545""
","
","null","<p></p>","null","","","","","","","",""
"","image","55","1237284","0.0-55.0","""event"",""trial"",""time""
""blur"",""0"",""0""
""focus"",""0"",""1152376""
""fullscreenenter"",""0"",""1154545""
","""event"",""trial"",""time""
""blur"",""0"",""0""
","""event"",""trial"",""time""
""focus"",""0"",""1152376""
","""event"",""trial"",""time""
""fullscreenenter"",""0"",""1154545""
","
","715.7000000001863","run_exp/static/images/Set 6_rs/063a.jpg","86","","","","","","learn","SR",""
"","show_choice","56","1238571","0.0-56.0","""event"",""trial"",""time""
""blur"",""0"",""0""
""focus"",""0"",""1152376""
""fullscreenenter"",""0"",""1154545""
","""event"",""trial"",""time""
""blur"",""0"",""0""
","""event"",""trial"",""time""
""focus"",""0"",""1152376""
","""event"",""trial"",""time""
""fullscreenenter"",""0"",""1154545""
","
","null","run_exp/static/images/Set 6_rs/063a.jpg","null","","","","","","learn","SR",""
"","html-keyboard-response","57","1239072","0.0-57.0","""event"",""trial"",""time""
""blur"",""0"",""0""
""focus"",""0"",""1152376""
""fullscreenenter"",""0"",""1154545""
","""event"",""trial"",""time""
""blur"",""0"",""0""
","""event"",""trial"",""time""
""focus"",""0"",""1152376""
","""event"",""trial"",""time""
""fullscreenenter"",""0"",""1154545""
","
","null","<p></p>","null","","","","","","","",""
"","image","58","1239758","0.0-58.0","""event"",""trial"",""time""
""blur"",""0"",""0""
""focus"",""0"",""1152376""
""fullscreenenter"",""0"",""1154545""
","""event"",""trial"",""time""
""blur"",""0"",""0""
","""event"",""trial"",""time""
""focus"",""0"",""1152376""
","""event"",""trial"",""time""
""fullscreenenter"",""0"",""1154545""
","
","684.7999999998137","run_exp/static/images/Set 6_rs/191a.jpg","86","","","","","","learn","SL",""
"","show_choice","59","1241077","0.0-59.0","""event"",""trial"",""time""
""blur"",""0"",""0""
""focus"",""0"",""1152376""
""fullscreenenter"",""0"",""1154545""
","""event"",""trial"",""time""
""blur"",""0"",""0""
","""event"",""trial"",""time""
""focus"",""0"",""1152376""
","""event"",""trial"",""time""
""fullscreenenter"",""0"",""1154545""
","
","null","run_exp/static/images/Set 6_rs/191a.jpg","null","","","","","","learn","SL",""
"","html-keyboard-response","60","1241579","0.0-60.0","""event"",""trial"",""time""
""blur"",""0"",""0""
""focus"",""0"",""1152376""
""fullscreenenter"",""0"",""1154545""
","""event"",""trial"",""time""
""blur"",""0"",""0""
","""event"",""trial"",""time""
""focus"",""0"",""1152376""
","""event"",""trial"",""time""
""fullscreenenter"",""0"",""1154545""
","
","null","<p></p>","null","","","","","","","",""
"","image","61","1242363","0.0-61.0","""event"",""trial"",""time""
""blur"",""0"",""0""
""focus"",""0"",""1152376""
""fullscreenenter"",""0"",""1154545""
","""event"",""trial"",""time""
""blur"",""0"",""0""
","""event"",""trial"",""time""
""focus"",""0"",""1152376""
","""event"",""trial"",""time""
""fullscreenenter"",""0"",""1154545""
","
","783.2000000001863","run_exp/static/images/Set 6_rs/023a.jpg","86","","","","","","learn","SR",""
"","show_choice","62","1243583","0.0-62.0","""event"",""trial"",""time""
""blur"",""0"",""0""
""focus"",""0"",""1152376""
""fullscreenenter"",""0"",""1154545""
","""event"",""trial"",""time""
""blur"",""0"",""0""
","""event"",""trial"",""time""
""focus"",""0"",""1152376""
","""event"",""trial"",""time""
""fullscreenenter"",""0"",""1154545""
","
","null","run_exp/static/images/Set 6_rs/023a.jpg","null","","","","","","learn","SR",""
"","html-keyboard-response","63","1244089","0.0-63.0","""event"",""trial"",""time""
""blur"",""0"",""0""
""focus"",""0"",""1152376""
""fullscreenenter"",""0"",""1154545""
","""event"",""trial"",""time""
""blur"",""0"",""0""
","""event"",""trial"",""time""
""focus"",""0"",""1152376""
","""event"",""trial"",""time""
""fullscreenenter"",""0"",""1154545""
","
","null","<p></p>","null","","","","","","","",""
"","image","64","1245131","0.0-64.0","""event"",""trial"",""time""
""blur"",""0"",""0""
""focus"",""0"",""1152376""
""fullscreenenter"",""0"",""1154545""
","""event"",""trial"",""time""
""blur"",""0"",""0""
","""event"",""trial"",""time""
""focus"",""0"",""1152376""
","""event"",""trial"",""time""
""fullscreenenter"",""0"",""1154545""
","
","1041.8999999994412","run_exp/static/images/Set 6_rs/108a.jpg","78","","","","","","learn","SR",""
"","show_choice","65","1246092","0.0-65.0","""event"",""trial"",""time""
""blur"",""0"",""0""
""focus"",""0"",""1152376""
""fullscreenenter"",""0"",""1154545""
","""event"",""trial"",""time""
""blur"",""0"",""0""
","""event"",""trial"",""time""
""focus"",""0"",""1152376""
","""event"",""trial"",""time""
""fullscreenenter"",""0"",""1154545""
","
","null","run_exp/static/images/Set 6_rs/108a.jpg","null","","","","","","learn","SR",""
"","html-keyboard-response","66","1246593","0.0-66.0","""event"",""trial"",""time""
""blur"",""0"",""0""
""focus"",""0"",""1152376""
""fullscreenenter"",""0"",""1154545""
","""event"",""trial"",""time""
""blur"",""0"",""0""
","""event"",""trial"",""time""
""focus"",""0"",""1152376""
","""event"",""trial"",""time""
""fullscreenenter"",""0"",""1154545""
","
","null","<p></p>","null","","","","","","","",""
"","image","67","1247251","0.0-67.0","""event"",""trial"",""time""
""blur"",""0"",""0""
""focus"",""0"",""1152376""
""fullscreenenter"",""0"",""1154545""
","""event"",""trial"",""time""
""blur"",""0"",""0""
","""event"",""trial"",""time""
""focus"",""0"",""1152376""
","""event"",""trial"",""time""
""fullscreenenter"",""0"",""1154545""
","
","657.2000000001863","run_exp/static/images/Set 6_rs/070a.jpg","86","","","","","","learn","SR",""
"","show_choice","68","1248594","0.0-68.0","""event"",""trial"",""time""
""blur"",""0"",""0""
""focus"",""0"",""1152376""
""fullscreenenter"",""0"",""1154545""
","""event"",""trial"",""time""
""blur"",""0"",""0""
","""event"",""trial"",""time""
""focus"",""0"",""1152376""
","""event"",""trial"",""time""
""fullscreenenter"",""0"",""1154545""
","
","null","run_exp/static/images/Set 6_rs/070a.jpg","null","","","","","","learn","SR",""
"","html-keyboard-response","69","1249095","0.0-69.0","""event"",""trial"",""time""
""blur"",""0"",""0""
""focus"",""0"",""1152376""
""fullscreenenter"",""0"",""1154545""
","""event"",""trial"",""time""
""blur"",""0"",""0""
","""event"",""trial"",""time""
""focus"",""0"",""1152376""
","""event"",""trial"",""time""
""fullscreenenter"",""0"",""1154545""
","
","null","<p></p>","null","","","","","","","",""
"","image","70","1250302","0.0-70.0","""event"",""trial"",""time""
""blur"",""0"",""0""
""focus"",""0"",""1152376""
""fullscreenenter"",""0"",""1154545""
","""event"",""trial"",""time""
""blur"",""0"",""0""
","""event"",""trial"",""time""
""focus"",""0"",""1152376""
","""event"",""trial"",""time""
""fullscreenenter"",""0"",""1154545""
","
","1205.800000000745","run_exp/static/images/Set 6_rs/117a.jpg","86","","","","","","learn","SL",""
"","show_choice","71","1251097","0.0-71.0","""event"",""trial"",""time""
""blur"",""0"",""0""
""focus"",""0"",""1152376""
""fullscreenenter"",""0"",""1154545""
","""event"",""trial"",""time""
""blur"",""0"",""0""
","""event"",""trial"",""time""
""focus"",""0"",""1152376""
","""event"",""trial"",""time""
""fullscreenenter"",""0"",""1154545""
","
","null","run_exp/static/images/Set 6_rs/117a.jpg","null","","","","","","learn","SL",""
"","html-keyboard-response","72","1251603","0.0-72.0","""event"",""trial"",""time""
""blur"",""0"",""0""
""focus"",""0"",""1152376""
""fullscreenenter"",""0"",""1154545""
","""event"",""trial"",""time""
""blur"",""0"",""0""
","""event"",""trial"",""time""
""focus"",""0"",""1152376""
","""event"",""trial"",""time""
""fullscreenenter"",""0"",""1154545""
","
","null","<p></p>","null","","","","","","","",""
"","image","73","1252852","0.0-73.0","""event"",""trial"",""time""
""blur"",""0"",""0""
""focus"",""0"",""1152376""
""fullscreenenter"",""0"",""1154545""
","""event"",""trial"",""time""
""blur"",""0"",""0""
","""event"",""trial"",""time""
""focus"",""0"",""1152376""
","""event"",""trial"",""time""
""fullscreenenter"",""0"",""1154545""
","
","1248.1000000005588","run_exp/static/images/Set 6_rs/089a.jpg","86","","","","","","learn","SL",""
"","show_choice","74","1253607","0.0-74.0","""event"",""trial"",""time""
""blur"",""0"",""0""
""focus"",""0"",""1152376""
""fullscreenenter"",""0"",""1154545""
","""event"",""trial"",""time""
""blur"",""0"",""0""
","""event"",""trial"",""time""
""focus"",""0"",""1152376""
","""event"",""trial"",""time""
""fullscreenenter"",""0"",""1154545""
","
","null","run_exp/static/images/Set 6_rs/089a.jpg","null","","","","","","learn","SL",""
"","html-keyboard-response","75","1254108","0.0-75.0","""event"",""trial"",""time""
""blur"",""0"",""0""
""focus"",""0"",""1152376""
""fullscreenenter"",""0"",""1154545""
","""event"",""trial"",""time""
""blur"",""0"",""0""
","""event"",""trial"",""time""
""focus"",""0"",""1152376""
","""event"",""trial"",""time""
""fullscreenenter"",""0"",""1154545""
","
","null","<p></p>","null","","","","","","","",""
"","image","76","1254893","0.0-76.0","""event"",""trial"",""time""
""blur"",""0"",""0""
""focus"",""0"",""1152376""
""fullscreenenter"",""0"",""1154545""
","""event"",""trial"",""time""
""blur"",""0"",""0""
","""event"",""trial"",""time""
""focus"",""0"",""1152376""
","""event"",""trial"",""time""
""fullscreenenter"",""0"",""1154545""
","
","784.5","run_exp/static/images/Set 6_rs/095a.jpg","86","","","","","","learn","SL",""
"","show_choice","77","1256111","0.0-77.0","""event"",""trial"",""time""
""blur"",""0"",""0""
""focus"",""0"",""1152376""
""fullscreenenter"",""0"",""1154545""
","""event"",""trial"",""time""
""blur"",""0"",""0""
","""event"",""trial"",""time""
""focus"",""0"",""1152376""
","""event"",""trial"",""time""
""fullscreenenter"",""0"",""1154545""
","
","null","run_exp/static/images/Set 6_rs/095a.jpg","null","","","","","","learn","SL",""
"","html-keyboard-response","78","1256614","0.0-78.0","""event"",""trial"",""time""
""blur"",""0"",""0""
""focus"",""0"",""1152376""
""fullscreenenter"",""0"",""1154545""
","""event"",""trial"",""time""
""blur"",""0"",""0""
","""event"",""trial"",""time""
""focus"",""0"",""1152376""
","""event"",""trial"",""time""
""fullscreenenter"",""0"",""1154545""
","
","null","<p></p>","null","","","","","","","",""
"","image","79","1257179","0.0-79.0","""event"",""trial"",""time""
""blur"",""0"",""0""
""focus"",""0"",""1152376""
""fullscreenenter"",""0"",""1154545""
","""event"",""trial"",""time""
""blur"",""0"",""0""
","""event"",""trial"",""time""
""focus"",""0"",""1152376""
","""event"",""trial"",""time""
""fullscreenenter"",""0"",""1154545""
","
","564.2999999998137","run_exp/static/images/Set 6_rs/050a.jpg","86","","","","","","learn","SL",""
"","show_choice","80","1258616","0.0-80.0","""event"",""trial"",""time""
""blur"",""0"",""0""
""focus"",""0"",""1152376""
""fullscreenenter"",""0"",""1154545""
","""event"",""trial"",""time""
""blur"",""0"",""0""
","""event"",""trial"",""time""
""focus"",""0"",""1152376""
","""event"",""trial"",""time""
""fullscreenenter"",""0"",""1154545""
","
","null","run_exp/static/images/Set 6_rs/050a.jpg","null","","","","","","learn","SL",""
"","html-keyboard-response","81","1259122","0.0-81.0","""event"",""trial"",""time""
""blur"",""0"",""0""
""focus"",""0"",""1152376""
""fullscreenenter"",""0"",""1154545""
","""event"",""trial"",""time""
""blur"",""0"",""0""
","""event"",""trial"",""time""
""focus"",""0"",""1152376""
","""event"",""trial"",""time""
""fullscreenenter"",""0"",""1154545""
","
","null","<p></p>","null","","","","","","","",""
"","image","82","1259798","0.0-82.0","""event"",""trial"",""time""
""blur"",""0"",""0""
""focus"",""0"",""1152376""
""fullscreenenter"",""0"",""1154545""
","""event"",""trial"",""time""
""blur"",""0"",""0""
","""event"",""trial"",""time""
""focus"",""0"",""1152376""
","""event"",""trial"",""time""
""fullscreenenter"",""0"",""1154545""
","
","675","run_exp/static/images/Set 6_rs/010a.jpg","86","","","","","","learn","SR",""
"","show_choice","83","1261125","0.0-83.0","""event"",""trial"",""time""
""blur"",""0"",""0""
""focus"",""0"",""1152376""
""fullscreenenter"",""0"",""1154545""
","""event"",""trial"",""time""
""blur"",""0"",""0""
","""event"",""trial"",""time""
""focus"",""0"",""1152376""
","""event"",""trial"",""time""
""fullscreenenter"",""0"",""1154545""
","
","null","run_exp/static/images/Set 6_rs/010a.jpg","null","","","","","","learn","SR",""
"","html-keyboard-response","84","1261628","0.0-84.0","""event"",""trial"",""time""
""blur"",""0"",""0""
""focus"",""0"",""1152376""
""fullscreenenter"",""0"",""1154545""
","""event"",""trial"",""time""
""blur"",""0"",""0""
","""event"",""trial"",""time""
""focus"",""0"",""1152376""
","""event"",""trial"",""time""
""fullscreenenter"",""0"",""1154545""
","
","null","<p></p>","null","","","","","","","",""
"","image","85","1262147","0.0-85.0","""event"",""trial"",""time""
""blur"",""0"",""0""
""focus"",""0"",""1152376""
""fullscreenenter"",""0"",""1154545""
","""event"",""trial"",""time""
""blur"",""0"",""0""
","""event"",""trial"",""time""
""focus"",""0"",""1152376""
","""event"",""trial"",""time""
""fullscreenenter"",""0"",""1154545""
","
","518.2000000001863","run_exp/static/images/Set 6_rs/024a.jpg","86","","","","","","learn","SR",""
"","show_choice","86","1263634","0.0-86.0","""event"",""trial"",""time""
""blur"",""0"",""0""
""focus"",""0"",""1152376""
""fullscreenenter"",""0"",""1154545""
","""event"",""trial"",""time""
""blur"",""0"",""0""
","""event"",""trial"",""time""
""focus"",""0"",""1152376""
","""event"",""trial"",""time""
""fullscreenenter"",""0"",""1154545""
","
","null","run_exp/static/images/Set 6_rs/024a.jpg","null","","","","","","learn","SR",""
"","html-keyboard-response","87","1264139","0.0-87.0","""event"",""trial"",""time""
""blur"",""0"",""0""
""focus"",""0"",""1152376""
""fullscreenenter"",""0"",""1154545""
","""event"",""trial"",""time""
""blur"",""0"",""0""
","""event"",""trial"",""time""
""focus"",""0"",""1152376""
","""event"",""trial"",""time""
""fullscreenenter"",""0"",""1154545""
","
","null","<p></p>","null","","","","","","","",""
"","image","88","1264662","0.0-88.0","""event"",""trial"",""time""
""blur"",""0"",""0""
""focus"",""0"",""1152376""
""fullscreenenter"",""0"",""1154545""
","""event"",""trial"",""time""
""blur"",""0"",""0""
","""event"",""trial"",""time""
""focus"",""0"",""1152376""
","""event"",""trial"",""time""
""fullscreenenter"",""0"",""1154545""
","
","522.1000000005588","run_exp/static/images/Set 6_rs/167a.jpg","86","","","","","","learn","SL",""
"","show_choice","89","1266142","0.0-89.0","""event"",""trial"",""time""
""blur"",""0"",""0""
""focus"",""0"",""1152376""
""fullscreenenter"",""0"",""1154545""
","""event"",""trial"",""time""
""blur"",""0"",""0""
","""event"",""trial"",""time""
""focus"",""0"",""1152376""
","""event"",""trial"",""time""
""fullscreenenter"",""0"",""1154545""
","
","null","run_exp/static/images/Set 6_rs/167a.jpg","null","","","","","","learn","SL",""
"","html-keyboard-response","90","1266648","0.0-90.0","""event"",""trial"",""time""
""blur"",""0"",""0""
""focus"",""0"",""1152376""
""fullscreenenter"",""0"",""1154545""
","""event"",""trial"",""time""
""blur"",""0"",""0""
","""event"",""trial"",""time""
""focus"",""0"",""1152376""
","""event"",""trial"",""time""
""fullscreenenter"",""0"",""1154545""
","
","null","<p></p>","null","","","","","","","",""
"","image","91","1267619","0.0-91.0","""event"",""trial"",""time""
""blur"",""0"",""0""
""focus"",""0"",""1152376""
""fullscreenenter"",""0"",""1154545""
","""event"",""trial"",""time""
""blur"",""0"",""0""
","""event"",""trial"",""time""
""focus"",""0"",""1152376""
","""event"",""trial"",""time""
""fullscreenenter"",""0"",""1154545""
","
","970.5","run_exp/static/images/Set 6_rs/091a.jpg","86","","","","","","learn","SL",""
"","show_choice","92","1268654","0.0-92.0","""event"",""trial"",""time""
""blur"",""0"",""0""
""focus"",""0"",""1152376""
""fullscreenenter"",""0"",""1154545""
","""event"",""trial"",""time""
""blur"",""0"",""0""
","""event"",""trial"",""time""
""focus"",""0"",""1152376""
","""event"",""trial"",""time""
""fullscreenenter"",""0"",""1154545""
","
","null","run_exp/static/images/Set 6_rs/091a.jpg","null","","","","","","learn","SL",""
"","html-keyboard-response","93","1269160","0.0-93.0","""event"",""trial"",""time""
""blur"",""0"",""0""
""focus"",""0"",""1152376""
""fullscreenenter"",""0"",""1154545""
","""event"",""trial"",""time""
""blur"",""0"",""0""
","""event"",""trial"",""time""
""focus"",""0"",""1152376""
","""event"",""trial"",""time""
""fullscreenenter"",""0"",""1154545""
","
","null","<p></p>","null","","","","","","","",""
"","image","94","1270869","0.0-94.0","""event"",""trial"",""time""
""blur"",""0"",""0""
""focus"",""0"",""1152376""
""fullscreenenter"",""0"",""1154545""
","""event"",""trial"",""time""
""blur"",""0"",""0""
","""event"",""trial"",""time""
""focus"",""0"",""1152376""
","""event"",""trial"",""time""
""fullscreenenter"",""0"",""1154545""
","
","1709","run_exp/static/images/Set 6_rs/019a.jpg","86","","","","","","learn","SL",""
"","show_choice","95","1271166","0.0-95.0","""event"",""trial"",""time""
""blur"",""0"",""0""
""focus"",""0"",""1152376""
""fullscreenenter"",""0"",""1154545""
","""event"",""trial"",""time""
""blur"",""0"",""0""
","""event"",""trial"",""time""
""focus"",""0"",""1152376""
","""event"",""trial"",""time""
""fullscreenenter"",""0"",""1154545""
","
","null","run_exp/static/images/Set 6_rs/019a.jpg","null","","","","","","learn","SL",""
"","html-keyboard-response","96","1271667","0.0-96.0","""event"",""trial"",""time""
""blur"",""0"",""0""
""focus"",""0"",""1152376""
""fullscreenenter"",""0"",""1154545""
","""event"",""trial"",""time""
""blur"",""0"",""0""
","""event"",""trial"",""time""
""focus"",""0"",""1152376""
","""event"",""trial"",""time""
""fullscreenenter"",""0"",""1154545""
","
","null","<p></p>","null","","","","","","","",""
"","image","97","1272851","0.0-97.0","""event"",""trial"",""time""
""blur"",""0"",""0""
""focus"",""0"",""1152376""
""fullscreenenter"",""0"",""1154545""
","""event"",""trial"",""time""
""blur"",""0"",""0""
","""event"",""trial"",""time""
""focus"",""0"",""1152376""
","""event"",""trial"",""time""
""fullscreenenter"",""0"",""1154545""
","
","1183.2999999998137","run_exp/static/images/Set 6_rs/154a.jpg","86","","","","","","learn","SR",""
"","show_choice","98","1273671","0.0-98.0","""event"",""trial"",""time""
""blur"",""0"",""0""
""focus"",""0"",""1152376""
""fullscreenenter"",""0"",""1154545""
","""event"",""trial"",""time""
""blur"",""0"",""0""
","""event"",""trial"",""time""
""focus"",""0"",""1152376""
","""event"",""trial"",""time""
""fullscreenenter"",""0"",""1154545""
","
","null","run_exp/static/images/Set 6_rs/154a.jpg","null","","","","","","learn","SR",""
"","html-keyboard-response","99","1274176","0.0-99.0","""event"",""trial"",""time""
""blur"",""0"",""0""
""focus"",""0"",""1152376""
""fullscreenenter"",""0"",""1154545""
","""event"",""trial"",""time""
""blur"",""0"",""0""
","""event"",""trial"",""time""
""focus"",""0"",""1152376""
","""event"",""trial"",""time""
""fullscreenenter"",""0"",""1154545""
","
","null","<p></p>","null","","","","","","","",""
"","image","100","1275182","0.0-100.0","""event"",""trial"",""time""
""blur"",""0"",""0""
""focus"",""0"",""1152376""
""fullscreenenter"",""0"",""1154545""
","""event"",""trial"",""time""
""blur"",""0"",""0""
","""event"",""trial"",""time""
""focus"",""0"",""1152376""
","""event"",""trial"",""time""
""fullscreenenter"",""0"",""1154545""
","
","1004.5","run_exp/static/images/Set 6_rs/152a.jpg","86","","","","","","learn","SR",""
"","show_choice","101","1276183","0.0-101.0","""event"",""trial"",""time""
""blur"",""0"",""0""
""focus"",""0"",""1152376""
""fullscreenenter"",""0"",""1154545""
","""event"",""trial"",""time""
""blur"",""0"",""0""
","""event"",""trial"",""time""
""focus"",""0"",""1152376""
","""event"",""trial"",""time""
""fullscreenenter"",""0"",""1154545""
","
","null","run_exp/static/images/Set 6_rs/152a.jpg","null","","","","","","learn","SR",""
"","html-keyboard-response","102","1276689","0.0-102.0","""event"",""trial"",""time""
""blur"",""0"",""0""
""focus"",""0"",""1152376""
""fullscreenenter"",""0"",""1154545""
","""event"",""trial"",""time""
""blur"",""0"",""0""
","""event"",""trial"",""time""
""focus"",""0"",""1152376""
","""event"",""trial"",""time""
""fullscreenenter"",""0"",""1154545""
","
","null","<p></p>","null","","","","","","","",""
"","image","103","1277459","0.0-103.0","""event"",""trial"",""time""
""blur"",""0"",""0""
""focus"",""0"",""1152376""
""fullscreenenter"",""0"",""1154545""
","""event"",""trial"",""time""
""blur"",""0"",""0""
","""event"",""trial"",""time""
""focus"",""0"",""1152376""
","""event"",""trial"",""time""
""fullscreenenter"",""0"",""1154545""
","
","769.2000000001863","run_exp/static/images/Set 6_rs/169a.jpg","78","","","","","","learn","SR",""
"","show_choice","104","1278693","0.0-104.0","""event"",""trial"",""time""
""blur"",""0"",""0""
""focus"",""0"",""1152376""
""fullscreenenter"",""0"",""1154545""
","""event"",""trial"",""time""
""blur"",""0"",""0""
","""event"",""trial"",""time""
""focus"",""0"",""1152376""
","""event"",""trial"",""time""
""fullscreenenter"",""0"",""1154545""
","
","null","run_exp/static/images/Set 6_rs/169a.jpg","null","","","","","","learn","SR",""
"","html-keyboard-response","105","1279196","0.0-105.0","""event"",""trial"",""time""
""blur"",""0"",""0""
""focus"",""0"",""1152376""
""fullscreenenter"",""0"",""1154545""
","""event"",""trial"",""time""
""blur"",""0"",""0""
","""event"",""trial"",""time""
""focus"",""0"",""1152376""
","""event"",""trial"",""time""
""fullscreenenter"",""0"",""1154545""
","
","null","<p></p>","null","","","","","","","",""
"","image","106","1279971","0.0-106.0","""event"",""trial"",""time""
""blur"",""0"",""0""
""focus"",""0"",""1152376""
""fullscreenenter"",""0"",""1154545""
","""event"",""trial"",""time""
""blur"",""0"",""0""
","""event"",""trial"",""time""
""focus"",""0"",""1152376""
","""event"",""trial"",""time""
""fullscreenenter"",""0"",""1154545""
","
","773.8000000007451","run_exp/static/images/Set 6_rs/055a.jpg","86","","","","","","learn","SL",""
"","show_choice","107","1281202","0.0-107.0","""event"",""trial"",""time""
""blur"",""0"",""0""
""focus"",""0"",""1152376""
""fullscreenenter"",""0"",""1154545""
","""event"",""trial"",""time""
""blur"",""0"",""0""
","""event"",""trial"",""time""
""focus"",""0"",""1152376""
","""event"",""trial"",""time""
""fullscreenenter"",""0"",""1154545""
","
","null","run_exp/static/images/Set 6_rs/055a.jpg","null","","","","","","learn","SL",""
"","html-keyboard-response","108","1281703","0.0-108.0","""event"",""trial"",""time""
""blur"",""0"",""0""
""focus"",""0"",""1152376""
""fullscreenenter"",""0"",""1154545""
","""event"",""trial"",""time""
""blur"",""0"",""0""
","""event"",""trial"",""time""
""focus"",""0"",""1152376""
","""event"",""trial"",""time""
""fullscreenenter"",""0"",""1154545""
","
","null","<p></p>","null","","","","","","","",""
"","image","109","1282451","0.0-109.0","""event"",""trial"",""time""
""blur"",""0"",""0""
""focus"",""0"",""1152376""
""fullscreenenter"",""0"",""1154545""
","""event"",""trial"",""time""
""blur"",""0"",""0""
","""event"",""trial"",""time""
""focus"",""0"",""1152376""
","""event"",""trial"",""time""
""fullscreenenter"",""0"",""1154545""
","
","746.6000000005588","run_exp/static/images/Set 6_rs/178a.jpg","78","","","","","","learn","SR",""
"","show_choice","110","1283707","0.0-110.0","""event"",""trial"",""time""
""blur"",""0"",""0""
""focus"",""0"",""1152376""
""fullscreenenter"",""0"",""1154545""
","""event"",""trial"",""time""
""blur"",""0"",""0""
","""event"",""trial"",""time""
""focus"",""0"",""1152376""
","""event"",""trial"",""time""
""fullscreenenter"",""0"",""1154545""
","
","null","run_exp/static/images/Set 6_rs/178a.jpg","null","","","","","","learn","SR",""
"","html-keyboard-response","111","1284211","0.0-111.0","""event"",""trial"",""time""
""blur"",""0"",""0""
""focus"",""0"",""1152376""
""fullscreenenter"",""0"",""1154545""
","""event"",""trial"",""time""
""blur"",""0"",""0""
","""event"",""trial"",""time""
""focus"",""0"",""1152376""
","""event"",""trial"",""time""
""fullscreenenter"",""0"",""1154545""
","
","null","<p></p>","null","","","","","","","",""
"","image","112","1285243","0.0-112.0","""event"",""trial"",""time""
""blur"",""0"",""0""
""focus"",""0"",""1152376""
""fullscreenenter"",""0"",""1154545""
","""event"",""trial"",""time""
""blur"",""0"",""0""
","""event"",""trial"",""time""
""focus"",""0"",""1152376""
","""event"",""trial"",""time""
""fullscreenenter"",""0"",""1154545""
","
","1031.5","run_exp/static/images/Set 6_rs/066a.jpg","86","","","","","","learn","SL",""
"","show_choice","113","1286217","0.0-113.0","""event"",""trial"",""time""
""blur"",""0"",""0""
""focus"",""0"",""1152376""
""fullscreenenter"",""0"",""1154545""
","""event"",""trial"",""time""
""blur"",""0"",""0""
","""event"",""trial"",""time""
""focus"",""0"",""1152376""
","""event"",""trial"",""time""
""fullscreenenter"",""0"",""1154545""
","
","null","run_exp/static/images/Set 6_rs/066a.jpg","null","","","","","","learn","SL",""
"","html-keyboard-response","114","1286723","0.0-114.0","""event"",""trial"",""time""
""blur"",""0"",""0""
""focus"",""0"",""1152376""
""fullscreenenter"",""0"",""1154545""
","""event"",""trial"",""time""
""blur"",""0"",""0""
","""event"",""trial"",""time""
""focus"",""0"",""1152376""
","""event"",""trial"",""time""
""fullscreenenter"",""0"",""1154545""
","
","null","<p></p>","null","","","","","","","",""
"","image","115","1287357","0.0-115.0","""event"",""trial"",""time""
""blur"",""0"",""0""
""focus"",""0"",""1152376""
""fullscreenenter"",""0"",""1154545""
","""event"",""trial"",""time""
""blur"",""0"",""0""
","""event"",""trial"",""time""
""focus"",""0"",""1152376""
","""event"",""trial"",""time""
""fullscreenenter"",""0"",""1154545""
","
","633.2000000001863","run_exp/static/images/Set 6_rs/112a.jpg","86","","","","","","learn","SR",""
"","show_choice","116","1288728","0.0-116.0","""event"",""trial"",""time""
""blur"",""0"",""0""
""focus"",""0"",""1152376""
""fullscreenenter"",""0"",""1154545""
","""event"",""trial"",""time""
""blur"",""0"",""0""
","""event"",""trial"",""time""
""focus"",""0"",""1152376""
","""event"",""trial"",""time""
""fullscreenenter"",""0"",""1154545""
","
","null","run_exp/static/images/Set 6_rs/112a.jpg","null","","","","","","learn","SR",""
"","html-keyboard-response","117","1289230","0.0-117.0","""event"",""trial"",""time""
""blur"",""0"",""0""
""focus"",""0"",""1152376""
""fullscreenenter"",""0"",""1154545""
","""event"",""trial"",""time""
""blur"",""0"",""0""
","""event"",""trial"",""time""
""focus"",""0"",""1152376""
","""event"",""trial"",""time""
""fullscreenenter"",""0"",""1154545""
","
","null","<p></p>","null","","","","","","","",""
"","image","118","1290090","0.0-118.0","""event"",""trial"",""time""
""blur"",""0"",""0""
""focus"",""0"",""1152376""
""fullscreenenter"",""0"",""1154545""
","""event"",""trial"",""time""
""blur"",""0"",""0""
","""event"",""trial"",""time""
""focus"",""0"",""1152376""
","""event"",""trial"",""time""
""fullscreenenter"",""0"",""1154545""
","
","859.8999999994412","run_exp/static/images/Set 6_rs/168a.jpg","86","","","","","","learn","SL",""
"","show_choice","119","1291232","0.0-119.0","""event"",""trial"",""time""
""blur"",""0"",""0""
""focus"",""0"",""1152376""
""fullscreenenter"",""0"",""1154545""
","""event"",""trial"",""time""
""blur"",""0"",""0""
","""event"",""trial"",""time""
""focus"",""0"",""1152376""
","""event"",""trial"",""time""
""fullscreenenter"",""0"",""1154545""
","
","null","run_exp/static/images/Set 6_rs/168a.jpg","null","","","","","","learn","SL",""
"","html-keyboard-response","120","1291738","0.0-120.0","""event"",""trial"",""time""
""blur"",""0"",""0""
""focus"",""0"",""1152376""
""fullscreenenter"",""0"",""1154545""
","""event"",""trial"",""time""
""blur"",""0"",""0""
","""event"",""trial"",""time""
""focus"",""0"",""1152376""
","""event"",""trial"",""time""
""fullscreenenter"",""0"",""1154545""
","
","null","<p></p>","null","","","","","","","",""
"","image","121","1292277","0.0-121.0","""event"",""trial"",""time""
""blur"",""0"",""0""
""focus"",""0"",""1152376""
""fullscreenenter"",""0"",""1154545""
","""event"",""trial"",""time""
""blur"",""0"",""0""
","""event"",""trial"",""time""
""focus"",""0"",""1152376""
","""event"",""trial"",""time""
""fullscreenenter"",""0"",""1154545""
","
","537.8000000007451","run_exp/static/images/Set 6_rs/116a.jpg","86","","","","","","learn","SL",""
"","show_choice","122","1293745","0.0-122.0","""event"",""trial"",""time""
""blur"",""0"",""0""
""focus"",""0"",""1152376""
""fullscreenenter"",""0"",""1154545""
","""event"",""trial"",""time""
""blur"",""0"",""0""
","""event"",""trial"",""time""
""focus"",""0"",""1152376""
","""event"",""trial"",""time""
""fullscreenenter"",""0"",""1154545""
","
","null","run_exp/static/images/Set 6_rs/116a.jpg","null","","","","","","learn","SL",""
"","html-keyboard-response","123","1294246","0.0-123.0","""event"",""trial"",""time""
""blur"",""0"",""0""
""focus"",""0"",""1152376""
""fullscreenenter"",""0"",""1154545""
","""event"",""trial"",""time""
""blur"",""0"",""0""
","""event"",""trial"",""time""
""focus"",""0"",""1152376""
","""event"",""trial"",""time""
""fullscreenenter"",""0"",""1154545""
","
","null","<p></p>","null","","","","","","","",""
"","image","124","1294954","0.0-124.0","""event"",""trial"",""time""
""blur"",""0"",""0""
""focus"",""0"",""1152376""
""fullscreenenter"",""0"",""1154545""
","""event"",""trial"",""time""
""blur"",""0"",""0""
","""event"",""trial"",""time""
""focus"",""0"",""1152376""
","""event"",""trial"",""time""
""fullscreenenter"",""0"",""1154545""
","
","707.6000000005588","run_exp/static/images/Set 6_rs/150a.jpg","86","","","","","","learn","SR",""
"","show_choice","125","1296248","0.0-125.0","""event"",""trial"",""time""
""blur"",""0"",""0""
""focus"",""0"",""1152376""
""fullscreenenter"",""0"",""1154545""
","""event"",""trial"",""time""
""blur"",""0"",""0""
","""event"",""trial"",""time""
""focus"",""0"",""1152376""
","""event"",""trial"",""time""
""fullscreenenter"",""0"",""1154545""
","
","null","run_exp/static/images/Set 6_rs/150a.jpg","null","","","","","","learn","SR",""
"","html-keyboard-response","126","1296754","0.0-126.0","""event"",""trial"",""time""
""blur"",""0"",""0""
""focus"",""0"",""1152376""
""fullscreenenter"",""0"",""1154545""
","""event"",""trial"",""time""
""blur"",""0"",""0""
","""event"",""trial"",""time""
""focus"",""0"",""1152376""
","""event"",""trial"",""time""
""fullscreenenter"",""0"",""1154545""
","
","null","<p></p>","null","","","","","","","",""
"","image","127","1297347","0.0-127.0","""event"",""trial"",""time""
""blur"",""0"",""0""
""focus"",""0"",""1152376""
""fullscreenenter"",""0"",""1154545""
","""event"",""trial"",""time""
""blur"",""0"",""0""
","""event"",""trial"",""time""
""focus"",""0"",""1152376""
","""event"",""trial"",""time""
""fullscreenenter"",""0"",""1154545""
","
","590.9000000003725","run_exp/static/images/Set 6_rs/025a.jpg","78","","","","","","learn","SL",""
"","show_choice","128","1298761","0.0-128.0","""event"",""trial"",""time""
""blur"",""0"",""0""
""focus"",""0"",""1152376""
""fullscreenenter"",""0"",""1154545""
","""event"",""trial"",""time""
""blur"",""0"",""0""
","""event"",""trial"",""time""
""focus"",""0"",""1152376""
","""event"",""trial"",""time""
""fullscreenenter"",""0"",""1154545""
","
","null","run_exp/static/images/Set 6_rs/025a.jpg","null","","","","","","learn","SL",""
"","html-keyboard-response","129","1299262","0.0-129.0","""event"",""trial"",""time""
""blur"",""0"",""0""
""focus"",""0"",""1152376""
""fullscreenenter"",""0"",""1154545""
","""event"",""trial"",""time""
""blur"",""0"",""0""
","""event"",""trial"",""time""
""focus"",""0"",""1152376""
","""event"",""trial"",""time""
""fullscreenenter"",""0"",""1154545""
","
","null","<p></p>","null","","","","","","","",""
"","image","130","1299866","0.0-130.0","""event"",""trial"",""time""
""blur"",""0"",""0""
""focus"",""0"",""1152376""
""fullscreenenter"",""0"",""1154545""
","""event"",""trial"",""time""
""blur"",""0"",""0""
","""event"",""trial"",""time""
""focus"",""0"",""1152376""
","""event"",""trial"",""time""
""fullscreenenter"",""0"",""1154545""
","
","602.5999999996275","run_exp/static/images/Set 6_rs/079a.jpg","86","","","","","","learn","SL",""
"","show_choice","131","1301269","0.0-131.0","""event"",""trial"",""time""
""blur"",""0"",""0""
""focus"",""0"",""1152376""
""fullscreenenter"",""0"",""1154545""
","""event"",""trial"",""time""
""blur"",""0"",""0""
","""event"",""trial"",""time""
""focus"",""0"",""1152376""
","""event"",""trial"",""time""
""fullscreenenter"",""0"",""1154545""
","
","null","run_exp/static/images/Set 6_rs/079a.jpg","null","","","","","","learn","SL",""
"","html-keyboard-response","132","1301771","0.0-132.0","""event"",""trial"",""time""
""blur"",""0"",""0""
""focus"",""0"",""1152376""
""fullscreenenter"",""0"",""1154545""
","""event"",""trial"",""time""
""blur"",""0"",""0""
","""event"",""trial"",""time""
""focus"",""0"",""1152376""
","""event"",""trial"",""time""
""fullscreenenter"",""0"",""1154545""
","
","null","<p></p>","null","","","","","","","",""
"","image","133","1302468","0.0-133.0","""event"",""trial"",""time""
""blur"",""0"",""0""
""focus"",""0"",""1152376""
""fullscreenenter"",""0"",""1154545""
","""event"",""trial"",""time""
""blur"",""0"",""0""
","""event"",""trial"",""time""
""focus"",""0"",""1152376""
","""event"",""trial"",""time""
""fullscreenenter"",""0"",""1154545""
","
","696.5","run_exp/static/images/Set 6_rs/007a.jpg","86","","","","","","learn","SR",""
"","show_choice","134","1303772","0.0-134.0","""event"",""trial"",""time""
""blur"",""0"",""0""
""focus"",""0"",""1152376""
""fullscreenenter"",""0"",""1154545""
","""event"",""trial"",""time""
""blur"",""0"",""0""
","""event"",""trial"",""time""
""focus"",""0"",""1152376""
","""event"",""trial"",""time""
""fullscreenenter"",""0"",""1154545""
","
","null","run_exp/static/images/Set 6_rs/007a.jpg","null","","","","","","learn","SR",""
"","html-keyboard-response","135","1304276","0.0-135.0","""event"",""trial"",""time""
""blur"",""0"",""0""
""focus"",""0"",""1152376""
""fullscreenenter"",""0"",""1154545""
","""event"",""trial"",""time""
""blur"",""0"",""0""
","""event"",""trial"",""time""
""focus"",""0"",""1152376""
","""event"",""trial"",""time""
""fullscreenenter"",""0"",""1154545""
","
","null","<p></p>","null","","","","","","","",""
"","image","136","1304826","0.0-136.0","""event"",""trial"",""time""
""blur"",""0"",""0""
""focus"",""0"",""1152376""
""fullscreenenter"",""0"",""1154545""
","""event"",""trial"",""time""
""blur"",""0"",""0""
","""event"",""trial"",""time""
""focus"",""0"",""1152376""
","""event"",""trial"",""time""
""fullscreenenter"",""0"",""1154545""
","
","549.0999999996275","run_exp/static/images/Set 6_rs/075a.jpg","86","","","","","","learn","SR",""
"","show_choice","137","1306280","0.0-137.0","""event"",""trial"",""time""
""blur"",""0"",""0""
""focus"",""0"",""1152376""
""fullscreenenter"",""0"",""1154545""
","""event"",""trial"",""time""
""blur"",""0"",""0""
","""event"",""trial"",""time""
""focus"",""0"",""1152376""
","""event"",""trial"",""time""
""fullscreenenter"",""0"",""1154545""
","
","null","run_exp/static/images/Set 6_rs/075a.jpg","null","","","","","","learn","SR",""
"","html-keyboard-response","138","1306786","0.0-138.0","""event"",""trial"",""time""
""blur"",""0"",""0""
""focus"",""0"",""1152376""
""fullscreenenter"",""0"",""1154545""
","""event"",""trial"",""time""
""blur"",""0"",""0""
","""event"",""trial"",""time""
""focus"",""0"",""1152376""
","""event"",""trial"",""time""
""fullscreenenter"",""0"",""1154545""
","
","null","<p></p>","null","","","","","","","",""
"","image","139","1307405","0.0-139.0","""event"",""trial"",""time""
""blur"",""0"",""0""
""focus"",""0"",""1152376""
""fullscreenenter"",""0"",""1154545""
","""event"",""trial"",""time""
""blur"",""0"",""0""
","""event"",""trial"",""time""
""focus"",""0"",""1152376""
","""event"",""trial"",""time""
""fullscreenenter"",""0"",""1154545""
","
","618.2999999998137","run_exp/static/images/Set 6_rs/074a.jpg","86","","","","","","learn","SL",""
"","show_choice","140","1308787","0.0-140.0","""event"",""trial"",""time""
""blur"",""0"",""0""
""focus"",""0"",""1152376""
""fullscreenenter"",""0"",""1154545""
","""event"",""trial"",""time""
""blur"",""0"",""0""
","""event"",""trial"",""time""
""focus"",""0"",""1152376""
","""event"",""trial"",""time""
""fullscreenenter"",""0"",""1154545""
","
","null","run_exp/static/images/Set 6_rs/074a.jpg","null","","","","","","learn","SL",""
"","html-keyboard-response","141","1309289","0.0-141.0","""event"",""trial"",""time""
""blur"",""0"",""0""
""focus"",""0"",""1152376""
""fullscreenenter"",""0"",""1154545""
","""event"",""trial"",""time""
""blur"",""0"",""0""
","""event"",""trial"",""time""
""focus"",""0"",""1152376""
","""event"",""trial"",""time""
""fullscreenenter"",""0"",""1154545""
","
","null","<p></p>","null","","","","","","","",""
"","image","142","1309922","0.0-142.0","""event"",""trial"",""time""
""blur"",""0"",""0""
""focus"",""0"",""1152376""
""fullscreenenter"",""0"",""1154545""
","""event"",""trial"",""time""
""blur"",""0"",""0""
","""event"",""trial"",""time""
""focus"",""0"",""1152376""
","""event"",""trial"",""time""
""fullscreenenter"",""0"",""1154545""
","
","632.2999999998137","run_exp/static/images/Set 6_rs/123a.jpg","86","","","","","","learn","SL",""
"","show_choice","143","1311294","0.0-143.0","""event"",""trial"",""time""
""blur"",""0"",""0""
""focus"",""0"",""1152376""
""fullscreenenter"",""0"",""1154545""
","""event"",""trial"",""time""
""blur"",""0"",""0""
","""event"",""trial"",""time""
""focus"",""0"",""1152376""
","""event"",""trial"",""time""
""fullscreenenter"",""0"",""1154545""
","
","null","run_exp/static/images/Set 6_rs/123a.jpg","null","","","","","","learn","SL",""
"","html-keyboard-response","144","1311797","0.0-144.0","""event"",""trial"",""time""
""blur"",""0"",""0""
""focus"",""0"",""1152376""
""fullscreenenter"",""0"",""1154545""
","""event"",""trial"",""time""
""blur"",""0"",""0""
","""event"",""trial"",""time""
""focus"",""0"",""1152376""
","""event"",""trial"",""time""
""fullscreenenter"",""0"",""1154545""
","
","null","<p></p>","null","","","","","","","",""
"","image","145","1312778","0.0-145.0","""event"",""trial"",""time""
""blur"",""0"",""0""
""focus"",""0"",""1152376""
""fullscreenenter"",""0"",""1154545""
","""event"",""trial"",""time""
""blur"",""0"",""0""
","""event"",""trial"",""time""
""focus"",""0"",""1152376""
","""event"",""trial"",""time""
""fullscreenenter"",""0"",""1154545""
","
","980","run_exp/static/images/Set 6_rs/071a.jpg","78","","","","","","learn","SL",""
"","show_choice","146","1313803","0.0-146.0","""event"",""trial"",""time""
""blur"",""0"",""0""
""focus"",""0"",""1152376""
""fullscreenenter"",""0"",""1154545""
","""event"",""trial"",""time""
""blur"",""0"",""0""
","""event"",""trial"",""time""
""focus"",""0"",""1152376""
","""event"",""trial"",""time""
""fullscreenenter"",""0"",""1154545""
","
","null","run_exp/static/images/Set 6_rs/071a.jpg","null","","","","","","learn","SL",""
"","html-keyboard-response","147","1314304","0.0-147.0","""event"",""trial"",""time""
""blur"",""0"",""0""
""focus"",""0"",""1152376""
""fullscreenenter"",""0"",""1154545""
","""event"",""trial"",""time""
""blur"",""0"",""0""
","""event"",""trial"",""time""
""focus"",""0"",""1152376""
","""event"",""trial"",""time""
""fullscreenenter"",""0"",""1154545""
","
","null","<p></p>","null","","","","","","","",""
"","image","148","1316308","0.0-148.0","""event"",""trial"",""time""
""blur"",""0"",""0""
""focus"",""0"",""1152376""
""fullscreenenter"",""0"",""1154545""
","""event"",""trial"",""time""
""blur"",""0"",""0""
","""event"",""trial"",""time""
""focus"",""0"",""1152376""
","""event"",""trial"",""time""
""fullscreenenter"",""0"",""1154545""
","
","null","run_exp/static/images/Set 6_rs/045a.jpg","null","","","","","","learn","SR",""
"","show_choice","149","1318309","0.0-149.0","""event"",""trial"",""time""
""blur"",""0"",""0""
""focus"",""0"",""1152376""
""fullscreenenter"",""0"",""1154545""
","""event"",""trial"",""time""
""blur"",""0"",""0""
","""event"",""trial"",""time""
""focus"",""0"",""1152376""
","""event"",""trial"",""time""
""fullscreenenter"",""0"",""1154545""
","
","null","run_exp/static/images/blank.png","null","","","","","","learn","SR",""
"","html-keyboard-response","150","1318811","0.0-150.0","""event"",""trial"",""time""
""blur"",""0"",""0""
""focus"",""0"",""1152376""
""fullscreenenter"",""0"",""1154545""
","""event"",""trial"",""time""
""blur"",""0"",""0""
","""event"",""trial"",""time""
""focus"",""0"",""1152376""
","""event"",""trial"",""time""
""fullscreenenter"",""0"",""1154545""
","
","null","<p></p>","null","","","","","","","",""
"","image","151","1320544","0.0-151.0","""event"",""trial"",""time""
""blur"",""0"",""0""
""focus"",""0"",""1152376""
""fullscreenenter"",""0"",""1154545""
","""event"",""trial"",""time""
""blur"",""0"",""0""
","""event"",""trial"",""time""
""focus"",""0"",""1152376""
","""event"",""trial"",""time""
""fullscreenenter"",""0"",""1154545""
","
","1732.2000000011176","run_exp/static/images/Set 6_rs/064a.jpg","78","","","","","","learn","SR",""
"","show_choice","152","1320815","0.0-152.0","""event"",""trial"",""time""
""blur"",""0"",""0""
""focus"",""0"",""1152376""
""fullscreenenter"",""0"",""1154545""
","""event"",""trial"",""time""
""blur"",""0"",""0""
","""event"",""trial"",""time""
""focus"",""0"",""1152376""
","""event"",""trial"",""time""
""fullscreenenter"",""0"",""1154545""
","
","null","run_exp/static/images/Set 6_rs/064a.jpg","null","","","","","","learn","SR",""
"","html-keyboard-response","153","1321321","0.0-153.0","""event"",""trial"",""time""
""blur"",""0"",""0""
""focus"",""0"",""1152376""
""fullscreenenter"",""0"",""1154545""
","""event"",""trial"",""time""
""blur"",""0"",""0""
","""event"",""trial"",""time""
""focus"",""0"",""1152376""
","""event"",""trial"",""time""
""fullscreenenter"",""0"",""1154545""
","
","null","<p></p>","null","","","","","","","",""
"","image","154","1322623","0.0-154.0","""event"",""trial"",""time""
""blur"",""0"",""0""
""focus"",""0"",""1152376""
""fullscreenenter"",""0"",""1154545""
","""event"",""trial"",""time""
""blur"",""0"",""0""
","""event"",""trial"",""time""
""focus"",""0"",""1152376""
","""event"",""trial"",""time""
""fullscreenenter"",""0"",""1154545""
","
","1300.8999999985099","run_exp/static/images/Set 6_rs/012a.jpg","86","","","","","","learn","SR",""
"","show_choice","155","1323327","0.0-155.0","""event"",""trial"",""time""
""blur"",""0"",""0""
""focus"",""0"",""1152376""
""fullscreenenter"",""0"",""1154545""
","""event"",""trial"",""time""
""blur"",""0"",""0""
","""event"",""trial"",""time""
""focus"",""0"",""1152376""
","""event"",""trial"",""time""
""fullscreenenter"",""0"",""1154545""
","
","null","run_exp/static/images/Set 6_rs/012a.jpg","null","","","","","","learn","SR",""
"","html-keyboard-response","156","1323829","0.0-156.0","""event"",""trial"",""time""
""blur"",""0"",""0""
""focus"",""0"",""1152376""
""fullscreenenter"",""0"",""1154545""
","""event"",""trial"",""time""
""blur"",""0"",""0""
","""event"",""trial"",""time""
""focus"",""0"",""1152376""
","""event"",""trial"",""time""
""fullscreenenter"",""0"",""1154545""
","
","null","<p></p>","null","","","","","","","",""
"","image","157","1325039","0.0-157.0","""event"",""trial"",""time""
""blur"",""0"",""0""
""focus"",""0"",""1152376""
""fullscreenenter"",""0"",""1154545""
","""event"",""trial"",""time""
""blur"",""0"",""0""
","""event"",""trial"",""time""
""focus"",""0"",""1152376""
","""event"",""trial"",""time""
""fullscreenenter"",""0"",""1154545""
","
","1208.800000000745","run_exp/static/images/Set 6_rs/138a.jpg","78","","","","","","learn","SL",""
"","show_choice","158","1325832","0.0-158.0","""event"",""trial"",""time""
""blur"",""0"",""0""
""focus"",""0"",""1152376""
""fullscreenenter"",""0"",""1154545""
","""event"",""trial"",""time""
""blur"",""0"",""0""
","""event"",""trial"",""time""
""focus"",""0"",""1152376""
","""event"",""trial"",""time""
""fullscreenenter"",""0"",""1154545""
","
","null","run_exp/static/images/Set 6_rs/138a.jpg","null","","","","","","learn","SL",""
"","html-keyboard-response","159","1326337","0.0-159.0","""event"",""trial"",""time""
""blur"",""0"",""0""
""focus"",""0"",""1152376""
""fullscreenenter"",""0"",""1154545""
","""event"",""trial"",""time""
""blur"",""0"",""0""
","""event"",""trial"",""time""
""focus"",""0"",""1152376""
","""event"",""trial"",""time""
""fullscreenenter"",""0"",""1154545""
","
","null","<p></p>","null","","","","","","","",""
"","image","160","1327442","0.0-160.0","""event"",""trial"",""time""
""blur"",""0"",""0""
""focus"",""0"",""1152376""
""fullscreenenter"",""0"",""1154545""
","""event"",""trial"",""time""
""blur"",""0"",""0""
","""event"",""trial"",""time""
""focus"",""0"",""1152376""
","""event"",""trial"",""time""
""fullscreenenter"",""0"",""1154545""
","
","1103.5999999996275","run_exp/static/images/Set 6_rs/126a.jpg","78","","","","","","learn","SR",""
"","show_choice","161","1328343","0.0-161.0","""event"",""trial"",""time""
""blur"",""0"",""0""
""focus"",""0"",""1152376""
""fullscreenenter"",""0"",""1154545""
","""event"",""trial"",""time""
""blur"",""0"",""0""
","""event"",""trial"",""time""
""focus"",""0"",""1152376""
","""event"",""trial"",""time""
""fullscreenenter"",""0"",""1154545""
","
","null","run_exp/static/images/Set 6_rs/126a.jpg","null","","","","","","learn","SR",""
"","html-keyboard-response","162","1328845","0.0-162.0","""event"",""trial"",""time""
""blur"",""0"",""0""
""focus"",""0"",""1152376""
""fullscreenenter"",""0"",""1154545""
","""event"",""trial"",""time""
""blur"",""0"",""0""
","""event"",""trial"",""time""
""focus"",""0"",""1152376""
","""event"",""trial"",""time""
""fullscreenenter"",""0"",""1154545""
","
","null","<p></p>","null","","","","","","","",""
"","image","163","1329687","0.0-163.0","""event"",""trial"",""time""
""blur"",""0"",""0""
""focus"",""0"",""1152376""
""fullscreenenter"",""0"",""1154545""
","""event"",""trial"",""time""
""blur"",""0"",""0""
","""event"",""trial"",""time""
""focus"",""0"",""1152376""
","""event"",""trial"",""time""
""fullscreenenter"",""0"",""1154545""
","
","841","run_exp/static/images/Set 6_rs/129a.jpg","86","","","","","","learn","SL",""
"","show_choice","164","1330849","0.0-164.0","""event"",""trial"",""time""
""blur"",""0"",""0""
""focus"",""0"",""1152376""
""fullscreenenter"",""0"",""1154545""
","""event"",""trial"",""time""
""blur"",""0"",""0""
","""event"",""trial"",""time""
""focus"",""0"",""1152376""
","""event"",""trial"",""time""
""fullscreenenter"",""0"",""1154545""
","
","null","run_exp/static/images/Set 6_rs/129a.jpg","null","","","","","","learn","SL",""
"","html-keyboard-response","165","1331350","0.0-165.0","""event"",""trial"",""time""
""blur"",""0"",""0""
""focus"",""0"",""1152376""
""fullscreenenter"",""0"",""1154545""
","""event"",""trial"",""time""
""blur"",""0"",""0""
","""event"",""trial"",""time""
""focus"",""0"",""1152376""
","""event"",""trial"",""time""
""fullscreenenter"",""0"",""1154545""
","
","null","<p></p>","null","","","","","","","",""
"","image","166","1332159","0.0-166.0","""event"",""trial"",""time""
""blur"",""0"",""0""
""focus"",""0"",""1152376""
""fullscreenenter"",""0"",""1154545""
","""event"",""trial"",""time""
""blur"",""0"",""0""
","""event"",""trial"",""time""
""focus"",""0"",""1152376""
","""event"",""trial"",""time""
""fullscreenenter"",""0"",""1154545""
","
","808","run_exp/static/images/Set 6_rs/085a.jpg","78","","","","","","learn","SL",""
"","show_choice","167","1333357","0.0-167.0","""event"",""trial"",""time""
""blur"",""0"",""0""
""focus"",""0"",""1152376""
""fullscreenenter"",""0"",""1154545""
","""event"",""trial"",""time""
""blur"",""0"",""0""
","""event"",""trial"",""time""
""focus"",""0"",""1152376""
","""event"",""trial"",""time""
""fullscreenenter"",""0"",""1154545""
","
","null","run_exp/static/images/Set 6_rs/085a.jpg","null","","","","","","learn","SL",""
"","html-keyboard-response","168","1333862","0.0-168.0","""event"",""trial"",""time""
""blur"",""0"",""0""
""focus"",""0"",""1152376""
""fullscreenenter"",""0"",""1154545""
","""event"",""trial"",""time""
""blur"",""0"",""0""
","""event"",""trial"",""time""
""focus"",""0"",""1152376""
","""event"",""trial"",""time""
""fullscreenenter"",""0"",""1154545""
","
","null","<p></p>","null","","","","","","","",""
"","image","169","1335137","0.0-169.0","""event"",""trial"",""time""
""blur"",""0"",""0""
""focus"",""0"",""1152376""
""fullscreenenter"",""0"",""1154545""
","""event"",""trial"",""time""
""blur"",""0"",""0""
","""event"",""trial"",""time""
""focus"",""0"",""1152376""
","""event"",""trial"",""time""
""fullscreenenter"",""0"",""1154545""
","
","1274.199999999255","run_exp/static/images/Set 6_rs/061a.jpg","78","","","","","","learn","SR",""
"","show_choice","170","1335866","0.0-170.0","""event"",""trial"",""time""
""blur"",""0"",""0""
""focus"",""0"",""1152376""
""fullscreenenter"",""0"",""1154545""
","""event"",""trial"",""time""
""blur"",""0"",""0""
","""event"",""trial"",""time""
""focus"",""0"",""1152376""
","""event"",""trial"",""time""
""fullscreenenter"",""0"",""1154545""
","
","null","run_exp/static/images/Set 6_rs/061a.jpg","null","","","","","","learn","SR",""
"","html-keyboard-response","171","1336372","0.0-171.0","""event"",""trial"",""time""
""blur"",""0"",""0""
""focus"",""0"",""1152376""
""fullscreenenter"",""0"",""1154545""
","""event"",""trial"",""time""
""blur"",""0"",""0""
","""event"",""trial"",""time""
""focus"",""0"",""1152376""
","""event"",""trial"",""time""
""fullscreenenter"",""0"",""1154545""
","
","null","<p></p>","null","","","","","","","",""
"","image","172","1337071","0.0-172.0","""event"",""trial"",""time""
""blur"",""0"",""0""
""focus"",""0"",""1152376""
""fullscreenenter"",""0"",""1154545""
","""event"",""trial"",""time""
""blur"",""0"",""0""
","""event"",""trial"",""time""
""focus"",""0"",""1152376""
","""event"",""trial"",""time""
""fullscreenenter"",""0"",""1154545""
","
","697.9000000003725","run_exp/static/images/Set 6_rs/144a.jpg","86","","","","","","learn","SL",""
"","show_choice","173","1338378","0.0-173.0","""event"",""trial"",""time""
""blur"",""0"",""0""
""focus"",""0"",""1152376""
""fullscreenenter"",""0"",""1154545""
","""event"",""trial"",""time""
""blur"",""0"",""0""
","""event"",""trial"",""time""
""focus"",""0"",""1152376""
","""event"",""trial"",""time""
""fullscreenenter"",""0"",""1154545""
","
","null","run_exp/static/images/Set 6_rs/144a.jpg","null","","","","","","learn","SL",""
"","html-keyboard-response","174","1338881","0.0-174.0","""event"",""trial"",""time""
""blur"",""0"",""0""
""focus"",""0"",""1152376""
""fullscreenenter"",""0"",""1154545""
","""event"",""trial"",""time""
""blur"",""0"",""0""
","""event"",""trial"",""time""
""focus"",""0"",""1152376""
","""event"",""trial"",""time""
""fullscreenenter"",""0"",""1154545""
","
","null","<p></p>","null","","","","","","","",""
"","image","175","1339577","0.0-175.0","""event"",""trial"",""time""
""blur"",""0"",""0""
""focus"",""0"",""1152376""
""fullscreenenter"",""0"",""1154545""
","""event"",""trial"",""time""
""blur"",""0"",""0""
","""event"",""trial"",""time""
""focus"",""0"",""1152376""
","""event"",""trial"",""time""
""fullscreenenter"",""0"",""1154545""
","
","695.2999999988824","run_exp/static/images/Set 6_rs/122a.jpg","86","","","","","","learn","SR",""
"","show_choice","176","1340884","0.0-176.0","""event"",""trial"",""time""
""blur"",""0"",""0""
""focus"",""0"",""1152376""
""fullscreenenter"",""0"",""1154545""
","""event"",""trial"",""time""
""blur"",""0"",""0""
","""event"",""trial"",""time""
""focus"",""0"",""1152376""
","""event"",""trial"",""time""
""fullscreenenter"",""0"",""1154545""
","
","null","run_exp/static/images/Set 6_rs/122a.jpg","null","","","","","","learn","SR",""
"","html-keyboard-response","177","1341387","0.0-177.0","""event"",""trial"",""time""
""blur"",""0"",""0""
""focus"",""0"",""1152376""
""fullscreenenter"",""0"",""1154545""
","""event"",""trial"",""time""
""blur"",""0"",""0""
","""event"",""trial"",""time""
""focus"",""0"",""1152376""
","""event"",""trial"",""time""
""fullscreenenter"",""0"",""1154545""
","
","null","<p></p>","null","","","","","","","",""
"","image","178","1342094","0.0-178.0","""event"",""trial"",""time""
""blur"",""0"",""0""
""focus"",""0"",""1152376""
""fullscreenenter"",""0"",""1154545""
","""event"",""trial"",""time""
""blur"",""0"",""0""
","""event"",""trial"",""time""
""focus"",""0"",""1152376""
","""event"",""trial"",""time""
""fullscreenenter"",""0"",""1154545""
","
","706.4000000003725","run_exp/static/images/Set 6_rs/014a.jpg","86","","","","","","learn","SL",""
"","show_choice","179","1343389","0.0-179.0","""event"",""trial"",""time""
""blur"",""0"",""0""
""focus"",""0"",""1152376""
""fullscreenenter"",""0"",""1154545""
","""event"",""trial"",""time""
""blur"",""0"",""0""
","""event"",""trial"",""time""
""focus"",""0"",""1152376""
","""event"",""trial"",""time""
""fullscreenenter"",""0"",""1154545""
","
","null","run_exp/static/images/Set 6_rs/014a.jpg","null","","","","","","learn","SL",""
"","html-keyboard-response","180","1343892","0.0-180.0","""event"",""trial"",""time""
""blur"",""0"",""0""
""focus"",""0"",""1152376""
""fullscreenenter"",""0"",""1154545""
","""event"",""trial"",""time""
""blur"",""0"",""0""
","""event"",""trial"",""time""
""focus"",""0"",""1152376""
","""event"",""trial"",""time""
""fullscreenenter"",""0"",""1154545""
","
","null","<p></p>","null","","","","","","","",""
"","image","181","1344937","0.0-181.0","""event"",""trial"",""time""
""blur"",""0"",""0""
""focus"",""0"",""1152376""
""fullscreenenter"",""0"",""1154545""
","""event"",""trial"",""time""
""blur"",""0"",""0""
","""event"",""trial"",""time""
""focus"",""0"",""1152376""
","""event"",""trial"",""time""
""fullscreenenter"",""0"",""1154545""
","
","1044.0999999996275","run_exp/static/images/Set 6_rs/008a.jpg","86","","","","","","learn","SL",""
"","show_choice","182","1345893","0.0-182.0","""event"",""trial"",""time""
""blur"",""0"",""0""
""focus"",""0"",""1152376""
""fullscreenenter"",""0"",""1154545""
","""event"",""trial"",""time""
""blur"",""0"",""0""
","""event"",""trial"",""time""
""focus"",""0"",""1152376""
","""event"",""trial"",""time""
""fullscreenenter"",""0"",""1154545""
","
","null","run_exp/static/images/Set 6_rs/008a.jpg","null","","","","","","learn","SL",""
"","html-keyboard-response","183","1346395","0.0-183.0","""event"",""trial"",""time""
""blur"",""0"",""0""
""focus"",""0"",""1152376""
""fullscreenenter"",""0"",""1154545""
","""event"",""trial"",""time""
""blur"",""0"",""0""
","""event"",""trial"",""time""
""focus"",""0"",""1152376""
","""event"",""trial"",""time""
""fullscreenenter"",""0"",""1154545""
","
","null","<p></p>","null","","","","","","","",""
"","image","184","1346982","0.0-184.0","""event"",""trial"",""time""
""blur"",""0"",""0""
""focus"",""0"",""1152376""
""fullscreenenter"",""0"",""1154545""
","""event"",""trial"",""time""
""blur"",""0"",""0""
","""event"",""trial"",""time""
""focus"",""0"",""1152376""
","""event"",""trial"",""time""
""fullscreenenter"",""0"",""1154545""
","
","586.6999999992549","run_exp/static/images/Set 6_rs/181a.jpg","86","","","","","","learn","SL",""
"","show_choice","185","1348400","0.0-185.0","""event"",""trial"",""time""
""blur"",""0"",""0""
""focus"",""0"",""1152376""
""fullscreenenter"",""0"",""1154545""
","""event"",""trial"",""time""
""blur"",""0"",""0""
","""event"",""trial"",""time""
""focus"",""0"",""1152376""
","""event"",""trial"",""time""
""fullscreenenter"",""0"",""1154545""
","
","null","run_exp/static/images/Set 6_rs/181a.jpg","null","","","","","","learn","SL",""
"","html-keyboard-response","186","1348904","0.0-186.0","""event"",""trial"",""time""
""blur"",""0"",""0""
""focus"",""0"",""1152376""
""fullscreenenter"",""0"",""1154545""
","""event"",""trial"",""time""
""blur"",""0"",""0""
","""event"",""trial"",""time""
""focus"",""0"",""1152376""
","""event"",""trial"",""time""
""fullscreenenter"",""0"",""1154545""
","
","null","<p></p>","null","","","","","","","",""
"","image","187","1349553","0.0-187.0","""event"",""trial"",""time""
""blur"",""0"",""0""
""focus"",""0"",""1152376""
""fullscreenenter"",""0"",""1154545""
","""event"",""trial"",""time""
""blur"",""0"",""0""
","""event"",""trial"",""time""
""focus"",""0"",""1152376""
","""event"",""trial"",""time""
""fullscreenenter"",""0"",""1154545""
","
","647.5999999996275","run_exp/static/images/Set 6_rs/121a.jpg","86","","","","","","learn","SR",""
"","show_choice","188","1350906","0.0-188.0","""event"",""trial"",""time""
""blur"",""0"",""0""
""focus"",""0"",""1152376""
""fullscreenenter"",""0"",""1154545""
","""event"",""trial"",""time""
""blur"",""0"",""0""
","""event"",""trial"",""time""
""focus"",""0"",""1152376""
","""event"",""trial"",""time""
""fullscreenenter"",""0"",""1154545""
","
","null","run_exp/static/images/Set 6_rs/121a.jpg","null","","","","","","learn","SR",""
"","html-keyboard-response","189","1351407","0.0-189.0","""event"",""trial"",""time""
""blur"",""0"",""0""
""focus"",""0"",""1152376""
""fullscreenenter"",""0"",""1154545""
","""event"",""trial"",""time""
""blur"",""0"",""0""
","""event"",""trial"",""time""
""focus"",""0"",""1152376""
","""event"",""trial"",""time""
""fullscreenenter"",""0"",""1154545""
","
","null","<p></p>","null","","","","","","","",""
"","image","190","1352302","0.0-190.0","""event"",""trial"",""time""
""blur"",""0"",""0""
""focus"",""0"",""1152376""
""fullscreenenter"",""0"",""1154545""
","""event"",""trial"",""time""
""blur"",""0"",""0""
","""event"",""trial"",""time""
""focus"",""0"",""1152376""
","""event"",""trial"",""time""
""fullscreenenter"",""0"",""1154545""
","
","894.1999999992549","run_exp/static/images/Set 6_rs/076a.jpg","78","","","","","","learn","SR",""
"","show_choice","191","1353408","0.0-191.0","""event"",""trial"",""time""
""blur"",""0"",""0""
""focus"",""0"",""1152376""
""fullscreenenter"",""0"",""1154545""
","""event"",""trial"",""time""
""blur"",""0"",""0""
","""event"",""trial"",""time""
""focus"",""0"",""1152376""
","""event"",""trial"",""time""
""fullscreenenter"",""0"",""1154545""
","
","null","run_exp/static/images/Set 6_rs/076a.jpg","null","","","","","","learn","SR",""
"","html-keyboard-response","192","1353914","0.0-192.0","""event"",""trial"",""time""
""blur"",""0"",""0""
""focus"",""0"",""1152376""
""fullscreenenter"",""0"",""1154545""
","""event"",""trial"",""time""
""blur"",""0"",""0""
","""event"",""trial"",""time""
""focus"",""0"",""1152376""
","""event"",""trial"",""time""
""fullscreenenter"",""0"",""1154545""
","
","null","<p></p>","null","","","","","","","",""
"","image","193","1355329","0.0-193.0","""event"",""trial"",""time""
""blur"",""0"",""0""
""focus"",""0"",""1152376""
""fullscreenenter"",""0"",""1154545""
","""event"",""trial"",""time""
""blur"",""0"",""0""
","""event"",""trial"",""time""
""focus"",""0"",""1152376""
","""event"",""trial"",""time""
""fullscreenenter"",""0"",""1154545""
","
","1414.300000000745","run_exp/static/images/Set 6_rs/057a.jpg","78","","","","","","learn","SL",""
"","show_choice","194","1355918","0.0-194.0","""event"",""trial"",""time""
""blur"",""0"",""0""
""focus"",""0"",""1152376""
""fullscreenenter"",""0"",""1154545""
","""event"",""trial"",""time""
""blur"",""0"",""0""
","""event"",""trial"",""time""
""focus"",""0"",""1152376""
","""event"",""trial"",""time""
""fullscreenenter"",""0"",""1154545""
","
","null","run_exp/static/images/Set 6_rs/057a.jpg","null","","","","","","learn","SL",""
"","html-keyboard-response","195","1356419","0.0-195.0","""event"",""trial"",""time""
""blur"",""0"",""0""
""focus"",""0"",""1152376""
""fullscreenenter"",""0"",""1154545""
","""event"",""trial"",""time""
""blur"",""0"",""0""
","""event"",""trial"",""time""
""focus"",""0"",""1152376""
","""event"",""trial"",""time""
""fullscreenenter"",""0"",""1154545""
","
","null","<p></p>","null","","","","","","","",""
"","test_intro","196","1393334","0.0-196.0","""event"",""trial"",""time""
""blur"",""0"",""0""
""focus"",""0"",""1152376""
""fullscreenenter"",""0"",""1154545""
","""event"",""trial"",""time""
""blur"",""0"",""0""
","""event"",""trial"",""time""
""focus"",""0"",""1152376""
","""event"",""trial"",""time""
""fullscreenenter"",""0"",""1154545""
","
","null","run_exp/static/audio/clip_2_memory.m4a","null","","","","","<div class='center'><p>Now, lets see how much you remember about the items you just saw.  For each item, you need to indicate if it was <b>old</b> by pressing the <b>v</b> key, <b>similar</b> by pressing the <b>b</b> key, or <b>new</b> by pressing the <b>n</b> key.</p><p>Old refers to an item that you saw before in the indoor/outdoor game that you just played, new refers to an item you have <b>not</b> seen before within the indoor/outdoor game, and similar refers to an item that is similar to an item youve seen before but is not exactly the same. </p><p>Before we begin, lets go over some brief demonstrations to make sure you understand.</p></div>","","",""
"","html-keyboard-response","197","1409665","0.0-197.0","""event"",""trial"",""time""
""blur"",""0"",""0""
""focus"",""0"",""1152376""
""fullscreenenter"",""0"",""1154545""
","""event"",""trial"",""time""
""blur"",""0"",""0""
","""event"",""trial"",""time""
""focus"",""0"",""1152376""
","""event"",""trial"",""time""
""fullscreenenter"",""0"",""1154545""
","
","16330","<div class='center'><p>Now, lets see how much you remember about the items you just saw.  For each item, you need to indicate if it was <b>old</b> by pressing the <b>v</b> key, <b>similar</b> by pressing the <b>b</b> key, or <b>new</b> by pressing the <b>n</b> key.</p><p>Old refers to an item that you saw before in the indoor/outdoor game that you just played, new refers to an item you have <b>not</b> seen before within the indoor/outdoor game, and similar refers to an item that is similar to an item youve seen before but is not exactly the same. </p><p>Before we begin, lets go over some brief demonstrations to make sure you understand.</p><div><p><b>[Press the space bar to continue]</b></p></div>","32","","","","","","","",""
"","items","198","1417171","0.0-198.0","""event"",""trial"",""time""
""blur"",""0"",""0""
""focus"",""0"",""1152376""
""fullscreenenter"",""0"",""1154545""
","""event"",""trial"",""time""
""blur"",""0"",""0""
","""event"",""trial"",""time""
""focus"",""0"",""1152376""
","""event"",""trial"",""time""
""fullscreenenter"",""0"",""1154545""
","
","null","run_exp/static/audio/clip_3_items.m4a","null","","","","","","","",""
"","mop","199","1421677","0.0-199.0","""event"",""trial"",""time""
""blur"",""0"",""0""
""focus"",""0"",""1152376""
""fullscreenenter"",""0"",""1154545""
","""event"",""trial"",""time""
""blur"",""0"",""0""
","""event"",""trial"",""time""
""focus"",""0"",""1152376""
","""event"",""trial"",""time""
""fullscreenenter"",""0"",""1154545""
","
","null","run_exp/static/audio/clip_4_mop.m4a","null","","","","","","","",""
"","baseball","200","1425184","0.0-200.0","""event"",""trial"",""time""
""blur"",""0"",""0""
""focus"",""0"",""1152376""
""fullscreenenter"",""0"",""1154545""
","""event"",""trial"",""time""
""blur"",""0"",""0""
","""event"",""trial"",""time""
""focus"",""0"",""1152376""
","""event"",""trial"",""time""
""fullscreenenter"",""0"",""1154545""
","
","null","run_exp/static/audio/clip_5_baseball.m4a","null","","","","","","","",""
"","trumpet","201","1428690","0.0-201.0","""event"",""trial"",""time""
""blur"",""0"",""0""
""focus"",""0"",""1152376""
""fullscreenenter"",""0"",""1154545""
","""event"",""trial"",""time""
""blur"",""0"",""0""
","""event"",""trial"",""time""
""focus"",""0"",""1152376""
","""event"",""trial"",""time""
""fullscreenenter"",""0"",""1154545""
","
","null","run_exp/static/audio/clip_6_trumpet.m4a","null","","","","","","","",""
"","gummies","202","1432192","0.0-202.0","""event"",""trial"",""time""
""blur"",""0"",""0""
""focus"",""0"",""1152376""
""fullscreenenter"",""0"",""1154545""
","""event"",""trial"",""time""
""blur"",""0"",""0""
","""event"",""trial"",""time""
""focus"",""0"",""1152376""
","""event"",""trial"",""time""
""fullscreenenter"",""0"",""1154545""
","
","null","run_exp/static/audio/clip_7_gummies.m4a","null","","","","","","","",""
"","osn","203","1436695","0.0-203.0","""event"",""trial"",""time""
""blur"",""0"",""0""
""focus"",""0"",""1152376""
""fullscreenenter"",""0"",""1154545""
","""event"",""trial"",""time""
""blur"",""0"",""0""
","""event"",""trial"",""time""
""focus"",""0"",""1152376""
","""event"",""trial"",""time""
""fullscreenenter"",""0"",""1154545""
","
","null","run_exp/static/audio/clip_8_osn.m4a","null","","","","","","","",""
"","old_1","204","1443202","0.0-204.0","""event"",""trial"",""time""
""blur"",""0"",""0""
""focus"",""0"",""1152376""
""fullscreenenter"",""0"",""1154545""
","""event"",""trial"",""time""
""blur"",""0"",""0""
","""event"",""trial"",""time""
""focus"",""0"",""1152376""
","""event"",""trial"",""time""
""fullscreenenter"",""0"",""1154545""
","
","null","run_exp/static/audio/clip_9_old_trumpet.m4a","null","","","","","","","",""
"","new_1","205","1450706","0.0-205.0","""event"",""trial"",""time""
""blur"",""0"",""0""
""focus"",""0"",""1152376""
""fullscreenenter"",""0"",""1154545""
","""event"",""trial"",""time""
""blur"",""0"",""0""
","""event"",""trial"",""time""
""focus"",""0"",""1152376""
","""event"",""trial"",""time""
""fullscreenenter"",""0"",""1154545""
","
","null","run_exp/static/audio/clip_10_new_balloon.m4a","null","","","","","","","",""
"","similar_1a","206","1455212","0.0-206.0","""event"",""trial"",""time""
""blur"",""0"",""0""
""focus"",""0"",""1152376""
""fullscreenenter"",""0"",""1154545""
","""event"",""trial"",""time""
""blur"",""0"",""0""
","""event"",""trial"",""time""
""focus"",""0"",""1152376""
","""event"",""trial"",""time""
""fullscreenenter"",""0"",""1154545""
","
","null","run_exp/static/audio/clip_11a_similar_mop.m4a","null","","","","","","","",""
"","similar_1b","207","1461714","0.0-207.0","""event"",""trial"",""time""
""blur"",""0"",""0""
""focus"",""0"",""1152376""
""fullscreenenter"",""0"",""1154545""
","""event"",""trial"",""time""
""blur"",""0"",""0""
","""event"",""trial"",""time""
""focus"",""0"",""1152376""
","""event"",""trial"",""time""
""fullscreenenter"",""0"",""1154545""
","
","null","run_exp/static/audio/clip_11b_similar_mop.m4a","null","","","","","","","",""
"","new_2","208","1465217","0.0-208.0","""event"",""trial"",""time""
""blur"",""0"",""0""
""focus"",""0"",""1152376""
""fullscreenenter"",""0"",""1154545""
","""event"",""trial"",""time""
""blur"",""0"",""0""
","""event"",""trial"",""time""
""focus"",""0"",""1152376""
","""event"",""trial"",""time""
""fullscreenenter"",""0"",""1154545""
","
","null","run_exp/static/audio/clip_12_new_stoplight.m4a","null","","","","","","","",""
"","old_2","209","1468724","0.0-209.0","""event"",""trial"",""time""
""blur"",""0"",""0""
""focus"",""0"",""1152376""
""fullscreenenter"",""0"",""1154545""
","""event"",""trial"",""time""
""blur"",""0"",""0""
","""event"",""trial"",""time""
""focus"",""0"",""1152376""
","""event"",""trial"",""time""
""fullscreenenter"",""0"",""1154545""
","
","null","run_exp/static/audio/clip_13_old_baseball.m4a","null","","","","","","","",""
"","similar_2a","210","1472228","0.0-210.0","""event"",""trial"",""time""
""blur"",""0"",""0""
""focus"",""0"",""1152376""
""fullscreenenter"",""0"",""1154545""
","""event"",""trial"",""time""
""blur"",""0"",""0""
","""event"",""trial"",""time""
""focus"",""0"",""1152376""
","""event"",""trial"",""time""
""fullscreenenter"",""0"",""1154545""
","
","null","run_exp/static/audio/clip_14a_similar_gummies.m4a","null","","","","","","","",""
"","similar_2b","211","1479732","0.0-211.0","""event"",""trial"",""time""
""blur"",""0"",""0""
""focus"",""0"",""1152376""
""fullscreenenter"",""0"",""1154545""
","""event"",""trial"",""time""
""blur"",""0"",""0""
","""event"",""trial"",""time""
""focus"",""0"",""1152376""
","""event"",""trial"",""time""
""fullscreenenter"",""0"",""1154545""
","
","null","run_exp/static/audio/clip_14b_similar_gummies.m4a","null","","","","","","","",""
"","practice","212","1521829","0.0-212.0","""event"",""trial"",""time""
""blur"",""0"",""0""
""focus"",""0"",""1152376""
""fullscreenenter"",""0"",""1154545""
","""event"",""trial"",""time""
""blur"",""0"",""0""
","""event"",""trial"",""time""
""focus"",""0"",""1152376""
","""event"",""trial"",""time""
""fullscreenenter"",""0"",""1154545""
","
","null","run_exp/static/audio/clip_15_practice.m4a","null","","","","","<div class='center'><p>Lets practice a little to make sure you understand the difference between new, similar, and old. Lets say you saw these three items in the indoor/outdoor game.</p><p> Try your best to remember these images because youll soon be tested on them in a practice game. In the practice game, youll be shown images and youll have to say if they are old (one of the three images belows), similar (similar to one of the images below but not exactly the same), or new (are not one of the images below nor similar to them).</p><p>Once you press the space bar youll be shown these images again but one at time. Then youll begin the practice game.</p><p><img src='run_exp/static/images/tutorial/test/three_indoor_outdoor.png' height='300'></p></div>","","",""
"","html-keyboard-response","213","1522630","0.0-213.0","""event"",""trial"",""time""
""blur"",""0"",""0""
""focus"",""0"",""1152376""
""fullscreenenter"",""0"",""1154545""
","""event"",""trial"",""time""
""blur"",""0"",""0""
","""event"",""trial"",""time""
""focus"",""0"",""1152376""
","""event"",""trial"",""time""
""fullscreenenter"",""0"",""1154545""
","
","799.5","<div class='center'><p>Lets practice a little to make sure you understand the difference between new, similar, and old. Lets say you saw these three items in the indoor/outdoor game.</p><p> Try your best to remember these images because youll soon be tested on them in a practice game. In the practice game, youll be shown images and youll have to say if they are old (one of the three images belows), similar (similar to one of the images below but not exactly the same), or new (are not one of the images below nor similar to them).</p><p>Once you press the space bar youll be shown these images again but one at time. Then youll begin the practice game.</p><p><img src='run_exp/static/images/tutorial/test/three_indoor_outdoor.png' height='300'></p><div><p><b>[Press the space bar to continue]</b></p></div>","32","","","","","","","",""
"","planet","214","1524631","0.0-214.0","""event"",""trial"",""time""
""blur"",""0"",""0""
""focus"",""0"",""1152376""
""fullscreenenter"",""0"",""1154545""
","""event"",""trial"",""time""
""blur"",""0"",""0""
","""event"",""trial"",""time""
""focus"",""0"",""1152376""
","""event"",""trial"",""time""
""fullscreenenter"",""0"",""1154545""
","
","null","run_exp/static/images/tutorial/test/008a.jpg","null","","","","","","","",""
"","boot","215","1526635","0.0-215.0","""event"",""trial"",""time""
""blur"",""0"",""0""
""focus"",""0"",""1152376""
""fullscreenenter"",""0"",""1154545""
","""event"",""trial"",""time""
""blur"",""0"",""0""
","""event"",""trial"",""time""
""focus"",""0"",""1152376""
","""event"",""trial"",""time""
""fullscreenenter"",""0"",""1154545""
","
","null","run_exp/static/images/tutorial/test/011a.jpg","null","","","","","","","",""
"","lemon","216","1528638","0.0-216.0","""event"",""trial"",""time""
""blur"",""0"",""0""
""focus"",""0"",""1152376""
""fullscreenenter"",""0"",""1154545""
","""event"",""trial"",""time""
""blur"",""0"",""0""
","""event"",""trial"",""time""
""focus"",""0"",""1152376""
","""event"",""trial"",""time""
""fullscreenenter"",""0"",""1154545""
","
","null","run_exp/static/images/tutorial/test/018a.jpg","null","","","","","","","",""
"","practice_q1","217","1530893","0.0-217.0","""event"",""trial"",""time""
""blur"",""0"",""0""
""focus"",""0"",""1152376""
