"success","trial_type","trial_index","time_elapsed","internal_node_id","interactions","blur_events","focus_events","fullscreenenter_events","fullscreenexit_events","rt","stimulus","key_press","subject_id","participant_id","age","gender","prompt","phase","condition","lure_bin"
"true","fullscreen","0","448604","0.0-0.0","""event"",""trial"",""time""
""blur"",""0"",""16902""
""focus"",""0"",""447494""
""fullscreenenter"",""0"",""447612""
","""event"",""trial"",""time""
""blur"",""0"",""16902""
","""event"",""trial"",""time""
""focus"",""0"",""447494""
","""event"",""trial"",""time""
""fullscreenenter"",""0"",""447612""
","
","","","","","","","","","","",""
"","pavlovia","1","448608","0.0-1.0","""event"",""trial"",""time""
""blur"",""0"",""16902""
""focus"",""0"",""447494""
""fullscreenenter"",""0"",""447612""
","""event"",""trial"",""time""
""blur"",""0"",""16902""
","""event"",""trial"",""time""
""focus"",""0"",""447494""
","""event"",""trial"",""time""
""fullscreenenter"",""0"",""447612""
","
","","","","","","","","","","",""
"","welcome","2","483469","0.0-2.0","""event"",""trial"",""time""
""blur"",""0"",""16902""
""focus"",""0"",""447494""
""fullscreenenter"",""0"",""447612""
","""event"",""trial"",""time""
""blur"",""0"",""16902""
","""event"",""trial"",""time""
""focus"",""0"",""447494""
","""event"",""trial"",""time""
""fullscreenenter"",""0"",""447612""
","
","null","run_exp/static/audio/clip_1_welcome.m4a","null","1566","1624","21","Male","<div class='center'><p>Welcome to the third part of the study! First, you'll be shown pictures of items one at a time. For each picture, you have to decide if the item is typically found indoors or outdoors.</p><p>If you think it's usually found indoors, then press <b>v</b> key on your keyboard. If you think it's usually found outdoors, then press the <b>n</b> key.There will be reminders on the screen to help you remember which keys to press. </p><p>If you're not sure whether the item is an indoor item or an outdoor item, go ahead and take a guess but try your best not to skip that choice. </p></div>","","",""
"","html-keyboard-response","3","495006","0.0-3.0","""event"",""trial"",""time""
""blur"",""0"",""16902""
""focus"",""0"",""447494""
""fullscreenenter"",""0"",""447612""
","""event"",""trial"",""time""
""blur"",""0"",""16902""
","""event"",""trial"",""time""
""focus"",""0"",""447494""
","""event"",""trial"",""time""
""fullscreenenter"",""0"",""447612""
","
","11533.900000035763","<div class='center'><p>Welcome to the third part of the study! First, you'll be shown pictures of items one at a time. For each picture, you have to decide if the item is typically found indoors or outdoors.</p><p>If you think it's usually found indoors, then press <b>v</b> key on your keyboard. If you think it's usually found outdoors, then press the <b>n</b> key.There will be reminders on the screen to help you remember which keys to press. </p><p>If you're not sure whether the item is an indoor item or an outdoor item, go ahead and take a guess but try your best not to skip that choice. </p><div><p><b>[Press the space bar to continue]</b></p></div>","32","","","","","","","",""
"","image","4","496427","0.0-4.0","""event"",""trial"",""time""
""blur"",""0"",""16902""
""focus"",""0"",""447494""
""fullscreenenter"",""0"",""447612""
","""event"",""trial"",""time""
""blur"",""0"",""16902""
","""event"",""trial"",""time""
""focus"",""0"",""447494""
","""event"",""trial"",""time""
""fullscreenenter"",""0"",""447612""
","
","1417.7999999523163","run_exp/static/images/Set 6_rs/024a.jpg","86","","","","","","learn","SR",""
"","show_choice","5","497020","0.0-5.0","""event"",""trial"",""time""
""blur"",""0"",""16902""
""focus"",""0"",""447494""
""fullscreenenter"",""0"",""447612""
","""event"",""trial"",""time""
""blur"",""0"",""16902""
","""event"",""trial"",""time""
""focus"",""0"",""447494""
","""event"",""trial"",""time""
""fullscreenenter"",""0"",""447612""
","
","null","run_exp/static/images/Set 6_rs/024a.jpg","null","","","","","","learn","SR",""
"","html-keyboard-response","6","497536","0.0-6.0","""event"",""trial"",""time""
""blur"",""0"",""16902""
""focus"",""0"",""447494""
""fullscreenenter"",""0"",""447612""
","""event"",""trial"",""time""
""blur"",""0"",""16902""
","""event"",""trial"",""time""
""focus"",""0"",""447494""
","""event"",""trial"",""time""
""fullscreenenter"",""0"",""447612""
","
","null","<p></p>","null","","","","","","","",""
"","image","7","498424","0.0-7.0","""event"",""trial"",""time""
""blur"",""0"",""16902""
""focus"",""0"",""447494""
""fullscreenenter"",""0"",""447612""
","""event"",""trial"",""time""
""blur"",""0"",""16902""
","""event"",""trial"",""time""
""focus"",""0"",""447494""
","""event"",""trial"",""time""
""fullscreenenter"",""0"",""447612""
","
","886.1999999880791","run_exp/static/images/Set 6_rs/057a.jpg","86","","","","","","learn","SL",""
"","show_choice","8","499550","0.0-8.0","""event"",""trial"",""time""
""blur"",""0"",""16902""
""focus"",""0"",""447494""
""fullscreenenter"",""0"",""447612""
","""event"",""trial"",""time""
""blur"",""0"",""16902""
","""event"",""trial"",""time""
""focus"",""0"",""447494""
","""event"",""trial"",""time""
""fullscreenenter"",""0"",""447612""
","
","null","run_exp/static/images/Set 6_rs/057a.jpg","null","","","","","","learn","SL",""
"","html-keyboard-response","9","500062","0.0-9.0","""event"",""trial"",""time""
""blur"",""0"",""16902""
""focus"",""0"",""447494""
""fullscreenenter"",""0"",""447612""
","""event"",""trial"",""time""
""blur"",""0"",""16902""
","""event"",""trial"",""time""
""focus"",""0"",""447494""
","""event"",""trial"",""time""
""fullscreenenter"",""0"",""447612""
","
","null","<p></p>","null","","","","","","","",""
"","image","10","501026","0.0-10.0","""event"",""trial"",""time""
""blur"",""0"",""16902""
""focus"",""0"",""447494""
""fullscreenenter"",""0"",""447612""
","""event"",""trial"",""time""
""blur"",""0"",""16902""
","""event"",""trial"",""time""
""focus"",""0"",""447494""
","""event"",""trial"",""time""
""fullscreenenter"",""0"",""447612""
","
","961.6000000238419","run_exp/static/images/Set 6_rs/073a.jpg","86","","","","","","learn","SL",""
"","show_choice","11","502080","0.0-11.0","""event"",""trial"",""time""
""blur"",""0"",""16902""
""focus"",""0"",""447494""
""fullscreenenter"",""0"",""447612""
","""event"",""trial"",""time""
""blur"",""0"",""16902""
","""event"",""trial"",""time""
""focus"",""0"",""447494""
","""event"",""trial"",""time""
""fullscreenenter"",""0"",""447612""
","
","null","run_exp/static/images/Set 6_rs/073a.jpg","null","","","","","","learn","SL",""
"","html-keyboard-response","12","502596","0.0-12.0","""event"",""trial"",""time""
""blur"",""0"",""16902""
""focus"",""0"",""447494""
""fullscreenenter"",""0"",""447612""
","""event"",""trial"",""time""
""blur"",""0"",""16902""
","""event"",""trial"",""time""
""focus"",""0"",""447494""
","""event"",""trial"",""time""
""fullscreenenter"",""0"",""447612""
","
","null","<p></p>","null","","","","","","","",""
"","image","13","503304","0.0-13.0","""event"",""trial"",""time""
""blur"",""0"",""16902""
""focus"",""0"",""447494""
""fullscreenenter"",""0"",""447612""
","""event"",""trial"",""time""
""blur"",""0"",""16902""
","""event"",""trial"",""time""
""focus"",""0"",""447494""
","""event"",""trial"",""time""
""fullscreenenter"",""0"",""447612""
","
","707","run_exp/static/images/Set 6_rs/089a.jpg","86","","","","","","learn","SL",""
"","show_choice","14","504606","0.0-14.0","""event"",""trial"",""time""
""blur"",""0"",""16902""
""focus"",""0"",""447494""
""fullscreenenter"",""0"",""447612""
","""event"",""trial"",""time""
""blur"",""0"",""16902""
","""event"",""trial"",""time""
""focus"",""0"",""447494""
","""event"",""trial"",""time""
""fullscreenenter"",""0"",""447612""
","
","null","run_exp/static/images/Set 6_rs/089a.jpg","null","","","","","","learn","SL",""
"","html-keyboard-response","15","505116","0.0-15.0","""event"",""trial"",""time""
""blur"",""0"",""16902""
""focus"",""0"",""447494""
""fullscreenenter"",""0"",""447612""
","""event"",""trial"",""time""
""blur"",""0"",""16902""
","""event"",""trial"",""time""
""focus"",""0"",""447494""
","""event"",""trial"",""time""
""fullscreenenter"",""0"",""447612""
","
","null","<p></p>","null","","","","","","","",""
"","image","16","505876","0.0-16.0","""event"",""trial"",""time""
""blur"",""0"",""16902""
""focus"",""0"",""447494""
""fullscreenenter"",""0"",""447612""
","""event"",""trial"",""time""
""blur"",""0"",""16902""
","""event"",""trial"",""time""
""focus"",""0"",""447494""
","""event"",""trial"",""time""
""fullscreenenter"",""0"",""447612""
","
","757.8999999761581","run_exp/static/images/Set 6_rs/045a.jpg","86","","","","","","learn","SR",""
"","show_choice","17","507125","0.0-17.0","""event"",""trial"",""time""
""blur"",""0"",""16902""
""focus"",""0"",""447494""
""fullscreenenter"",""0"",""447612""
","""event"",""trial"",""time""
""blur"",""0"",""16902""
","""event"",""trial"",""time""
""focus"",""0"",""447494""
","""event"",""trial"",""time""
""fullscreenenter"",""0"",""447612""
","
","null","run_exp/static/images/Set 6_rs/045a.jpg","null","","","","","","learn","SR",""
"","html-keyboard-response","18","507635","0.0-18.0","""event"",""trial"",""time""
""blur"",""0"",""16902""
""focus"",""0"",""447494""
""fullscreenenter"",""0"",""447612""
","""event"",""trial"",""time""
""blur"",""0"",""16902""
","""event"",""trial"",""time""
""focus"",""0"",""447494""
","""event"",""trial"",""time""
""fullscreenenter"",""0"",""447612""
","
","null","<p></p>","null","","","","","","","",""
"","image","19","508479","0.0-19.0","""event"",""trial"",""time""
""blur"",""0"",""16902""
""focus"",""0"",""447494""
""fullscreenenter"",""0"",""447612""
","""event"",""trial"",""time""
""blur"",""0"",""16902""
","""event"",""trial"",""time""
""focus"",""0"",""447494""
","""event"",""trial"",""time""
""fullscreenenter"",""0"",""447612""
","
","842","run_exp/static/images/Set 6_rs/181a.jpg","78","","","","","","learn","SL",""
"","show_choice","20","509649","0.0-20.0","""event"",""trial"",""time""
""blur"",""0"",""16902""
""focus"",""0"",""447494""
""fullscreenenter"",""0"",""447612""
","""event"",""trial"",""time""
""blur"",""0"",""16902""
","""event"",""trial"",""time""
""focus"",""0"",""447494""
","""event"",""trial"",""time""
""fullscreenenter"",""0"",""447612""
","
","null","run_exp/static/images/Set 6_rs/181a.jpg","null","","","","","","learn","SL",""
"","html-keyboard-response","21","510164","0.0-21.0","""event"",""trial"",""time""
""blur"",""0"",""16902""
""focus"",""0"",""447494""
""fullscreenenter"",""0"",""447612""
","""event"",""trial"",""time""
""blur"",""0"",""16902""
","""event"",""trial"",""time""
""focus"",""0"",""447494""
","""event"",""trial"",""time""
""fullscreenenter"",""0"",""447612""
","
","null","<p></p>","null","","","","","","","",""
"","image","22","510815","0.0-22.0","""event"",""trial"",""time""
""blur"",""0"",""16902""
""focus"",""0"",""447494""
""fullscreenenter"",""0"",""447612""
","""event"",""trial"",""time""
""blur"",""0"",""16902""
","""event"",""trial"",""time""
""focus"",""0"",""447494""
","""event"",""trial"",""time""
""fullscreenenter"",""0"",""447612""
","
","649.4000000357628","run_exp/static/images/Set 6_rs/085a.jpg","86","","","","","","learn","SL",""
"","show_choice","23","512182","0.0-23.0","""event"",""trial"",""time""
""blur"",""0"",""16902""
""focus"",""0"",""447494""
""fullscreenenter"",""0"",""447612""
","""event"",""trial"",""time""
""blur"",""0"",""16902""
","""event"",""trial"",""time""
""focus"",""0"",""447494""
","""event"",""trial"",""time""
""fullscreenenter"",""0"",""447612""
","
","null","run_exp/static/images/Set 6_rs/085a.jpg","null","","","","","","learn","SL",""
"","html-keyboard-response","24","512684","0.0-24.0","""event"",""trial"",""time""
""blur"",""0"",""16902""
""focus"",""0"",""447494""
""fullscreenenter"",""0"",""447612""
","""event"",""trial"",""time""
""blur"",""0"",""16902""
","""event"",""trial"",""time""
""focus"",""0"",""447494""
","""event"",""trial"",""time""
""fullscreenenter"",""0"",""447612""
","
","null","<p></p>","null","","","","","","","",""
"","image","25","513465","0.0-25.0","""event"",""trial"",""time""
""blur"",""0"",""16902""
""focus"",""0"",""447494""
""fullscreenenter"",""0"",""447612""
","""event"",""trial"",""time""
""blur"",""0"",""16902""
","""event"",""trial"",""time""
""focus"",""0"",""447494""
","""event"",""trial"",""time""
""fullscreenenter"",""0"",""447612""
","
","778.1000000238419","run_exp/static/images/Set 6_rs/070a.jpg","86","","","","","","learn","SR",""
"","show_choice","26","514692","0.0-26.0","""event"",""trial"",""time""
""blur"",""0"",""16902""
""focus"",""0"",""447494""
""fullscreenenter"",""0"",""447612""
","""event"",""trial"",""time""
""blur"",""0"",""16902""
","""event"",""trial"",""time""
""focus"",""0"",""447494""
","""event"",""trial"",""time""
""fullscreenenter"",""0"",""447612""
","
","null","run_exp/static/images/Set 6_rs/070a.jpg","null","","","","","","learn","SR",""
"","html-keyboard-response","27","515210","0.0-27.0","""event"",""trial"",""time""
""blur"",""0"",""16902""
""focus"",""0"",""447494""
""fullscreenenter"",""0"",""447612""
","""event"",""trial"",""time""
""blur"",""0"",""16902""
","""event"",""trial"",""time""
""focus"",""0"",""447494""
","""event"",""trial"",""time""
""fullscreenenter"",""0"",""447612""
","
","null","<p></p>","null","","","","","","","",""
"","image","28","516179","0.0-28.0","""event"",""trial"",""time""
""blur"",""0"",""16902""
""focus"",""0"",""447494""
""fullscreenenter"",""0"",""447612""
","""event"",""trial"",""time""
""blur"",""0"",""16902""
","""event"",""trial"",""time""
""focus"",""0"",""447494""
","""event"",""trial"",""time""
""fullscreenenter"",""0"",""447612""
","
","966.8000000119209","run_exp/static/images/Set 6_rs/154a.jpg","86","","","","","","learn","SR",""
"","show_choice","29","517220","0.0-29.0","""event"",""trial"",""time""
""blur"",""0"",""16902""
""focus"",""0"",""447494""
""fullscreenenter"",""0"",""447612""
","""event"",""trial"",""time""
""blur"",""0"",""16902""
","""event"",""trial"",""time""
""focus"",""0"",""447494""
","""event"",""trial"",""time""
""fullscreenenter"",""0"",""447612""
","
","null","run_exp/static/images/Set 6_rs/154a.jpg","null","","","","","","learn","SR",""
"","html-keyboard-response","30","517733","0.0-30.0","""event"",""trial"",""time""
""blur"",""0"",""16902""
""focus"",""0"",""447494""
""fullscreenenter"",""0"",""447612""
","""event"",""trial"",""time""
""blur"",""0"",""16902""
","""event"",""trial"",""time""
""focus"",""0"",""447494""
","""event"",""trial"",""time""
""fullscreenenter"",""0"",""447612""
","
","null","<p></p>","null","","","","","","","",""
"","image","31","518800","0.0-31.0","""event"",""trial"",""time""
""blur"",""0"",""16902""
""focus"",""0"",""447494""
""fullscreenenter"",""0"",""447612""
","""event"",""trial"",""time""
""blur"",""0"",""16902""
","""event"",""trial"",""time""
""focus"",""0"",""447494""
","""event"",""trial"",""time""
""fullscreenenter"",""0"",""447612""
","
","1064.5","run_exp/static/images/Set 6_rs/062a.jpg","86","","","","","","learn","SL",""
"","show_choice","32","519746","0.0-32.0","""event"",""trial"",""time""
""blur"",""0"",""16902""
""focus"",""0"",""447494""
""fullscreenenter"",""0"",""447612""
","""event"",""trial"",""time""
""blur"",""0"",""16902""
","""event"",""trial"",""time""
""focus"",""0"",""447494""
","""event"",""trial"",""time""
""fullscreenenter"",""0"",""447612""
","
","null","run_exp/static/images/Set 6_rs/062a.jpg","null","","","","","","learn","SL",""
"","html-keyboard-response","33","520261","0.0-33.0","""event"",""trial"",""time""
""blur"",""0"",""16902""
""focus"",""0"",""447494""
""fullscreenenter"",""0"",""447612""
","""event"",""trial"",""time""
""blur"",""0"",""16902""
","""event"",""trial"",""time""
""focus"",""0"",""447494""
","""event"",""trial"",""time""
""fullscreenenter"",""0"",""447612""
","
","null","<p></p>","null","","","","","","","",""
"","image","34","520969","0.0-34.0","""event"",""trial"",""time""
""blur"",""0"",""16902""
""focus"",""0"",""447494""
""fullscreenenter"",""0"",""447612""
","""event"",""trial"",""time""
""blur"",""0"",""16902""
","""event"",""trial"",""time""
""focus"",""0"",""447494""
","""event"",""trial"",""time""
""fullscreenenter"",""0"",""447612""
","
","706.3000000119209","run_exp/static/images/Set 6_rs/112a.jpg","86","","","","","","learn","SR",""
"","show_choice","35","522274","0.0-35.0","""event"",""trial"",""time""
""blur"",""0"",""16902""
""focus"",""0"",""447494""
""fullscreenenter"",""0"",""447612""
","""event"",""trial"",""time""
""blur"",""0"",""16902""
","""event"",""trial"",""time""
""focus"",""0"",""447494""
","""event"",""trial"",""time""
""fullscreenenter"",""0"",""447612""
","
","null","run_exp/static/images/Set 6_rs/112a.jpg","null","","","","","","learn","SR",""
"","html-keyboard-response","36","522786","0.0-36.0","""event"",""trial"",""time""
""blur"",""0"",""16902""
""focus"",""0"",""447494""
""fullscreenenter"",""0"",""447612""
","""event"",""trial"",""time""
""blur"",""0"",""16902""
","""event"",""trial"",""time""
""focus"",""0"",""447494""
","""event"",""trial"",""time""
""fullscreenenter"",""0"",""447612""
","
","null","<p></p>","null","","","","","","","",""
"","image","37","523863","0.0-37.0","""event"",""trial"",""time""
""blur"",""0"",""16902""
""focus"",""0"",""447494""
""fullscreenenter"",""0"",""447612""
","""event"",""trial"",""time""
""blur"",""0"",""16902""
","""event"",""trial"",""time""
""focus"",""0"",""447494""
","""event"",""trial"",""time""
""fullscreenenter"",""0"",""447612""
","
","1075.6000000238419","run_exp/static/images/Set 6_rs/138a.jpg","78","","","","","","learn","SL",""
"","show_choice","38","524794","0.0-38.0","""event"",""trial"",""time""
""blur"",""0"",""16902""
""focus"",""0"",""447494""
""fullscreenenter"",""0"",""447612""
","""event"",""trial"",""time""
""blur"",""0"",""16902""
","""event"",""trial"",""time""
""focus"",""0"",""447494""
","""event"",""trial"",""time""
""fullscreenenter"",""0"",""447612""
","
","null","run_exp/static/images/Set 6_rs/138a.jpg","null","","","","","","learn","SL",""
"","html-keyboard-response","39","525310","0.0-39.0","""event"",""trial"",""time""
""blur"",""0"",""16902""
""focus"",""0"",""447494""
""fullscreenenter"",""0"",""447612""
","""event"",""trial"",""time""
""blur"",""0"",""16902""
","""event"",""trial"",""time""
""focus"",""0"",""447494""
","""event"",""trial"",""time""
""fullscreenenter"",""0"",""447612""
","
","null","<p></p>","null","","","","","","","",""
"","image","40","526228","0.0-40.0","""event"",""trial"",""time""
""blur"",""0"",""16902""
""focus"",""0"",""447494""
""fullscreenenter"",""0"",""447612""
","""event"",""trial"",""time""
""blur"",""0"",""16902""
","""event"",""trial"",""time""
""focus"",""0"",""447494""
","""event"",""trial"",""time""
""fullscreenenter"",""0"",""447612""
","
","916.6999999880791","run_exp/static/images/Set 6_rs/134a.jpg","86","","","","","","learn","SR",""
"","show_choice","41","527317","0.0-41.0","""event"",""trial"",""time""
""blur"",""0"",""16902""
""focus"",""0"",""447494""
""fullscreenenter"",""0"",""447612""
","""event"",""trial"",""time""
""blur"",""0"",""16902""
","""event"",""trial"",""time""
""focus"",""0"",""447494""
","""event"",""trial"",""time""
""fullscreenenter"",""0"",""447612""
","
","null","run_exp/static/images/Set 6_rs/134a.jpg","null","","","","","","learn","SR",""
"","html-keyboard-response","42","527833","0.0-42.0","""event"",""trial"",""time""
""blur"",""0"",""16902""
""focus"",""0"",""447494""
""fullscreenenter"",""0"",""447612""
","""event"",""trial"",""time""
""blur"",""0"",""16902""
","""event"",""trial"",""time""
""focus"",""0"",""447494""
","""event"",""trial"",""time""
""fullscreenenter"",""0"",""447612""
","
","null","<p></p>","null","","","","","","","",""
"","image","43","529136","0.0-43.0","""event"",""trial"",""time""
""blur"",""0"",""16902""
""focus"",""0"",""447494""
""fullscreenenter"",""0"",""447612""
","""event"",""trial"",""time""
""blur"",""0"",""16902""
","""event"",""trial"",""time""
""focus"",""0"",""447494""
","""event"",""trial"",""time""
""fullscreenenter"",""0"",""447612""
","
","1300.6000000238419","run_exp/static/images/Set 6_rs/014a.jpg","86","","","","","","learn","SL",""
"","show_choice","44","529842","0.0-44.0","""event"",""trial"",""time""
""blur"",""0"",""16902""
""focus"",""0"",""447494""
""fullscreenenter"",""0"",""447612""
","""event"",""trial"",""time""
""blur"",""0"",""16902""
","""event"",""trial"",""time""
""focus"",""0"",""447494""
","""event"",""trial"",""time""
""fullscreenenter"",""0"",""447612""
","
","null","run_exp/static/images/Set 6_rs/014a.jpg","null","","","","","","learn","SL",""
"","html-keyboard-response","45","530351","0.0-45.0","""event"",""trial"",""time""
""blur"",""0"",""16902""
""focus"",""0"",""447494""
""fullscreenenter"",""0"",""447612""
","""event"",""trial"",""time""
""blur"",""0"",""16902""
","""event"",""trial"",""time""
""focus"",""0"",""447494""
","""event"",""trial"",""time""
""fullscreenenter"",""0"",""447612""
","
","null","<p></p>","null","","","","","","","",""
"","image","46","531097","0.0-46.0","""event"",""trial"",""time""
""blur"",""0"",""16902""
""focus"",""0"",""447494""
""fullscreenenter"",""0"",""447612""
","""event"",""trial"",""time""
""blur"",""0"",""16902""
","""event"",""trial"",""time""
""focus"",""0"",""447494""
","""event"",""trial"",""time""
""fullscreenenter"",""0"",""447612""
","
","744.5","run_exp/static/images/Set 6_rs/095a.jpg","86","","","","","","learn","SL",""
"","show_choice","47","532363","0.0-47.0","""event"",""trial"",""time""
""blur"",""0"",""16902""
""focus"",""0"",""447494""
""fullscreenenter"",""0"",""447612""
","""event"",""trial"",""time""
""blur"",""0"",""16902""
","""event"",""trial"",""time""
""focus"",""0"",""447494""
","""event"",""trial"",""time""
""fullscreenenter"",""0"",""447612""
","
","null","run_exp/static/images/Set 6_rs/095a.jpg","null","","","","","","learn","SL",""
"","html-keyboard-response","48","532867","0.0-48.0","""event"",""trial"",""time""
""blur"",""0"",""16902""
""focus"",""0"",""447494""
""fullscreenenter"",""0"",""447612""
","""event"",""trial"",""time""
""blur"",""0"",""16902""
","""event"",""trial"",""time""
""focus"",""0"",""447494""
","""event"",""trial"",""time""
""fullscreenenter"",""0"",""447612""
","
","null","<p></p>","null","","","","","","","",""
"","image","49","533825","0.0-49.0","""event"",""trial"",""time""
""blur"",""0"",""16902""
""focus"",""0"",""447494""
""fullscreenenter"",""0"",""447612""
","""event"",""trial"",""time""
""blur"",""0"",""16902""
","""event"",""trial"",""time""
""focus"",""0"",""447494""
","""event"",""trial"",""time""
""fullscreenenter"",""0"",""447612""
","
","955.1999999880791","run_exp/static/images/Set 6_rs/166a.jpg","86","","","","","","learn","SR",""
"","show_choice","50","534885","0.0-50.0","""event"",""trial"",""time""
""blur"",""0"",""16902""
""focus"",""0"",""447494""
""fullscreenenter"",""0"",""447612""
","""event"",""trial"",""time""
""blur"",""0"",""16902""
","""event"",""trial"",""time""
""focus"",""0"",""447494""
","""event"",""trial"",""time""
""fullscreenenter"",""0"",""447612""
","
","null","run_exp/static/images/Set 6_rs/166a.jpg","null","","","","","","learn","SR",""
"","html-keyboard-response","51","535395","0.0-51.0","""event"",""trial"",""time""
""blur"",""0"",""16902""
""focus"",""0"",""447494""
""fullscreenenter"",""0"",""447612""
","""event"",""trial"",""time""
""blur"",""0"",""16902""
","""event"",""trial"",""time""
""focus"",""0"",""447494""
","""event"",""trial"",""time""
""fullscreenenter"",""0"",""447612""
","
","null","<p></p>","null","","","","","","","",""
"","image","52","536163","0.0-52.0","""event"",""trial"",""time""
""blur"",""0"",""16902""
""focus"",""0"",""447494""
""fullscreenenter"",""0"",""447612""
","""event"",""trial"",""time""
""blur"",""0"",""16902""
","""event"",""trial"",""time""
""focus"",""0"",""447494""
","""event"",""trial"",""time""
""fullscreenenter"",""0"",""447612""
","
","766.3000000119209","run_exp/static/images/Set 6_rs/063a.jpg","86","","","","","","learn","SR",""
"","show_choice","53","537402","0.0-53.0","""event"",""trial"",""time""
""blur"",""0"",""16902""
""focus"",""0"",""447494""
""fullscreenenter"",""0"",""447612""
","""event"",""trial"",""time""
""blur"",""0"",""16902""
","""event"",""trial"",""time""
""focus"",""0"",""447494""
","""event"",""trial"",""time""
""fullscreenenter"",""0"",""447612""
","
","null","run_exp/static/images/Set 6_rs/063a.jpg","null","","","","","","learn","SR",""
"","html-keyboard-response","54","537916","0.0-54.0","""event"",""trial"",""time""
""blur"",""0"",""16902""
""focus"",""0"",""447494""
""fullscreenenter"",""0"",""447612""
","""event"",""trial"",""time""
""blur"",""0"",""16902""
","""event"",""trial"",""time""
""focus"",""0"",""447494""
","""event"",""trial"",""time""
""fullscreenenter"",""0"",""447612""
","
","null","<p></p>","null","","","","","","","",""
"","image","55","538745","0.0-55.0","""event"",""trial"",""time""
""blur"",""0"",""16902""
""focus"",""0"",""447494""
""fullscreenenter"",""0"",""447612""
","""event"",""trial"",""time""
""blur"",""0"",""16902""
","""event"",""trial"",""time""
""focus"",""0"",""447494""
","""event"",""trial"",""time""
""fullscreenenter"",""0"",""447612""
","
","827.1999999880791","run_exp/static/images/Set 6_rs/088a.jpg","86","","","","","","learn","SR",""
"","show_choice","56","539930","0.0-56.0","""event"",""trial"",""time""
""blur"",""0"",""16902""
""focus"",""0"",""447494""
""fullscreenenter"",""0"",""447612""
","""event"",""trial"",""time""
""blur"",""0"",""16902""
","""event"",""trial"",""time""
""focus"",""0"",""447494""
","""event"",""trial"",""time""
""fullscreenenter"",""0"",""447612""
","
","null","run_exp/static/images/Set 6_rs/088a.jpg","null","","","","","","learn","SR",""
"","html-keyboard-response","57","540435","0.0-57.0","""event"",""trial"",""time""
""blur"",""0"",""16902""
""focus"",""0"",""447494""
""fullscreenenter"",""0"",""447612""
","""event"",""trial"",""time""
""blur"",""0"",""16902""
","""event"",""trial"",""time""
""focus"",""0"",""447494""
","""event"",""trial"",""time""
""fullscreenenter"",""0"",""447612""
","
","null","<p></p>","null","","","","","","","",""
"","image","58","541406","0.0-58.0","""event"",""trial"",""time""
""blur"",""0"",""16902""
""focus"",""0"",""447494""
""fullscreenenter"",""0"",""447612""
","""event"",""trial"",""time""
""blur"",""0"",""16902""
","""event"",""trial"",""time""
""focus"",""0"",""447494""
","""event"",""trial"",""time""
""fullscreenenter"",""0"",""447612""
","
","969.4000000357628","run_exp/static/images/Set 6_rs/144a.jpg","86","","","","","","learn","SL",""
"","show_choice","59","542438","0.0-59.0","""event"",""trial"",""time""
""blur"",""0"",""16902""
""focus"",""0"",""447494""
""fullscreenenter"",""0"",""447612""
","""event"",""trial"",""time""
""blur"",""0"",""16902""
","""event"",""trial"",""time""
""focus"",""0"",""447494""
","""event"",""trial"",""time""
""fullscreenenter"",""0"",""447612""
","
","null","run_exp/static/images/Set 6_rs/144a.jpg","null","","","","","","learn","SL",""
"","html-keyboard-response","60","542954","0.0-60.0","""event"",""trial"",""time""
""blur"",""0"",""16902""
""focus"",""0"",""447494""
""fullscreenenter"",""0"",""447612""
","""event"",""trial"",""time""
""blur"",""0"",""16902""
","""event"",""trial"",""time""
""focus"",""0"",""447494""
","""event"",""trial"",""time""
""fullscreenenter"",""0"",""447612""
","
","null","<p></p>","null","","","","","","","",""
"","image","61","544199","0.0-61.0","""event"",""trial"",""time""
""blur"",""0"",""16902""
""focus"",""0"",""447494""
""fullscreenenter"",""0"",""447612""
","""event"",""trial"",""time""
""blur"",""0"",""16902""
","""event"",""trial"",""time""
""focus"",""0"",""447494""
","""event"",""trial"",""time""
""fullscreenenter"",""0"",""447612""
","
","1241.8999999761581","run_exp/static/images/Set 6_rs/167a.jpg","86","","","","","","learn","SL",""
"","show_choice","62","544967","0.0-62.0","""event"",""trial"",""time""
""blur"",""0"",""16902""
""focus"",""0"",""447494""
""fullscreenenter"",""0"",""447612""
","""event"",""trial"",""time""
""blur"",""0"",""16902""
","""event"",""trial"",""time""
""focus"",""0"",""447494""
","""event"",""trial"",""time""
""fullscreenenter"",""0"",""447612""
","
","null","run_exp/static/images/Set 6_rs/167a.jpg","null","","","","","","learn","SL",""
"","html-keyboard-response","63","545483","0.0-63.0","""event"",""trial"",""time""
""blur"",""0"",""16902""
""focus"",""0"",""447494""
""fullscreenenter"",""0"",""447612""
","""event"",""trial"",""time""
""blur"",""0"",""16902""
","""event"",""trial"",""time""
""focus"",""0"",""447494""
","""event"",""trial"",""time""
""fullscreenenter"",""0"",""447612""
","
","null","<p></p>","null","","","","","","","",""
"","image","64","546454","0.0-64.0","""event"",""trial"",""time""
""blur"",""0"",""16902""
""focus"",""0"",""447494""
""fullscreenenter"",""0"",""447612""
","""event"",""trial"",""time""
""blur"",""0"",""16902""
","""event"",""trial"",""time""
""focus"",""0"",""447494""
","""event"",""trial"",""time""
""fullscreenenter"",""0"",""447612""
","
","970","run_exp/static/images/Set 6_rs/152a.jpg","86","","","","","","learn","SR",""
"","show_choice","65","547488","0.0-65.0","""event"",""trial"",""time""
""blur"",""0"",""16902""
""focus"",""0"",""447494""
""fullscreenenter"",""0"",""447612""
","""event"",""trial"",""time""
""blur"",""0"",""16902""
","""event"",""trial"",""time""
""focus"",""0"",""447494""
","""event"",""trial"",""time""
""fullscreenenter"",""0"",""447612""
","
","null","run_exp/static/images/Set 6_rs/152a.jpg","null","","","","","","learn","SR",""
"","html-keyboard-response","66","548001","0.0-66.0","""event"",""trial"",""time""
""blur"",""0"",""16902""
""focus"",""0"",""447494""
""fullscreenenter"",""0"",""447612""
","""event"",""trial"",""time""
""blur"",""0"",""16902""
","""event"",""trial"",""time""
""focus"",""0"",""447494""
","""event"",""trial"",""time""
""fullscreenenter"",""0"",""447612""
","
","null","<p></p>","null","","","","","","","",""
"","image","67","548852","0.0-67.0","""event"",""trial"",""time""
""blur"",""0"",""16902""
""focus"",""0"",""447494""
""fullscreenenter"",""0"",""447612""
","""event"",""trial"",""time""
""blur"",""0"",""16902""
","""event"",""trial"",""time""
""focus"",""0"",""447494""
","""event"",""trial"",""time""
""fullscreenenter"",""0"",""447612""
","
","849.6000000238419","run_exp/static/images/Set 6_rs/076a.jpg","78","","","","","","learn","SR",""
"","show_choice","68","550017","0.0-68.0","""event"",""trial"",""time""
""blur"",""0"",""16902""
""focus"",""0"",""447494""
""fullscreenenter"",""0"",""447612""
","""event"",""trial"",""time""
""blur"",""0"",""16902""
","""event"",""trial"",""time""
""focus"",""0"",""447494""
","""event"",""trial"",""time""
""fullscreenenter"",""0"",""447612""
","
","null","run_exp/static/images/Set 6_rs/076a.jpg","null","","","","","","learn","SR",""
"","html-keyboard-response","69","550534","0.0-69.0","""event"",""trial"",""time""
""blur"",""0"",""16902""
""focus"",""0"",""447494""
""fullscreenenter"",""0"",""447612""
","""event"",""trial"",""time""
""blur"",""0"",""16902""
","""event"",""trial"",""time""
""focus"",""0"",""447494""
","""event"",""trial"",""time""
""fullscreenenter"",""0"",""447612""
","
","null","<p></p>","null","","","","","","","",""
"","image","70","552444","0.0-70.0","""event"",""trial"",""time""
""blur"",""0"",""16902""
""focus"",""0"",""447494""
""fullscreenenter"",""0"",""447612""
","""event"",""trial"",""time""
""blur"",""0"",""16902""
","""event"",""trial"",""time""
""focus"",""0"",""447494""
","""event"",""trial"",""time""
""fullscreenenter"",""0"",""447612""
","
","1908.199999988079","run_exp/static/images/Set 6_rs/168a.jpg","86","","","","","","learn","SL",""
"","show_choice","71","552540","0.0-71.0","""event"",""trial"",""time""
""blur"",""0"",""16902""
""focus"",""0"",""447494""
""fullscreenenter"",""0"",""447612""
","""event"",""trial"",""time""
""blur"",""0"",""16902""
","""event"",""trial"",""time""
""focus"",""0"",""447494""
","""event"",""trial"",""time""
""fullscreenenter"",""0"",""447612""
","
","null","run_exp/static/images/Set 6_rs/168a.jpg","null","","","","","","learn","SL",""
"","html-keyboard-response","72","553050","0.0-72.0","""event"",""trial"",""time""
""blur"",""0"",""16902""
""focus"",""0"",""447494""
""fullscreenenter"",""0"",""447612""
","""event"",""trial"",""time""
""blur"",""0"",""16902""
","""event"",""trial"",""time""
""focus"",""0"",""447494""
","""event"",""trial"",""time""
""fullscreenenter"",""0"",""447612""
","
","null","<p></p>","null","","","","","","","",""
"","image","73","554327","0.0-73.0","""event"",""trial"",""time""
""blur"",""0"",""16902""
""focus"",""0"",""447494""
""fullscreenenter"",""0"",""447612""
","""event"",""trial"",""time""
""blur"",""0"",""16902""
","""event"",""trial"",""time""
""focus"",""0"",""447494""
","""event"",""trial"",""time""
""fullscreenenter"",""0"",""447612""
","
","1275.199999988079","run_exp/static/images/Set 6_rs/187a.jpg","86","","","","","","learn","SR",""
"","show_choice","74","555062","0.0-74.0","""event"",""trial"",""time""
""blur"",""0"",""16902""
""focus"",""0"",""447494""
""fullscreenenter"",""0"",""447612""
","""event"",""trial"",""time""
""blur"",""0"",""16902""
","""event"",""trial"",""time""
""focus"",""0"",""447494""
","""event"",""trial"",""time""
""fullscreenenter"",""0"",""447612""
","
","null","run_exp/static/images/Set 6_rs/187a.jpg","null","","","","","","learn","SR",""
"","html-keyboard-response","75","555568","0.0-75.0","""event"",""trial"",""time""
""blur"",""0"",""16902""
""focus"",""0"",""447494""
""fullscreenenter"",""0"",""447612""
","""event"",""trial"",""time""
""blur"",""0"",""16902""
","""event"",""trial"",""time""
""focus"",""0"",""447494""
","""event"",""trial"",""time""
""fullscreenenter"",""0"",""447612""
","
","null","<p></p>","null","","","","","","","",""
"","image","76","556716","0.0-76.0","""event"",""trial"",""time""
""blur"",""0"",""16902""
""focus"",""0"",""447494""
""fullscreenenter"",""0"",""447612""
","""event"",""trial"",""time""
""blur"",""0"",""16902""
","""event"",""trial"",""time""
""focus"",""0"",""447494""
","""event"",""trial"",""time""
""fullscreenenter"",""0"",""447612""
","
","1146.5","run_exp/static/images/Set 6_rs/079a.jpg","86","","","","","","learn","SL",""
"","show_choice","77","557582","0.0-77.0","""event"",""trial"",""time""
""blur"",""0"",""16902""
""focus"",""0"",""447494""
""fullscreenenter"",""0"",""447612""
","""event"",""trial"",""time""
""blur"",""0"",""16902""
","""event"",""trial"",""time""
""focus"",""0"",""447494""
","""event"",""trial"",""time""
""fullscreenenter"",""0"",""447612""
","
","null","run_exp/static/images/Set 6_rs/079a.jpg","null","","","","","","learn","SL",""
"","html-keyboard-response","78","558085","0.0-78.0","""event"",""trial"",""time""
""blur"",""0"",""16902""
""focus"",""0"",""447494""
""fullscreenenter"",""0"",""447612""
","""event"",""trial"",""time""
""blur"",""0"",""16902""
","""event"",""trial"",""time""
""focus"",""0"",""447494""
","""event"",""trial"",""time""
""fullscreenenter"",""0"",""447612""
","
","null","<p></p>","null","","","","","","","",""
"","image","79","558866","0.0-79.0","""event"",""trial"",""time""
""blur"",""0"",""16902""
""focus"",""0"",""447494""
""fullscreenenter"",""0"",""447612""
","""event"",""trial"",""time""
""blur"",""0"",""16902""
","""event"",""trial"",""time""
""focus"",""0"",""447494""
","""event"",""trial"",""time""
""fullscreenenter"",""0"",""447612""
","
","779.9000000357628","run_exp/static/images/Set 6_rs/071a.jpg","86","","","","","","learn","SL",""
"","show_choice","80","560096","0.0-80.0","""event"",""trial"",""time""
""blur"",""0"",""16902""
""focus"",""0"",""447494""
""fullscreenenter"",""0"",""447612""
","""event"",""trial"",""time""
""blur"",""0"",""16902""
","""event"",""trial"",""time""
""focus"",""0"",""447494""
","""event"",""trial"",""time""
""fullscreenenter"",""0"",""447612""
","
","null","run_exp/static/images/Set 6_rs/071a.jpg","null","","","","","","learn","SL",""
"","html-keyboard-response","81","560601","0.0-81.0","""event"",""trial"",""time""
""blur"",""0"",""16902""
""focus"",""0"",""447494""
""fullscreenenter"",""0"",""447612""
","""event"",""trial"",""time""
""blur"",""0"",""16902""
","""event"",""trial"",""time""
""focus"",""0"",""447494""
","""event"",""trial"",""time""
""fullscreenenter"",""0"",""447612""
","
","null","<p></p>","null","","","","","","","",""
"","image","82","561638","0.0-82.0","""event"",""trial"",""time""
""blur"",""0"",""16902""
""focus"",""0"",""447494""
""fullscreenenter"",""0"",""447612""
","""event"",""trial"",""time""
""blur"",""0"",""16902""
","""event"",""trial"",""time""
""focus"",""0"",""447494""
","""event"",""trial"",""time""
""fullscreenenter"",""0"",""447612""
","
","1034.800000011921","run_exp/static/images/Set 6_rs/191a.jpg","86","","","","","","learn","SL",""
"","show_choice","83","562609","0.0-83.0","""event"",""trial"",""time""
""blur"",""0"",""16902""
""focus"",""0"",""447494""
""fullscreenenter"",""0"",""447612""
","""event"",""trial"",""time""
""blur"",""0"",""16902""
","""event"",""trial"",""time""
""focus"",""0"",""447494""
","""event"",""trial"",""time""
""fullscreenenter"",""0"",""447612""
","
","null","run_exp/static/images/Set 6_rs/191a.jpg","null","","","","","","learn","SL",""
"","html-keyboard-response","84","563118","0.0-84.0","""event"",""trial"",""time""
""blur"",""0"",""16902""
""focus"",""0"",""447494""
""fullscreenenter"",""0"",""447612""
","""event"",""trial"",""time""
""blur"",""0"",""16902""
","""event"",""trial"",""time""
""focus"",""0"",""447494""
","""event"",""trial"",""time""
""fullscreenenter"",""0"",""447612""
","
","null","<p></p>","null","","","","","","","",""
"","image","85","565133","0.0-85.0","""event"",""trial"",""time""
""blur"",""0"",""16902""
""focus"",""0"",""447494""
""fullscreenenter"",""0"",""447612""
","""event"",""trial"",""time""
""blur"",""0"",""16902""
","""event"",""trial"",""time""
""focus"",""0"",""447494""
","""event"",""trial"",""time""
""fullscreenenter"",""0"",""447612""
","
","null","run_exp/static/images/Set 6_rs/016a.jpg","null","","","","","","learn","SL",""
"","show_choice","86","567150","0.0-86.0","""event"",""trial"",""time""
""blur"",""0"",""16902""
""focus"",""0"",""447494""
""fullscreenenter"",""0"",""447612""
","""event"",""trial"",""time""
""blur"",""0"",""16902""
","""event"",""trial"",""time""
""focus"",""0"",""447494""
","""event"",""trial"",""time""
""fullscreenenter"",""0"",""447612""
","
","null","run_exp/static/images/blank.png","null","","","","","","learn","SL",""
"","html-keyboard-response","87","567662","0.0-87.0","""event"",""trial"",""time""
""blur"",""0"",""16902""
""focus"",""0"",""447494""
""fullscreenenter"",""0"",""447612""
","""event"",""trial"",""time""
""blur"",""0"",""16902""
","""event"",""trial"",""time""
""focus"",""0"",""447494""
","""event"",""trial"",""time""
""fullscreenenter"",""0"",""447612""
","
","null","<p></p>","null","","","","","","","",""
"","image","88","568777","0.0-88.0","""event"",""trial"",""time""
""blur"",""0"",""16902""
""focus"",""0"",""447494""
""fullscreenenter"",""0"",""447612""
","""event"",""trial"",""time""
""blur"",""0"",""16902""
","""event"",""trial"",""time""
""focus"",""0"",""447494""
","""event"",""trial"",""time""
""fullscreenenter"",""0"",""447612""
","
","1114.5","run_exp/static/images/Set 6_rs/064a.jpg","86","","","","","","learn","SR",""
"","show_choice","89","569675","0.0-89.0","""event"",""trial"",""time""
""blur"",""0"",""16902""
""focus"",""0"",""447494""
""fullscreenenter"",""0"",""447612""
","""event"",""trial"",""time""
""blur"",""0"",""16902""
","""event"",""trial"",""time""
""focus"",""0"",""447494""
","""event"",""trial"",""time""
""fullscreenenter"",""0"",""447612""
","
","null","run_exp/static/images/Set 6_rs/064a.jpg","null","","","","","","learn","SR",""
"","html-keyboard-response","90","570180","0.0-90.0","""event"",""trial"",""time""
""blur"",""0"",""16902""
""focus"",""0"",""447494""
""fullscreenenter"",""0"",""447612""
","""event"",""trial"",""time""
""blur"",""0"",""16902""
","""event"",""trial"",""time""
""focus"",""0"",""447494""
","""event"",""trial"",""time""
""fullscreenenter"",""0"",""447612""
","
","null","<p></p>","null","","","","","","","",""
"","image","91","571813","0.0-91.0","""event"",""trial"",""time""
""blur"",""0"",""16902""
""focus"",""0"",""447494""
""fullscreenenter"",""0"",""447612""
","""event"",""trial"",""time""
""blur"",""0"",""16902""
","""event"",""trial"",""time""
""focus"",""0"",""447494""
","""event"",""trial"",""time""
""fullscreenenter"",""0"",""447612""
","
","1631.699999988079","run_exp/static/images/Set 6_rs/150a.jpg","86","","","","","","learn","SR",""
"","show_choice","92","572189","0.0-92.0","""event"",""trial"",""time""
""blur"",""0"",""16902""
""focus"",""0"",""447494""
""fullscreenenter"",""0"",""447612""
","""event"",""trial"",""time""
""blur"",""0"",""16902""
","""event"",""trial"",""time""
""focus"",""0"",""447494""
","""event"",""trial"",""time""
""fullscreenenter"",""0"",""447612""
","
","null","run_exp/static/images/Set 6_rs/150a.jpg","null","","","","","","learn","SR",""
"","html-keyboard-response","93","572701","0.0-93.0","""event"",""trial"",""time""
""blur"",""0"",""16902""
""focus"",""0"",""447494""
""fullscreenenter"",""0"",""447612""
","""event"",""trial"",""time""
""blur"",""0"",""16902""
","""event"",""trial"",""time""
""focus"",""0"",""447494""
","""event"",""trial"",""time""
""fullscreenenter"",""0"",""447612""
","
","null","<p></p>","null","","","","","","","",""
"","image","94","573856","0.0-94.0","""event"",""trial"",""time""
""blur"",""0"",""16902""
""focus"",""0"",""447494""
""fullscreenenter"",""0"",""447612""
","""event"",""trial"",""time""
""blur"",""0"",""16902""
","""event"",""trial"",""time""
""focus"",""0"",""447494""
","""event"",""trial"",""time""
""fullscreenenter"",""0"",""447612""
","
","1152.699999988079","run_exp/static/images/Set 6_rs/129a.jpg","86","","","","","","learn","SL",""
"","show_choice","95","574711","0.0-95.0","""event"",""trial"",""time""
""blur"",""0"",""16902""
""focus"",""0"",""447494""
""fullscreenenter"",""0"",""447612""
","""event"",""trial"",""time""
""blur"",""0"",""16902""
","""event"",""trial"",""time""
""focus"",""0"",""447494""
","""event"",""trial"",""time""
""fullscreenenter"",""0"",""447612""
","
","null","run_exp/static/images/Set 6_rs/129a.jpg","null","","","","","","learn","SL",""
"","html-keyboard-response","96","575218","0.0-96.0","""event"",""trial"",""time""
""blur"",""0"",""16902""
""focus"",""0"",""447494""
""fullscreenenter"",""0"",""447612""
","""event"",""trial"",""time""
""blur"",""0"",""16902""
","""event"",""trial"",""time""
""focus"",""0"",""447494""
","""event"",""trial"",""time""
""fullscreenenter"",""0"",""447612""
","
","null","<p></p>","null","","","","","","","",""
"","image","97","576559","0.0-97.0","""event"",""trial"",""time""
""blur"",""0"",""16902""
""focus"",""0"",""447494""
""fullscreenenter"",""0"",""447612""
","""event"",""trial"",""time""
""blur"",""0"",""16902""
","""event"",""trial"",""time""
""focus"",""0"",""447494""
","""event"",""trial"",""time""
""fullscreenenter"",""0"",""447612""
","
","1338.6000000238419","run_exp/static/images/Set 6_rs/108a.jpg","86","","","","","","learn","SR",""
"","show_choice","98","577225","0.0-98.0","""event"",""trial"",""time""
""blur"",""0"",""16902""
""focus"",""0"",""447494""
""fullscreenenter"",""0"",""447612""
","""event"",""trial"",""time""
""blur"",""0"",""16902""
","""event"",""trial"",""time""
""focus"",""0"",""447494""
","""event"",""trial"",""time""
""fullscreenenter"",""0"",""447612""
","
","null","run_exp/static/images/Set 6_rs/108a.jpg","null","","","","","","learn","SR",""
"","html-keyboard-response","99","577735","0.0-99.0","""event"",""trial"",""time""
""blur"",""0"",""16902""
""focus"",""0"",""447494""
""fullscreenenter"",""0"",""447612""
","""event"",""trial"",""time""
""blur"",""0"",""16902""
","""event"",""trial"",""time""
""focus"",""0"",""447494""
","""event"",""trial"",""time""
""fullscreenenter"",""0"",""447612""
","
","null","<p></p>","null","","","","","","","",""
"","image","100","579751","0.0-100.0","""event"",""trial"",""time""
""blur"",""0"",""16902""
""focus"",""0"",""447494""
""fullscreenenter"",""0"",""447612""
","""event"",""trial"",""time""
""blur"",""0"",""16902""
","""event"",""trial"",""time""
""focus"",""0"",""447494""
","""event"",""trial"",""time""
""fullscreenenter"",""0"",""447612""
","
","null","run_exp/static/images/Set 6_rs/012a.jpg","null","","","","","","learn","SR",""
"","show_choice","101","581766","0.0-101.0","""event"",""trial"",""time""
""blur"",""0"",""16902""
""focus"",""0"",""447494""
""fullscreenenter"",""0"",""447612""
","""event"",""trial"",""time""
""blur"",""0"",""16902""
","""event"",""trial"",""time""
""focus"",""0"",""447494""
","""event"",""trial"",""time""
""fullscreenenter"",""0"",""447612""
","
","null","run_exp/static/images/blank.png","null","","","","","","learn","SR",""
"","html-keyboard-response","102","582268","0.0-102.0","""event"",""trial"",""time""
""blur"",""0"",""16902""
""focus"",""0"",""447494""
""fullscreenenter"",""0"",""447612""
","""event"",""trial"",""time""
""blur"",""0"",""16902""
","""event"",""trial"",""time""
""focus"",""0"",""447494""
","""event"",""trial"",""time""
""fullscreenenter"",""0"",""447612""
","
","null","<p></p>","null","","","","","","","",""
"","image","103","583208","0.0-103.0","""event"",""trial"",""time""
""blur"",""0"",""16902""
""focus"",""0"",""447494""
""fullscreenenter"",""0"",""447612""
","""event"",""trial"",""time""
""blur"",""0"",""16902""
","""event"",""trial"",""time""
""focus"",""0"",""447494""
","""event"",""trial"",""time""
""fullscreenenter"",""0"",""447612""
","
","938.1000000238419","run_exp/static/images/Set 6_rs/007a.jpg","86","","","","","","learn","SR",""
"","show_choice","104","584286","0.0-104.0","""event"",""trial"",""time""
""blur"",""0"",""16902""
""focus"",""0"",""447494""
""fullscreenenter"",""0"",""447612""
","""event"",""trial"",""time""
""blur"",""0"",""16902""
","""event"",""trial"",""time""
""focus"",""0"",""447494""
","""event"",""trial"",""time""
""fullscreenenter"",""0"",""447612""
","
","null","run_exp/static/images/Set 6_rs/007a.jpg","null","","","","","","learn","SR",""
"","html-keyboard-response","105","584800","0.0-105.0","""event"",""trial"",""time""
""blur"",""0"",""16902""
""focus"",""0"",""447494""
""fullscreenenter"",""0"",""447612""
","""event"",""trial"",""time""
""blur"",""0"",""16902""
","""event"",""trial"",""time""
""focus"",""0"",""447494""
","""event"",""trial"",""time""
""fullscreenenter"",""0"",""447612""
","
","null","<p></p>","null","","","","","","","",""
"","image","106","586814","0.0-106.0","""event"",""trial"",""time""
""blur"",""0"",""16902""
""focus"",""0"",""447494""
""fullscreenenter"",""0"",""447612""
","""event"",""trial"",""time""
""blur"",""0"",""16902""
","""event"",""trial"",""time""
""focus"",""0"",""447494""
","""event"",""trial"",""time""
""fullscreenenter"",""0"",""447612""
","
","null","run_exp/static/images/Set 6_rs/010a.jpg","null","","","","","","learn","SR",""
"","show_choice","107","588820","0.0-107.0","""event"",""trial"",""time""
""blur"",""0"",""16902""
""focus"",""0"",""447494""
""fullscreenenter"",""0"",""447612""
","""event"",""trial"",""time""
""blur"",""0"",""16902""
","""event"",""trial"",""time""
""focus"",""0"",""447494""
","""event"",""trial"",""time""
""fullscreenenter"",""0"",""447612""
","
","null","run_exp/static/images/blank.png","null","","","","","","learn","SR",""
"","html-keyboard-response","108","589334","0.0-108.0","""event"",""trial"",""time""
""blur"",""0"",""16902""
""focus"",""0"",""447494""
""fullscreenenter"",""0"",""447612""
","""event"",""trial"",""time""
""blur"",""0"",""16902""
","""event"",""trial"",""time""
""focus"",""0"",""447494""
","""event"",""trial"",""time""
""fullscreenenter"",""0"",""447612""
","
","null","<p></p>","null","","","","","","","",""
"","image","109","590496","0.0-109.0","""event"",""trial"",""time""
""blur"",""0"",""16902""
""focus"",""0"",""447494""
""fullscreenenter"",""0"",""447612""
","""event"",""trial"",""time""
""blur"",""0"",""16902""
","""event"",""trial"",""time""
""focus"",""0"",""447494""
","""event"",""trial"",""time""
""fullscreenenter"",""0"",""447612""
","
","1160.800000011921","run_exp/static/images/Set 6_rs/055a.jpg","86","","","","","","learn","SL",""
"","show_choice","110","591350","0.0-110.0","""event"",""trial"",""time""
""blur"",""0"",""16902""
""focus"",""0"",""447494""
""fullscreenenter"",""0"",""447612""
","""event"",""trial"",""time""
""blur"",""0"",""16902""
","""event"",""trial"",""time""
""focus"",""0"",""447494""
","""event"",""trial"",""time""
""fullscreenenter"",""0"",""447612""
","
","null","run_exp/static/images/Set 6_rs/055a.jpg","null","","","","","","learn","SL",""
"","html-keyboard-response","111","591867","0.0-111.0","""event"",""trial"",""time""
""blur"",""0"",""16902""
""focus"",""0"",""447494""
""fullscreenenter"",""0"",""447612""
","""event"",""trial"",""time""
""blur"",""0"",""16902""
","""event"",""trial"",""time""
""focus"",""0"",""447494""
","""event"",""trial"",""time""
""fullscreenenter"",""0"",""447612""
","
","null","<p></p>","null","","","","","","","",""
"","image","112","593341","0.0-112.0","""event"",""trial"",""time""
""blur"",""0"",""16902""
""focus"",""0"",""447494""
""fullscreenenter"",""0"",""447612""
","""event"",""trial"",""time""
""blur"",""0"",""16902""
","""event"",""trial"",""time""
""focus"",""0"",""447494""
","""event"",""trial"",""time""
""fullscreenenter"",""0"",""447612""
","
","1472.3999999761581","run_exp/static/images/Set 6_rs/141a.jpg","86","","","","","","learn","SR",""
"","show_choice","113","593883","0.0-113.0","""event"",""trial"",""time""
""blur"",""0"",""16902""
""focus"",""0"",""447494""
""fullscreenenter"",""0"",""447612""
","""event"",""trial"",""time""
""blur"",""0"",""16902""
","""event"",""trial"",""time""
""focus"",""0"",""447494""
","""event"",""trial"",""time""
""fullscreenenter"",""0"",""447612""
","
","null","run_exp/static/images/Set 6_rs/141a.jpg","null","","","","","","learn","SR",""
"","html-keyboard-response","114","594385","0.0-114.0","""event"",""trial"",""time""
""blur"",""0"",""16902""
""focus"",""0"",""447494""
""fullscreenenter"",""0"",""447612""
","""event"",""trial"",""time""
""blur"",""0"",""16902""
","""event"",""trial"",""time""
""focus"",""0"",""447494""
","""event"",""trial"",""time""
""fullscreenenter"",""0"",""447612""
","
","null","<p></p>","null","","","","","","","",""
"","image","115","595445","0.0-115.0","""event"",""trial"",""time""
""blur"",""0"",""16902""
""focus"",""0"",""447494""
""fullscreenenter"",""0"",""447612""
","""event"",""trial"",""time""
""blur"",""0"",""16902""
","""event"",""trial"",""time""
""focus"",""0"",""447494""
","""event"",""trial"",""time""
""fullscreenenter"",""0"",""447612""
","
","1058.0999999642372","run_exp/static/images/Set 6_rs/111a.jpg","86","","","","","","learn","SL",""
"","show_choice","116","596393","0.0-116.0","""event"",""trial"",""time""
""blur"",""0"",""16902""
""focus"",""0"",""447494""
""fullscreenenter"",""0"",""447612""
","""event"",""trial"",""time""
""blur"",""0"",""16902""
","""event"",""trial"",""time""
""focus"",""0"",""447494""
","""event"",""trial"",""time""
""fullscreenenter"",""0"",""447612""
","
","null","run_exp/static/images/Set 6_rs/111a.jpg","null","","","","","","learn","SL",""
"","html-keyboard-response","117","596901","0.0-117.0","""event"",""trial"",""time""
""blur"",""0"",""16902""
""focus"",""0"",""447494""
""fullscreenenter"",""0"",""447612""
","""event"",""trial"",""time""
""blur"",""0"",""16902""
","""event"",""trial"",""time""
""focus"",""0"",""447494""
","""event"",""trial"",""time""
""fullscreenenter"",""0"",""447612""
","
","null","<p></p>","null","","","","","","","",""
"","image","118","598107","0.0-118.0","""event"",""trial"",""time""
""blur"",""0"",""16902""
""focus"",""0"",""447494""
""fullscreenenter"",""0"",""447612""
","""event"",""trial"",""time""
""blur"",""0"",""16902""
","""event"",""trial"",""time""
""focus"",""0"",""447494""
","""event"",""trial"",""time""
""fullscreenenter"",""0"",""447612""
","
","1203.5999999642372","run_exp/static/images/Set 6_rs/008a.jpg","86","","","","","","learn","SL",""
"","show_choice","119","598916","0.0-119.0","""event"",""trial"",""time""
""blur"",""0"",""16902""
""focus"",""0"",""447494""
""fullscreenenter"",""0"",""447612""
","""event"",""trial"",""time""
""blur"",""0"",""16902""
","""event"",""trial"",""time""
""focus"",""0"",""447494""
","""event"",""trial"",""time""
""fullscreenenter"",""0"",""447612""
","
","null","run_exp/static/images/Set 6_rs/008a.jpg","null","","","","","","learn","SL",""
"","html-keyboard-response","120","599429","0.0-120.0","""event"",""trial"",""time""
""blur"",""0"",""16902""
""focus"",""0"",""447494""
""fullscreenenter"",""0"",""447612""
","""event"",""trial"",""time""
""blur"",""0"",""16902""
","""event"",""trial"",""time""
""focus"",""0"",""447494""
","""event"",""trial"",""time""
""fullscreenenter"",""0"",""447612""
","
","null","<p></p>","null","","","","","","","",""
"","image","121","600680","0.0-121.0","""event"",""trial"",""time""
""blur"",""0"",""16902""
""focus"",""0"",""447494""
""fullscreenenter"",""0"",""447612""
","""event"",""trial"",""time""
""blur"",""0"",""16902""
","""event"",""trial"",""time""
""focus"",""0"",""447494""
","""event"",""trial"",""time""
""fullscreenenter"",""0"",""447612""
","
","1249.3999999761581","run_exp/static/images/Set 6_rs/121a.jpg","78","","","","","","learn","SR",""
"","show_choice","122","601435","0.0-122.0","""event"",""trial"",""time""
""blur"",""0"",""16902""
""focus"",""0"",""447494""
""fullscreenenter"",""0"",""447612""
","""event"",""trial"",""time""
""blur"",""0"",""16902""
","""event"",""trial"",""time""
""focus"",""0"",""447494""
","""event"",""trial"",""time""
""fullscreenenter"",""0"",""447612""
","
","null","run_exp/static/images/Set 6_rs/121a.jpg","null","","","","","","learn","SR",""
"","html-keyboard-response","123","601946","0.0-123.0","""event"",""trial"",""time""
""blur"",""0"",""16902""
""focus"",""0"",""447494""
""fullscreenenter"",""0"",""447612""
","""event"",""trial"",""time""
""blur"",""0"",""16902""
","""event"",""trial"",""time""
""focus"",""0"",""447494""
","""event"",""trial"",""time""
""fullscreenenter"",""0"",""447612""
","
","null","<p></p>","null","","","","","","","",""
"","image","124","603963","0.0-124.0","""event"",""trial"",""time""
""blur"",""0"",""16902""
""focus"",""0"",""447494""
""fullscreenenter"",""0"",""447612""
","""event"",""trial"",""time""
""blur"",""0"",""16902""
","""event"",""trial"",""time""
""focus"",""0"",""447494""
","""event"",""trial"",""time""
""fullscreenenter"",""0"",""447612""
","
","null","run_exp/static/images/Set 6_rs/117a.jpg","null","","","","","","learn","SL",""
"","show_choice","125","605968","0.0-125.0","""event"",""trial"",""time""
""blur"",""0"",""16902""
""focus"",""0"",""447494""
""fullscreenenter"",""0"",""447612""
","""event"",""trial"",""time""
""blur"",""0"",""16902""
","""event"",""trial"",""time""
""focus"",""0"",""447494""
","""event"",""trial"",""time""
""fullscreenenter"",""0"",""447612""
","
","null","run_exp/static/images/blank.png","null","","","","","","learn","SL",""
"","html-keyboard-response","126","606483","0.0-126.0","""event"",""trial"",""time""
""blur"",""0"",""16902""
""focus"",""0"",""447494""
""fullscreenenter"",""0"",""447612""
","""event"",""trial"",""time""
""blur"",""0"",""16902""
","""event"",""trial"",""time""
""focus"",""0"",""447494""
","""event"",""trial"",""time""
""fullscreenenter"",""0"",""447612""
","
","null","<p></p>","null","","","","","","","",""
"","image","127","607482","0.0-127.0","""event"",""trial"",""time""
""blur"",""0"",""16902""
""focus"",""0"",""447494""
""fullscreenenter"",""0"",""447612""
","""event"",""trial"",""time""
""blur"",""0"",""16902""
","""event"",""trial"",""time""
""focus"",""0"",""447494""
","""event"",""trial"",""time""
""fullscreenenter"",""0"",""447612""
","
","996.8999999761581","run_exp/static/images/Set 6_rs/066a.jpg","78","","","","","","learn","SL",""
"","show_choice","128","608489","0.0-128.0","""event"",""trial"",""time""
""blur"",""0"",""16902""
""focus"",""0"",""447494""
""fullscreenenter"",""0"",""447612""
","""event"",""trial"",""time""
""blur"",""0"",""16902""
","""event"",""trial"",""time""
""focus"",""0"",""447494""
","""event"",""trial"",""time""
""fullscreenenter"",""0"",""447612""
","
","null","run_exp/static/images/Set 6_rs/066a.jpg","null","","","","","","learn","SL",""
"","html-keyboard-response","129","609001","0.0-129.0","""event"",""trial"",""time""
""blur"",""0"",""16902""
""focus"",""0"",""447494""
""fullscreenenter"",""0"",""447612""
","""event"",""trial"",""time""
""blur"",""0"",""16902""
","""event"",""trial"",""time""
""focus"",""0"",""447494""
","""event"",""trial"",""time""
""fullscreenenter"",""0"",""447612""
","
","null","<p></p>","null","","","","","","","",""
"","image","130","610284","0.0-130.0","""event"",""trial"",""time""
""blur"",""0"",""16902""
""focus"",""0"",""447494""
""fullscreenenter"",""0"",""447612""
","""event"",""trial"",""time""
""blur"",""0"",""16902""
","""event"",""trial"",""time""
""focus"",""0"",""447494""
","""event"",""trial"",""time""
""fullscreenenter"",""0"",""447612""
","
","1281","run_exp/static/images/Set 6_rs/186a.jpg","86","","","","","","learn","SR",""
"","show_choice","131","611018","0.0-131.0","""event"",""trial"",""time""
""blur"",""0"",""16902""
""focus"",""0"",""447494""
""fullscreenenter"",""0"",""447612""
","""event"",""trial"",""time""
""blur"",""0"",""16902""
","""event"",""trial"",""time""
""focus"",""0"",""447494""
","""event"",""trial"",""time""
""fullscreenenter"",""0"",""447612""
","
","null","run_exp/static/images/Set 6_rs/186a.jpg","null","","","","","","learn","SR",""
"","html-keyboard-response","132","611533","0.0-132.0","""event"",""trial"",""time""
""blur"",""0"",""16902""
""focus"",""0"",""447494""
""fullscreenenter"",""0"",""447612""
","""event"",""trial"",""time""
""blur"",""0"",""16902""
","""event"",""trial"",""time""
""focus"",""0"",""447494""
","""event"",""trial"",""time""
""fullscreenenter"",""0"",""447612""
","
","null","<p></p>","null","","","","","","","",""
"","image","133","612976","0.0-133.0","""event"",""trial"",""time""
""blur"",""0"",""16902""
""focus"",""0"",""447494""
""fullscreenenter"",""0"",""447612""
","""event"",""trial"",""time""
""blur"",""0"",""16902""
","""event"",""trial"",""time""
""focus"",""0"",""447494""
","""event"",""trial"",""time""
""fullscreenenter"",""0"",""447612""
","
","1440.3999999761581","run_exp/static/images/Set 6_rs/091a.jpg","78","","","","","","learn","SL",""
"","show_choice","134","613547","0.0-134.0","""event"",""trial"",""time""
""blur"",""0"",""16902""
""focus"",""0"",""447494""
""fullscreenenter"",""0"",""447612""
","""event"",""trial"",""time""
""blur"",""0"",""16902""
","""event"",""trial"",""time""
""focus"",""0"",""447494""
","""event"",""trial"",""time""
""fullscreenenter"",""0"",""447612""
","
","null","run_exp/static/images/Set 6_rs/091a.jpg","null","","","","","","learn","SL",""
"","html-keyboard-response","135","614051","0.0-135.0","""event"",""trial"",""time""
""blur"",""0"",""16902""
""focus"",""0"",""447494""
""fullscreenenter"",""0"",""447612""
","""event"",""trial"",""time""
""blur"",""0"",""16902""
","""event"",""trial"",""time""
""focus"",""0"",""447494""
","""event"",""trial"",""time""
""fullscreenenter"",""0"",""447612""
","
","null","<p></p>","null","","","","","","","",""
"","image","136","615829","0.0-136.0","""event"",""trial"",""time""
""blur"",""0"",""16902""
""focus"",""0"",""447494""
""fullscreenenter"",""0"",""447612""
","""event"",""trial"",""time""
""blur"",""0"",""16902""
","""event"",""trial"",""time""
""focus"",""0"",""447494""
","""event"",""trial"",""time""
""fullscreenenter"",""0"",""447612""
","
","1775.800000011921","run_exp/static/images/Set 6_rs/126a.jpg","78","","","","","","learn","SR",""
"","show_choice","137","616064","0.0-137.0","""event"",""trial"",""time""
""blur"",""0"",""16902""
""focus"",""0"",""447494""
""fullscreenenter"",""0"",""447612""
","""event"",""trial"",""time""
""blur"",""0"",""16902""
","""event"",""trial"",""time""
""focus"",""0"",""447494""
","""event"",""trial"",""time""
""fullscreenenter"",""0"",""447612""
","
","null","run_exp/static/images/Set 6_rs/126a.jpg","null","","","","","","learn","SR",""
"","html-keyboard-response","138","616567","0.0-138.0","""event"",""trial"",""time""
""blur"",""0"",""16902""
""focus"",""0"",""447494""
""fullscreenenter"",""0"",""447612""
","""event"",""trial"",""time""
""blur"",""0"",""16902""
","""event"",""trial"",""time""
""focus"",""0"",""447494""
","""event"",""trial"",""time""
""fullscreenenter"",""0"",""447612""
","
","null","<p></p>","null","","","","","","","",""
"","image","139","617882","0.0-139.0","""event"",""trial"",""time""
""blur"",""0"",""16902""
""focus"",""0"",""447494""
""fullscreenenter"",""0"",""447612""
","""event"",""trial"",""time""
""blur"",""0"",""16902""
","""event"",""trial"",""time""
""focus"",""0"",""447494""
","""event"",""trial"",""time""
""fullscreenenter"",""0"",""447612""
","
","1313.300000011921","run_exp/static/images/Set 6_rs/074a.jpg","78","","","","","","learn","SL",""
"","show_choice","140","618576","0.0-140.0","""event"",""trial"",""time""
""blur"",""0"",""16902""
""focus"",""0"",""447494""
""fullscreenenter"",""0"",""447612""
","""event"",""trial"",""time""
""blur"",""0"",""16902""
","""event"",""trial"",""time""
""focus"",""0"",""447494""
","""event"",""trial"",""time""
""fullscreenenter"",""0"",""447612""
","
","null","run_exp/static/images/Set 6_rs/074a.jpg","null","","","","","","learn","SL",""
"","html-keyboard-response","141","619084","0.0-141.0","""event"",""trial"",""time""
""blur"",""0"",""16902""
""focus"",""0"",""447494""
""fullscreenenter"",""0"",""447612""
","""event"",""trial"",""time""
""blur"",""0"",""16902""
","""event"",""trial"",""time""
""focus"",""0"",""447494""
","""event"",""trial"",""time""
""fullscreenenter"",""0"",""447612""
","
","null","<p></p>","null","","","","","","","",""
"","image","142","620081","0.0-142.0","""event"",""trial"",""time""
""blur"",""0"",""16902""
""focus"",""0"",""447494""
""fullscreenenter"",""0"",""447612""
","""event"",""trial"",""time""
""blur"",""0"",""16902""
","""event"",""trial"",""time""
""focus"",""0"",""447494""
","""event"",""trial"",""time""
""fullscreenenter"",""0"",""447612""
","
","994.5","run_exp/static/images/Set 6_rs/178a.jpg","86","","","","","","learn","SR",""
"","show_choice","143","621089","0.0-143.0","""event"",""trial"",""time""
""blur"",""0"",""16902""
""focus"",""0"",""447494""
""fullscreenenter"",""0"",""447612""
","""event"",""trial"",""time""
""blur"",""0"",""16902""
","""event"",""trial"",""time""
""focus"",""0"",""447494""
","""event"",""trial"",""time""
""fullscreenenter"",""0"",""447612""
","
","null","run_exp/static/images/Set 6_rs/178a.jpg","null","","","","","","learn","SR",""
"","html-keyboard-response","144","621600","0.0-144.0","""event"",""trial"",""time""
""blur"",""0"",""16902""
""focus"",""0"",""447494""
""fullscreenenter"",""0"",""447612""
","""event"",""trial"",""time""
""blur"",""0"",""16902""
","""event"",""trial"",""time""
""focus"",""0"",""447494""
","""event"",""trial"",""time""
""fullscreenenter"",""0"",""447612""
","
","null","<p></p>","null","","","","","","","",""
"","image","145","622883","0.0-145.0","""event"",""trial"",""time""
""blur"",""0"",""16902""
""focus"",""0"",""447494""
""fullscreenenter"",""0"",""447612""
","""event"",""trial"",""time""
""blur"",""0"",""16902""
","""event"",""trial"",""time""
""focus"",""0"",""447494""
","""event"",""trial"",""time""
""fullscreenenter"",""0"",""447612""
","
","1281","run_exp/static/images/Set 6_rs/023a.jpg","86","","","","","","learn","SR",""
"","show_choice","146","623619","0.0-146.0","""event"",""trial"",""time""
""blur"",""0"",""16902""
""focus"",""0"",""447494""
""fullscreenenter"",""0"",""447612""
","""event"",""trial"",""time""
""blur"",""0"",""16902""
","""event"",""trial"",""time""
""focus"",""0"",""447494""
","""event"",""trial"",""time""
""fullscreenenter"",""0"",""447612""
","
","null","run_exp/static/images/Set 6_rs/023a.jpg","null","","","","","","learn","SR",""
"","html-keyboard-response","147","624133","0.0-147.0","""event"",""trial"",""time""
""blur"",""0"",""16902""
""focus"",""0"",""447494""
""fullscreenenter"",""0"",""447612""
","""event"",""trial"",""time""
""blur"",""0"",""16902""
","""event"",""trial"",""time""
""focus"",""0"",""447494""
","""event"",""trial"",""time""
""fullscreenenter"",""0"",""447612""
","
","null","<p></p>","null","","","","","","","",""
"","image","148","625689","0.0-148.0","""event"",""trial"",""time""
""blur"",""0"",""16902""
""focus"",""0"",""447494""
""fullscreenenter"",""0"",""447612""
","""event"",""trial"",""time""
""blur"",""0"",""16902""
","""event"",""trial"",""time""
""focus"",""0"",""447494""
","""event"",""trial"",""time""
""fullscreenenter"",""0"",""447612""
","
","1553.800000011921","run_exp/static/images/Set 6_rs/122a.jpg","86","","","","","","learn","SR",""
"","show_choice","149","626139","0.0-149.0","""event"",""trial"",""time""
""blur"",""0"",""16902""
""focus"",""0"",""447494""
""fullscreenenter"",""0"",""447612""
","""event"",""trial"",""time""
""blur"",""0"",""16902""
","""event"",""trial"",""time""
""focus"",""0"",""447494""
","""event"",""trial"",""time""
""fullscreenenter"",""0"",""447612""
","
","null","run_exp/static/images/Set 6_rs/122a.jpg","null","","","","","","learn","SR",""
"","html-keyboard-response","150","626650","0.0-150.0","""event"",""trial"",""time""
""blur"",""0"",""16902""
""focus"",""0"",""447494""
""fullscreenenter"",""0"",""447612""
","""event"",""trial"",""time""
""blur"",""0"",""16902""
","""event"",""trial"",""time""
""focus"",""0"",""447494""
","""event"",""trial"",""time""
""fullscreenenter"",""0"",""447612""
","
","null","<p></p>","null","","","","","","","",""
"","image","151","627682","0.0-151.0","""event"",""trial"",""time""
""blur"",""0"",""16902""
""focus"",""0"",""447494""
""fullscreenenter"",""0"",""447612""
","""event"",""trial"",""time""
""blur"",""0"",""16902""
","""event"",""trial"",""time""
""focus"",""0"",""447494""
","""event"",""trial"",""time""
""fullscreenenter"",""0"",""447612""
","
","1031","run_exp/static/images/Set 6_rs/177a.jpg","78","","","","","","learn","SR",""
"","show_choice","152","628658","0.0-152.0","""event"",""trial"",""time""
""blur"",""0"",""16902""
""focus"",""0"",""447494""
""fullscreenenter"",""0"",""447612""
","""event"",""trial"",""time""
""blur"",""0"",""16902""
","""event"",""trial"",""time""
""focus"",""0"",""447494""
","""event"",""trial"",""time""
""fullscreenenter"",""0"",""447612""
","
","null","run_exp/static/images/Set 6_rs/177a.jpg","null","","","","","","learn","SR",""
"","html-keyboard-response","153","629162","0.0-153.0","""event"",""trial"",""time""
""blur"",""0"",""16902""
""focus"",""0"",""447494""
""fullscreenenter"",""0"",""447612""
","""event"",""trial"",""time""
""blur"",""0"",""16902""
","""event"",""trial"",""time""
""focus"",""0"",""447494""
","""event"",""trial"",""time""
""fullscreenenter"",""0"",""447612""
","
","null","<p></p>","null","","","","","","","",""
"","image","154","629903","0.0-154.0","""event"",""trial"",""time""
""blur"",""0"",""16902""
""focus"",""0"",""447494""
""fullscreenenter"",""0"",""447612""
","""event"",""trial"",""time""
""blur"",""0"",""16902""
","""event"",""trial"",""time""
""focus"",""0"",""447494""
","""event"",""trial"",""time""
""fullscreenenter"",""0"",""447612""
","
","739.3000000119209","run_exp/static/images/Set 6_rs/019a.jpg","86","","","","","","learn","SL",""
"","show_choice","155","631177","0.0-155.0","""event"",""trial"",""time""
""blur"",""0"",""16902""
""focus"",""0"",""447494""
""fullscreenenter"",""0"",""447612""
","""event"",""trial"",""time""
""blur"",""0"",""16902""
","""event"",""trial"",""time""
""focus"",""0"",""447494""
","""event"",""trial"",""time""
""fullscreenenter"",""0"",""447612""
","
","null","run_exp/static/images/Set 6_rs/019a.jpg","null","","","","","","learn","SL",""
"","html-keyboard-response","156","631683","0.0-156.0","""event"",""trial"",""time""
""blur"",""0"",""16902""
""focus"",""0"",""447494""
""fullscreenenter"",""0"",""447612""
","""event"",""trial"",""time""
""blur"",""0"",""16902""
","""event"",""trial"",""time""
""focus"",""0"",""447494""
","""event"",""trial"",""time""
""fullscreenenter"",""0"",""447612""
","
","null","<p></p>","null","","","","","","","",""
"","image","157","632975","0.0-157.0","""event"",""trial"",""time""
""blur"",""0"",""16902""
""focus"",""0"",""447494""
""fullscreenenter"",""0"",""447612""
","""event"",""trial"",""time""
""blur"",""0"",""16902""
","""event"",""trial"",""time""
""focus"",""0"",""447494""
","""event"",""trial"",""time""
""fullscreenenter"",""0"",""447612""
","
","1289.6000000238419","run_exp/static/images/Set 6_rs/006a.jpg","86","","","","","","learn","SL",""
"","show_choice","158","633687","0.0-158.0","""event"",""trial"",""time""
""blur"",""0"",""16902""
""focus"",""0"",""447494""
""fullscreenenter"",""0"",""447612""
","""event"",""trial"",""time""
""blur"",""0"",""16902""
","""event"",""trial"",""time""
""focus"",""0"",""447494""
","""event"",""trial"",""time""
""fullscreenenter"",""0"",""447612""
","
","null","run_exp/static/images/Set 6_rs/006a.jpg","null","","","","","","learn","SL",""
"","html-keyboard-response","159","634195","0.0-159.0","""event"",""trial"",""time""
""blur"",""0"",""16902""
""focus"",""0"",""447494""
""fullscreenenter"",""0"",""447612""
","""event"",""trial"",""time""
""blur"",""0"",""16902""
","""event"",""trial"",""time""
""focus"",""0"",""447494""
","""event"",""trial"",""time""
""fullscreenenter"",""0"",""447612""
","
","null","<p></p>","null","","","","","","","",""
"","image","160","634800","0.0-160.0","""event"",""trial"",""time""
""blur"",""0"",""16902""
""focus"",""0"",""447494""
""fullscreenenter"",""0"",""447612""
","""event"",""trial"",""time""
""blur"",""0"",""16902""
","""event"",""trial"",""time""
""focus"",""0"",""447494""
","""event"",""trial"",""time""
""fullscreenenter"",""0"",""447612""
","
","602.8000000119209","run_exp/static/images/Set 6_rs/050a.jpg","86","","","","","","learn","SL",""
"","show_choice","161","636213","0.0-161.0","""event"",""trial"",""time""
""blur"",""0"",""16902""
""focus"",""0"",""447494""
""fullscreenenter"",""0"",""447612""
","""event"",""trial"",""time""
""blur"",""0"",""16902""
","""event"",""trial"",""time""
""focus"",""0"",""447494""
","""event"",""trial"",""time""
""fullscreenenter"",""0"",""447612""
","
","null","run_exp/static/images/Set 6_rs/050a.jpg","null","","","","","","learn","SL",""
"","html-keyboard-response","162","636728","0.0-162.0","""event"",""trial"",""time""
""blur"",""0"",""16902""
""focus"",""0"",""447494""
""fullscreenenter"",""0"",""447612""
","""event"",""trial"",""time""
""blur"",""0"",""16902""
","""event"",""trial"",""time""
""focus"",""0"",""447494""
","""event"",""trial"",""time""
""fullscreenenter"",""0"",""447612""
","
","null","<p></p>","null","","","","","","","",""
"","image","163","637780","0.0-163.0","""event"",""trial"",""time""
""blur"",""0"",""16902""
""focus"",""0"",""447494""
""fullscreenenter"",""0"",""447612""
","""event"",""trial"",""time""
""blur"",""0"",""16902""
","""event"",""trial"",""time""
""focus"",""0"",""447494""
","""event"",""trial"",""time""
""fullscreenenter"",""0"",""447612""
","
","1049.5999999642372","run_exp/static/images/Set 6_rs/061a.jpg","78","","","","","","learn","SR",""
"","show_choice","164","638737","0.0-164.0","""event"",""trial"",""time""
""blur"",""0"",""16902""
""focus"",""0"",""447494""
""fullscreenenter"",""0"",""447612""
","""event"",""trial"",""time""
""blur"",""0"",""16902""
","""event"",""trial"",""time""
""focus"",""0"",""447494""
","""event"",""trial"",""time""
""fullscreenenter"",""0"",""447612""
","
","null","run_exp/static/images/Set 6_rs/061a.jpg","null","","","","","","learn","SR",""
"","html-keyboard-response","165","639250","0.0-165.0","""event"",""trial"",""time""
""blur"",""0"",""16902""
""focus"",""0"",""447494""
""fullscreenenter"",""0"",""447612""
","""event"",""trial"",""time""
""blur"",""0"",""16902""
","""event"",""trial"",""time""
""focus"",""0"",""447494""
","""event"",""trial"",""time""
""fullscreenenter"",""0"",""447612""
","
","null","<p></p>","null","","","","","","","",""
"","image","166","639899","0.0-166.0","""event"",""trial"",""time""
""blur"",""0"",""16902""
""focus"",""0"",""447494""
""fullscreenenter"",""0"",""447612""
","""event"",""trial"",""time""
""blur"",""0"",""16902""
","""event"",""trial"",""time""
""focus"",""0"",""447494""
","""event"",""trial"",""time""
""fullscreenenter"",""0"",""447612""
","
","647.0999999642372","run_exp/static/images/Set 6_rs/025a.jpg","78","","","","","","learn","SL",""
"","show_choice","167","641265","0.0-167.0","""event"",""trial"",""time""
""blur"",""0"",""16902""
""focus"",""0"",""447494""
""fullscreenenter"",""0"",""447612""
","""event"",""trial"",""time""
""blur"",""0"",""16902""
","""event"",""trial"",""time""
""focus"",""0"",""447494""
","""event"",""trial"",""time""
""fullscreenenter"",""0"",""447612""
","
","null","run_exp/static/images/Set 6_rs/025a.jpg","null","","","","","","learn","SL",""
"","html-keyboard-response","168","641769","0.0-168.0","""event"",""trial"",""time""
""blur"",""0"",""16902""
""focus"",""0"",""447494""
""fullscreenenter"",""0"",""447612""
","""event"",""trial"",""time""
""blur"",""0"",""16902""
","""event"",""trial"",""time""
""focus"",""0"",""447494""
","""event"",""trial"",""time""
""fullscreenenter"",""0"",""447612""
","
","null","<p></p>","null","","","","","","","",""
"","image","169","642640","0.0-169.0","""event"",""trial"",""time""
""blur"",""0"",""16902""
""focus"",""0"",""447494""
""fullscreenenter"",""0"",""447612""
","""event"",""trial"",""time""
""blur"",""0"",""16902""
","""event"",""trial"",""time""
""focus"",""0"",""447494""
","""event"",""trial"",""time""
""fullscreenenter"",""0"",""447612""
","
","869","run_exp/static/images/Set 6_rs/131a.jpg","86","","","","","","learn","SR",""
"","show_choice","170","643781","0.0-170.0","""event"",""trial"",""time""
""blur"",""0"",""16902""
""focus"",""0"",""447494""
""fullscreenenter"",""0"",""447612""
","""event"",""trial"",""time""
""blur"",""0"",""16902""
","""event"",""trial"",""time""
""focus"",""0"",""447494""
","""event"",""trial"",""time""
""fullscreenenter"",""0"",""447612""
","
","null","run_exp/static/images/Set 6_rs/131a.jpg","null","","","","","","learn","SR",""
"","html-keyboard-response","171","644284","0.0-171.0","""event"",""trial"",""time""
""blur"",""0"",""16902""
""focus"",""0"",""447494""
""fullscreenenter"",""0"",""447612""
","""event"",""trial"",""time""
""blur"",""0"",""16902""
","""event"",""trial"",""time""
""focus"",""0"",""447494""
","""event"",""trial"",""time""
""fullscreenenter"",""0"",""447612""
","
","null","<p></p>","null","","","","","","","",""
"","image","172","645536","0.0-172.0","""event"",""trial"",""time""
""blur"",""0"",""16902""
""focus"",""0"",""447494""
""fullscreenenter"",""0"",""447612""
","""event"",""trial"",""time""
""blur"",""0"",""16902""
","""event"",""trial"",""time""
""focus"",""0"",""447494""
","""event"",""trial"",""time""
""fullscreenenter"",""0"",""447612""
","
","1250","run_exp/static/images/Set 6_rs/132a.jpg","86","","","","","","learn","SR",""
"","show_choice","173","646300","0.0-173.0","""event"",""trial"",""time""
""blur"",""0"",""16902""
""focus"",""0"",""447494""
""fullscreenenter"",""0"",""447612""
","""event"",""trial"",""time""
""blur"",""0"",""16902""
","""event"",""trial"",""time""
""focus"",""0"",""447494""
","""event"",""trial"",""time""
""fullscreenenter"",""0"",""447612""
","
","null","run_exp/static/images/Set 6_rs/132a.jpg","null","","","","","","learn","SR",""
"","html-keyboard-response","174","646816","0.0-174.0","""event"",""trial"",""time""
""blur"",""0"",""16902""
""focus"",""0"",""447494""
""fullscreenenter"",""0"",""447612""
","""event"",""trial"",""time""
""blur"",""0"",""16902""
","""event"",""trial"",""time""
""focus"",""0"",""447494""
","""event"",""trial"",""time""
""fullscreenenter"",""0"",""447612""
","
","null","<p></p>","null","","","","","","","",""
"","image","175","648003","0.0-175.0","""event"",""trial"",""time""
""blur"",""0"",""16902""
""focus"",""0"",""447494""
""fullscreenenter"",""0"",""447612""
","""event"",""trial"",""time""
""blur"",""0"",""16902""
","""event"",""trial"",""time""
""focus"",""0"",""447494""
","""event"",""trial"",""time""
""fullscreenenter"",""0"",""447612""
","
","1185.0999999642372","run_exp/static/images/Set 6_rs/017a.jpg","86","","","","","","learn","SL",""
"","show_choice","176","648829","0.0-176.0","""event"",""trial"",""time""
""blur"",""0"",""16902""
""focus"",""0"",""447494""
""fullscreenenter"",""0"",""447612""
","""event"",""trial"",""time""
""blur"",""0"",""16902""
","""event"",""trial"",""time""
""focus"",""0"",""447494""
","""event"",""trial"",""time""
""fullscreenenter"",""0"",""447612""
","
","null","run_exp/static/images/Set 6_rs/017a.jpg","null","","","","","","learn","SL",""
"","html-keyboard-response","177","649335","0.0-177.0","""event"",""trial"",""time""
""blur"",""0"",""16902""
""focus"",""0"",""447494""
""fullscreenenter"",""0"",""447612""
","""event"",""trial"",""time""
""blur"",""0"",""16902""
","""event"",""trial"",""time""
""focus"",""0"",""447494""
","""event"",""trial"",""time""
""fullscreenenter"",""0"",""447612""
","
","null","<p></p>","null","","","","","","","",""
"","image","178","650529","0.0-178.0","""event"",""trial"",""time""
""blur"",""0"",""16902""
""focus"",""0"",""447494""
""fullscreenenter"",""0"",""447612""
","""event"",""trial"",""time""
""blur"",""0"",""16902""
","""event"",""trial"",""time""
""focus"",""0"",""447494""
","""event"",""trial"",""time""
""fullscreenenter"",""0"",""447612""
","
","1192.6000000238419","run_exp/static/images/Set 6_rs/036a.jpg","86","","","","","","learn","SL",""
"","show_choice","179","651347","0.0-179.0","""event"",""trial"",""time""
""blur"",""0"",""16902""
""focus"",""0"",""447494""
""fullscreenenter"",""0"",""447612""
","""event"",""trial"",""time""
""blur"",""0"",""16902""
","""event"",""trial"",""time""
""focus"",""0"",""447494""
","""event"",""trial"",""time""
""fullscreenenter"",""0"",""447612""
","
","null","run_exp/static/images/Set 6_rs/036a.jpg","null","","","","","","learn","SL",""
"","html-keyboard-response","180","651850","0.0-180.0","""event"",""trial"",""time""
""blur"",""0"",""16902""
""focus"",""0"",""447494""
""fullscreenenter"",""0"",""447612""
","""event"",""trial"",""time""
""blur"",""0"",""16902""
","""event"",""trial"",""time""
""focus"",""0"",""447494""
","""event"",""trial"",""time""
""fullscreenenter"",""0"",""447612""
","
","null","<p></p>","null","","","","","","","",""
"","image","181","653484","0.0-181.0","""event"",""trial"",""time""
""blur"",""0"",""16902""
""focus"",""0"",""447494""
""fullscreenenter"",""0"",""447612""
","""event"",""trial"",""time""
""blur"",""0"",""16902""
","""event"",""trial"",""time""
""focus"",""0"",""447494""
","""event"",""trial"",""time""
""fullscreenenter"",""0"",""447612""
","
","1631.3999999761581","run_exp/static/images/Set 6_rs/123a.jpg","86","","","","","","learn","SL",""
"","show_choice","182","653859","0.0-182.0","""event"",""trial"",""time""
""blur"",""0"",""16902""
""focus"",""0"",""447494""
""fullscreenenter"",""0"",""447612""
","""event"",""trial"",""time""
""blur"",""0"",""16902""
","""event"",""trial"",""time""
""focus"",""0"",""447494""
","""event"",""trial"",""time""
""fullscreenenter"",""0"",""447612""
","
","null","run_exp/static/images/Set 6_rs/123a.jpg","null","","","","","","learn","SL",""
"","html-keyboard-response","183","654368","0.0-183.0","""event"",""trial"",""time""
""blur"",""0"",""16902""
""focus"",""0"",""447494""
""fullscreenenter"",""0"",""447612""
","""event"",""trial"",""time""
""blur"",""0"",""16902""
","""event"",""trial"",""time""
""focus"",""0"",""447494""
","""event"",""trial"",""time""
""fullscreenenter"",""0"",""447612""
","
","null","<p></p>","null","","","","","","","",""
"","image","184","655576","0.0-184.0","""event"",""trial"",""time""
""blur"",""0"",""16902""
""focus"",""0"",""447494""
""fullscreenenter"",""0"",""447612""
","""event"",""trial"",""time""
""blur"",""0"",""16902""
","""event"",""trial"",""time""
""focus"",""0"",""447494""
","""event"",""trial"",""time""
""fullscreenenter"",""0"",""447612""
","
","1206.2999999523163","run_exp/static/images/Set 6_rs/075a.jpg","86","","","","","","learn","SR",""
"","show_choice","185","656386","0.0-185.0","""event"",""trial"",""time""
""blur"",""0"",""16902""
""focus"",""0"",""447494""
""fullscreenenter"",""0"",""447612""
","""event"",""trial"",""time""
""blur"",""0"",""16902""
","""event"",""trial"",""time""
""focus"",""0"",""447494""
","""event"",""trial"",""time""
""fullscreenenter"",""0"",""447612""
","
","null","run_exp/static/images/Set 6_rs/075a.jpg","null","","","","","","learn","SR",""
"","html-keyboard-response","186","656900","0.0-186.0","""event"",""trial"",""time""
""blur"",""0"",""16902""
""focus"",""0"",""447494""
""fullscreenenter"",""0"",""447612""
","""event"",""trial"",""time""
""blur"",""0"",""16902""
","""event"",""trial"",""time""
""focus"",""0"",""447494""
","""event"",""trial"",""time""
""fullscreenenter"",""0"",""447612""
","
","null","<p></p>","null","","","","","","","",""
"","image","187","657782","0.0-187.0","""event"",""trial"",""time""
""blur"",""0"",""16902""
""focus"",""0"",""447494""
""fullscreenenter"",""0"",""447612""
","""event"",""trial"",""time""
""blur"",""0"",""16902""
","""event"",""trial"",""time""
""focus"",""0"",""447494""
","""event"",""trial"",""time""
""fullscreenenter"",""0"",""447612""
","
","880.6000000238419","run_exp/static/images/Set 6_rs/169a.jpg","78","","","","","","learn","SR",""
"","show_choice","188","658914","0.0-188.0","""event"",""trial"",""time""
""blur"",""0"",""16902""
""focus"",""0"",""447494""
""fullscreenenter"",""0"",""447612""
","""event"",""trial"",""time""
""blur"",""0"",""16902""
","""event"",""trial"",""time""
""focus"",""0"",""447494""
","""event"",""trial"",""time""
""fullscreenenter"",""0"",""447612""
","
","null","run_exp/static/images/Set 6_rs/169a.jpg","null","","","","","","learn","SR",""
"","html-keyboard-response","189","659417","0.0-189.0","""event"",""trial"",""time""
""blur"",""0"",""16902""
""focus"",""0"",""447494""
""fullscreenenter"",""0"",""447612""
","""event"",""trial"",""time""
""blur"",""0"",""16902""
","""event"",""trial"",""time""
""focus"",""0"",""447494""
","""event"",""trial"",""time""
""fullscreenenter"",""0"",""447612""
","
","null","<p></p>","null","","","","","","","",""
"","image","190","660595","0.0-190.0","""event"",""trial"",""time""
""blur"",""0"",""16902""
""focus"",""0"",""447494""
""fullscreenenter"",""0"",""447612""
","""event"",""trial"",""time""
""blur"",""0"",""16902""
","""event"",""trial"",""time""
""focus"",""0"",""447494""
","""event"",""trial"",""time""
""fullscreenenter"",""0"",""447612""
","
","1175.5999999642372","run_exp/static/images/Set 6_rs/116a.jpg","86","","","","","","learn","SL",""
"","show_choice","191","661433","0.0-191.0","""event"",""trial"",""time""
""blur"",""0"",""16902""
""focus"",""0"",""447494""
""fullscreenenter"",""0"",""447612""
","""event"",""trial"",""time""
""blur"",""0"",""16902""
","""event"",""trial"",""time""
""focus"",""0"",""447494""
","""event"",""trial"",""time""
""fullscreenenter"",""0"",""447612""
","
","null","run_exp/static/images/Set 6_rs/116a.jpg","null","","","","","","learn","SL",""
"","html-keyboard-response","192","661935","0.0-192.0","""event"",""trial"",""time""
""blur"",""0"",""16902""
""focus"",""0"",""447494""
""fullscreenenter"",""0"",""447612""
","""event"",""trial"",""time""
""blur"",""0"",""16902""
","""event"",""trial"",""time""
""focus"",""0"",""447494""
","""event"",""trial"",""time""
""fullscreenenter"",""0"",""447612""
","
","null","<p></p>","null","","","","","","","",""
"","image","193","662726","0.0-193.0","""event"",""trial"",""time""
""blur"",""0"",""16902""
""focus"",""0"",""447494""
""fullscreenenter"",""0"",""447612""
","""event"",""trial"",""time""
""blur"",""0"",""16902""
","""event"",""trial"",""time""
""focus"",""0"",""447494""
","""event"",""trial"",""time""
""fullscreenenter"",""0"",""447612""
","
","789.1999999880791","run_exp/static/images/Set 6_rs/172a.jpg","78","","","","","","learn","SR",""
"","show_choice","194","663942","0.0-194.0","""event"",""trial"",""time""
""blur"",""0"",""16902""
""focus"",""0"",""447494""
""fullscreenenter"",""0"",""447612""
","""event"",""trial"",""time""
""blur"",""0"",""16902""
","""event"",""trial"",""time""
""focus"",""0"",""447494""
","""event"",""trial"",""time""
""fullscreenenter"",""0"",""447612""
","
","null","run_exp/static/images/Set 6_rs/172a.jpg","null","","","","","","learn","SR",""
"","html-keyboard-response","195","664450","0.0-195.0","""event"",""trial"",""time""
""blur"",""0"",""16902""
""focus"",""0"",""447494""
""fullscreenenter"",""0"",""447612""
","""event"",""trial"",""time""
""blur"",""0"",""16902""
","""event"",""trial"",""time""
""focus"",""0"",""447494""
","""event"",""trial"",""time""
""fullscreenenter"",""0"",""447612""
","
","null","<p></p>","null","","","","","","","",""
"","test_intro","196","701331","0.0-196.0","""event"",""trial"",""time""
""blur"",""0"",""16902""
""focus"",""0"",""447494""
""fullscreenenter"",""0"",""447612""
","""event"",""trial"",""time""
""blur"",""0"",""16902""
","""event"",""trial"",""time""
""focus"",""0"",""447494""
","""event"",""trial"",""time""
""fullscreenenter"",""0"",""447612""
","
","null","run_exp/static/audio/clip_2_memory.m4a","null","","","","","<div class='center'><p>Now, lets see how much you remember about the items you just saw.  For each item, you need to indicate if it was <b>old</b> by pressing the <b>v</b> key, <b>similar</b> by pressing the <b>b</b> key, or <b>new</b> by pressing the <b>n</b> key.</p><p>Old refers to an item that you saw before in the indoor/outdoor game that you just played, new refers to an item you have <b>not</b> seen before within the indoor/outdoor game, and similar refers to an item that is similar to an item youve seen before but is not exactly the same. </p><p>Before we begin, lets go over some brief demonstrations to make sure you understand.</p></div>","","",""
"","html-keyboard-response","197","701677","0.0-197.0","""event"",""trial"",""time""
""blur"",""0"",""16902""
""focus"",""0"",""447494""
""fullscreenenter"",""0"",""447612""
","""event"",""trial"",""time""
""blur"",""0"",""16902""
","""event"",""trial"",""time""
""focus"",""0"",""447494""
","""event"",""trial"",""time""
""fullscreenenter"",""0"",""447612""
","
","343.39999997615814","<div class='center'><p>Now, lets see how much you remember about the items you just saw.  For each item, you need to indicate if it was <b>old</b> by pressing the <b>v</b> key, <b>similar</b> by pressing the <b>b</b> key, or <b>new</b> by pressing the <b>n</b> key.</p><p>Old refers to an item that you saw before in the indoor/outdoor game that you just played, new refers to an item you have <b>not</b> seen before within the indoor/outdoor game, and similar refers to an item that is similar to an item youve seen before but is not exactly the same. </p><p>Before we begin, lets go over some brief demonstrations to make sure you understand.</p><div><p><b>[Press the space bar to continue]</b></p></div>","32","","","","","","","",""
"","items","198","709185","0.0-198.0","""event"",""trial"",""time""
""blur"",""0"",""16902""
""focus"",""0"",""447494""
""fullscreenenter"",""0"",""447612""
","""event"",""trial"",""time""
""blur"",""0"",""16902""
","""event"",""trial"",""time""
""focus"",""0"",""447494""
","""event"",""trial"",""time""
""fullscreenenter"",""0"",""447612""
","
","null","run_exp/static/audio/clip_3_items.m4a","null","","","","","","","",""
"","mop","199","713688","0.0-199.0","""event"",""trial"",""time""
""blur"",""0"",""16902""
""focus"",""0"",""447494""
""fullscreenenter"",""0"",""447612""
","""event"",""trial"",""time""
""blur"",""0"",""16902""
","""event"",""trial"",""time""
""focus"",""0"",""447494""
","""event"",""trial"",""time""
""fullscreenenter"",""0"",""447612""
","
","null","run_exp/static/audio/clip_4_mop.m4a","null","","","","","","","",""
"","baseball","200","717198","0.0-200.0","""event"",""trial"",""time""
""blur"",""0"",""16902""
""focus"",""0"",""447494""
""fullscreenenter"",""0"",""447612""
","""event"",""trial"",""time""
""blur"",""0"",""16902""
","""event"",""trial"",""time""
""focus"",""0"",""447494""
","""event"",""trial"",""time""
""fullscreenenter"",""0"",""447612""
","
","null","run_exp/static/audio/clip_5_baseball.m4a","null","","","","","","","",""
"","trumpet","201","720719","0.0-201.0","""event"",""trial"",""time""
""blur"",""0"",""16902""
""focus"",""0"",""447494""
""fullscreenenter"",""0"",""447612""
","""event"",""trial"",""time""
""blur"",""0"",""16902""
","""event"",""trial"",""time""
""focus"",""0"",""447494""
","""event"",""trial"",""time""
""fullscreenenter"",""0"",""447612""
","
","null","run_exp/static/audio/clip_6_trumpet.m4a","null","","","","","","","",""
"","gummies","202","724239","0.0-202.0","""event"",""trial"",""time""
""blur"",""0"",""16902""
""focus"",""0"",""447494""
""fullscreenenter"",""0"",""447612""
","""event"",""trial"",""time""
""blur"",""0"",""16902""
","""event"",""trial"",""time""
""focus"",""0"",""447494""
","""event"",""trial"",""time""
""fullscreenenter"",""0"",""447612""
","
","null","run_exp/static/audio/clip_7_gummies.m4a","null","","","","","","","",""
"","osn","203","728750","0.0-203.0","""event"",""trial"",""time""
""blur"",""0"",""16902""
""focus"",""0"",""447494""
""fullscreenenter"",""0"",""447612""
","""event"",""trial"",""time""
""blur"",""0"",""16902""
","""event"",""trial"",""time""
""focus"",""0"",""447494""
","""event"",""trial"",""time""
""fullscreenenter"",""0"",""447612""
","
","null","run_exp/static/audio/clip_8_osn.m4a","null","","","","","","","",""
"","old_1","204","735253","0.0-204.0","""event"",""trial"",""time""
""blur"",""0"",""16902""
""focus"",""0"",""447494""
""fullscreenenter"",""0"",""447612""
","""event"",""trial"",""time""
""blur"",""0"",""16902""
","""event"",""trial"",""time""
""focus"",""0"",""447494""
","""event"",""trial"",""time""
""fullscreenenter"",""0"",""447612""
","
","null","run_exp/static/audio/clip_9_old_trumpet.m4a","null","","","","","","","",""
"","new_1","205","742763","0.0-205.0","""event"",""trial"",""time""
""blur"",""0"",""16902""
""focus"",""0"",""447494""
""fullscreenenter"",""0"",""447612""
","""event"",""trial"",""time""
""blur"",""0"",""16902""
","""event"",""trial"",""time""
""focus"",""0"",""447494""
","""event"",""trial"",""time""
""fullscreenenter"",""0"",""447612""
","
","null","run_exp/static/audio/clip_10_new_balloon.m4a","null","","","","","","","",""
"","similar_1a","206","747281","0.0-206.0","""event"",""trial"",""time""
""blur"",""0"",""16902""
""focus"",""0"",""447494""
""fullscreenenter"",""0"",""447612""
","""event"",""trial"",""time""
""blur"",""0"",""16902""
","""event"",""trial"",""time""
""focus"",""0"",""447494""
","""event"",""trial"",""time""
""fullscreenenter"",""0"",""447612""
","
","null","run_exp/static/audio/clip_11a_similar_mop.m4a","null","","","","","","","",""
"","similar_1b","207","753801","0.0-207.0","""event"",""trial"",""time""
""blur"",""0"",""16902""
""focus"",""0"",""447494""
""fullscreenenter"",""0"",""447612""
","""event"",""trial"",""time""
""blur"",""0"",""16902""
","""event"",""trial"",""time""
""focus"",""0"",""447494""
","""event"",""trial"",""time""
""fullscreenenter"",""0"",""447612""
","
","null","run_exp/static/audio/clip_11b_similar_mop.m4a","null","","","","","","","",""
"","new_2","208","757320","0.0-208.0","""event"",""trial"",""time""
""blur"",""0"",""16902""
""focus"",""0"",""447494""
""fullscreenenter"",""0"",""447612""
","""event"",""trial"",""time""
""blur"",""0"",""16902""
","""event"",""trial"",""time""
""focus"",""0"",""447494""
","""event"",""trial"",""time""
""fullscreenenter"",""0"",""447612""
","
","null","run_exp/static/audio/clip_12_new_stoplight.m4a","null","","","","","","","",""
"","old_2","209","760841","0.0-209.0","""event"",""trial"",""time""
""blur"",""0"",""16902""
""focus"",""0"",""447494""
""fullscreenenter"",""0"",""447612""
","""event"",""trial"",""time""
""blur"",""0"",""16902""
","""event"",""trial"",""time""
""focus"",""0"",""447494""
","""event"",""trial"",""time""
""fullscreenenter"",""0"",""447612""
","
","null","run_exp/static/audio/clip_13_old_baseball.m4a","null","","","","","","","",""
"","similar_2a","210","764356","0.0-210.0","""event"",""trial"",""time""
""blur"",""0"",""16902""
""focus"",""0"",""447494""
""fullscreenenter"",""0"",""447612""
","""event"",""trial"",""time""
""blur"",""0"",""16902""
","""event"",""trial"",""time""
""focus"",""0"",""447494""
","""event"",""trial"",""time""
""fullscreenenter"",""0"",""447612""
","
","null","run_exp/static/audio/clip_14a_similar_gummies.m4a","null","","","","","","","",""
"","similar_2b","211","771862","0.0-211.0","""event"",""trial"",""time""
""blur"",""0"",""16902""
""focus"",""0"",""447494""
""fullscreenenter"",""0"",""447612""
","""event"",""trial"",""time""
""blur"",""0"",""16902""
","""event"",""trial"",""time""
""focus"",""0"",""447494""
","""event"",""trial"",""time""
""fullscreenenter"",""0"",""447612""
","
","null","run_exp/static/audio/clip_14b_similar_gummies.m4a","null","","","","","","","",""
"","practice","212","813990","0.0-212.0","""event"",""trial"",""time""
""blur"",""0"",""16902""
""focus"",""0"",""447494""
""fullscreenenter"",""0"",""447612""
","""event"",""trial"",""time""
""blur"",""0"",""16902""
","""event"",""trial"",""time""
""focus"",""0"",""447494""
","""event"",""trial"",""time""
""fullscreenenter"",""0"",""447612""
","
","null","run_exp/static/audio/clip_15_practice.m4a","null","","","","","<div class='center'><p>Lets practice a little to make sure you understand the difference between new, similar, and old. Lets say you saw these three items in the indoor/outdoor game.</p><p> Try your best to remember these images because youll soon be tested on them in a practice game. In the practice game, youll be shown images and youll have to say if they are old (one of the three images belows), similar (similar to one of the images below but not exactly the same), or new (are not one of the images below nor similar to them).</p><p>Once you press the space bar youll be shown these images again but one at time. Then youll begin the practice game.</p><p><img src='run_exp/static/images/tutorial/test/three_indoor_outdoor.png' height='300'></p></div>","","",""
"","html-keyboard-response","213","824631","0.0-213.0","""event"",""trial"",""time""
""blur"",""0"",""16902""
""focus"",""0"",""447494""
""fullscreenenter"",""0"",""447612""
","""event"",""trial"",""time""
""blur"",""0"",""16902""
","""event"",""trial"",""time""
""focus"",""0"",""447494""
","""event"",""trial"",""time""
""fullscreenenter"",""0"",""447612""
","
","10637.199999988079","<div class='center'><p>Lets practice a little to make sure you understand the difference between new, similar, and old. Lets say you saw these three items in the indoor/outdoor game.</p><p> Try your best to remember these images because youll soon be tested on them in a practice game. In the practice game, youll be shown images and youll have to say if they are old (one of the three images belows), similar (similar to one of the images below but not exactly the same), or new (are not one of the images below nor similar to them).</p><p>Once you press the space bar youll be shown these images again but one at time. Then youll begin the practice game.</p><p><img src='run_exp/static/images/tutorial/test/three_indoor_outdoor.png' height='300'></p><div><p><b>[Press the space bar to continue]</b></p></div>","32","","","","","","","",""
"","planet","214","826635","0.0-214.0","""event"",""trial"",""time""
""blur"",""0"",""16902""
""focus"",""0"",""447494""
""fullscreenenter"",""0"",""447612""
","""event"",""trial"",""time""
""blur"",""0"",""16902""
","""event"",""trial"",""time""
""focus"",""0"",""447494""
","""event"",""trial"",""time""
""fullscreenenter"",""0"",""447612""
","
","null","run_exp/static/images/tutorial/test/008a.jpg","null","","","","","","","",""
"","boot","215","828641","0.0-215.0","""event"",""trial"",""time""
""blur"",""0"",""16902""
""focus"",""0"",""447494""
""fullscreenenter"",""0"",""447612""
","""event"",""trial"",""time""
""blur"",""0"",""16902""
","""event"",""trial"",""time""
""focus"",""0"",""447494""
","""event"",""trial"",""time""
""fullscreenenter"",""0"",""447612""
","
