"success","trial_type","trial_index","time_elapsed","internal_node_id","interactions","blur_events","focus_events","fullscreenenter_events","fullscreenexit_events","rt","stimulus","key_press","subject_id","participant_id","age","gender","prompt","phase","condition","lure_bin"
"true","fullscreen","0","5912","0.0-0.0","""event"",""trial"",""time""
""fullscreenenter"",""0"",""4920""
","
","
","""event"",""trial"",""time""
""fullscreenenter"",""0"",""4920""
","
","","","","","","","","","","",""
"","pavlovia","1","5918","0.0-1.0","""event"",""trial"",""time""
""fullscreenenter"",""0"",""4920""
","
","
","""event"",""trial"",""time""
""fullscreenenter"",""0"",""4920""
","
","","","","","","","","","","",""
"","welcome","2","40783","0.0-2.0","""event"",""trial"",""time""
""fullscreenenter"",""0"",""4920""
","
","
","""event"",""trial"",""time""
""fullscreenenter"",""0"",""4920""
","
","null","run_exp/static/audio/clip_1_welcome.m4a","null","472","518","9","Male","<div class='center'><p>Welcome to the third part of the study! First, you'll be shown pictures of items one at a time. For each picture, you have to decide if the item is typically found indoors or outdoors.</p><p>If you think it's usually found indoors, then press <b>v</b> key on your keyboard. If you think it's usually found outdoors, then press the <b>n</b> key.There will be reminders on the screen to help you remember which keys to press. </p><p>If you're not sure whether the item is an indoor item or an outdoor item, go ahead and take a guess but try your best not to skip that choice. </p></div>","","",""
"","html-keyboard-response","3","57472","0.0-3.0","""event"",""trial"",""time""
""fullscreenenter"",""0"",""4920""
","
","
","""event"",""trial"",""time""
""fullscreenenter"",""0"",""4920""
","
","16686.79999999999","<div class='center'><p>Welcome to the third part of the study! First, you'll be shown pictures of items one at a time. For each picture, you have to decide if the item is typically found indoors or outdoors.</p><p>If you think it's usually found indoors, then press <b>v</b> key on your keyboard. If you think it's usually found outdoors, then press the <b>n</b> key.There will be reminders on the screen to help you remember which keys to press. </p><p>If you're not sure whether the item is an indoor item or an outdoor item, go ahead and take a guess but try your best not to skip that choice. </p><div><p><b>[Press the space bar to continue]</b></p></div>","32","","","","","","","",""
"","image","4","59475","0.0-4.0","""event"",""trial"",""time""
""fullscreenenter"",""0"",""4920""
","
","
","""event"",""trial"",""time""
""fullscreenenter"",""0"",""4920""
","
","null","run_exp/static/images/Set 6_rs/063a.jpg","null","","","","","","learn","SR",""
"","show_choice","5","61477","0.0-5.0","""event"",""trial"",""time""
""fullscreenenter"",""0"",""4920""
","
","
","""event"",""trial"",""time""
""fullscreenenter"",""0"",""4920""
","
","null","run_exp/static/images/blank.png","null","","","","","","learn","SR",""
"","html-keyboard-response","6","61979","0.0-6.0","""event"",""trial"",""time""
""fullscreenenter"",""0"",""4920""
","
","
","""event"",""trial"",""time""
""fullscreenenter"",""0"",""4920""
","
","null","<p></p>","null","","","","","","","",""
"","image","7","63396","0.0-7.0","""event"",""trial"",""time""
""fullscreenenter"",""0"",""4920""
","
","
","""event"",""trial"",""time""
""fullscreenenter"",""0"",""4920""
","
","1414.7999999999884","run_exp/static/images/Set 6_rs/132a.jpg","78","","","","","","learn","SR",""
"","show_choice","8","63983","0.0-8.0","""event"",""trial"",""time""
""fullscreenenter"",""0"",""4920""
","
","
","""event"",""trial"",""time""
""fullscreenenter"",""0"",""4920""
","
","null","run_exp/static/images/Set 6_rs/132a.jpg","null","","","","","","learn","SR",""
"","html-keyboard-response","9","64484","0.0-9.0","""event"",""trial"",""time""
""fullscreenenter"",""0"",""4920""
","
","
","""event"",""trial"",""time""
""fullscreenenter"",""0"",""4920""
","
","null","<p></p>","null","","","","","","","",""
"","image","10","65122","0.0-10.0","""event"",""trial"",""time""
""fullscreenenter"",""0"",""4920""
","
","
","""event"",""trial"",""time""
""fullscreenenter"",""0"",""4920""
","
","636.5999999999767","run_exp/static/images/Set 6_rs/007a.jpg","86","","","","","","learn","SR",""
"","show_choice","11","66488","0.0-11.0","""event"",""trial"",""time""
""fullscreenenter"",""0"",""4920""
","
","
","""event"",""trial"",""time""
""fullscreenenter"",""0"",""4920""
","
","null","run_exp/static/images/Set 6_rs/007a.jpg","null","","","","","","learn","SR",""
"","html-keyboard-response","12","66989","0.0-12.0","""event"",""trial"",""time""
""fullscreenenter"",""0"",""4920""
","
","
","""event"",""trial"",""time""
""fullscreenenter"",""0"",""4920""
","
","null","<p></p>","null","","","","","","","",""
"","image","13","68220","0.0-13.0","""event"",""trial"",""time""
""fullscreenenter"",""0"",""4920""
","
","
","""event"",""trial"",""time""
""fullscreenenter"",""0"",""4920""
","
","1228.2999999999884","run_exp/static/images/Set 6_rs/191a.jpg","78","","","","","","learn","SL",""
"","show_choice","14","68992","0.0-14.0","""event"",""trial"",""time""
""fullscreenenter"",""0"",""4920""
","
","
","""event"",""trial"",""time""
""fullscreenenter"",""0"",""4920""
","
","null","run_exp/static/images/Set 6_rs/191a.jpg","null","","","","","","learn","SL",""
"","html-keyboard-response","15","69493","0.0-15.0","""event"",""trial"",""time""
""fullscreenenter"",""0"",""4920""
","
","
","""event"",""trial"",""time""
""fullscreenenter"",""0"",""4920""
","
","null","<p></p>","null","","","","","","","",""
"","image","16","70952","0.0-16.0","""event"",""trial"",""time""
""fullscreenenter"",""0"",""4920""
","
","
","""event"",""trial"",""time""
""fullscreenenter"",""0"",""4920""
","
","1457","run_exp/static/images/Set 6_rs/016a.jpg","86","","","","","","learn","SL",""
"","show_choice","17","71497","0.0-17.0","""event"",""trial"",""time""
""fullscreenenter"",""0"",""4920""
","
","
","""event"",""trial"",""time""
""fullscreenenter"",""0"",""4920""
","
","null","run_exp/static/images/Set 6_rs/016a.jpg","null","","","","","","learn","SL",""
"","html-keyboard-response","18","71998","0.0-18.0","""event"",""trial"",""time""
""fullscreenenter"",""0"",""4920""
","
","
","""event"",""trial"",""time""
""fullscreenenter"",""0"",""4920""
","
","null","<p></p>","null","","","","","","","",""
"","image","19","73460","0.0-19.0","""event"",""trial"",""time""
""fullscreenenter"",""0"",""4920""
","
","
","""event"",""trial"",""time""
""fullscreenenter"",""0"",""4920""
","
","1460.2999999999884","run_exp/static/images/Set 6_rs/089a.jpg","86","","","","","","learn","SL",""
"","show_choice","20","74001","0.0-20.0","""event"",""trial"",""time""
""fullscreenenter"",""0"",""4920""
","
","
","""event"",""trial"",""time""
""fullscreenenter"",""0"",""4920""
","
","null","run_exp/static/images/Set 6_rs/089a.jpg","null","","","","","","learn","SL",""
"","html-keyboard-response","21","74502","0.0-21.0","""event"",""trial"",""time""
""fullscreenenter"",""0"",""4920""
","
","
","""event"",""trial"",""time""
""fullscreenenter"",""0"",""4920""
","
","null","<p></p>","null","","","","","","","",""
"","image","22","75141","0.0-22.0","""event"",""trial"",""time""
""fullscreenenter"",""0"",""4920""
","
","
","""event"",""trial"",""time""
""fullscreenenter"",""0"",""4920""
","
","637.3999999999651","run_exp/static/images/Set 6_rs/073a.jpg","78","","","","","","learn","SL",""
"","show_choice","23","76505","0.0-23.0","""event"",""trial"",""time""
""fullscreenenter"",""0"",""4920""
","
","
","""event"",""trial"",""time""
""fullscreenenter"",""0"",""4920""
","
","null","run_exp/static/images/Set 6_rs/073a.jpg","null","","","","","","learn","SL",""
"","html-keyboard-response","24","77006","0.0-24.0","""event"",""trial"",""time""
""fullscreenenter"",""0"",""4920""
","
","
","""event"",""trial"",""time""
""fullscreenenter"",""0"",""4920""
","
","null","<p></p>","null","","","","","","","",""
"","image","25","78232","0.0-25.0","""event"",""trial"",""time""
""fullscreenenter"",""0"",""4920""
","
","
","""event"",""trial"",""time""
""fullscreenenter"",""0"",""4920""
","
","1223.899999999965","run_exp/static/images/Set 6_rs/111a.jpg","78","","","","","","learn","SL",""
"","show_choice","26","79009","0.0-26.0","""event"",""trial"",""time""
""fullscreenenter"",""0"",""4920""
","
","
","""event"",""trial"",""time""
""fullscreenenter"",""0"",""4920""
","
","null","run_exp/static/images/Set 6_rs/111a.jpg","null","","","","","","learn","SL",""
"","html-keyboard-response","27","79511","0.0-27.0","""event"",""trial"",""time""
""fullscreenenter"",""0"",""4920""
","
","
","""event"",""trial"",""time""
""fullscreenenter"",""0"",""4920""
","
","null","<p></p>","null","","","","","","","",""
"","image","28","79560","0.0-28.0","""event"",""trial"",""time""
""fullscreenenter"",""0"",""4920""
","
","
","""event"",""trial"",""time""
""fullscreenenter"",""0"",""4920""
","
","47.20000000001164","run_exp/static/images/Set 6_rs/050a.jpg","86","","","","","","learn","SL",""
"","show_choice","29","81513","0.0-29.0","""event"",""trial"",""time""
""fullscreenenter"",""0"",""4920""
","
","
","""event"",""trial"",""time""
""fullscreenenter"",""0"",""4920""
","
","null","run_exp/static/images/Set 6_rs/050a.jpg","null","","","","","","learn","SL",""
"","html-keyboard-response","30","82015","0.0-30.0","""event"",""trial"",""time""
""fullscreenenter"",""0"",""4920""
","
","
","""event"",""trial"",""time""
""fullscreenenter"",""0"",""4920""
","
","null","<p></p>","null","","","","","","","",""
"","image","31","83134","0.0-31.0","""event"",""trial"",""time""
""fullscreenenter"",""0"",""4920""
","
","
","""event"",""trial"",""time""
""fullscreenenter"",""0"",""4920""
","
","1116.7999999999884","run_exp/static/images/Set 6_rs/131a.jpg","86","","","","","","learn","SR",""
"","show_choice","32","84019","0.0-32.0","""event"",""trial"",""time""
""fullscreenenter"",""0"",""4920""
","
","
","""event"",""trial"",""time""
""fullscreenenter"",""0"",""4920""
","
","null","run_exp/static/images/Set 6_rs/131a.jpg","null","","","","","","learn","SR",""
"","html-keyboard-response","33","84520","0.0-33.0","""event"",""trial"",""time""
""fullscreenenter"",""0"",""4920""
","
","
","""event"",""trial"",""time""
""fullscreenenter"",""0"",""4920""
","
","null","<p></p>","null","","","","","","","",""
"","image","34","85644","0.0-34.0","""event"",""trial"",""time""
""fullscreenenter"",""0"",""4920""
","
","
","""event"",""trial"",""time""
""fullscreenenter"",""0"",""4920""
","
","1122.2000000000116","run_exp/static/images/Set 6_rs/122a.jpg","86","","","","","","learn","SR",""
"","show_choice","35","86527","0.0-35.0","""event"",""trial"",""time""
""fullscreenenter"",""0"",""4920""
","
","
","""event"",""trial"",""time""
""fullscreenenter"",""0"",""4920""
","
","null","run_exp/static/images/Set 6_rs/122a.jpg","null","","","","","","learn","SR",""
"","html-keyboard-response","36","87029","0.0-36.0","""event"",""trial"",""time""
""fullscreenenter"",""0"",""4920""
","
","
","""event"",""trial"",""time""
""fullscreenenter"",""0"",""4920""
","
","null","<p></p>","null","","","","","","","",""
"","image","37","87796","0.0-37.0","""event"",""trial"",""time""
""fullscreenenter"",""0"",""4920""
","
","
","""event"",""trial"",""time""
""fullscreenenter"",""0"",""4920""
","
","765.7999999999884","run_exp/static/images/Set 6_rs/178a.jpg","86","","","","","","learn","SR",""
"","show_choice","38","89032","0.0-38.0","""event"",""trial"",""time""
""fullscreenenter"",""0"",""4920""
","
","
","""event"",""trial"",""time""
""fullscreenenter"",""0"",""4920""
","
","null","run_exp/static/images/Set 6_rs/178a.jpg","null","","","","","","learn","SR",""
"","html-keyboard-response","39","89534","0.0-39.0","""event"",""trial"",""time""
""fullscreenenter"",""0"",""4920""
","
","
","""event"",""trial"",""time""
""fullscreenenter"",""0"",""4920""
","
","null","<p></p>","null","","","","","","","",""
"","image","40","90739","0.0-40.0","""event"",""trial"",""time""
""fullscreenenter"",""0"",""4920""
","
","
","""event"",""trial"",""time""
""fullscreenenter"",""0"",""4920""
","
","1203.2000000000116","run_exp/static/images/Set 6_rs/123a.jpg","86","","","","","","learn","SL",""
"","show_choice","41","91536","0.0-41.0","""event"",""trial"",""time""
""fullscreenenter"",""0"",""4920""
","
","
","""event"",""trial"",""time""
""fullscreenenter"",""0"",""4920""
","
","null","run_exp/static/images/Set 6_rs/123a.jpg","null","","","","","","learn","SL",""
"","html-keyboard-response","42","92037","0.0-42.0","""event"",""trial"",""time""
""fullscreenenter"",""0"",""4920""
","
","
","""event"",""trial"",""time""
""fullscreenenter"",""0"",""4920""
","
","null","<p></p>","null","","","","","","","",""
"","image","43","93230","0.0-43.0","""event"",""trial"",""time""
""fullscreenenter"",""0"",""4920""
","
","
","""event"",""trial"",""time""
""fullscreenenter"",""0"",""4920""
","
","1191","run_exp/static/images/Set 6_rs/070a.jpg","86","","","","","","learn","SR",""
"","show_choice","44","94040","0.0-44.0","""event"",""trial"",""time""
""fullscreenenter"",""0"",""4920""
","
","
","""event"",""trial"",""time""
""fullscreenenter"",""0"",""4920""
","
","null","run_exp/static/images/Set 6_rs/070a.jpg","null","","","","","","learn","SR",""
"","html-keyboard-response","45","94542","0.0-45.0","""event"",""trial"",""time""
""fullscreenenter"",""0"",""4920""
","
","
","""event"",""trial"",""time""
""fullscreenenter"",""0"",""4920""
","
","null","<p></p>","null","","","","","","","",""
"","image","46","95870","0.0-46.0","""event"",""trial"",""time""
""fullscreenenter"",""0"",""4920""
","
","
","""event"",""trial"",""time""
""fullscreenenter"",""0"",""4920""
","
","1327","run_exp/static/images/Set 6_rs/045a.jpg","78","","","","","","learn","SR",""
"","show_choice","47","96545","0.0-47.0","""event"",""trial"",""time""
""fullscreenenter"",""0"",""4920""
","
","
","""event"",""trial"",""time""
""fullscreenenter"",""0"",""4920""
","
","null","run_exp/static/images/Set 6_rs/045a.jpg","null","","","","","","learn","SR",""
"","html-keyboard-response","48","97046","0.0-48.0","""event"",""trial"",""time""
""fullscreenenter"",""0"",""4920""
","
","
","""event"",""trial"",""time""
""fullscreenenter"",""0"",""4920""
","
","null","<p></p>","null","","","","","","","",""
"","image","49","98341","0.0-49.0","""event"",""trial"",""time""
""fullscreenenter"",""0"",""4920""
","
","
","""event"",""trial"",""time""
""fullscreenenter"",""0"",""4920""
","
","1292.5999999999767","run_exp/static/images/Set 6_rs/071a.jpg","78","","","","","","learn","SL",""
"","show_choice","50","99049","0.0-50.0","""event"",""trial"",""time""
""fullscreenenter"",""0"",""4920""
","
","
","""event"",""trial"",""time""
""fullscreenenter"",""0"",""4920""
","
","null","run_exp/static/images/Set 6_rs/071a.jpg","null","","","","","","learn","SL",""
"","html-keyboard-response","51","99550","0.0-51.0","""event"",""trial"",""time""
""fullscreenenter"",""0"",""4920""
","
","
","""event"",""trial"",""time""
""fullscreenenter"",""0"",""4920""
","
","null","<p></p>","null","","","","","","","",""
"","image","52","100921","0.0-52.0","""event"",""trial"",""time""
""fullscreenenter"",""0"",""4920""
","
","
","""event"",""trial"",""time""
""fullscreenenter"",""0"",""4920""
","
","1369.600000000035","run_exp/static/images/Set 6_rs/091a.jpg","86","","","","","","learn","SL",""
"","show_choice","53","101553","0.0-53.0","""event"",""trial"",""time""
""fullscreenenter"",""0"",""4920""
","
","
","""event"",""trial"",""time""
""fullscreenenter"",""0"",""4920""
","
","null","run_exp/static/images/Set 6_rs/091a.jpg","null","","","","","","learn","SL",""
"","html-keyboard-response","54","102055","0.0-54.0","""event"",""trial"",""time""
""fullscreenenter"",""0"",""4920""
","
","
","""event"",""trial"",""time""
""fullscreenenter"",""0"",""4920""
","
","null","<p></p>","null","","","","","","","",""
"","image","55","103549","0.0-55.0","""event"",""trial"",""time""
""fullscreenenter"",""0"",""4920""
","
","
","""event"",""trial"",""time""
""fullscreenenter"",""0"",""4920""
","
","1493","run_exp/static/images/Set 6_rs/167a.jpg","78","","","","","","learn","SL",""
"","show_choice","56","104058","0.0-56.0","""event"",""trial"",""time""
""fullscreenenter"",""0"",""4920""
","
","
","""event"",""trial"",""time""
""fullscreenenter"",""0"",""4920""
","
","null","run_exp/static/images/Set 6_rs/167a.jpg","null","","","","","","learn","SL",""
"","html-keyboard-response","57","104559","0.0-57.0","""event"",""trial"",""time""
""fullscreenenter"",""0"",""4920""
","
","
","""event"",""trial"",""time""
""fullscreenenter"",""0"",""4920""
","
","null","<p></p>","null","","","","","","","",""
"","image","58","105877","0.0-58.0","""event"",""trial"",""time""
""fullscreenenter"",""0"",""4920""
","
","
","""event"",""trial"",""time""
""fullscreenenter"",""0"",""4920""
","
","1316","run_exp/static/images/Set 6_rs/008a.jpg","78","","","","","","learn","SL",""
"","show_choice","59","106563","0.0-59.0","""event"",""trial"",""time""
""fullscreenenter"",""0"",""4920""
","
","
","""event"",""trial"",""time""
""fullscreenenter"",""0"",""4920""
","
","null","run_exp/static/images/Set 6_rs/008a.jpg","null","","","","","","learn","SL",""
"","html-keyboard-response","60","107064","0.0-60.0","""event"",""trial"",""time""
""fullscreenenter"",""0"",""4920""
","
","
","""event"",""trial"",""time""
""fullscreenenter"",""0"",""4920""
","
","null","<p></p>","null","","","","","","","",""
"","image","61","108077","0.0-61.0","""event"",""trial"",""time""
""fullscreenenter"",""0"",""4920""
","
","
","""event"",""trial"",""time""
""fullscreenenter"",""0"",""4920""
","
","1011.5","run_exp/static/images/Set 6_rs/152a.jpg","78","","","","","","learn","SR",""
"","show_choice","62","109067","0.0-62.0","""event"",""trial"",""time""
""fullscreenenter"",""0"",""4920""
","
","
","""event"",""trial"",""time""
""fullscreenenter"",""0"",""4920""
","
","null","run_exp/static/images/Set 6_rs/152a.jpg","null","","","","","","learn","SR",""
"","html-keyboard-response","63","109575","0.0-63.0","""event"",""trial"",""time""
""fullscreenenter"",""0"",""4920""
","
","
","""event"",""trial"",""time""
""fullscreenenter"",""0"",""4920""
","
","null","<p></p>","null","","","","","","","",""
"","image","64","110664","0.0-64.0","""event"",""trial"",""time""
""fullscreenenter"",""0"",""4920""
","
","
","""event"",""trial"",""time""
""fullscreenenter"",""0"",""4920""
","
","1087.5","run_exp/static/images/Set 6_rs/017a.jpg","86","","","","","","learn","SL",""
"","show_choice","65","111577","0.0-65.0","""event"",""trial"",""time""
""fullscreenenter"",""0"",""4920""
","
","
","""event"",""trial"",""time""
""fullscreenenter"",""0"",""4920""
","
","null","run_exp/static/images/Set 6_rs/017a.jpg","null","","","","","","learn","SL",""
"","html-keyboard-response","66","112078","0.0-66.0","""event"",""trial"",""time""
""fullscreenenter"",""0"",""4920""
","
","
","""event"",""trial"",""time""
""fullscreenenter"",""0"",""4920""
","
","null","<p></p>","null","","","","","","","",""
"","image","67","113021","0.0-67.0","""event"",""trial"",""time""
""fullscreenenter"",""0"",""4920""
","
","
","""event"",""trial"",""time""
""fullscreenenter"",""0"",""4920""
","
","940.8999999999651","run_exp/static/images/Set 6_rs/079a.jpg","78","","","","","","learn","SL",""
"","show_choice","68","114081","0.0-68.0","""event"",""trial"",""time""
""fullscreenenter"",""0"",""4920""
","
","
","""event"",""trial"",""time""
""fullscreenenter"",""0"",""4920""
","
","null","run_exp/static/images/Set 6_rs/079a.jpg","null","","","","","","learn","SL",""
"","html-keyboard-response","69","114582","0.0-69.0","""event"",""trial"",""time""
""fullscreenenter"",""0"",""4920""
","
","
","""event"",""trial"",""time""
""fullscreenenter"",""0"",""4920""
","
","null","<p></p>","null","","","","","","","",""
"","image","70","115429","0.0-70.0","""event"",""trial"",""time""
""fullscreenenter"",""0"",""4920""
","
","
","""event"",""trial"",""time""
""fullscreenenter"",""0"",""4920""
","
","845.6999999999534","run_exp/static/images/Set 6_rs/168a.jpg","86","","","","","","learn","SL",""
"","show_choice","71","116585","0.0-71.0","""event"",""trial"",""time""
""fullscreenenter"",""0"",""4920""
","
","
","""event"",""trial"",""time""
""fullscreenenter"",""0"",""4920""
","
","null","run_exp/static/images/Set 6_rs/168a.jpg","null","","","","","","learn","SL",""
"","html-keyboard-response","72","117086","0.0-72.0","""event"",""trial"",""time""
""fullscreenenter"",""0"",""4920""
","
","
","""event"",""trial"",""time""
""fullscreenenter"",""0"",""4920""
","
","null","<p></p>","null","","","","","","","",""
"","image","73","118269","0.0-73.0","""event"",""trial"",""time""
""fullscreenenter"",""0"",""4920""
","
","
","""event"",""trial"",""time""
""fullscreenenter"",""0"",""4920""
","
","1181.5999999999767","run_exp/static/images/Set 6_rs/062a.jpg","86","","","","","","learn","SL",""
"","show_choice","74","119089","0.0-74.0","""event"",""trial"",""time""
""fullscreenenter"",""0"",""4920""
","
","
","""event"",""trial"",""time""
""fullscreenenter"",""0"",""4920""
","
","null","run_exp/static/images/Set 6_rs/062a.jpg","null","","","","","","learn","SL",""
"","html-keyboard-response","75","119590","0.0-75.0","""event"",""trial"",""time""
""fullscreenenter"",""0"",""4920""
","
","
","""event"",""trial"",""time""
""fullscreenenter"",""0"",""4920""
","
","null","<p></p>","null","","","","","","","",""
"","image","76","120719","0.0-76.0","""event"",""trial"",""time""
""fullscreenenter"",""0"",""4920""
","
","
","""event"",""trial"",""time""
""fullscreenenter"",""0"",""4920""
","
","1127.5","run_exp/static/images/Set 6_rs/074a.jpg","86","","","","","","learn","SL",""
"","show_choice","77","121593","0.0-77.0","""event"",""trial"",""time""
""fullscreenenter"",""0"",""4920""
","
","
","""event"",""trial"",""time""
""fullscreenenter"",""0"",""4920""
","
","null","run_exp/static/images/Set 6_rs/074a.jpg","null","","","","","","learn","SL",""
"","html-keyboard-response","78","122094","0.0-78.0","""event"",""trial"",""time""
""fullscreenenter"",""0"",""4920""
","
","
","""event"",""trial"",""time""
""fullscreenenter"",""0"",""4920""
","
","null","<p></p>","null","","","","","","","",""
"","image","79","124096","0.0-79.0","""event"",""trial"",""time""
""fullscreenenter"",""0"",""4920""
","
","
","""event"",""trial"",""time""
""fullscreenenter"",""0"",""4920""
","
","null","run_exp/static/images/Set 6_rs/010a.jpg","null","","","","","","learn","SR",""
"","show_choice","80","126098","0.0-80.0","""event"",""trial"",""time""
""fullscreenenter"",""0"",""4920""
","
","
","""event"",""trial"",""time""
""fullscreenenter"",""0"",""4920""
","
","null","run_exp/static/images/blank.png","null","","","","","","learn","SR",""
"","html-keyboard-response","81","126599","0.0-81.0","""event"",""trial"",""time""
""fullscreenenter"",""0"",""4920""
","
","
","""event"",""trial"",""time""
""fullscreenenter"",""0"",""4920""
","
","null","<p></p>","null","","","","","","","",""
"","image","82","127818","0.0-82.0","""event"",""trial"",""time""
""fullscreenenter"",""0"",""4920""
","
","
","""event"",""trial"",""time""
""fullscreenenter"",""0"",""4920""
","
","1217.5999999999767","run_exp/static/images/Set 6_rs/172a.jpg","86","","","","","","learn","SR",""
"","show_choice","83","128602","0.0-83.0","""event"",""trial"",""time""
""fullscreenenter"",""0"",""4920""
","
","
","""event"",""trial"",""time""
""fullscreenenter"",""0"",""4920""
","
","null","run_exp/static/images/Set 6_rs/172a.jpg","null","","","","","","learn","SR",""
"","html-keyboard-response","84","129104","0.0-84.0","""event"",""trial"",""time""
""fullscreenenter"",""0"",""4920""
","
","
","""event"",""trial"",""time""
""fullscreenenter"",""0"",""4920""
","
","null","<p></p>","null","","","","","","","",""
"","image","85","129830","0.0-85.0","""event"",""trial"",""time""
""fullscreenenter"",""0"",""4920""
","
","
","""event"",""trial"",""time""
""fullscreenenter"",""0"",""4920""
","
","724.4000000000233","run_exp/static/images/Set 6_rs/023a.jpg","86","","","","","","learn","SR",""
"","show_choice","86","131106","0.0-86.0","""event"",""trial"",""time""
""fullscreenenter"",""0"",""4920""
","
","
","""event"",""trial"",""time""
""fullscreenenter"",""0"",""4920""
","
","null","run_exp/static/images/Set 6_rs/023a.jpg","null","","","","","","learn","SR",""
"","html-keyboard-response","87","131609","0.0-87.0","""event"",""trial"",""time""
""fullscreenenter"",""0"",""4920""
","
","
","""event"",""trial"",""time""
""fullscreenenter"",""0"",""4920""
","
","null","<p></p>","null","","","","","","","",""
"","image","88","132804","0.0-88.0","""event"",""trial"",""time""
""fullscreenenter"",""0"",""4920""
","
","
","""event"",""trial"",""time""
""fullscreenenter"",""0"",""4920""
","
","1193.2000000000116","run_exp/static/images/Set 6_rs/117a.jpg","86","","","","","","learn","SL",""
"","show_choice","89","133612","0.0-89.0","""event"",""trial"",""time""
""fullscreenenter"",""0"",""4920""
","
","
","""event"",""trial"",""time""
""fullscreenenter"",""0"",""4920""
","
","null","run_exp/static/images/Set 6_rs/117a.jpg","null","","","","","","learn","SL",""
"","html-keyboard-response","90","134113","0.0-90.0","""event"",""trial"",""time""
""fullscreenenter"",""0"",""4920""
","
","
","""event"",""trial"",""time""
""fullscreenenter"",""0"",""4920""
","
","null","<p></p>","null","","","","","","","",""
"","image","91","135106","0.0-91.0","""event"",""trial"",""time""
""fullscreenenter"",""0"",""4920""
","
","
","""event"",""trial"",""time""
""fullscreenenter"",""0"",""4920""
","
","991.6000000000349","run_exp/static/images/Set 6_rs/075a.jpg","86","","","","","","learn","SR",""
"","show_choice","92","136116","0.0-92.0","""event"",""trial"",""time""
""fullscreenenter"",""0"",""4920""
","
","
","""event"",""trial"",""time""
""fullscreenenter"",""0"",""4920""
","
","null","run_exp/static/images/Set 6_rs/075a.jpg","null","","","","","","learn","SR",""
"","html-keyboard-response","93","136617","0.0-93.0","""event"",""trial"",""time""
""fullscreenenter"",""0"",""4920""
","
","
","""event"",""trial"",""time""
""fullscreenenter"",""0"",""4920""
","
","null","<p></p>","null","","","","","","","",""
"","image","94","137512","0.0-94.0","""event"",""trial"",""time""
""fullscreenenter"",""0"",""4920""
","
","
","""event"",""trial"",""time""
""fullscreenenter"",""0"",""4920""
","
","893.3999999999651","run_exp/static/images/Set 6_rs/169a.jpg","78","","","","","","learn","SR",""
"","show_choice","95","138620","0.0-95.0","""event"",""trial"",""time""
""fullscreenenter"",""0"",""4920""
","
","
","""event"",""trial"",""time""
""fullscreenenter"",""0"",""4920""
","
","null","run_exp/static/images/Set 6_rs/169a.jpg","null","","","","","","learn","SR",""
"","html-keyboard-response","96","139121","0.0-96.0","""event"",""trial"",""time""
""fullscreenenter"",""0"",""4920""
","
","
","""event"",""trial"",""time""
""fullscreenenter"",""0"",""4920""
","
","null","<p></p>","null","","","","","","","",""
"","image","97","140249","0.0-97.0","""event"",""trial"",""time""
""fullscreenenter"",""0"",""4920""
","
","
","""event"",""trial"",""time""
""fullscreenenter"",""0"",""4920""
","
","1126","run_exp/static/images/Set 6_rs/019a.jpg","86","","","","","","learn","SL",""
"","show_choice","98","141125","0.0-98.0","""event"",""trial"",""time""
""fullscreenenter"",""0"",""4920""
","
","
","""event"",""trial"",""time""
""fullscreenenter"",""0"",""4920""
","
","null","run_exp/static/images/Set 6_rs/019a.jpg","null","","","","","","learn","SL",""
"","html-keyboard-response","99","141626","0.0-99.0","""event"",""trial"",""time""
""fullscreenenter"",""0"",""4920""
","
","
","""event"",""trial"",""time""
""fullscreenenter"",""0"",""4920""
","
","null","<p></p>","null","","","","","","","",""
"","image","100","142989","0.0-100.0","""event"",""trial"",""time""
""fullscreenenter"",""0"",""4920""
","
","
","""event"",""trial"",""time""
""fullscreenenter"",""0"",""4920""
","
","1361.2000000000116","run_exp/static/images/Set 6_rs/186a.jpg","86","","","","","","learn","SR",""
"","show_choice","101","143628","0.0-101.0","""event"",""trial"",""time""
""fullscreenenter"",""0"",""4920""
","
","
","""event"",""trial"",""time""
""fullscreenenter"",""0"",""4920""
","
","null","run_exp/static/images/Set 6_rs/186a.jpg","null","","","","","","learn","SR",""
"","html-keyboard-response","102","144130","0.0-102.0","""event"",""trial"",""time""
""fullscreenenter"",""0"",""4920""
","
","
","""event"",""trial"",""time""
""fullscreenenter"",""0"",""4920""
","
","null","<p></p>","null","","","","","","","",""
"","image","103","145834","0.0-103.0","""event"",""trial"",""time""
""fullscreenenter"",""0"",""4920""
","
","
","""event"",""trial"",""time""
""fullscreenenter"",""0"",""4920""
","
","1703.0999999999767","run_exp/static/images/Set 6_rs/064a.jpg","78","","","","","","learn","SR",""
"","show_choice","104","146132","0.0-104.0","""event"",""trial"",""time""
""fullscreenenter"",""0"",""4920""
","
","
","""event"",""trial"",""time""
""fullscreenenter"",""0"",""4920""
","
","null","run_exp/static/images/Set 6_rs/064a.jpg","null","","","","","","learn","SR",""
"","html-keyboard-response","105","146633","0.0-105.0","""event"",""trial"",""time""
""fullscreenenter"",""0"",""4920""
","
","
","""event"",""trial"",""time""
""fullscreenenter"",""0"",""4920""
","
","null","<p></p>","null","","","","","","","",""
"","image","106","147777","0.0-106.0","""event"",""trial"",""time""
""fullscreenenter"",""0"",""4920""
","
","
","""event"",""trial"",""time""
""fullscreenenter"",""0"",""4920""
","
","1141.7999999999884","run_exp/static/images/Set 6_rs/036a.jpg","86","","","","","","learn","SL",""
"","show_choice","107","148636","0.0-107.0","""event"",""trial"",""time""
""fullscreenenter"",""0"",""4920""
","
","
","""event"",""trial"",""time""
""fullscreenenter"",""0"",""4920""
","
","null","run_exp/static/images/Set 6_rs/036a.jpg","null","","","","","","learn","SL",""
"","html-keyboard-response","108","149137","0.0-108.0","""event"",""trial"",""time""
""fullscreenenter"",""0"",""4920""
","
","
","""event"",""trial"",""time""
""fullscreenenter"",""0"",""4920""
","
","null","<p></p>","null","","","","","","","",""
"","image","109","150764","0.0-109.0","""event"",""trial"",""time""
""fullscreenenter"",""0"",""4920""
","
","
","""event"",""trial"",""time""
""fullscreenenter"",""0"",""4920""
","
","1625.2000000000116","run_exp/static/images/Set 6_rs/138a.jpg","86","","","","","","learn","SL",""
"","show_choice","110","151139","0.0-110.0","""event"",""trial"",""time""
""fullscreenenter"",""0"",""4920""
","
","
","""event"",""trial"",""time""
""fullscreenenter"",""0"",""4920""
","
","null","run_exp/static/images/Set 6_rs/138a.jpg","null","","","","","","learn","SL",""
"","html-keyboard-response","111","151641","0.0-111.0","""event"",""trial"",""time""
""fullscreenenter"",""0"",""4920""
","
","
","""event"",""trial"",""time""
""fullscreenenter"",""0"",""4920""
","
","null","<p></p>","null","","","","","","","",""
"","image","112","152947","0.0-112.0","""event"",""trial"",""time""
""fullscreenenter"",""0"",""4920""
","
","
","""event"",""trial"",""time""
""fullscreenenter"",""0"",""4920""
","
","1304.0999999999767","run_exp/static/images/Set 6_rs/076a.jpg","86","","","","","","learn","SR",""
"","show_choice","113","153643","0.0-113.0","""event"",""trial"",""time""
""fullscreenenter"",""0"",""4920""
","
","
","""event"",""trial"",""time""
""fullscreenenter"",""0"",""4920""
","
","null","run_exp/static/images/Set 6_rs/076a.jpg","null","","","","","","learn","SR",""
"","html-keyboard-response","114","154144","0.0-114.0","""event"",""trial"",""time""
""fullscreenenter"",""0"",""4920""
","
","
","""event"",""trial"",""time""
""fullscreenenter"",""0"",""4920""
","
","null","<p></p>","null","","","","","","","",""
"","image","115","155346","0.0-115.0","""event"",""trial"",""time""
""fullscreenenter"",""0"",""4920""
","
","
","""event"",""trial"",""time""
""fullscreenenter"",""0"",""4920""
","
","1200.5","run_exp/static/images/Set 6_rs/014a.jpg","86","","","","","","learn","SL",""
"","show_choice","116","156147","0.0-116.0","""event"",""trial"",""time""
""fullscreenenter"",""0"",""4920""
","
","
","""event"",""trial"",""time""
""fullscreenenter"",""0"",""4920""
","
","null","run_exp/static/images/Set 6_rs/014a.jpg","null","","","","","","learn","SL",""
"","html-keyboard-response","117","156648","0.0-117.0","""event"",""trial"",""time""
""fullscreenenter"",""0"",""4920""
","
","
","""event"",""trial"",""time""
""fullscreenenter"",""0"",""4920""
","
","null","<p></p>","null","","","","","","","",""
"","image","118","158340","0.0-118.0","""event"",""trial"",""time""
""fullscreenenter"",""0"",""4920""
","
","
","""event"",""trial"",""time""
""fullscreenenter"",""0"",""4920""
","
","1690.600000000035","run_exp/static/images/Set 6_rs/112a.jpg","86","","","","","","learn","SR",""
"","show_choice","119","158651","0.0-119.0","""event"",""trial"",""time""
""fullscreenenter"",""0"",""4920""
","
","
","""event"",""trial"",""time""
""fullscreenenter"",""0"",""4920""
","
","null","run_exp/static/images/Set 6_rs/112a.jpg","null","","","","","","learn","SR",""
"","html-keyboard-response","120","159152","0.0-120.0","""event"",""trial"",""time""
""fullscreenenter"",""0"",""4920""
","
","
","""event"",""trial"",""time""
""fullscreenenter"",""0"",""4920""
","
","null","<p></p>","null","","","","","","","",""
"","image","121","160228","0.0-121.0","""event"",""trial"",""time""
""fullscreenenter"",""0"",""4920""
","
","
","""event"",""trial"",""time""
""fullscreenenter"",""0"",""4920""
","
","1073.9000000000233","run_exp/static/images/Set 6_rs/088a.jpg","78","","","","","","learn","SR",""
"","show_choice","122","161155","0.0-122.0","""event"",""trial"",""time""
""fullscreenenter"",""0"",""4920""
","
","
","""event"",""trial"",""time""
""fullscreenenter"",""0"",""4920""
","
","null","run_exp/static/images/Set 6_rs/088a.jpg","null","","","","","","learn","SR",""
"","html-keyboard-response","123","161657","0.0-123.0","""event"",""trial"",""time""
""fullscreenenter"",""0"",""4920""
","
","
","""event"",""trial"",""time""
""fullscreenenter"",""0"",""4920""
","
","null","<p></p>","null","","","","","","","",""
"","image","124","162876","0.0-124.0","""event"",""trial"",""time""
""fullscreenenter"",""0"",""4920""
","
","
","""event"",""trial"",""time""
""fullscreenenter"",""0"",""4920""
","
","1217.0999999999767","run_exp/static/images/Set 6_rs/150a.jpg","78","","","","","","learn","SR",""
"","show_choice","125","163659","0.0-125.0","""event"",""trial"",""time""
""fullscreenenter"",""0"",""4920""
","
","
","""event"",""trial"",""time""
""fullscreenenter"",""0"",""4920""
","
","null","run_exp/static/images/Set 6_rs/150a.jpg","null","","","","","","learn","SR",""
"","html-keyboard-response","126","164160","0.0-126.0","""event"",""trial"",""time""
""fullscreenenter"",""0"",""4920""
","
","
","""event"",""trial"",""time""
""fullscreenenter"",""0"",""4920""
","
","null","<p></p>","null","","","","","","","",""
"","image","127","165131","0.0-127.0","""event"",""trial"",""time""
""fullscreenenter"",""0"",""4920""
","
","
","""event"",""trial"",""time""
""fullscreenenter"",""0"",""4920""
","
","969.3999999999651","run_exp/static/images/Set 6_rs/129a.jpg","86","","","","","","learn","SL",""
"","show_choice","128","166163","0.0-128.0","""event"",""trial"",""time""
""fullscreenenter"",""0"",""4920""
","
","
","""event"",""trial"",""time""
""fullscreenenter"",""0"",""4920""
","
","null","run_exp/static/images/Set 6_rs/129a.jpg","null","","","","","","learn","SL",""
"","html-keyboard-response","129","166665","0.0-129.0","""event"",""trial"",""time""
""fullscreenenter"",""0"",""4920""
","
","
","""event"",""trial"",""time""
""fullscreenenter"",""0"",""4920""
","
","null","<p></p>","null","","","","","","","",""
"","image","130","168006","0.0-130.0","""event"",""trial"",""time""
""fullscreenenter"",""0"",""4920""
","
","
","""event"",""trial"",""time""
""fullscreenenter"",""0"",""4920""
","
","1340","run_exp/static/images/Set 6_rs/024a.jpg","86","","","","","","learn","SR",""
"","show_choice","131","168668","0.0-131.0","""event"",""trial"",""time""
""fullscreenenter"",""0"",""4920""
","
","
","""event"",""trial"",""time""
""fullscreenenter"",""0"",""4920""
","
","null","run_exp/static/images/Set 6_rs/024a.jpg","null","","","","","","learn","SR",""
"","html-keyboard-response","132","169169","0.0-132.0","""event"",""trial"",""time""
""fullscreenenter"",""0"",""4920""
","
","
","""event"",""trial"",""time""
""fullscreenenter"",""0"",""4920""
","
","null","<p></p>","null","","","","","","","",""
"","image","133","170044","0.0-133.0","""event"",""trial"",""time""
""fullscreenenter"",""0"",""4920""
","
","
","""event"",""trial"",""time""
""fullscreenenter"",""0"",""4920""
","
","873.5","run_exp/static/images/Set 6_rs/154a.jpg","86","","","","","","learn","SR",""
"","show_choice","134","171172","0.0-134.0","""event"",""trial"",""time""
""fullscreenenter"",""0"",""4920""
","
","
","""event"",""trial"",""time""
""fullscreenenter"",""0"",""4920""
","
","null","run_exp/static/images/Set 6_rs/154a.jpg","null","","","","","","learn","SR",""
"","html-keyboard-response","135","171673","0.0-135.0","""event"",""trial"",""time""
""fullscreenenter"",""0"",""4920""
","
","
","""event"",""trial"",""time""
""fullscreenenter"",""0"",""4920""
","
","null","<p></p>","null","","","","","","","",""
"","image","136","172537","0.0-136.0","""event"",""trial"",""time""
""fullscreenenter"",""0"",""4920""
","
","
","""event"",""trial"",""time""
""fullscreenenter"",""0"",""4920""
","
","862.2000000000116","run_exp/static/images/Set 6_rs/141a.jpg","86","","","","","","learn","SR",""
"","show_choice","137","173676","0.0-137.0","""event"",""trial"",""time""
""fullscreenenter"",""0"",""4920""
","
","
","""event"",""trial"",""time""
""fullscreenenter"",""0"",""4920""
","
","null","run_exp/static/images/Set 6_rs/141a.jpg","null","","","","","","learn","SR",""
"","html-keyboard-response","138","174177","0.0-138.0","""event"",""trial"",""time""
""fullscreenenter"",""0"",""4920""
","
","
","""event"",""trial"",""time""
""fullscreenenter"",""0"",""4920""
","
","null","<p></p>","null","","","","","","","",""
"","image","139","175060","0.0-139.0","""event"",""trial"",""time""
""fullscreenenter"",""0"",""4920""
","
","
","""event"",""trial"",""time""
""fullscreenenter"",""0"",""4920""
","
","881.3999999999651","run_exp/static/images/Set 6_rs/166a.jpg","86","","","","","","learn","SR",""
"","show_choice","140","176180","0.0-140.0","""event"",""trial"",""time""
""fullscreenenter"",""0"",""4920""
","
","
","""event"",""trial"",""time""
""fullscreenenter"",""0"",""4920""
","
","null","run_exp/static/images/Set 6_rs/166a.jpg","null","","","","","","learn","SR",""
"","html-keyboard-response","141","176681","0.0-141.0","""event"",""trial"",""time""
""fullscreenenter"",""0"",""4920""
","
","
","""event"",""trial"",""time""
""fullscreenenter"",""0"",""4920""
","
","null","<p></p>","null","","","","","","","",""
"","image","142","177576","0.0-142.0","""event"",""trial"",""time""
""fullscreenenter"",""0"",""4920""
","
","
","""event"",""trial"",""time""
""fullscreenenter"",""0"",""4920""
","
","893.2999999999884","run_exp/static/images/Set 6_rs/144a.jpg","86","","","","","","learn","SL",""
"","show_choice","143","178683","0.0-143.0","""event"",""trial"",""time""
""fullscreenenter"",""0"",""4920""
","
","
","""event"",""trial"",""time""
""fullscreenenter"",""0"",""4920""
","
","null","run_exp/static/images/Set 6_rs/144a.jpg","null","","","","","","learn","SL",""
"","html-keyboard-response","144","179185","0.0-144.0","""event"",""trial"",""time""
""fullscreenenter"",""0"",""4920""
","
","
","""event"",""trial"",""time""
""fullscreenenter"",""0"",""4920""
","
","null","<p></p>","null","","","","","","","",""
"","image","145","180060","0.0-145.0","""event"",""trial"",""time""
""fullscreenenter"",""0"",""4920""
","
","
","""event"",""trial"",""time""
""fullscreenenter"",""0"",""4920""
","
","873.4000000000233","run_exp/static/images/Set 6_rs/134a.jpg","86","","","","","","learn","SR",""
"","show_choice","146","181187","0.0-146.0","""event"",""trial"",""time""
""fullscreenenter"",""0"",""4920""
","
","
","""event"",""trial"",""time""
""fullscreenenter"",""0"",""4920""
","
","null","run_exp/static/images/Set 6_rs/134a.jpg","null","","","","","","learn","SR",""
"","html-keyboard-response","147","181690","0.0-147.0","""event"",""trial"",""time""
""fullscreenenter"",""0"",""4920""
","
","
","""event"",""trial"",""time""
""fullscreenenter"",""0"",""4920""
","
","null","<p></p>","null","","","","","","","",""
"","image","148","182837","0.0-148.0","""event"",""trial"",""time""
""fullscreenenter"",""0"",""4920""
","
","
","""event"",""trial"",""time""
""fullscreenenter"",""0"",""4920""
","
","1145.2000000000116","run_exp/static/images/Set 6_rs/126a.jpg","86","","","","","","learn","SR",""
"","show_choice","149","183693","0.0-149.0","""event"",""trial"",""time""
""fullscreenenter"",""0"",""4920""
","
","
","""event"",""trial"",""time""
""fullscreenenter"",""0"",""4920""
","
","null","run_exp/static/images/Set 6_rs/126a.jpg","null","","","","","","learn","SR",""
"","html-keyboard-response","150","184194","0.0-150.0","""event"",""trial"",""time""
""fullscreenenter"",""0"",""4920""
","
","
","""event"",""trial"",""time""
""fullscreenenter"",""0"",""4920""
","
","null","<p></p>","null","","","","","","","",""
"","image","151","185237","0.0-151.0","""event"",""trial"",""time""
""fullscreenenter"",""0"",""4920""
","
","
","""event"",""trial"",""time""
""fullscreenenter"",""0"",""4920""
","
","1041.899999999965","run_exp/static/images/Set 6_rs/006a.jpg","86","","","","","","learn","SL",""
"","show_choice","152","186197","0.0-152.0","""event"",""trial"",""time""
""fullscreenenter"",""0"",""4920""
","
","
","""event"",""trial"",""time""
""fullscreenenter"",""0"",""4920""
","
","null","run_exp/static/images/Set 6_rs/006a.jpg","null","","","","","","learn","SL",""
"","html-keyboard-response","153","186698","0.0-153.0","""event"",""trial"",""time""
""fullscreenenter"",""0"",""4920""
","
","
","""event"",""trial"",""time""
""fullscreenenter"",""0"",""4920""
","
","null","<p></p>","null","","","","","","","",""
"","image","154","187766","0.0-154.0","""event"",""trial"",""time""
""fullscreenenter"",""0"",""4920""
","
","
","""event"",""trial"",""time""
""fullscreenenter"",""0"",""4920""
","
","1067.0999999999767","run_exp/static/images/Set 6_rs/187a.jpg","86","","","","","","learn","SR",""
"","show_choice","155","188700","0.0-155.0","""event"",""trial"",""time""
""fullscreenenter"",""0"",""4920""
","
","
","""event"",""trial"",""time""
""fullscreenenter"",""0"",""4920""
","
","null","run_exp/static/images/Set 6_rs/187a.jpg","null","","","","","","learn","SR",""
"","html-keyboard-response","156","189201","0.0-156.0","""event"",""trial"",""time""
""fullscreenenter"",""0"",""4920""
","
","
","""event"",""trial"",""time""
""fullscreenenter"",""0"",""4920""
","
","null","<p></p>","null","","","","","","","",""
"","image","157","190668","0.0-157.0","""event"",""trial"",""time""
""fullscreenenter"",""0"",""4920""
","
","
","""event"",""trial"",""time""
""fullscreenenter"",""0"",""4920""
","
","1465.0999999999767","run_exp/static/images/Set 6_rs/181a.jpg","78","","","","","","learn","SL",""
"","show_choice","158","191203","0.0-158.0","""event"",""trial"",""time""
""fullscreenenter"",""0"",""4920""
","
","
","""event"",""trial"",""time""
""fullscreenenter"",""0"",""4920""
","
","null","run_exp/static/images/Set 6_rs/181a.jpg","null","","","","","","learn","SL",""
"","html-keyboard-response","159","191705","0.0-159.0","""event"",""trial"",""time""
""fullscreenenter"",""0"",""4920""
","
","
","""event"",""trial"",""time""
""fullscreenenter"",""0"",""4920""
","
","null","<p></p>","null","","","","","","","",""
"","image","160","192572","0.0-160.0","""event"",""trial"",""time""
""fullscreenenter"",""0"",""4920""
","
","
","""event"",""trial"",""time""
""fullscreenenter"",""0"",""4920""
","
","865.7000000000116","run_exp/static/images/Set 6_rs/085a.jpg","86","","","","","","learn","SL",""
"","show_choice","161","193708","0.0-161.0","""event"",""trial"",""time""
""fullscreenenter"",""0"",""4920""
","
","
","""event"",""trial"",""time""
""fullscreenenter"",""0"",""4920""
","
","null","run_exp/static/images/Set 6_rs/085a.jpg","null","","","","","","learn","SL",""
"","html-keyboard-response","162","194209","0.0-162.0","""event"",""trial"",""time""
""fullscreenenter"",""0"",""4920""
","
","
","""event"",""trial"",""time""
""fullscreenenter"",""0"",""4920""
","
","null","<p></p>","null","","","","","","","",""
"","image","163","195606","0.0-163.0","""event"",""trial"",""time""
""fullscreenenter"",""0"",""4920""
","
","
","""event"",""trial"",""time""
""fullscreenenter"",""0"",""4920""
","
","1395","run_exp/static/images/Set 6_rs/025a.jpg","78","","","","","","learn","SL",""
"","show_choice","164","196212","0.0-164.0","""event"",""trial"",""time""
""fullscreenenter"",""0"",""4920""
","
","
","""event"",""trial"",""time""
""fullscreenenter"",""0"",""4920""
","
","null","run_exp/static/images/Set 6_rs/025a.jpg","null","","","","","","learn","SL",""
"","html-keyboard-response","165","196714","0.0-165.0","""event"",""trial"",""time""
""fullscreenenter"",""0"",""4920""
","
","
","""event"",""trial"",""time""
""fullscreenenter"",""0"",""4920""
","
","null","<p></p>","null","","","","","","","",""
"","image","166","198573","0.0-166.0","""event"",""trial"",""time""
""fullscreenenter"",""0"",""4920""
","
","
","""event"",""trial"",""time""
""fullscreenenter"",""0"",""4920""
","
","1857.5999999999767","run_exp/static/images/Set 6_rs/177a.jpg","78","","","","","","learn","SR",""
"","show_choice","167","198717","0.0-167.0","""event"",""trial"",""time""
""fullscreenenter"",""0"",""4920""
","
","
","""event"",""trial"",""time""
""fullscreenenter"",""0"",""4920""
","
","null","run_exp/static/images/Set 6_rs/177a.jpg","null","","","","","","learn","SR",""
"","html-keyboard-response","168","199218","0.0-168.0","""event"",""trial"",""time""
""fullscreenenter"",""0"",""4920""
","
","
","""event"",""trial"",""time""
""fullscreenenter"",""0"",""4920""
","
","null","<p></p>","null","","","","","","","",""
"","image","169","200607","0.0-169.0","""event"",""trial"",""time""
""fullscreenenter"",""0"",""4920""
","
","
","""event"",""trial"",""time""
""fullscreenenter"",""0"",""4920""
","
","1387","run_exp/static/images/Set 6_rs/012a.jpg","86","","","","","","learn","SR",""
"","show_choice","170","201221","0.0-170.0","""event"",""trial"",""time""
""fullscreenenter"",""0"",""4920""
","
","
","""event"",""trial"",""time""
""fullscreenenter"",""0"",""4920""
","
","null","run_exp/static/images/Set 6_rs/012a.jpg","null","","","","","","learn","SR",""
"","html-keyboard-response","171","201723","0.0-171.0","""event"",""trial"",""time""
""fullscreenenter"",""0"",""4920""
","
","
","""event"",""trial"",""time""
""fullscreenenter"",""0"",""4920""
","
","null","<p></p>","null","","","","","","","",""
"","image","172","202911","0.0-172.0","""event"",""trial"",""time""
""fullscreenenter"",""0"",""4920""
","
","
","""event"",""trial"",""time""
""fullscreenenter"",""0"",""4920""
","
","1186.4000000000233","run_exp/static/images/Set 6_rs/061a.jpg","86","","","","","","learn","SR",""
"","show_choice","173","203726","0.0-173.0","""event"",""trial"",""time""
""fullscreenenter"",""0"",""4920""
","
","
","""event"",""trial"",""time""
""fullscreenenter"",""0"",""4920""
","
","null","run_exp/static/images/Set 6_rs/061a.jpg","null","","","","","","learn","SR",""
"","html-keyboard-response","174","204227","0.0-174.0","""event"",""trial"",""time""
""fullscreenenter"",""0"",""4920""
","
","
","""event"",""trial"",""time""
""fullscreenenter"",""0"",""4920""
","
","null","<p></p>","null","","","","","","","",""
"","image","175","204960","0.0-175.0","""event"",""trial"",""time""
""fullscreenenter"",""0"",""4920""
","
","
","""event"",""trial"",""time""
""fullscreenenter"",""0"",""4920""
","
","731.4000000000233","run_exp/static/images/Set 6_rs/057a.jpg","86","","","","","","learn","SL",""
"","show_choice","176","206230","0.0-176.0","""event"",""trial"",""time""
""fullscreenenter"",""0"",""4920""
","
","
","""event"",""trial"",""time""
""fullscreenenter"",""0"",""4920""
","
","null","run_exp/static/images/Set 6_rs/057a.jpg","null","","","","","","learn","SL",""
"","html-keyboard-response","177","206731","0.0-177.0","""event"",""trial"",""time""
""fullscreenenter"",""0"",""4920""
","
","
","""event"",""trial"",""time""
""fullscreenenter"",""0"",""4920""
","
","null","<p></p>","null","","","","","","","",""
"","image","178","207945","0.0-178.0","""event"",""trial"",""time""
""fullscreenenter"",""0"",""4920""
","
","
","""event"",""trial"",""time""
""fullscreenenter"",""0"",""4920""
","
","1212.5999999999767","run_exp/static/images/Set 6_rs/055a.jpg","78","","","","","","learn","SL",""
"","show_choice","179","208734","0.0-179.0","""event"",""trial"",""time""
""fullscreenenter"",""0"",""4920""
","
","
","""event"",""trial"",""time""
""fullscreenenter"",""0"",""4920""
","
","null","run_exp/static/images/Set 6_rs/055a.jpg","null","","","","","","learn","SL",""
"","html-keyboard-response","180","209235","0.0-180.0","""event"",""trial"",""time""
""fullscreenenter"",""0"",""4920""
","
","
","""event"",""trial"",""time""
""fullscreenenter"",""0"",""4920""
","
","null","<p></p>","null","","","","","","","",""
"","image","181","210179","0.0-181.0","""event"",""trial"",""time""
""fullscreenenter"",""0"",""4920""
","
","
","""event"",""trial"",""time""
""fullscreenenter"",""0"",""4920""
","
","942.7000000000116","run_exp/static/images/Set 6_rs/116a.jpg","86","","","","","","learn","SL",""
"","show_choice","182","211238","0.0-182.0","""event"",""trial"",""time""
""fullscreenenter"",""0"",""4920""
","
","
","""event"",""trial"",""time""
""fullscreenenter"",""0"",""4920""
","
","null","run_exp/static/images/Set 6_rs/116a.jpg","null","","","","","","learn","SL",""
"","html-keyboard-response","183","211739","0.0-183.0","""event"",""trial"",""time""
""fullscreenenter"",""0"",""4920""
","
","
","""event"",""trial"",""time""
""fullscreenenter"",""0"",""4920""
","
","null","<p></p>","null","","","","","","","",""
"","image","184","213201","0.0-184.0","""event"",""trial"",""time""
""fullscreenenter"",""0"",""4920""
","
","
","""event"",""trial"",""time""
""fullscreenenter"",""0"",""4920""
","
","1460","run_exp/static/images/Set 6_rs/066a.jpg","86","","","","","","learn","SL",""
"","show_choice","185","213743","0.0-185.0","""event"",""trial"",""time""
""fullscreenenter"",""0"",""4920""
","
","
","""event"",""trial"",""time""
""fullscreenenter"",""0"",""4920""
","
","null","run_exp/static/images/Set 6_rs/066a.jpg","null","","","","","","learn","SL",""
"","html-keyboard-response","186","214244","0.0-186.0","""event"",""trial"",""time""
""fullscreenenter"",""0"",""4920""
","
","
","""event"",""trial"",""time""
""fullscreenenter"",""0"",""4920""
","
","null","<p></p>","null","","","","","","","",""
"","image","187","215378","0.0-187.0","""event"",""trial"",""time""
""fullscreenenter"",""0"",""4920""
","
","
","""event"",""trial"",""time""
""fullscreenenter"",""0"",""4920""
","
","1132.5","run_exp/static/images/Set 6_rs/108a.jpg","86","","","","","","learn","SR",""
"","show_choice","188","216246","0.0-188.0","""event"",""trial"",""time""
""fullscreenenter"",""0"",""4920""
","
","
","""event"",""trial"",""time""
""fullscreenenter"",""0"",""4920""
","
","null","run_exp/static/images/Set 6_rs/108a.jpg","null","","","","","","learn","SR",""
"","html-keyboard-response","189","216747","0.0-189.0","""event"",""trial"",""time""
""fullscreenenter"",""0"",""4920""
","
","
","""event"",""trial"",""time""
""fullscreenenter"",""0"",""4920""
","
","null","<p></p>","null","","","","","","","",""
"","image","190","217975","0.0-190.0","""event"",""trial"",""time""
""fullscreenenter"",""0"",""4920""
","
","
","""event"",""trial"",""time""
""fullscreenenter"",""0"",""4920""
","
","1225.8000000000466","run_exp/static/images/Set 6_rs/121a.jpg","86","","","","","","learn","SR",""
"","show_choice","191","218750","0.0-191.0","""event"",""trial"",""time""
""fullscreenenter"",""0"",""4920""
","
","
","""event"",""trial"",""time""
""fullscreenenter"",""0"",""4920""
","
","null","run_exp/static/images/Set 6_rs/121a.jpg","null","","","","","","learn","SR",""
"","html-keyboard-response","192","219251","0.0-192.0","""event"",""trial"",""time""
""fullscreenenter"",""0"",""4920""
","
","
","""event"",""trial"",""time""
""fullscreenenter"",""0"",""4920""
","
","null","<p></p>","null","","","","","","","",""
"","image","193","220426","0.0-193.0","""event"",""trial"",""time""
""fullscreenenter"",""0"",""4920""
","
","
","""event"",""trial"",""time""
""fullscreenenter"",""0"",""4920""
","
","1172.7999999999884","run_exp/static/images/Set 6_rs/095a.jpg","78","","","","","","learn","SL",""
"","show_choice","194","221254","0.0-194.0","""event"",""trial"",""time""
""fullscreenenter"",""0"",""4920""
","
","
","""event"",""trial"",""time""
""fullscreenenter"",""0"",""4920""
","
","null","run_exp/static/images/Set 6_rs/095a.jpg","null","","","","","","learn","SL",""
"","html-keyboard-response","195","221756","0.0-195.0","""event"",""trial"",""time""
""fullscreenenter"",""0"",""4920""
","
","
","""event"",""trial"",""time""
""fullscreenenter"",""0"",""4920""
","
","null","<p></p>","null","","","","","","","",""
"","test_intro","196","258674","0.0-196.0","""event"",""trial"",""time""
""fullscreenenter"",""0"",""4920""
","
","
","""event"",""trial"",""time""
""fullscreenenter"",""0"",""4920""
","
","null","run_exp/static/audio/clip_2_memory.m4a","null","","","","","<div class='center'><p>Now, lets see how much you remember about the items you just saw.  For each item, you need to indicate if it was <b>old</b> by pressing the <b>v</b> key, <b>similar</b> by pressing the <b>b</b> key, or <b>new</b> by pressing the <b>n</b> key.</p><p>Old refers to an item that you saw before in the indoor/outdoor game that you just played, new refers to an item you have <b>not</b> seen before within the indoor/outdoor game, and similar refers to an item that is similar to an item youve seen before but is not exactly the same. </p><p>Before we begin, lets go over some brief demonstrations to make sure you understand.</p></div>","","",""
"","html-keyboard-response","197","260547","0.0-197.0","""event"",""trial"",""time""
""fullscreenenter"",""0"",""4920""
","
","
","""event"",""trial"",""time""
""fullscreenenter"",""0"",""4920""
","
","1872.1999999999534","<div class='center'><p>Now, lets see how much you remember about the items you just saw.  For each item, you need to indicate if it was <b>old</b> by pressing the <b>v</b> key, <b>similar</b> by pressing the <b>b</b> key, or <b>new</b> by pressing the <b>n</b> key.</p><p>Old refers to an item that you saw before in the indoor/outdoor game that you just played, new refers to an item you have <b>not</b> seen before within the indoor/outdoor game, and similar refers to an item that is similar to an item youve seen before but is not exactly the same. </p><p>Before we begin, lets go over some brief demonstrations to make sure you understand.</p><div><p><b>[Press the space bar to continue]</b></p></div>","32","","","","","","","",""
"","items","198","268049","0.0-198.0","""event"",""trial"",""time""
""fullscreenenter"",""0"",""4920""
","
","
","""event"",""trial"",""time""
""fullscreenenter"",""0"",""4920""
","
","null","run_exp/static/audio/clip_3_items.m4a","null","","","","","","","",""
"","mop","199","272553","0.0-199.0","""event"",""trial"",""time""
""fullscreenenter"",""0"",""4920""
","
","
","""event"",""trial"",""time""
""fullscreenenter"",""0"",""4920""
","
","null","run_exp/static/audio/clip_4_mop.m4a","null","","","","","","","",""
"","baseball","200","276056","0.0-200.0","""event"",""trial"",""time""
""fullscreenenter"",""0"",""4920""
","
","
","""event"",""trial"",""time""
""fullscreenenter"",""0"",""4920""
","
","null","run_exp/static/audio/clip_5_baseball.m4a","null","","","","","","","",""
"","trumpet","201","279560","0.0-201.0","""event"",""trial"",""time""
""fullscreenenter"",""0"",""4920""
","
","
","""event"",""trial"",""time""
""fullscreenenter"",""0"",""4920""
","
","null","run_exp/static/audio/clip_6_trumpet.m4a","null","","","","","","","",""
"","gummies","202","283064","0.0-202.0","""event"",""trial"",""time""
""fullscreenenter"",""0"",""4920""
","
","
","""event"",""trial"",""time""
""fullscreenenter"",""0"",""4920""
","
","null","run_exp/static/audio/clip_7_gummies.m4a","null","","","","","","","",""
"","osn","203","287567","0.0-203.0","""event"",""trial"",""time""
""fullscreenenter"",""0"",""4920""
","
","
","""event"",""trial"",""time""
""fullscreenenter"",""0"",""4920""
","
","null","run_exp/static/audio/clip_8_osn.m4a","null","","","","","","","",""
"","old_1","204","294069","0.0-204.0","""event"",""trial"",""time""
""fullscreenenter"",""0"",""4920""
","
","
","""event"",""trial"",""time""
""fullscreenenter"",""0"",""4920""
","
","null","run_exp/static/audio/clip_9_old_trumpet.m4a","null","","","","","","","",""
"","new_1","205","301572","0.0-205.0","""event"",""trial"",""time""
""fullscreenenter"",""0"",""4920""
","
","
","""event"",""trial"",""time""
""fullscreenenter"",""0"",""4920""
","
","null","run_exp/static/audio/clip_10_new_balloon.m4a","null","","","","","","","",""
"","similar_1a","206","306074","0.0-206.0","""event"",""trial"",""time""
""fullscreenenter"",""0"",""4920""
","
","
","""event"",""trial"",""time""
""fullscreenenter"",""0"",""4920""
","
","null","run_exp/static/audio/clip_11a_similar_mop.m4a","null","","","","","","","",""
"","similar_1b","207","312577","0.0-207.0","""event"",""trial"",""time""
""fullscreenenter"",""0"",""4920""
","
","
","""event"",""trial"",""time""
""fullscreenenter"",""0"",""4920""
","
","null","run_exp/static/audio/clip_11b_similar_mop.m4a","null","","","","","","","",""
"","new_2","208","316079","0.0-208.0","""event"",""trial"",""time""
""fullscreenenter"",""0"",""4920""
","
","
","""event"",""trial"",""time""
""fullscreenenter"",""0"",""4920""
","
","null","run_exp/static/audio/clip_12_new_stoplight.m4a","null","","","","","","","",""
"","old_2","209","319581","0.0-209.0","""event"",""trial"",""time""
""fullscreenenter"",""0"",""4920""
","
","
","""event"",""trial"",""time""
""fullscreenenter"",""0"",""4920""
","
","null","run_exp/static/audio/clip_13_old_baseball.m4a","null","","","","","","","",""
"","similar_2a","210","323089","0.0-210.0","""event"",""trial"",""time""
""fullscreenenter"",""0"",""4920""
","
","
","""event"",""trial"",""time""
""fullscreenenter"",""0"",""4920""
","
","null","run_exp/static/audio/clip_14a_similar_gummies.m4a","null","","","","","","","",""
"","similar_2b","211","330593","0.0-211.0","""event"",""trial"",""time""
""fullscreenenter"",""0"",""4920""
","
","
","""event"",""trial"",""time""
""fullscreenenter"",""0"",""4920""
","
","null","run_exp/static/audio/clip_14b_similar_gummies.m4a","null","","","","","","","",""
"","practice","212","372907","0.0-212.0","""event"",""trial"",""time""
""fullscreenenter"",""0"",""4920""
","
","
","""event"",""trial"",""time""
""fullscreenenter"",""0"",""4920""
","
","null","run_exp/static/audio/clip_15_practice.m4a","null","","","","","<div class='center'><p>Lets practice a little to make sure you understand the difference between new, similar, and old. Lets say you saw these three items in the indoor/outdoor game.</p><p> Try your best to remember these images because youll soon be tested on them in a practice game. In the practice game, youll be shown images and youll have to say if they are old (one of the three images belows), similar (similar to one of the images below but not exactly the same), or new (are not one of the images below nor similar to them).</p><p>Once you press the space bar youll be shown these images again but one at time. Then youll begin the practice game.</p><p><img src='run_exp/static/images/tutorial/test/three_indoor_outdoor.png' height='300'></p></div>","","",""
"","html-keyboard-response","213","377951","0.0-213.0","""event"",""trial"",""time""
""fullscreenenter"",""0"",""4920""
","
","
","""event"",""trial"",""time""
""fullscreenenter"",""0"",""4920""
","
","5042","<div class='center'><p>Lets practice a little to make sure you understand the difference between new, similar, and old. Lets say you saw these three items in the indoor/outdoor game.</p><p> Try your best to remember these images because youll soon be tested on them in a practice game. In the practice game, youll be shown images and youll have to say if they are old (one of the three images belows), similar (similar to one of the images below but not exactly the same), or new (are not one of the images below nor similar to them).</p><p>Once you press the space bar youll be shown these images again but one at time. Then youll begin the practice game.</p><p><img src='run_exp/static/images/tutorial/test/three_indoor_outdoor.png' height='300'></p><div><p><b>[Press the space bar to continue]</b></p></div>","32","","","","","","","",""
"","planet","214","379953","0.0-214.0","""event"",""trial"",""time""
""fullscreenenter"",""0"",""4920""
","
","
","""event"",""trial"",""time""
""fullscreenenter"",""0"",""4920""
","
","null","run_exp/static/images/tutorial/test/008a.jpg","null","","","","","","","",""
"","boot","215","381955","0.0-215.0","""event"",""trial"",""time""
""fullscreenenter"",""0"",""4920""
","
","
","""event"",""trial"",""time""
""fullscreenenter"",""0"",""4920""
","
","null","run_exp/static/images/tutorial/test/011a.jpg","null","","","","","","","",""
"","lemon","216","383957","0.0-216.0","""event"",""trial"",""time""
""fullscreenenter"",""0"",""4920""
","
","
","""event"",""trial"",""time""
""fullscreenenter"",""0"",""4920""
","
","null","run_exp/static/images/tutorial/test/018a.jpg","null","","","","","","","",""
"","practice_q1","217","397665","0.0-217.0","""event"",""trial"",""time""
""fullscreenenter"",""0"",""4920""
","
","
","""event"",""trial"",""time""
""fullscreenenter"",""0"",""4920""
","
","13704.900000000023","run_exp/static/audio/clip_16_practice_question.m4a","78","","","","","","","",""
"","correct","218","399769","0.0-218.0-0.0","""event"",""trial"",""time""
""fullscreenenter"",""0"",""4920""
","
","
","""event"",""trial"",""time""
""fullscreenenter"",""0"",""4920""
","
","null","run_exp/static/audio/clip_17_correct.m4a","null","","","","","<div class='center'><p>That's correct!</p></div>","","",""
"","html-keyboard-response","219","405377","0.0-218.0-1.0","""event"",""trial"",""time""
""fullscreenenter"",""0"",""4920""
","
","
","""event"",""trial"",""time""
""fullscreenenter"",""0"",""4920""
","
","5607.199999999953","<div class='center'><p>That's correct!</p><div><p><b>[Press the space bar to continue]</b></p></div>","32","","","","","","","",""
"","practice_q2","220","408319","0.0-218.0-2.0","""event"",""trial"",""time""
""fullscreenenter"",""0"",""4920""
","
","
","""event"",""trial"",""time""
""fullscreenenter"",""0"",""4920""
","
","2939.20000000007","run_exp/static/audio/clip_16_practice_question.m4a","66","","","","","","","",""
"","incorrect_q2","221","411552","0.0-219.0-0.0","""event"",""trial"",""time""
""fullscreenenter"",""0"",""4920""
","
","
","""event"",""trial"",""time""
""fullscreenenter"",""0"",""4920""
","
","null","run_exp/static/audio/clip_19_incorrect_old.m4a","null","","","","","<div class='center'><p>Thats incorrect. Its old.</p></div>","","",""
"","html-keyboard-response","222","413136","0.0-219.0-1.0","""event"",""trial"",""time""
""fullscreenenter"",""0"",""4920""
","
","
","""event"",""trial"",""time""
""fullscreenenter"",""0"",""4920""
","
","1582.3000000000466","<div class='center'><p>Thats incorrect. Its old.</p><div><p><b>[Press the space bar to continue]</b></p></div>","32","","","","","","","",""
"","practice_q3","223","415264","0.0-219.0-2.0","""event"",""trial"",""time""
""fullscreenenter"",""0"",""4920""
","
","
","""event"",""trial"",""time""
""fullscreenenter"",""0"",""4920""
","
","2124.600000000093","run_exp/static/audio/clip_16_practice_question.m4a","66","","","","","","","",""
"","correct","224","417356","0.0-220.0-0.0","""event"",""trial"",""time""
""fullscreenenter"",""0"",""4920""
","
","
","""event"",""trial"",""time""
""fullscreenenter"",""0"",""4920""
","
","null","run_exp/static/audio/clip_17_correct.m4a","null","","","","","<div class='center'><p>That's correct!</p></div>","","",""
"","html-keyboard-response","225","418126","0.0-220.0-1.0","""event"",""trial"",""time""
""fullscreenenter"",""0"",""4920""
","
","
","""event"",""trial"",""time""
""fullscreenenter"",""0"",""4920""
","
","769.3000000000466","<div class='center'><p>That's correct!</p><div><p><b>[Press the space bar to continue]</b></p></div>","32","","","","","","","",""
"","repeat","226","423077","0.0-221.0-0.0","""event"",""trial"",""time""
""fullscreenenter"",""0"",""4920""
","
","
","""event"",""trial"",""time""
""fullscreenenter"",""0"",""4920""
","
","null","run_exp/static/audio/clip_21_practice_again.m4a","null","","","","","<div class='center'><p>Oops. you missed at least one of these questions. Let's try practicing again. </p></div>","","",""
"","html-keyboard-response","227","424952","0.0-221.0-1.0","""event"",""trial"",""time""
""fullscreenenter"",""0"",""4920""
","
","
","""event"",""trial"",""time""
""fullscreenenter"",""0"",""4920""
","
","1872.3000000000466","<div class='center'><p>Oops. you missed at least one of these questions. Let's try practicing again. </p><div><p><b>[Press the space bar to continue]</b></p></div>","32","","","","","","","",""
"","practice_q1","228","428905","0.0-221.0-2.0","""event"",""trial"",""time""
""fullscreenenter"",""0"",""4920""
","
","
","""event"",""trial"",""time""
""fullscreenenter"",""0"",""4920""
","
","3948.79999999993","run_exp/static/audio/clip_16_practice_question.m4a","78","","","","","","","",""
"","correct","229","431017","0.0-222.0-0.0","""event"",""trial"",""time""
""fullscreenenter"",""0"",""4920""
","
","
","""event"",""trial"",""time""
""fullscreenenter"",""0"",""4920""
","
","null","run_exp/static/audio/clip_17_correct.m4a","null","","","","","<div class='center'><p>That's correct!</p></div>","","",""
"","html-keyboard-response","230","437310","0.0-222.0-1.0","""event"",""trial"",""time""
""fullscreenenter"",""0"",""4920""
","
","
","""event"",""trial"",""time""
""fullscreenenter"",""0"",""4920""
","
","6291.199999999953","<div class='center'><p>That's correct!</p><div><p><b>[Press the space bar to continue]</b></p></div>","32","","","","","","","",""
"","practice_q2","231","441192","0.0-222.0-2.0","""event"",""trial"",""time""
""fullscreenenter"",""0"",""4920""
","
","
","""event"",""trial"",""time""
""fullscreenenter"",""0"",""4920""
","
","3879.899999999907","run_exp/static/audio/clip_16_practice_question.m4a","86","","","","","","","",""
"","correct","232","443311","0.0-223.0-0.0","""event"",""trial"",""time""
""fullscreenenter"",""0"",""4920""
","
","
","""event"",""trial"",""time""
""fullscreenenter"",""0"",""4920""
","
","null","run_exp/static/audio/clip_17_correct.m4a","null","","","","","<div class='center'><p>That's correct!</p></div>","","",""
"","html-keyboard-response","233","444367","0.0-223.0-1.0","""event"",""trial"",""time""
""fullscreenenter"",""0"",""4920""
","
","
","""event"",""trial"",""time""
""fullscreenenter"",""0"",""4920""
","
","1054.5","<div class='center'><p>That's correct!</p><div><p><b>[Press the space bar to continue]</b></p></div>","32","","","","","","","",""
"","practice_q3","234","448748","0.0-223.0-2.0","""event"",""trial"",""time""
""fullscreenenter"",""0"",""4920""
","
","
","""event"",""trial"",""time""
""fullscreenenter"",""0"",""4920""
","
","4378.29999999993","run_exp/static/audio/clip_16_practice_question.m4a","66","","","","","","","",""
"","correct","235","451082","0.0-224.0-0.0","""event"",""trial"",""time""
""fullscreenenter"",""0"",""4920""
","
","
","""event"",""trial"",""time""
""fullscreenenter"",""0"",""4920""
","
","null","run_exp/static/audio/clip_17_correct.m4a","null","","","","","<div class='center'><p>That's correct!</p></div>","","",""
"","html-keyboard-response","236","452912","0.0-224.0-1.0","""event"",""trial"",""time""
""fullscreenenter"",""0"",""4920""
","
","
","""event"",""trial"",""time""
""fullscreenenter"",""0"",""4920""
","
","1828.5999999999767","<div class='center'><p>That's correct!</p><div><p><b>[Press the space bar to continue]</b></p></div>","32","","","","","","","",""
"","begin_text","237","471570","0.0-225.0-0.0","""event"",""trial"",""time""
""fullscreenenter"",""0"",""4920""
","
","
","""event"",""trial"",""time""
""fullscreenenter"",""0"",""4920""
","
","null","run_exp/static/audio/clip_22_begin_test.m4a","null","","","","","<div class='center'><p>On to the real game where well test your memory of items from the indoor/outdoor game. For each item, you need to indicate if the item is <b>old</b> by pressing the <b>v</b> key, <b>similar</b> by pressing the <b>b</b> key, or <b>new</b> by pressing the <b>n</b> key. </p></div>","","",""
"","html-keyboard-response","238","479223","0.0-225.0-1.0","""event"",""trial"",""time""
""fullscreenenter"",""0"",""4920""
","
","
","""event"",""trial"",""time""
""fullscreenenter"",""0"",""4920""
","
","7648.099999999977","<div class='center'><p>On to the real game where well test your memory of items from the indoor/outdoor game. For each item, you need to indicate if the item is <b>old</b> by pressing the <b>v</b> key, <b>similar</b> by pressing the <b>b</b> key, or <b>new</b> by pressing the <b>n</b> key. </p><div><p><b>[Press the space bar to continue]</b></p></div>","32","","","","","","","",""
"","image","239","482226","0.0-226.0-0.0","""event"",""trial"",""time""
""fullscreenenter"",""0"",""4920""
","
","
","""event"",""trial"",""time""
""fullscreenenter"",""0"",""4920""
","
","null","run_exp/static/images/Set 6_rs/025b.jpg","null","","","","","","test","TL","5"
"","show_choice","240","482732","0.0-226.0-1.0","""event"",""trial"",""time""
""fullscreenenter"",""0"",""4920""
","
","
","""event"",""trial"",""time""
""fullscreenenter"",""0"",""4920""
","
","null","run_exp/static/images/Set 6_rs/025b.jpg","null","","","","","","test","TL",""
"","html-keyboard-response","241","483234","0.0-226.0-2.0","""event"",""trial"",""time""
""fullscreenenter"",""0"",""4920""
","
","
","""event"",""trial"",""time""
""fullscreenenter"",""0"",""4920""
","
","null","<p></p>","null","","","","","","","",""
"","image","242","484457","0.0-227.0-0.0","""event"",""trial"",""time""
""fullscreenenter"",""0"",""4920""
","
","
","""event"",""trial"",""time""
""fullscreenenter"",""0"",""4920""
","
","1220.9000000000233","run_exp/static/images/Set 6_rs/149a.jpg","86","","","","","","test","TF","1"
"","show_choice","243","484960","0.0-227.0-1.0","""event"",""trial"",""time""
""fullscreenenter"",""0"",""4920""
","
","
","""event"",""trial"",""time""
""fullscreenenter"",""0"",""4920""
","
","null","run_exp/static/images/Set 6_rs/149a.jpg","null","","","","","","test","TF",""
"","html-keyboard-response","244","485461","0.0-227.0-2.0","""event"",""trial"",""time""
""fullscreenenter"",""0"",""4920""
","
","
","""event"",""trial"",""time""
""fullscreenenter"",""0"",""4920""
","
","null","<p></p>","null","","","","","","","",""
"","image","245","486633","0.0-228.0-0.0","""event"",""trial"",""time""
""fullscreenenter"",""0"",""4920""
","
","
","""event"",""trial"",""time""
""fullscreenenter"",""0"",""4920""
","
","1169.8000000000466","run_exp/static/images/Set 6_rs/001a.jpg","66","","","","","","test","TF","1"
"","show_choice","246","487135","0.0-228.0-1.0","""event"",""trial"",""time""
""fullscreenenter"",""0"",""4920""
","
","
","""event"",""trial"",""time""
""fullscreenenter"",""0"",""4920""
","
","null","run_exp/static/images/Set 6_rs/001a.jpg","null","","","","","","test","TF",""
"","html-keyboard-response","247","487637","0.0-228.0-2.0","""event"",""trial"",""time""
""fullscreenenter"",""0"",""4920""
","
","
","""event"",""trial"",""time""
""fullscreenenter"",""0"",""4920""
","
","null","<p></p>","null","","","","","","","",""
"","image","248","488884","0.0-229.0-0.0","""event"",""trial"",""time""
""fullscreenenter"",""0"",""4920""
","
","
","""event"",""trial"",""time""
""fullscreenenter"",""0"",""4920""
","
","1244.9000000000233","run_exp/static/images/Set 6_rs/171a.jpg","78","","","","","","test","TF","1"
"","show_choice","249","489387","0.0-229.0-1.0","""event"",""trial"",""time""
""fullscreenenter"",""0"",""4920""
","
","
","""event"",""trial"",""time""
""fullscreenenter"",""0"",""4920""
","
","null","run_exp/static/images/Set 6_rs/171a.jpg","null","","","","","","test","TF",""
"","html-keyboard-response","250","489888","0.0-229.0-2.0","""event"",""trial"",""time""
""fullscreenenter"",""0"",""4920""
","
","
","""event"",""trial"",""time""
""fullscreenenter"",""0"",""4920""
","
","null","<p></p>","null","","","","","","","",""
"","image","251","491203","0.0-230.0-0.0","""event"",""trial"",""time""
""fullscreenenter"",""0"",""4920""
","
","
","""event"",""trial"",""time""
""fullscreenenter"",""0"",""4920""
","
","1312.0999999999767","run_exp/static/images/Set 6_rs/178a.jpg","86","","","","","","test","TR","3"
"","show_choice","252","491705","0.0-230.0-1.0","""event"",""trial"",""time""
""fullscreenenter"",""0"",""4920""
","
","
","""event"",""trial"",""time""
""fullscreenenter"",""0"",""4920""
","
","null","run_exp/static/images/Set 6_rs/178a.jpg","null","","","","","","test","TR",""
"","html-keyboard-response","253","492206","0.0-230.0-2.0","""event"",""trial"",""time""
""fullscreenenter"",""0"",""4920""
","
","
","""event"",""trial"",""time""
""fullscreenenter"",""0"",""4920""
","
","null","<p></p>","null","","","","","","","",""
"","image","254","493224","0.0-231.0-0.0","""event"",""trial"",""time""
""fullscreenenter"",""0"",""4920""
","
","
","""event"",""trial"",""time""
""fullscreenenter"",""0"",""4920""
","
","1015.7999999999302","run_exp/static/images/Set 6_rs/131a.jpg","86","","","","","","test","TR","5"
"","show_choice","255","493726","0.0-231.0-1.0","""event"",""trial"",""time""
""fullscreenenter"",""0"",""4920""
","
","
","""event"",""trial"",""time""
""fullscreenenter"",""0"",""4920""
","
","null","run_exp/static/images/Set 6_rs/131a.jpg","null","","","","","","test","TR",""
"","html-keyboard-response","256","494228","0.0-231.0-2.0","""event"",""trial"",""time""
""fullscreenenter"",""0"",""4920""
","
","
","""event"",""trial"",""time""
""fullscreenenter"",""0"",""4920""
","
","null","<p></p>","null","","","","","","","",""
"","image","257","495119","0.0-232.0-0.0","""event"",""trial"",""time""
""fullscreenenter"",""0"",""4920""
","
","
","""event"",""trial"",""time""
""fullscreenenter"",""0"",""4920""
","
","888.9000000000233","run_exp/static/images/Set 6_rs/134a.jpg","86","","","","","","test","TR","3"
"","show_choice","258","495621","0.0-232.0-1.0","""event"",""trial"",""time""
""fullscreenenter"",""0"",""4920""
","
","
","""event"",""trial"",""time""
""fullscreenenter"",""0"",""4920""
","
","null","run_exp/static/images/Set 6_rs/134a.jpg","null","","","","","","test","TR",""
"","html-keyboard-response","259","496122","0.0-232.0-2.0","""event"",""trial"",""time""
""fullscreenenter"",""0"",""4920""
","
","
","""event"",""trial"",""time""
""fullscreenenter"",""0"",""4920""
","
","null","<p></p>","null","","","","","","","",""
"","image","260","497367","0.0-233.0-0.0","""event"",""trial"",""time""
""fullscreenenter"",""0"",""4920""
","
","
","""event"",""trial"",""time""
""fullscreenenter"",""0"",""4920""
","
","1242.0999999999767","run_exp/static/images/Set 6_rs/089b.jpg","78","","","","","","test","TL","4"
"","show_choice","261","497869","0.0-233.0-1.0","""event"",""trial"",""time""
""fullscreenenter"",""0"",""4920""
","
","
","""event"",""trial"",""time""
""fullscreenenter"",""0"",""4920""
","
","null","run_exp/static/images/Set 6_rs/089b.jpg","null","","","","","","test","TL",""
"","html-keyboard-response","262","498371","0.0-233.0-2.0","""event"",""trial"",""time""
""fullscreenenter"",""0"",""4920""
","
","
","""event"",""trial"",""time""
""fullscreenenter"",""0"",""4920""
","
","null","<p></p>","null","","","","","","","",""
"","image","263","499816","0.0-234.0-0.0","""event"",""trial"",""time""
""fullscreenenter"",""0"",""4920""
","
","
","""event"",""trial"",""time""
""fullscreenenter"",""0"",""4920""
","
","1443.2999999999302","run_exp/static/images/Set 6_rs/132a.jpg","66","","","","","","test","TR","5"
"","show_choice","264","500318","0.0-234.0-1.0","""event"",""trial"",""time""
""fullscreenenter"",""0"",""4920""
","
","
","""event"",""trial"",""time""
""fullscreenenter"",""0"",""4920""
","
","null","run_exp/static/images/Set 6_rs/132a.jpg","null","","","","","","test","TR",""
"","html-keyboard-response","265","500820","0.0-234.0-2.0","""event"",""trial"",""time""
""fullscreenenter"",""0"",""4920""
","
","
","""event"",""trial"",""time""
""fullscreenenter"",""0"",""4920""
","
","null","<p></p>","null","","","","","","","",""
"","image","266","502119","0.0-235.0-0.0","""event"",""trial"",""time""
""fullscreenenter"",""0"",""4920""
","
","
","""event"",""trial"",""time""
""fullscreenenter"",""0"",""4920""
","
","1297.4000000000233","run_exp/static/images/Set 6_rs/036b.jpg","66","","","","","","test","TL","4"
"","show_choice","267","502621","0.0-235.0-1.0","""event"",""trial"",""time""
""fullscreenenter"",""0"",""4920""
","
","
","""event"",""trial"",""time""
""fullscreenenter"",""0"",""4920""
","
","null","run_exp/static/images/Set 6_rs/036b.jpg","null","","","","","","test","TL",""
"","html-keyboard-response","268","503123","0.0-235.0-2.0","""event"",""trial"",""time""
""fullscreenenter"",""0"",""4920""
","
","
","""event"",""trial"",""time""
""fullscreenenter"",""0"",""4920""
","
","null","<p></p>","null","","","","","","","",""
"","image","269","504846","0.0-236.0-0.0","""event"",""trial"",""time""
""fullscreenenter"",""0"",""4920""
","
","
","""event"",""trial"",""time""
""fullscreenenter"",""0"",""4920""
","
","1720.5","run_exp/static/images/Set 6_rs/176a.jpg","78","","","","","","test","TF","4"
"","show_choice","270","505347","0.0-236.0-1.0","""event"",""trial"",""time""
""fullscreenenter"",""0"",""4920""
","
","
","""event"",""trial"",""time""
""fullscreenenter"",""0"",""4920""
","
","null","run_exp/static/images/Set 6_rs/176a.jpg","null","","","","","","test","TF",""
"","html-keyboard-response","271","505849","0.0-236.0-2.0","""event"",""trial"",""time""
""fullscreenenter"",""0"",""4920""
","
","
","""event"",""trial"",""time""
""fullscreenenter"",""0"",""4920""
","
","null","<p></p>","null","","","","","","","",""
"","image","272","507633","0.0-237.0-0.0","""event"",""trial"",""time""
""fullscreenenter"",""0"",""4920""
","
","
","""event"",""trial"",""time""
""fullscreenenter"",""0"",""4920""
","
","1782","run_exp/static/images/Set 6_rs/190a.jpg","78","","","","","","test","TF","3"
"","show_choice","273","508135","0.0-237.0-1.0","""event"",""trial"",""time""
""fullscreenenter"",""0"",""4920""
","
","
","""event"",""trial"",""time""
""fullscreenenter"",""0"",""4920""
","
","null","run_exp/static/images/Set 6_rs/190a.jpg","null","","","","","","test","TF",""
"","html-keyboard-response","274","508637","0.0-237.0-2.0","""event"",""trial"",""time""
""fullscreenenter"",""0"",""4920""
","
","
","""event"",""trial"",""time""
""fullscreenenter"",""0"",""4920""
","
","null","<p></p>","null","","","","","","","",""
"","image","275","509658","0.0-238.0-0.0","""event"",""trial"",""time""
""fullscreenenter"",""0"",""4920""
","
","
","""event"",""trial"",""time""
""fullscreenenter"",""0"",""4920""
","
","1019.1000000000931","run_exp/static/images/Set 6_rs/011a.jpg","66","","","","","","test","TF","3"
"","show_choice","276","510161","0.0-238.0-1.0","""event"",""trial"",""time""
""fullscreenenter"",""0"",""4920""
","
","
","""event"",""trial"",""time""
""fullscreenenter"",""0"",""4920""
","
","null","run_exp/static/images/Set 6_rs/011a.jpg","null","","","","","","test","TF",""
"","html-keyboard-response","277","510662","0.0-238.0-2.0","""event"",""trial"",""time""
""fullscreenenter"",""0"",""4920""
","
","
","""event"",""trial"",""time""
""fullscreenenter"",""0"",""4920""
","
","null","<p></p>","null","","","","","","","",""
"","image","278","511953","0.0-239.0-0.0","""event"",""trial"",""time""
""fullscreenenter"",""0"",""4920""
","
","
","""event"",""trial"",""time""
""fullscreenenter"",""0"",""4920""
","
","1288.4000000000233","run_exp/static/images/Set 6_rs/095b.jpg","66","","","","","","test","TL","5"
"","show_choice","279","512455","0.0-239.0-1.0","""event"",""trial"",""time""
""fullscreenenter"",""0"",""4920""
","
","
","""event"",""trial"",""time""
""fullscreenenter"",""0"",""4920""
","
","null","run_exp/static/images/Set 6_rs/095b.jpg","null","","","","","","test","TL",""
"","html-keyboard-response","280","512956","0.0-239.0-2.0","""event"",""trial"",""time""
""fullscreenenter"",""0"",""4920""
","
","
","""event"",""trial"",""time""
""fullscreenenter"",""0"",""4920""
","
","null","<p></p>","null","","","","","","","",""
"","image","281","514549","0.0-240.0-0.0","""event"",""trial"",""time""
""fullscreenenter"",""0"",""4920""
","
","
","""event"",""trial"",""time""
""fullscreenenter"",""0"",""4920""
","
","1590.5999999999767","run_exp/static/images/Set 6_rs/077a.jpg","86","","","","","","test","TF","3"
"","show_choice","282","515051","0.0-240.0-1.0","""event"",""trial"",""time""
""fullscreenenter"",""0"",""4920""
","
","
","""event"",""trial"",""time""
""fullscreenenter"",""0"",""4920""
","
","null","run_exp/static/images/Set 6_rs/077a.jpg","null","","","","","","test","TF",""
"","html-keyboard-response","283","515553","0.0-240.0-2.0","""event"",""trial"",""time""
""fullscreenenter"",""0"",""4920""
","
","
","""event"",""trial"",""time""
""fullscreenenter"",""0"",""4920""
","
","null","<p></p>","null","","","","","","","",""
"","image","284","516473","0.0-241.0-0.0","""event"",""trial"",""time""
""fullscreenenter"",""0"",""4920""
","
","
","""event"",""trial"",""time""
""fullscreenenter"",""0"",""4920""
","
","918.5999999999767","run_exp/static/images/Set 6_rs/062b.jpg","86","","","","","","test","TL","1"
"","show_choice","285","516976","0.0-241.0-1.0","""event"",""trial"",""time""
""fullscreenenter"",""0"",""4920""
","
","
","""event"",""trial"",""time""
""fullscreenenter"",""0"",""4920""
","
","null","run_exp/static/images/Set 6_rs/062b.jpg","null","","","","","","test","TL",""
"","html-keyboard-response","286","517477","0.0-241.0-2.0","""event"",""trial"",""time""
""fullscreenenter"",""0"",""4920""
","
","
","""event"",""trial"",""time""
""fullscreenenter"",""0"",""4920""
","
","null","<p></p>","null","","","","","","","",""
"","image","287","518791","0.0-242.0-0.0","""event"",""trial"",""time""
""fullscreenenter"",""0"",""4920""
","
","
","""event"",""trial"",""time""
""fullscreenenter"",""0"",""4920""
","
","1311.9000000000233","run_exp/static/images/Set 6_rs/066b.jpg","78","","","","","","test","TL","5"
"","show_choice","288","519293","0.0-242.0-1.0","""event"",""trial"",""time""
""fullscreenenter"",""0"",""4920""
","
","
","""event"",""trial"",""time""
""fullscreenenter"",""0"",""4920""
","
","null","run_exp/static/images/Set 6_rs/066b.jpg","null","","","","","","test","TL",""
"","html-keyboard-response","289","519795","0.0-242.0-2.0","""event"",""trial"",""time""
""fullscreenenter"",""0"",""4920""
","
","
","""event"",""trial"",""time""
""fullscreenenter"",""0"",""4920""
","
","null","<p></p>","null","","","","","","","",""
"","image","290","522002","0.0-243.0-0.0","""event"",""trial"",""time""
""fullscreenenter"",""0"",""4920""
","
","
","""event"",""trial"",""time""
""fullscreenenter"",""0"",""4920""
","
","2205","run_exp/static/images/Set 6_rs/152a.jpg","78","","","","","","test","TR","2"
"","show_choice","291","522504","0.0-243.0-1.0","""event"",""trial"",""time""
""fullscreenenter"",""0"",""4920""
","
","
","""event"",""trial"",""time""
""fullscreenenter"",""0"",""4920""
","
","null","run_exp/static/images/Set 6_rs/152a.jpg","null","","","","","","test","TR",""
"","html-keyboard-response","292","523006","0.0-243.0-2.0","""event"",""trial"",""time""
""fullscreenenter"",""0"",""4920""
","
","
","""event"",""trial"",""time""
""fullscreenenter"",""0"",""4920""
","
","null","<p></p>","null","","","","","","","",""
"","image","293","524591","0.0-244.0-0.0","""event"",""trial"",""time""
""fullscreenenter"",""0"",""4920""
","
","
","""event"",""trial"",""time""
""fullscreenenter"",""0"",""4920""
","
","1583.1999999999534","run_exp/static/images/Set 6_rs/111b.jpg","86","","","","","","test","TL","3"
"","show_choice","294","525093","0.0-244.0-1.0","""event"",""trial"",""time""
""fullscreenenter"",""0"",""4920""
","
","
","""event"",""trial"",""time""
""fullscreenenter"",""0"",""4920""
","
","null","run_exp/static/images/Set 6_rs/111b.jpg","null","","","","","","test","TL",""
"","html-keyboard-response","295","525594","0.0-244.0-2.0","""event"",""trial"",""time""
""fullscreenenter"",""0"",""4920""
","
","
","""event"",""trial"",""time""
""fullscreenenter"",""0"",""4920""
","
","null","<p></p>","null","","","","","","","",""
"","image","296","526981","0.0-245.0-0.0","""event"",""trial"",""time""
""fullscreenenter"",""0"",""4920""
","
","
","""event"",""trial"",""time""
""fullscreenenter"",""0"",""4920""
","
","1385.1999999999534","run_exp/static/images/Set 6_rs/022a.jpg","86","","","","","","test","TF","4"
"","show_choice","297","527483","0.0-245.0-1.0","""event"",""trial"",""time""
""fullscreenenter"",""0"",""4920""
","
","
","""event"",""trial"",""time""
""fullscreenenter"",""0"",""4920""
","
","null","run_exp/static/images/Set 6_rs/022a.jpg","null","","","","","","test","TF",""
"","html-keyboard-response","298","527985","0.0-245.0-2.0","""event"",""trial"",""time""
""fullscreenenter"",""0"",""4920""
","
","
","""event"",""trial"",""time""
""fullscreenenter"",""0"",""4920""
","
","null","<p></p>","null","","","","","","","",""
"","image","299","529466","0.0-246.0-0.0","""event"",""trial"",""time""
""fullscreenenter"",""0"",""4920""
","
","
","""event"",""trial"",""time""
""fullscreenenter"",""0"",""4920""
","
","1478.9000000000233","run_exp/static/images/Set 6_rs/138b.jpg","86","","","","","","test","TL","1"
"","show_choice","300","529968","0.0-246.0-1.0","""event"",""trial"",""time""
""fullscreenenter"",""0"",""4920""
","
","
","""event"",""trial"",""time""
""fullscreenenter"",""0"",""4920""
","
","null","run_exp/static/images/Set 6_rs/138b.jpg","null","","","","","","test","TL",""
"","html-keyboard-response","301","530470","0.0-246.0-2.0","""event"",""trial"",""time""
""fullscreenenter"",""0"",""4920""
","
","
","""event"",""trial"",""time""
""fullscreenenter"",""0"",""4920""
","
","null","<p></p>","null","","","","","","","",""
"","image","302","532392","0.0-247.0-0.0","""event"",""trial"",""time""
""fullscreenenter"",""0"",""4920""
","
","
","""event"",""trial"",""time""
""fullscreenenter"",""0"",""4920""
","
","1920.1999999999534","run_exp/static/images/Set 6_rs/071b.jpg","66","","","","","","test","TL","4"
"","show_choice","303","532895","0.0-247.0-1.0","""event"",""trial"",""time""
""fullscreenenter"",""0"",""4920""
","
","
","""event"",""trial"",""time""
""fullscreenenter"",""0"",""4920""
","
","null","run_exp/static/images/Set 6_rs/071b.jpg","null","","","","","","test","TL",""
"","html-keyboard-response","304","533396","0.0-247.0-2.0","""event"",""trial"",""time""
""fullscreenenter"",""0"",""4920""
","
","
","""event"",""trial"",""time""
""fullscreenenter"",""0"",""4920""
","
","null","<p></p>","null","","","","","","","",""
"","image","305","534704","0.0-248.0-0.0","""event"",""trial"",""time""
""fullscreenenter"",""0"",""4920""
","
","
","""event"",""trial"",""time""
""fullscreenenter"",""0"",""4920""
","
","1306.5","run_exp/static/images/Set 6_rs/168b.jpg","66","","","","","","test","TL","3"
"","show_choice","306","535206","0.0-248.0-1.0","""event"",""trial"",""time""
""fullscreenenter"",""0"",""4920""
","
","
","""event"",""trial"",""time""
""fullscreenenter"",""0"",""4920""
","
","null","run_exp/static/images/Set 6_rs/168b.jpg","null","","","","","","test","TL",""
"","html-keyboard-response","307","535708","0.0-248.0-2.0","""event"",""trial"",""time""
""fullscreenenter"",""0"",""4920""
","
","
","""event"",""trial"",""time""
""fullscreenenter"",""0"",""4920""
","
","null","<p></p>","null","","","","","","","",""
"","image","308","537739","0.0-249.0-0.0","""event"",""trial"",""time""
""fullscreenenter"",""0"",""4920""
","
","
","""event"",""trial"",""time""
""fullscreenenter"",""0"",""4920""
","
","2029.6000000000931","run_exp/static/images/Set 6_rs/170a.jpg","78","","","","","","test","TF","2"
"","show_choice","309","538245","0.0-249.0-1.0","""event"",""trial"",""time""
""fullscreenenter"",""0"",""4920""
","
","
","""event"",""trial"",""time""
""fullscreenenter"",""0"",""4920""
","
","null","run_exp/static/images/Set 6_rs/170a.jpg","null","","","","","","test","TF",""
"","html-keyboard-response","310","538747","0.0-249.0-2.0","""event"",""trial"",""time""
""fullscreenenter"",""0"",""4920""
","
","
","""event"",""trial"",""time""
""fullscreenenter"",""0"",""4920""
","
","null","<p></p>","null","","","","","","","",""
"","image","311","540452","0.0-250.0-0.0","""event"",""trial"",""time""
""fullscreenenter"",""0"",""4920""
","
","
","""event"",""trial"",""time""
""fullscreenenter"",""0"",""4920""
","
","1702.9000000000233","run_exp/static/images/Set 6_rs/057b.jpg","86","","","","","","test","TL","1"
"","show_choice","312","540954","0.0-250.0-1.0","""event"",""trial"",""time""
""fullscreenenter"",""0"",""4920""
","
","
","""event"",""trial"",""time""
""fullscreenenter"",""0"",""4920""
","
","null","run_exp/static/images/Set 6_rs/057b.jpg","null","","","","","","test","TL",""
"","html-keyboard-response","313","541456","0.0-250.0-2.0","""event"",""trial"",""time""
""fullscreenenter"",""0"",""4920""
","
","
","""event"",""trial"",""time""
""fullscreenenter"",""0"",""4920""
","
","null","<p></p>","null","","","","","","","",""
"","image","314","542528","0.0-251.0-0.0","""event"",""trial"",""time""
""fullscreenenter"",""0"",""4920""
","
","
","""event"",""trial"",""time""
""fullscreenenter"",""0"",""4920""
","
","1070.6999999999534","run_exp/static/images/Set 6_rs/141a.jpg","86","","","","","","test","TR","2"
"","show_choice","315","543030","0.0-251.0-1.0","""event"",""trial"",""time""
""fullscreenenter"",""0"",""4920""
","
","
","""event"",""trial"",""time""
""fullscreenenter"",""0"",""4920""
","
","null","run_exp/static/images/Set 6_rs/141a.jpg","null","","","","","","test","TR",""
"","html-keyboard-response","316","543532","0.0-251.0-2.0","""event"",""trial"",""time""
""fullscreenenter"",""0"",""4920""
","
","
","""event"",""trial"",""time""
""fullscreenenter"",""0"",""4920""
","
","null","<p></p>","null","","","","","","","",""
"","image","317","545263","0.0-252.0-0.0","""event"",""trial"",""time""
""fullscreenenter"",""0"",""4920""
","
","
","""event"",""trial"",""time""
""fullscreenenter"",""0"",""4920""
","
","1729.0999999999767","run_exp/static/images/Set 6_rs/015a.jpg","86","","","","","","test","TF","4"
"","show_choice","318","545765","0.0-252.0-1.0","""event"",""trial"",""time""
""fullscreenenter"",""0"",""4920""
","
","
","""event"",""trial"",""time""
""fullscreenenter"",""0"",""4920""
","
","null","run_exp/static/images/Set 6_rs/015a.jpg","null","","","","","","test","TF",""
"","html-keyboard-response","319","546267","0.0-252.0-2.0","""event"",""trial"",""time""
""fullscreenenter"",""0"",""4920""
","
","
","""event"",""trial"",""time""
""fullscreenenter"",""0"",""4920""
","
","null","<p></p>","null","","","","","","","",""
"","image","320","547490","0.0-253.0-0.0","""event"",""trial"",""time""
""fullscreenenter"",""0"",""4920""
","
","
","""event"",""trial"",""time""
""fullscreenenter"",""0"",""4920""
","
","1221","run_exp/static/images/Set 6_rs/021a.jpg","78","","","","","","test","TF","2"
"","show_choice","321","547992","0.0-253.0-1.0","""event"",""trial"",""time""
""fullscreenenter"",""0"",""4920""
","
","
","""event"",""trial"",""time""
""fullscreenenter"",""0"",""4920""
","
","null","run_exp/static/images/Set 6_rs/021a.jpg","null","","","","","","test","TF",""
"","html-keyboard-response","322","548494","0.0-253.0-2.0","""event"",""trial"",""time""
""fullscreenenter"",""0"",""4920""
","
","
","""event"",""trial"",""time""
""fullscreenenter"",""0"",""4920""
","
","null","<p></p>","null","","","","","","","",""
"","image","323","549884","0.0-254.0-0.0","""event"",""trial"",""time""
""fullscreenenter"",""0"",""4920""
","
","
","""event"",""trial"",""time""
""fullscreenenter"",""0"",""4920""
","
","1388","run_exp/static/images/Set 6_rs/006b.jpg","66","","","","","","test","TL","2"
"","show_choice","324","550386","0.0-254.0-1.0","""event"",""trial"",""time""
""fullscreenenter"",""0"",""4920""
","
","
","""event"",""trial"",""time""
""fullscreenenter"",""0"",""4920""
","
","null","run_exp/static/images/Set 6_rs/006b.jpg","null","","","","","","test","TL",""
"","html-keyboard-response","325","550888","0.0-254.0-2.0","""event"",""trial"",""time""
""fullscreenenter"",""0"",""4920""
","
","
","""event"",""trial"",""time""
""fullscreenenter"",""0"",""4920""
","
","null","<p></p>","null","","","","","","","",""
"","image","326","553140","0.0-255.0-0.0","""event"",""trial"",""time""
""fullscreenenter"",""0"",""4920""
","
","
","""event"",""trial"",""time""
""fullscreenenter"",""0"",""4920""
","
","2249.20000000007","run_exp/static/images/Set 6_rs/064a.jpg","66","","","","","","test","TR","5"
"","show_choice","327","553642","0.0-255.0-1.0","""event"",""trial"",""time""
""fullscreenenter"",""0"",""4920""
","
","
","""event"",""trial"",""time""
""fullscreenenter"",""0"",""4920""
","
","null","run_exp/static/images/Set 6_rs/064a.jpg","null","","","","","","test","TR",""
"","html-keyboard-response","328","554144","0.0-255.0-2.0","""event"",""trial"",""time""
""fullscreenenter"",""0"",""4920""
","
","
","""event"",""trial"",""time""
""fullscreenenter"",""0"",""4920""
","
","null","<p></p>","null","","","","","","","",""
"","image","329","555353","0.0-256.0-0.0","""event"",""trial"",""time""
""fullscreenenter"",""0"",""4920""
","
","
","""event"",""trial"",""time""
""fullscreenenter"",""0"",""4920""
","
","1207.4000000000233","run_exp/static/images/Set 6_rs/014b.jpg","66","","","","","","test","TL","5"
"","show_choice","330","555856","0.0-256.0-1.0","""event"",""trial"",""time""
""fullscreenenter"",""0"",""4920""
","
","
","""event"",""trial"",""time""
""fullscreenenter"",""0"",""4920""
","
","null","run_exp/static/images/Set 6_rs/014b.jpg","null","","","","","","test","TL",""
"","html-keyboard-response","331","556357","0.0-256.0-2.0","""event"",""trial"",""time""
""fullscreenenter"",""0"",""4920""
","
","
","""event"",""trial"",""time""
""fullscreenenter"",""0"",""4920""
","
","null","<p></p>","null","","","","","","","",""
"","image","332","557293","0.0-257.0-0.0","""event"",""trial"",""time""
""fullscreenenter"",""0"",""4920""
","
","
","""event"",""trial"",""time""
""fullscreenenter"",""0"",""4920""
","
","933.2000000000698","run_exp/static/images/Set 6_rs/012a.jpg","66","","","","","","test","TR","1"
"","show_choice","333","557794","0.0-257.0-1.0","""event"",""trial"",""time""
""fullscreenenter"",""0"",""4920""
","
","
","""event"",""trial"",""time""
""fullscreenenter"",""0"",""4920""
","
","null","run_exp/static/images/Set 6_rs/012a.jpg","null","","","","","","test","TR",""
"","html-keyboard-response","334","558296","0.0-257.0-2.0","""event"",""trial"",""time""
""fullscreenenter"",""0"",""4920""
","
","
","""event"",""trial"",""time""
""fullscreenenter"",""0"",""4920""
","
","null","<p></p>","null","","","","","","","",""
"","image","335","559951","0.0-258.0-0.0","""event"",""trial"",""time""
""fullscreenenter"",""0"",""4920""
","
","
","""event"",""trial"",""time""
""fullscreenenter"",""0"",""4920""
","
","1653.8000000000466","run_exp/static/images/Set 6_rs/105a.jpg","78","","","","","","test","TF","5"
"","show_choice","336","560453","0.0-258.0-1.0","""event"",""trial"",""time""
""fullscreenenter"",""0"",""4920""
","
","
","""event"",""trial"",""time""
""fullscreenenter"",""0"",""4920""
","
","null","run_exp/static/images/Set 6_rs/105a.jpg","null","","","","","","test","TF",""
"","html-keyboard-response","337","560955","0.0-258.0-2.0","""event"",""trial"",""time""
""fullscreenenter"",""0"",""4920""
","
","
","""event"",""trial"",""time""
""fullscreenenter"",""0"",""4920""
","
","null","<p></p>","null","","","","","","","",""
"","image","338","562638","0.0-259.0-0.0","""event"",""trial"",""time""
""fullscreenenter"",""0"",""4920""
","
","
","""event"",""trial"",""time""
""fullscreenenter"",""0"",""4920""
","
