"success","trial_type","trial_index","time_elapsed","internal_node_id","interactions","blur_events","focus_events","fullscreenenter_events","fullscreenexit_events","rt","stimulus","key_press","subject_id","participant_id","age","gender","prompt","phase","condition","lure_bin"
"true","fullscreen","0","18194","0.0-0.0","""event"",""trial"",""time""
""fullscreenenter"",""0"",""17214""
","
","
","""event"",""trial"",""time""
""fullscreenenter"",""0"",""17214""
","
","","","","","","","","","","",""
"","pavlovia","1","18197","0.0-1.0","""event"",""trial"",""time""
""fullscreenenter"",""0"",""17214""
","
","
","""event"",""trial"",""time""
""fullscreenenter"",""0"",""17214""
","
","","","","","","","","","","",""
"","welcome","2","52992","0.0-2.0","""event"",""trial"",""time""
""fullscreenenter"",""0"",""17214""
","
","
","""event"",""trial"",""time""
""fullscreenenter"",""0"",""17214""
","
","null","run_exp/static/audio/clip_1_welcome.m4a","null","537","395","22","Female","<div class='center'><p>Welcome to the third part of the study! First, you'll be shown pictures of items one at a time. For each picture, you have to decide if the item is typically found indoors or outdoors.</p><p>If you think it's usually found indoors, then press <b>v</b> key on your keyboard. If you think it's usually found outdoors, then press the <b>n</b> key.There will be reminders on the screen to help you remember which keys to press. </p><p>If you're not sure whether the item is an indoor item or an outdoor item, go ahead and take a guess but try your best not to skip that choice. </p></div>","","",""
"","html-keyboard-response","3","56493","0.0-3.0","""event"",""trial"",""time""
""fullscreenenter"",""0"",""17214""
","
","
","""event"",""trial"",""time""
""fullscreenenter"",""0"",""17214""
","
","3497.600000143051","<div class='center'><p>Welcome to the third part of the study! First, you'll be shown pictures of items one at a time. For each picture, you have to decide if the item is typically found indoors or outdoors.</p><p>If you think it's usually found indoors, then press <b>v</b> key on your keyboard. If you think it's usually found outdoors, then press the <b>n</b> key.There will be reminders on the screen to help you remember which keys to press. </p><p>If you're not sure whether the item is an indoor item or an outdoor item, go ahead and take a guess but try your best not to skip that choice. </p><div><p><b>[Press the space bar to continue]</b></p></div>","32","","","","","","","",""
"","image","4","57953","0.0-4.0","""event"",""trial"",""time""
""fullscreenenter"",""0"",""17214""
","
","
","""event"",""trial"",""time""
""fullscreenenter"",""0"",""17214""
","
","1459.1999998092651","run_exp/static/images/Set 6_rs/025a.jpg","78","","","","","","learn","SL",""
"","show_choice","5","58495","0.0-5.0","""event"",""trial"",""time""
""fullscreenenter"",""0"",""17214""
","
","
","""event"",""trial"",""time""
""fullscreenenter"",""0"",""17214""
","
","null","run_exp/static/images/Set 6_rs/025a.jpg","null","","","","","","learn","SL",""
"","html-keyboard-response","6","58996","0.0-6.0","""event"",""trial"",""time""
""fullscreenenter"",""0"",""17214""
","
","
","""event"",""trial"",""time""
""fullscreenenter"",""0"",""17214""
","
","null","<p></p>","null","","","","","","","",""
"","image","7","59785","0.0-7.0","""event"",""trial"",""time""
""fullscreenenter"",""0"",""17214""
","
","
","""event"",""trial"",""time""
""fullscreenenter"",""0"",""17214""
","
","788.7000000476837","run_exp/static/images/Set 6_rs/007a.jpg","86","","","","","","learn","SR",""
"","show_choice","8","60998","0.0-8.0","""event"",""trial"",""time""
""fullscreenenter"",""0"",""17214""
","
","
","""event"",""trial"",""time""
""fullscreenenter"",""0"",""17214""
","
","null","run_exp/static/images/Set 6_rs/007a.jpg","null","","","","","","learn","SR",""
"","html-keyboard-response","9","61499","0.0-9.0","""event"",""trial"",""time""
""fullscreenenter"",""0"",""17214""
","
","
","""event"",""trial"",""time""
""fullscreenenter"",""0"",""17214""
","
","null","<p></p>","null","","","","","","","",""
"","image","10","62313","0.0-10.0","""event"",""trial"",""time""
""fullscreenenter"",""0"",""17214""
","
","
","""event"",""trial"",""time""
""fullscreenenter"",""0"",""17214""
","
","813.3999998569489","run_exp/static/images/Set 6_rs/177a.jpg","78","","","","","","learn","SR",""
"","show_choice","11","63500","0.0-11.0","""event"",""trial"",""time""
""fullscreenenter"",""0"",""17214""
","
","
","""event"",""trial"",""time""
""fullscreenenter"",""0"",""17214""
","
","null","run_exp/static/images/Set 6_rs/177a.jpg","null","","","","","","learn","SR",""
"","html-keyboard-response","12","64002","0.0-12.0","""event"",""trial"",""time""
""fullscreenenter"",""0"",""17214""
","
","
","""event"",""trial"",""time""
""fullscreenenter"",""0"",""17214""
","
","null","<p></p>","null","","","","","","","",""
"","image","13","64721","0.0-13.0","""event"",""trial"",""time""
""fullscreenenter"",""0"",""17214""
","
","
","""event"",""trial"",""time""
""fullscreenenter"",""0"",""17214""
","
","718.6000001430511","run_exp/static/images/Set 6_rs/122a.jpg","86","","","","","","learn","SR",""
"","show_choice","14","66004","0.0-14.0","""event"",""trial"",""time""
""fullscreenenter"",""0"",""17214""
","
","
","""event"",""trial"",""time""
""fullscreenenter"",""0"",""17214""
","
","null","run_exp/static/images/Set 6_rs/122a.jpg","null","","","","","","learn","SR",""
"","html-keyboard-response","15","66505","0.0-15.0","""event"",""trial"",""time""
""fullscreenenter"",""0"",""17214""
","
","
","""event"",""trial"",""time""
""fullscreenenter"",""0"",""17214""
","
","null","<p></p>","null","","","","","","","",""
"","image","16","67257","0.0-16.0","""event"",""trial"",""time""
""fullscreenenter"",""0"",""17214""
","
","
","""event"",""trial"",""time""
""fullscreenenter"",""0"",""17214""
","
","751.7999999523163","run_exp/static/images/Set 6_rs/095a.jpg","86","","","","","","learn","SL",""
"","show_choice","17","68507","0.0-17.0","""event"",""trial"",""time""
""fullscreenenter"",""0"",""17214""
","
","
","""event"",""trial"",""time""
""fullscreenenter"",""0"",""17214""
","
","null","run_exp/static/images/Set 6_rs/095a.jpg","null","","","","","","learn","SL",""
"","html-keyboard-response","18","69007","0.0-18.0","""event"",""trial"",""time""
""fullscreenenter"",""0"",""17214""
","
","
","""event"",""trial"",""time""
""fullscreenenter"",""0"",""17214""
","
","null","<p></p>","null","","","","","","","",""
"","image","19","69665","0.0-19.0","""event"",""trial"",""time""
""fullscreenenter"",""0"",""17214""
","
","
","""event"",""trial"",""time""
""fullscreenenter"",""0"",""17214""
","
","656.7999999523163","run_exp/static/images/Set 6_rs/076a.jpg","78","","","","","","learn","SR",""
"","show_choice","20","71010","0.0-20.0","""event"",""trial"",""time""
""fullscreenenter"",""0"",""17214""
","
","
","""event"",""trial"",""time""
""fullscreenenter"",""0"",""17214""
","
","null","run_exp/static/images/Set 6_rs/076a.jpg","null","","","","","","learn","SR",""
"","html-keyboard-response","21","71511","0.0-21.0","""event"",""trial"",""time""
""fullscreenenter"",""0"",""17214""
","
","
","""event"",""trial"",""time""
""fullscreenenter"",""0"",""17214""
","
","null","<p></p>","null","","","","","","","",""
"","image","22","72097","0.0-22.0","""event"",""trial"",""time""
""fullscreenenter"",""0"",""17214""
","
","
","""event"",""trial"",""time""
""fullscreenenter"",""0"",""17214""
","
","585.5","run_exp/static/images/Set 6_rs/045a.jpg","86","","","","","","learn","SR",""
"","show_choice","23","73512","0.0-23.0","""event"",""trial"",""time""
""fullscreenenter"",""0"",""17214""
","
","
","""event"",""trial"",""time""
""fullscreenenter"",""0"",""17214""
","
","null","run_exp/static/images/Set 6_rs/045a.jpg","null","","","","","","learn","SR",""
"","html-keyboard-response","24","74013","0.0-24.0","""event"",""trial"",""time""
""fullscreenenter"",""0"",""17214""
","
","
","""event"",""trial"",""time""
""fullscreenenter"",""0"",""17214""
","
","null","<p></p>","null","","","","","","","",""
"","image","25","75169","0.0-25.0","""event"",""trial"",""time""
""fullscreenenter"",""0"",""17214""
","
","
","""event"",""trial"",""time""
""fullscreenenter"",""0"",""17214""
","
","1154.7999999523163","run_exp/static/images/Set 6_rs/017a.jpg","78","","","","","","learn","SL",""
"","show_choice","26","76016","0.0-26.0","""event"",""trial"",""time""
""fullscreenenter"",""0"",""17214""
","
","
","""event"",""trial"",""time""
""fullscreenenter"",""0"",""17214""
","
","null","run_exp/static/images/Set 6_rs/017a.jpg","null","","","","","","learn","SL",""
"","html-keyboard-response","27","76518","0.0-27.0","""event"",""trial"",""time""
""fullscreenenter"",""0"",""17214""
","
","
","""event"",""trial"",""time""
""fullscreenenter"",""0"",""17214""
","
","null","<p></p>","null","","","","","","","",""
"","image","28","77569","0.0-28.0","""event"",""trial"",""time""
""fullscreenenter"",""0"",""17214""
","
","
","""event"",""trial"",""time""
""fullscreenenter"",""0"",""17214""
","
","1049.7999999523163","run_exp/static/images/Set 6_rs/126a.jpg","78","","","","","","learn","SR",""
"","show_choice","29","78520","0.0-29.0","""event"",""trial"",""time""
""fullscreenenter"",""0"",""17214""
","
","
","""event"",""trial"",""time""
""fullscreenenter"",""0"",""17214""
","
","null","run_exp/static/images/Set 6_rs/126a.jpg","null","","","","","","learn","SR",""
"","html-keyboard-response","30","79021","0.0-30.0","""event"",""trial"",""time""
""fullscreenenter"",""0"",""17214""
","
","
","""event"",""trial"",""time""
""fullscreenenter"",""0"",""17214""
","
","null","<p></p>","null","","","","","","","",""
"","image","31","79737","0.0-31.0","""event"",""trial"",""time""
""fullscreenenter"",""0"",""17214""
","
","
","""event"",""trial"",""time""
""fullscreenenter"",""0"",""17214""
","
","715","run_exp/static/images/Set 6_rs/089a.jpg","86","","","","","","learn","SL",""
"","show_choice","32","81024","0.0-32.0","""event"",""trial"",""time""
""fullscreenenter"",""0"",""17214""
","
","
","""event"",""trial"",""time""
""fullscreenenter"",""0"",""17214""
","
","null","run_exp/static/images/Set 6_rs/089a.jpg","null","","","","","","learn","SL",""
"","html-keyboard-response","33","81526","0.0-33.0","""event"",""trial"",""time""
""fullscreenenter"",""0"",""17214""
","
","
","""event"",""trial"",""time""
""fullscreenenter"",""0"",""17214""
","
","null","<p></p>","null","","","","","","","",""
"","image","34","82953","0.0-34.0","""event"",""trial"",""time""
""fullscreenenter"",""0"",""17214""
","
","
","""event"",""trial"",""time""
""fullscreenenter"",""0"",""17214""
","
","1426.7000000476837","run_exp/static/images/Set 6_rs/121a.jpg","78","","","","","","learn","SR",""
"","show_choice","35","83528","0.0-35.0","""event"",""trial"",""time""
""fullscreenenter"",""0"",""17214""
","
","
","""event"",""trial"",""time""
""fullscreenenter"",""0"",""17214""
","
","null","run_exp/static/images/Set 6_rs/121a.jpg","null","","","","","","learn","SR",""
"","html-keyboard-response","36","84030","0.0-36.0","""event"",""trial"",""time""
""fullscreenenter"",""0"",""17214""
","
","
","""event"",""trial"",""time""
""fullscreenenter"",""0"",""17214""
","
","null","<p></p>","null","","","","","","","",""
"","image","37","84977","0.0-37.0","""event"",""trial"",""time""
""fullscreenenter"",""0"",""17214""
","
","
","""event"",""trial"",""time""
""fullscreenenter"",""0"",""17214""
","
","946.3999998569489","run_exp/static/images/Set 6_rs/016a.jpg","86","","","","","","learn","SL",""
"","show_choice","38","86031","0.0-38.0","""event"",""trial"",""time""
""fullscreenenter"",""0"",""17214""
","
","
","""event"",""trial"",""time""
""fullscreenenter"",""0"",""17214""
","
","null","run_exp/static/images/Set 6_rs/016a.jpg","null","","","","","","learn","SL",""
"","html-keyboard-response","39","86532","0.0-39.0","""event"",""trial"",""time""
""fullscreenenter"",""0"",""17214""
","
","
","""event"",""trial"",""time""
""fullscreenenter"",""0"",""17214""
","
","null","<p></p>","null","","","","","","","",""
"","image","40","87514","0.0-40.0","""event"",""trial"",""time""
""fullscreenenter"",""0"",""17214""
","
","
","""event"",""trial"",""time""
""fullscreenenter"",""0"",""17214""
","
","980.4000000953674","run_exp/static/images/Set 6_rs/186a.jpg","86","","","","","","learn","SR",""
"","show_choice","41","88534","0.0-41.0","""event"",""trial"",""time""
""fullscreenenter"",""0"",""17214""
","
","
","""event"",""trial"",""time""
""fullscreenenter"",""0"",""17214""
","
","null","run_exp/static/images/Set 6_rs/186a.jpg","null","","","","","","learn","SR",""
"","html-keyboard-response","42","89036","0.0-42.0","""event"",""trial"",""time""
""fullscreenenter"",""0"",""17214""
","
","
","""event"",""trial"",""time""
""fullscreenenter"",""0"",""17214""
","
","null","<p></p>","null","","","","","","","",""
"","image","43","90146","0.0-43.0","""event"",""trial"",""time""
""fullscreenenter"",""0"",""17214""
","
","
","""event"",""trial"",""time""
""fullscreenenter"",""0"",""17214""
","
","1109.2000000476837","run_exp/static/images/Set 6_rs/150a.jpg","86","","","","","","learn","SR",""
"","show_choice","44","91036","0.0-44.0","""event"",""trial"",""time""
""fullscreenenter"",""0"",""17214""
","
","
","""event"",""trial"",""time""
""fullscreenenter"",""0"",""17214""
","
","null","run_exp/static/images/Set 6_rs/150a.jpg","null","","","","","","learn","SR",""
"","html-keyboard-response","45","91537","0.0-45.0","""event"",""trial"",""time""
""fullscreenenter"",""0"",""17214""
","
","
","""event"",""trial"",""time""
""fullscreenenter"",""0"",""17214""
","
","null","<p></p>","null","","","","","","","",""
"","image","46","92537","0.0-46.0","""event"",""trial"",""time""
""fullscreenenter"",""0"",""17214""
","
","
","""event"",""trial"",""time""
""fullscreenenter"",""0"",""17214""
","
","999.3999998569489","run_exp/static/images/Set 6_rs/073a.jpg","86","","","","","","learn","SL",""
"","show_choice","47","93539","0.0-47.0","""event"",""trial"",""time""
""fullscreenenter"",""0"",""17214""
","
","
","""event"",""trial"",""time""
""fullscreenenter"",""0"",""17214""
","
","null","run_exp/static/images/Set 6_rs/073a.jpg","null","","","","","","learn","SL",""
"","html-keyboard-response","48","94040","0.0-48.0","""event"",""trial"",""time""
""fullscreenenter"",""0"",""17214""
","
","
","""event"",""trial"",""time""
""fullscreenenter"",""0"",""17214""
","
","null","<p></p>","null","","","","","","","",""
"","image","49","94705","0.0-49.0","""event"",""trial"",""time""
""fullscreenenter"",""0"",""17214""
","
","
","""event"",""trial"",""time""
""fullscreenenter"",""0"",""17214""
","
","664.5","run_exp/static/images/Set 6_rs/112a.jpg","86","","","","","","learn","SR",""
"","show_choice","50","96042","0.0-50.0","""event"",""trial"",""time""
""fullscreenenter"",""0"",""17214""
","
","
","""event"",""trial"",""time""
""fullscreenenter"",""0"",""17214""
","
","null","run_exp/static/images/Set 6_rs/112a.jpg","null","","","","","","learn","SR",""
"","html-keyboard-response","51","96543","0.0-51.0","""event"",""trial"",""time""
""fullscreenenter"",""0"",""17214""
","
","
","""event"",""trial"",""time""
""fullscreenenter"",""0"",""17214""
","
","null","<p></p>","null","","","","","","","",""
"","image","52","97370","0.0-52.0","""event"",""trial"",""time""
""fullscreenenter"",""0"",""17214""
","
","
","""event"",""trial"",""time""
""fullscreenenter"",""0"",""17214""
","
","825.5999999046326","run_exp/static/images/Set 6_rs/141a.jpg","86","","","","","","learn","SR",""
"","show_choice","53","98545","0.0-53.0","""event"",""trial"",""time""
""fullscreenenter"",""0"",""17214""
","
","
","""event"",""trial"",""time""
""fullscreenenter"",""0"",""17214""
","
","null","run_exp/static/images/Set 6_rs/141a.jpg","null","","","","","","learn","SR",""
"","html-keyboard-response","54","99047","0.0-54.0","""event"",""trial"",""time""
""fullscreenenter"",""0"",""17214""
","
","
","""event"",""trial"",""time""
""fullscreenenter"",""0"",""17214""
","
","null","<p></p>","null","","","","","","","",""
"","image","55","99985","0.0-55.0","""event"",""trial"",""time""
""fullscreenenter"",""0"",""17214""
","
","
","""event"",""trial"",""time""
""fullscreenenter"",""0"",""17214""
","
","937.4000000953674","run_exp/static/images/Set 6_rs/117a.jpg","86","","","","","","learn","SL",""
"","show_choice","56","101049","0.0-56.0","""event"",""trial"",""time""
""fullscreenenter"",""0"",""17214""
","
","
","""event"",""trial"",""time""
""fullscreenenter"",""0"",""17214""
","
","null","run_exp/static/images/Set 6_rs/117a.jpg","null","","","","","","learn","SL",""
"","html-keyboard-response","57","101551","0.0-57.0","""event"",""trial"",""time""
""fullscreenenter"",""0"",""17214""
","
","
","""event"",""trial"",""time""
""fullscreenenter"",""0"",""17214""
","
","null","<p></p>","null","","","","","","","",""
"","image","58","102306","0.0-58.0","""event"",""trial"",""time""
""fullscreenenter"",""0"",""17214""
","
","
","""event"",""trial"",""time""
""fullscreenenter"",""0"",""17214""
","
","753.8999998569489","run_exp/static/images/Set 6_rs/169a.jpg","78","","","","","","learn","SR",""
"","show_choice","59","103552","0.0-59.0","""event"",""trial"",""time""
""fullscreenenter"",""0"",""17214""
","
","
","""event"",""trial"",""time""
""fullscreenenter"",""0"",""17214""
","
","null","run_exp/static/images/Set 6_rs/169a.jpg","null","","","","","","learn","SR",""
"","html-keyboard-response","60","104053","0.0-60.0","""event"",""trial"",""time""
""fullscreenenter"",""0"",""17214""
","
","
","""event"",""trial"",""time""
""fullscreenenter"",""0"",""17214""
","
","null","<p></p>","null","","","","","","","",""
"","image","61","105506","0.0-61.0","""event"",""trial"",""time""
""fullscreenenter"",""0"",""17214""
","
","
","""event"",""trial"",""time""
""fullscreenenter"",""0"",""17214""
","
","1451.5999999046326","run_exp/static/images/Set 6_rs/132a.jpg","86","","","","","","learn","SR",""
"","show_choice","62","106055","0.0-62.0","""event"",""trial"",""time""
""fullscreenenter"",""0"",""17214""
","
","
","""event"",""trial"",""time""
""fullscreenenter"",""0"",""17214""
","
","null","run_exp/static/images/Set 6_rs/132a.jpg","null","","","","","","learn","SR",""
"","html-keyboard-response","63","106556","0.0-63.0","""event"",""trial"",""time""
""fullscreenenter"",""0"",""17214""
","
","
","""event"",""trial"",""time""
""fullscreenenter"",""0"",""17214""
","
","null","<p></p>","null","","","","","","","",""
"","image","64","107281","0.0-64.0","""event"",""trial"",""time""
""fullscreenenter"",""0"",""17214""
","
","
","""event"",""trial"",""time""
""fullscreenenter"",""0"",""17214""
","
","724.3999998569489","run_exp/static/images/Set 6_rs/006a.jpg","86","","","","","","learn","SL",""
"","show_choice","65","108559","0.0-65.0","""event"",""trial"",""time""
""fullscreenenter"",""0"",""17214""
","
","
","""event"",""trial"",""time""
""fullscreenenter"",""0"",""17214""
","
","null","run_exp/static/images/Set 6_rs/006a.jpg","null","","","","","","learn","SL",""
"","html-keyboard-response","66","109060","0.0-66.0","""event"",""trial"",""time""
""fullscreenenter"",""0"",""17214""
","
","
","""event"",""trial"",""time""
""fullscreenenter"",""0"",""17214""
","
","null","<p></p>","null","","","","","","","",""
"","image","67","109897","0.0-67.0","""event"",""trial"",""time""
""fullscreenenter"",""0"",""17214""
","
","
","""event"",""trial"",""time""
""fullscreenenter"",""0"",""17214""
","
","836.7000000476837","run_exp/static/images/Set 6_rs/108a.jpg","78","","","","","","learn","SR",""
"","show_choice","68","111061","0.0-68.0","""event"",""trial"",""time""
""fullscreenenter"",""0"",""17214""
","
","
","""event"",""trial"",""time""
""fullscreenenter"",""0"",""17214""
","
","null","run_exp/static/images/Set 6_rs/108a.jpg","null","","","","","","learn","SR",""
"","html-keyboard-response","69","111563","0.0-69.0","""event"",""trial"",""time""
""fullscreenenter"",""0"",""17214""
","
","
","""event"",""trial"",""time""
""fullscreenenter"",""0"",""17214""
","
","null","<p></p>","null","","","","","","","",""
"","image","70","112314","0.0-70.0","""event"",""trial"",""time""
""fullscreenenter"",""0"",""17214""
","
","
","""event"",""trial"",""time""
""fullscreenenter"",""0"",""17214""
","
","749.5999999046326","run_exp/static/images/Set 6_rs/062a.jpg","86","","","","","","learn","SL",""
"","show_choice","71","113565","0.0-71.0","""event"",""trial"",""time""
""fullscreenenter"",""0"",""17214""
","
","
","""event"",""trial"",""time""
""fullscreenenter"",""0"",""17214""
","
","null","run_exp/static/images/Set 6_rs/062a.jpg","null","","","","","","learn","SL",""
"","html-keyboard-response","72","114067","0.0-72.0","""event"",""trial"",""time""
""fullscreenenter"",""0"",""17214""
","
","
","""event"",""trial"",""time""
""fullscreenenter"",""0"",""17214""
","
","null","<p></p>","null","","","","","","","",""
"","image","73","114825","0.0-73.0","""event"",""trial"",""time""
""fullscreenenter"",""0"",""17214""
","
","
","""event"",""trial"",""time""
""fullscreenenter"",""0"",""17214""
","
","757.7999999523163","run_exp/static/images/Set 6_rs/063a.jpg","86","","","","","","learn","SR",""
"","show_choice","74","116068","0.0-74.0","""event"",""trial"",""time""
""fullscreenenter"",""0"",""17214""
","
","
","""event"",""trial"",""time""
""fullscreenenter"",""0"",""17214""
","
","null","run_exp/static/images/Set 6_rs/063a.jpg","null","","","","","","learn","SR",""
"","html-keyboard-response","75","116569","0.0-75.0","""event"",""trial"",""time""
""fullscreenenter"",""0"",""17214""
","
","
","""event"",""trial"",""time""
""fullscreenenter"",""0"",""17214""
","
","null","<p></p>","null","","","","","","","",""
"","image","76","117225","0.0-76.0","""event"",""trial"",""time""
""fullscreenenter"",""0"",""17214""
","
","
","""event"",""trial"",""time""
""fullscreenenter"",""0"",""17214""
","
","655.2000000476837","run_exp/static/images/Set 6_rs/050a.jpg","86","","","","","","learn","SL",""
"","show_choice","77","118570","0.0-77.0","""event"",""trial"",""time""
""fullscreenenter"",""0"",""17214""
","
","
","""event"",""trial"",""time""
""fullscreenenter"",""0"",""17214""
","
","null","run_exp/static/images/Set 6_rs/050a.jpg","null","","","","","","learn","SL",""
"","html-keyboard-response","78","119072","0.0-78.0","""event"",""trial"",""time""
""fullscreenenter"",""0"",""17214""
","
","
","""event"",""trial"",""time""
""fullscreenenter"",""0"",""17214""
","
","null","<p></p>","null","","","","","","","",""
"","image","79","119738","0.0-79.0","""event"",""trial"",""time""
""fullscreenenter"",""0"",""17214""
","
","
","""event"",""trial"",""time""
""fullscreenenter"",""0"",""17214""
","
","664.4000000953674","run_exp/static/images/Set 6_rs/088a.jpg","86","","","","","","learn","SR",""
"","show_choice","80","121074","0.0-80.0","""event"",""trial"",""time""
""fullscreenenter"",""0"",""17214""
","
","
","""event"",""trial"",""time""
""fullscreenenter"",""0"",""17214""
","
","null","run_exp/static/images/Set 6_rs/088a.jpg","null","","","","","","learn","SR",""
"","html-keyboard-response","81","121575","0.0-81.0","""event"",""trial"",""time""
""fullscreenenter"",""0"",""17214""
","
","
","""event"",""trial"",""time""
""fullscreenenter"",""0"",""17214""
","
","null","<p></p>","null","","","","","","","",""
"","image","82","122394","0.0-82.0","""event"",""trial"",""time""
""fullscreenenter"",""0"",""17214""
","
","
","""event"",""trial"",""time""
""fullscreenenter"",""0"",""17214""
","
","818","run_exp/static/images/Set 6_rs/014a.jpg","86","","","","","","learn","SL",""
"","show_choice","83","123577","0.0-83.0","""event"",""trial"",""time""
""fullscreenenter"",""0"",""17214""
","
","
","""event"",""trial"",""time""
""fullscreenenter"",""0"",""17214""
","
","null","run_exp/static/images/Set 6_rs/014a.jpg","null","","","","","","learn","SL",""
"","html-keyboard-response","84","124078","0.0-84.0","""event"",""trial"",""time""
""fullscreenenter"",""0"",""17214""
","
","
","""event"",""trial"",""time""
""fullscreenenter"",""0"",""17214""
","
","null","<p></p>","null","","","","","","","",""
"","image","85","124802","0.0-85.0","""event"",""trial"",""time""
""fullscreenenter"",""0"",""17214""
","
","
","""event"",""trial"",""time""
""fullscreenenter"",""0"",""17214""
","
","723.0999999046326","run_exp/static/images/Set 6_rs/154a.jpg","86","","","","","","learn","SR",""
"","show_choice","86","126079","0.0-86.0","""event"",""trial"",""time""
""fullscreenenter"",""0"",""17214""
","
","
","""event"",""trial"",""time""
""fullscreenenter"",""0"",""17214""
","
","null","run_exp/static/images/Set 6_rs/154a.jpg","null","","","","","","learn","SR",""
"","html-keyboard-response","87","126580","0.0-87.0","""event"",""trial"",""time""
""fullscreenenter"",""0"",""17214""
","
","
","""event"",""trial"",""time""
""fullscreenenter"",""0"",""17214""
","
","null","<p></p>","null","","","","","","","",""
"","image","88","127506","0.0-88.0","""event"",""trial"",""time""
""fullscreenenter"",""0"",""17214""
","
","
","""event"",""trial"",""time""
""fullscreenenter"",""0"",""17214""
","
","924.5","run_exp/static/images/Set 6_rs/061a.jpg","78","","","","","","learn","SR",""
"","show_choice","89","128581","0.0-89.0","""event"",""trial"",""time""
""fullscreenenter"",""0"",""17214""
","
","
","""event"",""trial"",""time""
""fullscreenenter"",""0"",""17214""
","
","null","run_exp/static/images/Set 6_rs/061a.jpg","null","","","","","","learn","SR",""
"","html-keyboard-response","90","129083","0.0-90.0","""event"",""trial"",""time""
""fullscreenenter"",""0"",""17214""
","
","
","""event"",""trial"",""time""
""fullscreenenter"",""0"",""17214""
","
","null","<p></p>","null","","","","","","","",""
"","image","91","129914","0.0-91.0","""event"",""trial"",""time""
""fullscreenenter"",""0"",""17214""
","
","
","""event"",""trial"",""time""
""fullscreenenter"",""0"",""17214""
","
","830","run_exp/static/images/Set 6_rs/024a.jpg","86","","","","","","learn","SR",""
"","show_choice","92","131085","0.0-92.0","""event"",""trial"",""time""
""fullscreenenter"",""0"",""17214""
","
","
","""event"",""trial"",""time""
""fullscreenenter"",""0"",""17214""
","
","null","run_exp/static/images/Set 6_rs/024a.jpg","null","","","","","","learn","SR",""
"","html-keyboard-response","93","131586","0.0-93.0","""event"",""trial"",""time""
""fullscreenenter"",""0"",""17214""
","
","
","""event"",""trial"",""time""
""fullscreenenter"",""0"",""17214""
","
","null","<p></p>","null","","","","","","","",""
"","image","94","132474","0.0-94.0","""event"",""trial"",""time""
""fullscreenenter"",""0"",""17214""
","
","
","""event"",""trial"",""time""
""fullscreenenter"",""0"",""17214""
","
","887.2999999523163","run_exp/static/images/Set 6_rs/091a.jpg","78","","","","","","learn","SL",""
"","show_choice","95","133587","0.0-95.0","""event"",""trial"",""time""
""fullscreenenter"",""0"",""17214""
","
","
","""event"",""trial"",""time""
""fullscreenenter"",""0"",""17214""
","
","null","run_exp/static/images/Set 6_rs/091a.jpg","null","","","","","","learn","SL",""
"","html-keyboard-response","96","134089","0.0-96.0","""event"",""trial"",""time""
""fullscreenenter"",""0"",""17214""
","
","
","""event"",""trial"",""time""
""fullscreenenter"",""0"",""17214""
","
","null","<p></p>","null","","","","","","","",""
"","image","97","134858","0.0-97.0","""event"",""trial"",""time""
""fullscreenenter"",""0"",""17214""
","
","
","""event"",""trial"",""time""
""fullscreenenter"",""0"",""17214""
","
","767.5999999046326","run_exp/static/images/Set 6_rs/144a.jpg","86","","","","","","learn","SL",""
"","show_choice","98","136091","0.0-98.0","""event"",""trial"",""time""
""fullscreenenter"",""0"",""17214""
","
","
","""event"",""trial"",""time""
""fullscreenenter"",""0"",""17214""
","
","null","run_exp/static/images/Set 6_rs/144a.jpg","null","","","","","","learn","SL",""
"","html-keyboard-response","99","136592","0.0-99.0","""event"",""trial"",""time""
""fullscreenenter"",""0"",""17214""
","
","
","""event"",""trial"",""time""
""fullscreenenter"",""0"",""17214""
","
","null","<p></p>","null","","","","","","","",""
"","image","100","137714","0.0-100.0","""event"",""trial"",""time""
""fullscreenenter"",""0"",""17214""
","
","
","""event"",""trial"",""time""
""fullscreenenter"",""0"",""17214""
","
","1121.3999998569489","run_exp/static/images/Set 6_rs/181a.jpg","78","","","","","","learn","SL",""
"","show_choice","101","138593","0.0-101.0","""event"",""trial"",""time""
""fullscreenenter"",""0"",""17214""
","
","
","""event"",""trial"",""time""
""fullscreenenter"",""0"",""17214""
","
","null","run_exp/static/images/Set 6_rs/181a.jpg","null","","","","","","learn","SL",""
"","html-keyboard-response","102","139096","0.0-102.0","""event"",""trial"",""time""
""fullscreenenter"",""0"",""17214""
","
","
","""event"",""trial"",""time""
""fullscreenenter"",""0"",""17214""
","
","null","<p></p>","null","","","","","","","",""
"","image","103","139953","0.0-103.0","""event"",""trial"",""time""
""fullscreenenter"",""0"",""17214""
","
","
","""event"",""trial"",""time""
""fullscreenenter"",""0"",""17214""
","
","856.2999999523163","run_exp/static/images/Set 6_rs/010a.jpg","86","","","","","","learn","SR",""
"","show_choice","104","141097","0.0-104.0","""event"",""trial"",""time""
""fullscreenenter"",""0"",""17214""
","
","
","""event"",""trial"",""time""
""fullscreenenter"",""0"",""17214""
","
","null","run_exp/static/images/Set 6_rs/010a.jpg","null","","","","","","learn","SR",""
"","html-keyboard-response","105","141598","0.0-105.0","""event"",""trial"",""time""
""fullscreenenter"",""0"",""17214""
","
","
","""event"",""trial"",""time""
""fullscreenenter"",""0"",""17214""
","
","null","<p></p>","null","","","","","","","",""
"","image","106","142410","0.0-106.0","""event"",""trial"",""time""
""fullscreenenter"",""0"",""17214""
","
","
","""event"",""trial"",""time""
""fullscreenenter"",""0"",""17214""
","
","811.2000000476837","run_exp/static/images/Set 6_rs/023a.jpg","86","","","","","","learn","SR",""
"","show_choice","107","143599","0.0-107.0","""event"",""trial"",""time""
""fullscreenenter"",""0"",""17214""
","
","
","""event"",""trial"",""time""
""fullscreenenter"",""0"",""17214""
","
","null","run_exp/static/images/Set 6_rs/023a.jpg","null","","","","","","learn","SR",""
"","html-keyboard-response","108","144100","0.0-108.0","""event"",""trial"",""time""
""fullscreenenter"",""0"",""17214""
","
","
","""event"",""trial"",""time""
""fullscreenenter"",""0"",""17214""
","
","null","<p></p>","null","","","","","","","",""
"","image","109","144866","0.0-109.0","""event"",""trial"",""time""
""fullscreenenter"",""0"",""17214""
","
","
","""event"",""trial"",""time""
""fullscreenenter"",""0"",""17214""
","
","764.7999999523163","run_exp/static/images/Set 6_rs/036a.jpg","86","","","","","","learn","SL",""
"","show_choice","110","146102","0.0-110.0","""event"",""trial"",""time""
""fullscreenenter"",""0"",""17214""
","
","
","""event"",""trial"",""time""
""fullscreenenter"",""0"",""17214""
","
","null","run_exp/static/images/Set 6_rs/036a.jpg","null","","","","","","learn","SL",""
"","html-keyboard-response","111","146603","0.0-111.0","""event"",""trial"",""time""
""fullscreenenter"",""0"",""17214""
","
","
","""event"",""trial"",""time""
""fullscreenenter"",""0"",""17214""
","
","null","<p></p>","null","","","","","","","",""
"","image","112","147242","0.0-112.0","""event"",""trial"",""time""
""fullscreenenter"",""0"",""17214""
","
","
","""event"",""trial"",""time""
""fullscreenenter"",""0"",""17214""
","
","638","run_exp/static/images/Set 6_rs/178a.jpg","78","","","","","","learn","SR",""
"","show_choice","113","148605","0.0-113.0","""event"",""trial"",""time""
""fullscreenenter"",""0"",""17214""
","
","
","""event"",""trial"",""time""
""fullscreenenter"",""0"",""17214""
","
","null","run_exp/static/images/Set 6_rs/178a.jpg","null","","","","","","learn","SR",""
"","html-keyboard-response","114","149106","0.0-114.0","""event"",""trial"",""time""
""fullscreenenter"",""0"",""17214""
","
","
","""event"",""trial"",""time""
""fullscreenenter"",""0"",""17214""
","
","null","<p></p>","null","","","","","","","",""
"","image","115","149754","0.0-115.0","""event"",""trial"",""time""
""fullscreenenter"",""0"",""17214""
","
","
","""event"",""trial"",""time""
""fullscreenenter"",""0"",""17214""
","
","647.5999999046326","run_exp/static/images/Set 6_rs/172a.jpg","78","","","","","","learn","SR",""
"","show_choice","116","151107","0.0-116.0","""event"",""trial"",""time""
""fullscreenenter"",""0"",""17214""
","
","
","""event"",""trial"",""time""
""fullscreenenter"",""0"",""17214""
","
","null","run_exp/static/images/Set 6_rs/172a.jpg","null","","","","","","learn","SR",""
"","html-keyboard-response","117","151608","0.0-117.0","""event"",""trial"",""time""
""fullscreenenter"",""0"",""17214""
","
","
","""event"",""trial"",""time""
""fullscreenenter"",""0"",""17214""
","
","null","<p></p>","null","","","","","","","",""
"","image","118","153609","0.0-118.0","""event"",""trial"",""time""
""fullscreenenter"",""0"",""17214""
","
","
","""event"",""trial"",""time""
""fullscreenenter"",""0"",""17214""
","
","null","run_exp/static/images/Set 6_rs/191a.jpg","null","","","","","","learn","SL",""
"","show_choice","119","155610","0.0-119.0","""event"",""trial"",""time""
""fullscreenenter"",""0"",""17214""
","
","
","""event"",""trial"",""time""
""fullscreenenter"",""0"",""17214""
","
","null","run_exp/static/images/blank.png","null","","","","","","learn","SL",""
"","html-keyboard-response","120","156112","0.0-120.0","""event"",""trial"",""time""
""fullscreenenter"",""0"",""17214""
","
","
","""event"",""trial"",""time""
""fullscreenenter"",""0"",""17214""
","
","null","<p></p>","null","","","","","","","",""
"","image","121","156762","0.0-121.0","""event"",""trial"",""time""
""fullscreenenter"",""0"",""17214""
","
","
","""event"",""trial"",""time""
""fullscreenenter"",""0"",""17214""
","
","649.7000000476837","run_exp/static/images/Set 6_rs/064a.jpg","86","","","","","","learn","SR",""
"","show_choice","122","158114","0.0-122.0","""event"",""trial"",""time""
""fullscreenenter"",""0"",""17214""
","
","
","""event"",""trial"",""time""
""fullscreenenter"",""0"",""17214""
","
","null","run_exp/static/images/Set 6_rs/064a.jpg","null","","","","","","learn","SR",""
"","html-keyboard-response","123","158615","0.0-123.0","""event"",""trial"",""time""
""fullscreenenter"",""0"",""17214""
","
","
","""event"",""trial"",""time""
""fullscreenenter"",""0"",""17214""
","
","null","<p></p>","null","","","","","","","",""
"","image","124","159385","0.0-124.0","""event"",""trial"",""time""
""fullscreenenter"",""0"",""17214""
","
","
","""event"",""trial"",""time""
""fullscreenenter"",""0"",""17214""
","
","769.5","run_exp/static/images/Set 6_rs/066a.jpg","86","","","","","","learn","SL",""
"","show_choice","125","160617","0.0-125.0","""event"",""trial"",""time""
""fullscreenenter"",""0"",""17214""
","
","
","""event"",""trial"",""time""
""fullscreenenter"",""0"",""17214""
","
","null","run_exp/static/images/Set 6_rs/066a.jpg","null","","","","","","learn","SL",""
"","html-keyboard-response","126","161117","0.0-126.0","""event"",""trial"",""time""
""fullscreenenter"",""0"",""17214""
","
","
","""event"",""trial"",""time""
""fullscreenenter"",""0"",""17214""
","
","null","<p></p>","null","","","","","","","",""
"","image","127","161825","0.0-127.0","""event"",""trial"",""time""
""fullscreenenter"",""0"",""17214""
","
","
","""event"",""trial"",""time""
""fullscreenenter"",""0"",""17214""
","
","706.8999998569489","run_exp/static/images/Set 6_rs/134a.jpg","86","","","","","","learn","SR",""
"","show_choice","128","163120","0.0-128.0","""event"",""trial"",""time""
""fullscreenenter"",""0"",""17214""
","
","
","""event"",""trial"",""time""
""fullscreenenter"",""0"",""17214""
","
","null","run_exp/static/images/Set 6_rs/134a.jpg","null","","","","","","learn","SR",""
"","html-keyboard-response","129","163622","0.0-129.0","""event"",""trial"",""time""
""fullscreenenter"",""0"",""17214""
","
","
","""event"",""trial"",""time""
""fullscreenenter"",""0"",""17214""
","
","null","<p></p>","null","","","","","","","",""
"","image","130","164466","0.0-130.0","""event"",""trial"",""time""
""fullscreenenter"",""0"",""17214""
","
","
","""event"",""trial"",""time""
""fullscreenenter"",""0"",""17214""
","
","843.5","run_exp/static/images/Set 6_rs/019a.jpg","86","","","","","","learn","SL",""
"","show_choice","131","165624","0.0-131.0","""event"",""trial"",""time""
""fullscreenenter"",""0"",""17214""
","
","
","""event"",""trial"",""time""
""fullscreenenter"",""0"",""17214""
","
","null","run_exp/static/images/Set 6_rs/019a.jpg","null","","","","","","learn","SL",""
"","html-keyboard-response","132","166126","0.0-132.0","""event"",""trial"",""time""
""fullscreenenter"",""0"",""17214""
","
","
","""event"",""trial"",""time""
""fullscreenenter"",""0"",""17214""
","
","null","<p></p>","null","","","","","","","",""
"","image","133","166665","0.0-133.0","""event"",""trial"",""time""
""fullscreenenter"",""0"",""17214""
","
","
","""event"",""trial"",""time""
""fullscreenenter"",""0"",""17214""
","
","538.7000000476837","run_exp/static/images/Set 6_rs/116a.jpg","78","","","","","","learn","SL",""
"","show_choice","134","168127","0.0-134.0","""event"",""trial"",""time""
""fullscreenenter"",""0"",""17214""
","
","
","""event"",""trial"",""time""
""fullscreenenter"",""0"",""17214""
","
","null","run_exp/static/images/Set 6_rs/116a.jpg","null","","","","","","learn","SL",""
"","html-keyboard-response","135","168628","0.0-135.0","""event"",""trial"",""time""
""fullscreenenter"",""0"",""17214""
","
","
","""event"",""trial"",""time""
""fullscreenenter"",""0"",""17214""
","
","null","<p></p>","null","","","","","","","",""
"","image","136","169330","0.0-136.0","""event"",""trial"",""time""
""fullscreenenter"",""0"",""17214""
","
","
","""event"",""trial"",""time""
""fullscreenenter"",""0"",""17214""
","
","700.3999998569489","run_exp/static/images/Set 6_rs/138a.jpg","78","","","","","","learn","SL",""
"","show_choice","137","170630","0.0-137.0","""event"",""trial"",""time""
""fullscreenenter"",""0"",""17214""
","
","
","""event"",""trial"",""time""
""fullscreenenter"",""0"",""17214""
","
","null","run_exp/static/images/Set 6_rs/138a.jpg","null","","","","","","learn","SL",""
"","html-keyboard-response","138","171131","0.0-138.0","""event"",""trial"",""time""
""fullscreenenter"",""0"",""17214""
","
","
","""event"",""trial"",""time""
""fullscreenenter"",""0"",""17214""
","
","null","<p></p>","null","","","","","","","",""
"","image","139","172666","0.0-139.0","""event"",""trial"",""time""
""fullscreenenter"",""0"",""17214""
","
","
","""event"",""trial"",""time""
""fullscreenenter"",""0"",""17214""
","
","1534.2000000476837","run_exp/static/images/Set 6_rs/085a.jpg","78","","","","","","learn","SL",""
"","show_choice","140","173132","0.0-140.0","""event"",""trial"",""time""
""fullscreenenter"",""0"",""17214""
","
","
","""event"",""trial"",""time""
""fullscreenenter"",""0"",""17214""
","
","null","run_exp/static/images/Set 6_rs/085a.jpg","null","","","","","","learn","SL",""
"","html-keyboard-response","141","173634","0.0-141.0","""event"",""trial"",""time""
""fullscreenenter"",""0"",""17214""
","
","
","""event"",""trial"",""time""
""fullscreenenter"",""0"",""17214""
","
","null","<p></p>","null","","","","","","","",""
"","image","142","174425","0.0-142.0","""event"",""trial"",""time""
""fullscreenenter"",""0"",""17214""
","
","
","""event"",""trial"",""time""
""fullscreenenter"",""0"",""17214""
","
","790.2999999523163","run_exp/static/images/Set 6_rs/057a.jpg","86","","","","","","learn","SL",""
"","show_choice","143","175635","0.0-143.0","""event"",""trial"",""time""
""fullscreenenter"",""0"",""17214""
","
","
","""event"",""trial"",""time""
""fullscreenenter"",""0"",""17214""
","
","null","run_exp/static/images/Set 6_rs/057a.jpg","null","","","","","","learn","SL",""
"","html-keyboard-response","144","176137","0.0-144.0","""event"",""trial"",""time""
""fullscreenenter"",""0"",""17214""
","
","
","""event"",""trial"",""time""
""fullscreenenter"",""0"",""17214""
","
","null","<p></p>","null","","","","","","","",""
"","image","145","177586","0.0-145.0","""event"",""trial"",""time""
""fullscreenenter"",""0"",""17214""
","
","
","""event"",""trial"",""time""
""fullscreenenter"",""0"",""17214""
","
","1447.9000000953674","run_exp/static/images/Set 6_rs/074a.jpg","78","","","","","","learn","SL",""
"","show_choice","146","178139","0.0-146.0","""event"",""trial"",""time""
""fullscreenenter"",""0"",""17214""
","
","
","""event"",""trial"",""time""
""fullscreenenter"",""0"",""17214""
","
","null","run_exp/static/images/Set 6_rs/074a.jpg","null","","","","","","learn","SL",""
"","html-keyboard-response","147","178640","0.0-147.0","""event"",""trial"",""time""
""fullscreenenter"",""0"",""17214""
","
","
","""event"",""trial"",""time""
""fullscreenenter"",""0"",""17214""
","
","null","<p></p>","null","","","","","","","",""
"","image","148","179386","0.0-148.0","""event"",""trial"",""time""
""fullscreenenter"",""0"",""17214""
","
","
","""event"",""trial"",""time""
""fullscreenenter"",""0"",""17214""
","
","745.2999999523163","run_exp/static/images/Set 6_rs/012a.jpg","86","","","","","","learn","SR",""
"","show_choice","149","180641","0.0-149.0","""event"",""trial"",""time""
""fullscreenenter"",""0"",""17214""
","
","
","""event"",""trial"",""time""
""fullscreenenter"",""0"",""17214""
","
","null","run_exp/static/images/Set 6_rs/012a.jpg","null","","","","","","learn","SR",""
"","html-keyboard-response","150","181143","0.0-150.0","""event"",""trial"",""time""
""fullscreenenter"",""0"",""17214""
","
","
","""event"",""trial"",""time""
""fullscreenenter"",""0"",""17214""
","
","null","<p></p>","null","","","","","","","",""
"","image","151","182169","0.0-151.0","""event"",""trial"",""time""
""fullscreenenter"",""0"",""17214""
","
","
","""event"",""trial"",""time""
""fullscreenenter"",""0"",""17214""
","
","1025.5999999046326","run_exp/static/images/Set 6_rs/152a.jpg","86","","","","","","learn","SR",""
"","show_choice","152","183145","0.0-152.0","""event"",""trial"",""time""
""fullscreenenter"",""0"",""17214""
","
","
","""event"",""trial"",""time""
""fullscreenenter"",""0"",""17214""
","
","null","run_exp/static/images/Set 6_rs/152a.jpg","null","","","","","","learn","SR",""
"","html-keyboard-response","153","183647","0.0-153.0","""event"",""trial"",""time""
""fullscreenenter"",""0"",""17214""
","
","
","""event"",""trial"",""time""
""fullscreenenter"",""0"",""17214""
","
","null","<p></p>","null","","","","","","","",""
"","image","154","184626","0.0-154.0","""event"",""trial"",""time""
""fullscreenenter"",""0"",""17214""
","
","
","""event"",""trial"",""time""
""fullscreenenter"",""0"",""17214""
","
","978","run_exp/static/images/Set 6_rs/123a.jpg","78","","","","","","learn","SL",""
"","show_choice","155","185648","0.0-155.0","""event"",""trial"",""time""
""fullscreenenter"",""0"",""17214""
","
","
","""event"",""trial"",""time""
""fullscreenenter"",""0"",""17214""
","
","null","run_exp/static/images/Set 6_rs/123a.jpg","null","","","","","","learn","SL",""
"","html-keyboard-response","156","186149","0.0-156.0","""event"",""trial"",""time""
""fullscreenenter"",""0"",""17214""
","
","
","""event"",""trial"",""time""
""fullscreenenter"",""0"",""17214""
","
","null","<p></p>","null","","","","","","","",""
"","image","157","186802","0.0-157.0","""event"",""trial"",""time""
""fullscreenenter"",""0"",""17214""
","
","
","""event"",""trial"",""time""
""fullscreenenter"",""0"",""17214""
","
","652","run_exp/static/images/Set 6_rs/070a.jpg","86","","","","","","learn","SR",""
"","show_choice","158","188151","0.0-158.0","""event"",""trial"",""time""
""fullscreenenter"",""0"",""17214""
","
","
","""event"",""trial"",""time""
""fullscreenenter"",""0"",""17214""
","
","null","run_exp/static/images/Set 6_rs/070a.jpg","null","","","","","","learn","SR",""
"","html-keyboard-response","159","188652","0.0-159.0","""event"",""trial"",""time""
""fullscreenenter"",""0"",""17214""
","
","
","""event"",""trial"",""time""
""fullscreenenter"",""0"",""17214""
","
","null","<p></p>","null","","","","","","","",""
"","image","160","189514","0.0-160.0","""event"",""trial"",""time""
""fullscreenenter"",""0"",""17214""
","
","
","""event"",""trial"",""time""
""fullscreenenter"",""0"",""17214""
","
","860.9000000953674","run_exp/static/images/Set 6_rs/111a.jpg","86","","","","","","learn","SL",""
"","show_choice","161","190653","0.0-161.0","""event"",""trial"",""time""
""fullscreenenter"",""0"",""17214""
","
","
","""event"",""trial"",""time""
""fullscreenenter"",""0"",""17214""
","
","null","run_exp/static/images/Set 6_rs/111a.jpg","null","","","","","","learn","SL",""
"","html-keyboard-response","162","191155","0.0-162.0","""event"",""trial"",""time""
""fullscreenenter"",""0"",""17214""
","
","
","""event"",""trial"",""time""
""fullscreenenter"",""0"",""17214""
","
","null","<p></p>","null","","","","","","","",""
"","image","163","191978","0.0-163.0","""event"",""trial"",""time""
""fullscreenenter"",""0"",""17214""
","
","
","""event"",""trial"",""time""
""fullscreenenter"",""0"",""17214""
","
","821.5999999046326","run_exp/static/images/Set 6_rs/187a.jpg","86","","","","","","learn","SR",""
"","show_choice","164","193158","0.0-164.0","""event"",""trial"",""time""
""fullscreenenter"",""0"",""17214""
","
","
","""event"",""trial"",""time""
""fullscreenenter"",""0"",""17214""
","
","null","run_exp/static/images/Set 6_rs/187a.jpg","null","","","","","","learn","SR",""
"","html-keyboard-response","165","193660","0.0-165.0","""event"",""trial"",""time""
""fullscreenenter"",""0"",""17214""
","
","
","""event"",""trial"",""time""
""fullscreenenter"",""0"",""17214""
","
","null","<p></p>","null","","","","","","","",""
"","image","166","194234","0.0-166.0","""event"",""trial"",""time""
""fullscreenenter"",""0"",""17214""
","
","
","""event"",""trial"",""time""
""fullscreenenter"",""0"",""17214""
","
","572.5","run_exp/static/images/Set 6_rs/166a.jpg","86","","","","","","learn","SR",""
"","show_choice","167","195663","0.0-167.0","""event"",""trial"",""time""
""fullscreenenter"",""0"",""17214""
","
","
","""event"",""trial"",""time""
""fullscreenenter"",""0"",""17214""
","
","null","run_exp/static/images/Set 6_rs/166a.jpg","null","","","","","","learn","SR",""
"","html-keyboard-response","168","196163","0.0-168.0","""event"",""trial"",""time""
""fullscreenenter"",""0"",""17214""
","
","
","""event"",""trial"",""time""
""fullscreenenter"",""0"",""17214""
","
","null","<p></p>","null","","","","","","","",""
"","image","169","197018","0.0-169.0","""event"",""trial"",""time""
""fullscreenenter"",""0"",""17214""
","
","
","""event"",""trial"",""time""
""fullscreenenter"",""0"",""17214""
","
","853.7000000476837","run_exp/static/images/Set 6_rs/008a.jpg","86","","","","","","learn","SL",""
"","show_choice","170","198165","0.0-170.0","""event"",""trial"",""time""
""fullscreenenter"",""0"",""17214""
","
","
","""event"",""trial"",""time""
""fullscreenenter"",""0"",""17214""
","
","null","run_exp/static/images/Set 6_rs/008a.jpg","null","","","","","","learn","SL",""
"","html-keyboard-response","171","198665","0.0-171.0","""event"",""trial"",""time""
""fullscreenenter"",""0"",""17214""
","
","
","""event"",""trial"",""time""
""fullscreenenter"",""0"",""17214""
","
","null","<p></p>","null","","","","","","","",""
"","image","172","199546","0.0-172.0","""event"",""trial"",""time""
""fullscreenenter"",""0"",""17214""
","
","
","""event"",""trial"",""time""
""fullscreenenter"",""0"",""17214""
","
","879.7000000476837","run_exp/static/images/Set 6_rs/129a.jpg","86","","","","","","learn","SL",""
"","show_choice","173","200667","0.0-173.0","""event"",""trial"",""time""
""fullscreenenter"",""0"",""17214""
","
","
","""event"",""trial"",""time""
""fullscreenenter"",""0"",""17214""
","
","null","run_exp/static/images/Set 6_rs/129a.jpg","null","","","","","","learn","SL",""
"","html-keyboard-response","174","201169","0.0-174.0","""event"",""trial"",""time""
""fullscreenenter"",""0"",""17214""
","
","
","""event"",""trial"",""time""
""fullscreenenter"",""0"",""17214""
","
","null","<p></p>","null","","","","","","","",""
"","image","175","201794","0.0-175.0","""event"",""trial"",""time""
""fullscreenenter"",""0"",""17214""
","
","
","""event"",""trial"",""time""
""fullscreenenter"",""0"",""17214""
","
","623.7999999523163","run_exp/static/images/Set 6_rs/079a.jpg","86","","","","","","learn","SL",""
"","show_choice","176","203172","0.0-176.0","""event"",""trial"",""time""
""fullscreenenter"",""0"",""17214""
","
","
","""event"",""trial"",""time""
""fullscreenenter"",""0"",""17214""
","
","null","run_exp/static/images/Set 6_rs/079a.jpg","null","","","","","","learn","SL",""
"","html-keyboard-response","177","203674","0.0-177.0","""event"",""trial"",""time""
""fullscreenenter"",""0"",""17214""
","
","
","""event"",""trial"",""time""
""fullscreenenter"",""0"",""17214""
","
","null","<p></p>","null","","","","","","","",""
"","image","178","204658","0.0-178.0","""event"",""trial"",""time""
""fullscreenenter"",""0"",""17214""
","
","
","""event"",""trial"",""time""
""fullscreenenter"",""0"",""17214""
","
","983.1000001430511","run_exp/static/images/Set 6_rs/075a.jpg","86","","","","","","learn","SR",""
"","show_choice","179","205675","0.0-179.0","""event"",""trial"",""time""
""fullscreenenter"",""0"",""17214""
","
","
","""event"",""trial"",""time""
""fullscreenenter"",""0"",""17214""
","
","null","run_exp/static/images/Set 6_rs/075a.jpg","null","","","","","","learn","SR",""
"","html-keyboard-response","180","206177","0.0-180.0","""event"",""trial"",""time""
""fullscreenenter"",""0"",""17214""
","
","
","""event"",""trial"",""time""
""fullscreenenter"",""0"",""17214""
","
","null","<p></p>","null","","","","","","","",""
"","image","181","207065","0.0-181.0","""event"",""trial"",""time""
""fullscreenenter"",""0"",""17214""
","
","
","""event"",""trial"",""time""
""fullscreenenter"",""0"",""17214""
","
","887.6000001430511","run_exp/static/images/Set 6_rs/055a.jpg","86","","","","","","learn","SL",""
"","show_choice","182","208179","0.0-182.0","""event"",""trial"",""time""
""fullscreenenter"",""0"",""17214""
","
","
","""event"",""trial"",""time""
""fullscreenenter"",""0"",""17214""
","
","null","run_exp/static/images/Set 6_rs/055a.jpg","null","","","","","","learn","SL",""
"","html-keyboard-response","183","208680","0.0-183.0","""event"",""trial"",""time""
""fullscreenenter"",""0"",""17214""
","
","
","""event"",""trial"",""time""
""fullscreenenter"",""0"",""17214""
","
","null","<p></p>","null","","","","","","","",""
"","image","184","209506","0.0-184.0","""event"",""trial"",""time""
""fullscreenenter"",""0"",""17214""
","
","
","""event"",""trial"",""time""
""fullscreenenter"",""0"",""17214""
","
","825.1999998092651","run_exp/static/images/Set 6_rs/168a.jpg","86","","","","","","learn","SL",""
"","show_choice","185","210681","0.0-185.0","""event"",""trial"",""time""
""fullscreenenter"",""0"",""17214""
","
","
","""event"",""trial"",""time""
""fullscreenenter"",""0"",""17214""
","
","null","run_exp/static/images/Set 6_rs/168a.jpg","null","","","","","","learn","SL",""
"","html-keyboard-response","186","211183","0.0-186.0","""event"",""trial"",""time""
""fullscreenenter"",""0"",""17214""
","
","
","""event"",""trial"",""time""
""fullscreenenter"",""0"",""17214""
","
","null","<p></p>","null","","","","","","","",""
"","image","187","212161","0.0-187.0","""event"",""trial"",""time""
""fullscreenenter"",""0"",""17214""
","
","
","""event"",""trial"",""time""
""fullscreenenter"",""0"",""17214""
","
","977.1000001430511","run_exp/static/images/Set 6_rs/131a.jpg","86","","","","","","learn","SR",""
"","show_choice","188","213184","0.0-188.0","""event"",""trial"",""time""
""fullscreenenter"",""0"",""17214""
","
","
","""event"",""trial"",""time""
""fullscreenenter"",""0"",""17214""
","
","null","run_exp/static/images/Set 6_rs/131a.jpg","null","","","","","","learn","SR",""
"","html-keyboard-response","189","213685","0.0-189.0","""event"",""trial"",""time""
""fullscreenenter"",""0"",""17214""
","
","
","""event"",""trial"",""time""
""fullscreenenter"",""0"",""17214""
","
","null","<p></p>","null","","","","","","","",""
"","image","190","214969","0.0-190.0","""event"",""trial"",""time""
""fullscreenenter"",""0"",""17214""
","
","
","""event"",""trial"",""time""
""fullscreenenter"",""0"",""17214""
","
","1283.2000000476837","run_exp/static/images/Set 6_rs/167a.jpg","86","","","","","","learn","SL",""
"","show_choice","191","215687","0.0-191.0","""event"",""trial"",""time""
""fullscreenenter"",""0"",""17214""
","
","
","""event"",""trial"",""time""
""fullscreenenter"",""0"",""17214""
","
","null","run_exp/static/images/Set 6_rs/167a.jpg","null","","","","","","learn","SL",""
"","html-keyboard-response","192","216189","0.0-192.0","""event"",""trial"",""time""
""fullscreenenter"",""0"",""17214""
","
","
","""event"",""trial"",""time""
""fullscreenenter"",""0"",""17214""
","
","null","<p></p>","null","","","","","","","",""
"","image","193","217089","0.0-193.0","""event"",""trial"",""time""
""fullscreenenter"",""0"",""17214""
","
","
","""event"",""trial"",""time""
""fullscreenenter"",""0"",""17214""
","
","899.5","run_exp/static/images/Set 6_rs/071a.jpg","78","","","","","","learn","SL",""
"","show_choice","194","218191","0.0-194.0","""event"",""trial"",""time""
""fullscreenenter"",""0"",""17214""
","
","
","""event"",""trial"",""time""
""fullscreenenter"",""0"",""17214""
","
","null","run_exp/static/images/Set 6_rs/071a.jpg","null","","","","","","learn","SL",""
"","html-keyboard-response","195","218692","0.0-195.0","""event"",""trial"",""time""
""fullscreenenter"",""0"",""17214""
","
","
","""event"",""trial"",""time""
""fullscreenenter"",""0"",""17214""
","
","null","<p></p>","null","","","","","","","",""
"","test_intro","196","255527","0.0-196.0","""event"",""trial"",""time""
""fullscreenenter"",""0"",""17214""
","
","
","""event"",""trial"",""time""
""fullscreenenter"",""0"",""17214""
","
","null","run_exp/static/audio/clip_2_memory.m4a","null","","","","","<div class='center'><p>Now, lets see how much you remember about the items you just saw.  For each item, you need to indicate if it was <b>old</b> by pressing the <b>v</b> key, <b>similar</b> by pressing the <b>b</b> key, or <b>new</b> by pressing the <b>n</b> key.</p><p>Old refers to an item that you saw before in the indoor/outdoor game that you just played, new refers to an item you have <b>not</b> seen before within the indoor/outdoor game, and similar refers to an item that is similar to an item youve seen before but is not exactly the same. </p><p>Before we begin, lets go over some brief demonstrations to make sure you understand.</p></div>","","",""
"","html-keyboard-response","197","258210","0.0-197.0","""event"",""trial"",""time""
""fullscreenenter"",""0"",""17214""
","
","
","""event"",""trial"",""time""
""fullscreenenter"",""0"",""17214""
","
","2681.899999856949","<div class='center'><p>Now, lets see how much you remember about the items you just saw.  For each item, you need to indicate if it was <b>old</b> by pressing the <b>v</b> key, <b>similar</b> by pressing the <b>b</b> key, or <b>new</b> by pressing the <b>n</b> key.</p><p>Old refers to an item that you saw before in the indoor/outdoor game that you just played, new refers to an item you have <b>not</b> seen before within the indoor/outdoor game, and similar refers to an item that is similar to an item youve seen before but is not exactly the same. </p><p>Before we begin, lets go over some brief demonstrations to make sure you understand.</p><div><p><b>[Press the space bar to continue]</b></p></div>","32","","","","","","","",""
"","items","198","265711","0.0-198.0","""event"",""trial"",""time""
""fullscreenenter"",""0"",""17214""
","
","
","""event"",""trial"",""time""
""fullscreenenter"",""0"",""17214""
","
","null","run_exp/static/audio/clip_3_items.m4a","null","","","","","","","",""
"","mop","199","270214","0.0-199.0","""event"",""trial"",""time""
""fullscreenenter"",""0"",""17214""
","
","
","""event"",""trial"",""time""
""fullscreenenter"",""0"",""17214""
","
","null","run_exp/static/audio/clip_4_mop.m4a","null","","","","","","","",""
"","baseball","200","273716","0.0-200.0","""event"",""trial"",""time""
""fullscreenenter"",""0"",""17214""
","
","
","""event"",""trial"",""time""
""fullscreenenter"",""0"",""17214""
","
","null","run_exp/static/audio/clip_5_baseball.m4a","null","","","","","","","",""
"","trumpet","201","277217","0.0-201.0","""event"",""trial"",""time""
""fullscreenenter"",""0"",""17214""
","
","
","""event"",""trial"",""time""
""fullscreenenter"",""0"",""17214""
","
","null","run_exp/static/audio/clip_6_trumpet.m4a","null","","","","","","","",""
"","gummies","202","280718","0.0-202.0","""event"",""trial"",""time""
""fullscreenenter"",""0"",""17214""
","
","
","""event"",""trial"",""time""
""fullscreenenter"",""0"",""17214""
","
","null","run_exp/static/audio/clip_7_gummies.m4a","null","","","","","","","",""
"","osn","203","285220","0.0-203.0","""event"",""trial"",""time""
""fullscreenenter"",""0"",""17214""
","
","
","""event"",""trial"",""time""
""fullscreenenter"",""0"",""17214""
","
","null","run_exp/static/audio/clip_8_osn.m4a","null","","","","","","","",""
"","old_1","204","291722","0.0-204.0","""event"",""trial"",""time""
""fullscreenenter"",""0"",""17214""
","
","
","""event"",""trial"",""time""
""fullscreenenter"",""0"",""17214""
","
","null","run_exp/static/audio/clip_9_old_trumpet.m4a","null","","","","","","","",""
"","new_1","205","299224","0.0-205.0","""event"",""trial"",""time""
""fullscreenenter"",""0"",""17214""
","
","
","""event"",""trial"",""time""
""fullscreenenter"",""0"",""17214""
","
","null","run_exp/static/audio/clip_10_new_balloon.m4a","null","","","","","","","",""
"","similar_1a","206","303728","0.0-206.0","""event"",""trial"",""time""
""fullscreenenter"",""0"",""17214""
","
","
","""event"",""trial"",""time""
""fullscreenenter"",""0"",""17214""
","
","null","run_exp/static/audio/clip_11a_similar_mop.m4a","null","","","","","","","",""
"","similar_1b","207","310230","0.0-207.0","""event"",""trial"",""time""
""fullscreenenter"",""0"",""17214""
","
","
","""event"",""trial"",""time""
""fullscreenenter"",""0"",""17214""
","
","null","run_exp/static/audio/clip_11b_similar_mop.m4a","null","","","","","","","",""
"","new_2","208","313735","0.0-208.0","""event"",""trial"",""time""
""fullscreenenter"",""0"",""17214""
","
","
","""event"",""trial"",""time""
""fullscreenenter"",""0"",""17214""
","
","null","run_exp/static/audio/clip_12_new_stoplight.m4a","null","","","","","","","",""
"","old_2","209","317237","0.0-209.0","""event"",""trial"",""time""
""fullscreenenter"",""0"",""17214""
","
","
","""event"",""trial"",""time""
""fullscreenenter"",""0"",""17214""
","
","null","run_exp/static/audio/clip_13_old_baseball.m4a","null","","","","","","","",""
"","similar_2a","210","320739","0.0-210.0","""event"",""trial"",""time""
""fullscreenenter"",""0"",""17214""
","
","
","""event"",""trial"",""time""
""fullscreenenter"",""0"",""17214""
","
","null","run_exp/static/audio/clip_14a_similar_gummies.m4a","null","","","","","","","",""
"","similar_2b","211","328241","0.0-211.0","""event"",""trial"",""time""
""fullscreenenter"",""0"",""17214""
","
","
","""event"",""trial"",""time""
""fullscreenenter"",""0"",""17214""
","
","null","run_exp/static/audio/clip_14b_similar_gummies.m4a","null","","","","","","","",""
"","practice","212","370349","0.0-212.0","""event"",""trial"",""time""
""fullscreenenter"",""0"",""17214""
","
","
","""event"",""trial"",""time""
""fullscreenenter"",""0"",""17214""
","
","null","run_exp/static/audio/clip_15_practice.m4a","null","","","","","<div class='center'><p>Lets practice a little to make sure you understand the difference between new, similar, and old. Lets say you saw these three items in the indoor/outdoor game.</p><p> Try your best to remember these images because youll soon be tested on them in a practice game. In the practice game, youll be shown images and youll have to say if they are old (one of the three images belows), similar (similar to one of the images below but not exactly the same), or new (are not one of the images below nor similar to them).</p><p>Once you press the space bar youll be shown these images again but one at time. Then youll begin the practice game.</p><p><img src='run_exp/static/images/tutorial/test/three_indoor_outdoor.png' height='300'></p></div>","","",""
"","html-keyboard-response","213","372129","0.0-213.0","""event"",""trial"",""time""
""fullscreenenter"",""0"",""17214""
","
","
","""event"",""trial"",""time""
""fullscreenenter"",""0"",""17214""
","
","1779.2999999523163","<div class='center'><p>Lets practice a little to make sure you understand the difference between new, similar, and old. Lets say you saw these three items in the indoor/outdoor game.</p><p> Try your best to remember these images because youll soon be tested on them in a practice game. In the practice game, youll be shown images and youll have to say if they are old (one of the three images belows), similar (similar to one of the images below but not exactly the same), or new (are not one of the images below nor similar to them).</p><p>Once you press the space bar youll be shown these images again but one at time. Then youll begin the practice game.</p><p><img src='run_exp/static/images/tutorial/test/three_indoor_outdoor.png' height='300'></p><div><p><b>[Press the space bar to continue]</b></p></div>","32","","","","","","","",""
"","planet","214","374131","0.0-214.0","""event"",""trial"",""time""
""fullscreenenter"",""0"",""17214""
","
","
","""event"",""trial"",""time""
""fullscreenenter"",""0"",""17214""
","
","null","run_exp/static/images/tutorial/test/008a.jpg","null","","","","","","","",""
"","boot","215","376133","0.0-215.0","""event"",""trial"",""time""
""fullscreenenter"",""0"",""17214""
","
","
","""event"",""trial"",""time""
""fullscreenenter"",""0"",""17214""
","
","null","run_exp/static/images/tutorial/test/011a.jpg","null","","","","","","","",""
"","lemon","216","378135","0.0-216.0","""event"",""trial"",""time""
""fullscreenenter"",""0"",""17214""
","
","
","""event"",""trial"",""time""
""fullscreenenter"",""0"",""17214""
","
","null","run_exp/static/images/tutorial/test/018a.jpg","null","","","","","","","",""
"","practice_q1","217","380346","0.0-217.0","""event"",""trial"",""time""
""fullscreenenter"",""0"",""17214""
","
","
","""event"",""trial"",""time""
""fullscreenenter"",""0"",""17214""
","
","2209.5","run_exp/static/audio/clip_16_practice_question.m4a","78","","","","","","","",""
"","correct","218","382249","0.0-218.0-0.0","""event"",""trial"",""time""
""fullscreenenter"",""0"",""17214""
","
","
","""event"",""trial"",""time""
""fullscreenenter"",""0"",""17214""
","
","null","run_exp/static/audio/clip_17_correct.m4a","null","","","","","<div class='center'><p>That's correct!</p></div>","","",""
"","html-keyboard-response","219","383345","0.0-218.0-1.0","""event"",""trial"",""time""
""fullscreenenter"",""0"",""17214""
","
","
","""event"",""trial"",""time""
""fullscreenenter"",""0"",""17214""
","
","1095.7999999523163","<div class='center'><p>That's correct!</p><div><p><b>[Press the space bar to continue]</b></p></div>","32","","","","","","","",""
"","practice_q2","220","384122","0.0-218.0-2.0","""event"",""trial"",""time""
""fullscreenenter"",""0"",""17214""
","
","
","""event"",""trial"",""time""
""fullscreenenter"",""0"",""17214""
","
","775.5999999046326","run_exp/static/audio/clip_16_practice_question.m4a","86","","","","","","","",""
"","correct","221","386009","0.0-219.0-0.0","""event"",""trial"",""time""
""fullscreenenter"",""0"",""17214""
","
","
","""event"",""trial"",""time""
""fullscreenenter"",""0"",""17214""
","
","null","run_exp/static/audio/clip_17_correct.m4a","null","","","","","<div class='center'><p>That's correct!</p></div>","","",""
"","html-keyboard-response","222","386386","0.0-219.0-1.0","""event"",""trial"",""time""
""fullscreenenter"",""0"",""17214""
","
","
","""event"",""trial"",""time""
""fullscreenenter"",""0"",""17214""
","
","376.09999990463257","<div class='center'><p>That's correct!</p><div><p><b>[Press the space bar to continue]</b></p></div>","32","","","","","","","",""
"","practice_q3","223","387874","0.0-219.0-2.0","""event"",""trial"",""time""
""fullscreenenter"",""0"",""17214""
","
","
","""event"",""trial"",""time""
""fullscreenenter"",""0"",""17214""
","
","1487.4000000953674","run_exp/static/audio/clip_16_practice_question.m4a","66","","","","","","","",""
"","correct","224","389889","0.0-220.0-0.0","""event"",""trial"",""time""
""fullscreenenter"",""0"",""17214""
","
","
","""event"",""trial"",""time""
""fullscreenenter"",""0"",""17214""
","
","null","run_exp/static/audio/clip_17_correct.m4a","null","","","","","<div class='center'><p>That's correct!</p></div>","","",""
"","html-keyboard-response","225","391210","0.0-220.0-1.0","""event"",""trial"",""time""
""fullscreenenter"",""0"",""17214""
","
","
","""event"",""trial"",""time""
""fullscreenenter"",""0"",""17214""
","
","1320.2000000476837","<div class='center'><p>That's correct!</p><div><p><b>[Press the space bar to continue]</b></p></div>","32","","","","","","","",""
"","begin_text","226","409690","0.0-221.0-0.0","""event"",""trial"",""time""
""fullscreenenter"",""0"",""17214""
","
","
","""event"",""trial"",""time""
""fullscreenenter"",""0"",""17214""
","
","null","run_exp/static/audio/clip_22_begin_test.m4a","null","","","","","<div class='center'><p>On to the real game where well test your memory of items from the indoor/outdoor game. For each item, you need to indicate if the item is <b>old</b> by pressing the <b>v</b> key, <b>similar</b> by pressing the <b>b</b> key, or <b>new</b> by pressing the <b>n</b> key. </p></div>","","",""
"","html-keyboard-response","227","411754","0.0-221.0-1.0","""event"",""trial"",""time""
""fullscreenenter"",""0"",""17214""
","
","
","""event"",""trial"",""time""
""fullscreenenter"",""0"",""17214""
","
","2062.2999999523163","<div class='center'><p>On to the real game where well test your memory of items from the indoor/outdoor game. For each item, you need to indicate if the item is <b>old</b> by pressing the <b>v</b> key, <b>similar</b> by pressing the <b>b</b> key, or <b>new</b> by pressing the <b>n</b> key. </p><div><p><b>[Press the space bar to continue]</b></p></div>","32","","","","","","","",""
"","image","228","412794","0.0-222.0-0.0","""event"",""trial"",""time""
""fullscreenenter"",""0"",""17214""
","
","
","""event"",""trial"",""time""
""fullscreenenter"",""0"",""17214""
","
","1039.2999999523163","run_exp/static/images/Set 6_rs/028a.jpg","78","","","","","","test","TF","1"
"","show_choice","229","413296","0.0-222.0-1.0","""event"",""trial"",""time""
""fullscreenenter"",""0"",""17214""
","
","
","""event"",""trial"",""time""
""fullscreenenter"",""0"",""17214""
","
","null","run_exp/static/images/Set 6_rs/028a.jpg","null","","","","","","test","TF",""
"","html-keyboard-response","230","413798","0.0-222.0-2.0","""event"",""trial"",""time""
""fullscreenenter"",""0"",""17214""
","
","
","""event"",""trial"",""time""
""fullscreenenter"",""0"",""17214""
","
","null","<p></p>","null","","","","","","","",""
"","image","231","414834","0.0-223.0-0.0","""event"",""trial"",""time""
""fullscreenenter"",""0"",""17214""
","
","
","""event"",""trial"",""time""
""fullscreenenter"",""0"",""17214""
","
","1035.5","run_exp/static/images/Set 6_rs/047a.jpg","78","","","","","","test","TF","3"
"","show_choice","232","415335","0.0-223.0-1.0","""event"",""trial"",""time""
""fullscreenenter"",""0"",""17214""
","
","
","""event"",""trial"",""time""
""fullscreenenter"",""0"",""17214""
","
","null","run_exp/static/images/Set 6_rs/047a.jpg","null","","","","","","test","TF",""
"","html-keyboard-response","233","415836","0.0-223.0-2.0","""event"",""trial"",""time""
""fullscreenenter"",""0"",""17214""
","
","
","""event"",""trial"",""time""
""fullscreenenter"",""0"",""17214""
","
","null","<p></p>","null","","","","","","","",""
"","image","234","417275","0.0-224.0-0.0","""event"",""trial"",""time""
""fullscreenenter"",""0"",""17214""
","
","
","""event"",""trial"",""time""
""fullscreenenter"",""0"",""17214""
","
","1437.7000000476837","run_exp/static/images/Set 6_rs/149a.jpg","78","","","","","","test","TF","1"
"","show_choice","235","417776","0.0-224.0-1.0","""event"",""trial"",""time""
""fullscreenenter"",""0"",""17214""
","
","
","""event"",""trial"",""time""
""fullscreenenter"",""0"",""17214""
","
","null","run_exp/static/images/Set 6_rs/149a.jpg","null","","","","","","test","TF",""
"","html-keyboard-response","236","418278","0.0-224.0-2.0","""event"",""trial"",""time""
""fullscreenenter"",""0"",""17214""
","
","
","""event"",""trial"",""time""
""fullscreenenter"",""0"",""17214""
","
","null","<p></p>","null","","","","","","","",""
"","image","237","419283","0.0-225.0-0.0","""event"",""trial"",""time""
""fullscreenenter"",""0"",""17214""
","
","
","""event"",""trial"",""time""
""fullscreenenter"",""0"",""17214""
","
","1004.5","run_exp/static/images/Set 6_rs/170a.jpg","78","","","","","","test","TF","2"
"","show_choice","238","419785","0.0-225.0-1.0","""event"",""trial"",""time""
""fullscreenenter"",""0"",""17214""
","
","
","""event"",""trial"",""time""
""fullscreenenter"",""0"",""17214""
","
","null","run_exp/static/images/Set 6_rs/170a.jpg","null","","","","","","test","TF",""
"","html-keyboard-response","239","420287","0.0-225.0-2.0","""event"",""trial"",""time""
""fullscreenenter"",""0"",""17214""
","
","
","""event"",""trial"",""time""
""fullscreenenter"",""0"",""17214""
","
","null","<p></p>","null","","","","","","","",""
"","image","240","421298","0.0-226.0-0.0","""event"",""trial"",""time""
""fullscreenenter"",""0"",""17214""
","
","
","""event"",""trial"",""time""
""fullscreenenter"",""0"",""17214""
","
","1010.5999999046326","run_exp/static/images/Set 6_rs/095b.jpg","66","","","","","","test","TL","5"
"","show_choice","241","421799","0.0-226.0-1.0","""event"",""trial"",""time""
""fullscreenenter"",""0"",""17214""
","
","
","""event"",""trial"",""time""
""fullscreenenter"",""0"",""17214""
","
","null","run_exp/static/images/Set 6_rs/095b.jpg","null","","","","","","test","TL",""
"","html-keyboard-response","242","422300","0.0-226.0-2.0","""event"",""trial"",""time""
""fullscreenenter"",""0"",""17214""
","
","
","""event"",""trial"",""time""
""fullscreenenter"",""0"",""17214""
","
","null","<p></p>","null","","","","","","","",""
"","image","243","423811","0.0-227.0-0.0","""event"",""trial"",""time""
""fullscreenenter"",""0"",""17214""
","
","
","""event"",""trial"",""time""
""fullscreenenter"",""0"",""17214""
","
","1509.5999999046326","run_exp/static/images/Set 6_rs/112a.jpg","86","","","","","","test","TR","5"
"","show_choice","244","424312","0.0-227.0-1.0","""event"",""trial"",""time""
""fullscreenenter"",""0"",""17214""
","
","
","""event"",""trial"",""time""
""fullscreenenter"",""0"",""17214""
","
","null","run_exp/static/images/Set 6_rs/112a.jpg","null","","","","","","test","TR",""
"","html-keyboard-response","245","424813","0.0-227.0-2.0","""event"",""trial"",""time""
""fullscreenenter"",""0"",""17214""
","
","
","""event"",""trial"",""time""
""fullscreenenter"",""0"",""17214""
","
","null","<p></p>","null","","","","","","","",""
"","image","246","425891","0.0-228.0-0.0","""event"",""trial"",""time""
""fullscreenenter"",""0"",""17214""
","
","
","""event"",""trial"",""time""
""fullscreenenter"",""0"",""17214""
","
","1076.7000000476837","run_exp/static/images/Set 6_rs/061a.jpg","86","","","","","","test","TR","5"
"","show_choice","247","426393","0.0-228.0-1.0","""event"",""trial"",""time""
""fullscreenenter"",""0"",""17214""
","
","
","""event"",""trial"",""time""
""fullscreenenter"",""0"",""17214""
","
","null","run_exp/static/images/Set 6_rs/061a.jpg","null","","","","","","test","TR",""
"","html-keyboard-response","248","426894","0.0-228.0-2.0","""event"",""trial"",""time""
""fullscreenenter"",""0"",""17214""
","
","
","""event"",""trial"",""time""
""fullscreenenter"",""0"",""17214""
","
","null","<p></p>","null","","","","","","","",""
"","image","249","427562","0.0-229.0-0.0","""event"",""trial"",""time""
""fullscreenenter"",""0"",""17214""
","
","
","""event"",""trial"",""time""
""fullscreenenter"",""0"",""17214""
","
","666.7999999523163","run_exp/static/images/Set 6_rs/126a.jpg","86","","","","","","test","TR","2"
"","show_choice","250","428063","0.0-229.0-1.0","""event"",""trial"",""time""
""fullscreenenter"",""0"",""17214""
","
","
","""event"",""trial"",""time""
""fullscreenenter"",""0"",""17214""
","
","null","run_exp/static/images/Set 6_rs/126a.jpg","null","","","","","","test","TR",""
"","html-keyboard-response","251","428564","0.0-229.0-2.0","""event"",""trial"",""time""
""fullscreenenter"",""0"",""17214""
","
","
","""event"",""trial"",""time""
""fullscreenenter"",""0"",""17214""
","
","null","<p></p>","null","","","","","","","",""
"","image","252","429506","0.0-230.0-0.0","""event"",""trial"",""time""
""fullscreenenter"",""0"",""17214""
","
","
","""event"",""trial"",""time""
""fullscreenenter"",""0"",""17214""
","
","941.5","run_exp/static/images/Set 6_rs/129b.jpg","66","","","","","","test","TL","1"
"","show_choice","253","430009","0.0-230.0-1.0","""event"",""trial"",""time""
""fullscreenenter"",""0"",""17214""
","
","
","""event"",""trial"",""time""
""fullscreenenter"",""0"",""17214""
","
","null","run_exp/static/images/Set 6_rs/129b.jpg","null","","","","","","test","TL",""
"","html-keyboard-response","254","430510","0.0-230.0-2.0","""event"",""trial"",""time""
""fullscreenenter"",""0"",""17214""
","
","
","""event"",""trial"",""time""
""fullscreenenter"",""0"",""17214""
","
","null","<p></p>","null","","","","","","","",""
"","image","255","431690","0.0-231.0-0.0","""event"",""trial"",""time""
""fullscreenenter"",""0"",""17214""
","
","
","""event"",""trial"",""time""
""fullscreenenter"",""0"",""17214""
","
","1179.2000000476837","run_exp/static/images/Set 6_rs/141a.jpg","86","","","","","","test","TR","2"
"","show_choice","256","432191","0.0-231.0-1.0","""event"",""trial"",""time""
""fullscreenenter"",""0"",""17214""
","
","
","""event"",""trial"",""time""
""fullscreenenter"",""0"",""17214""
","
","null","run_exp/static/images/Set 6_rs/141a.jpg","null","","","","","","test","TR",""
"","html-keyboard-response","257","432693","0.0-231.0-2.0","""event"",""trial"",""time""
""fullscreenenter"",""0"",""17214""
","
","
","""event"",""trial"",""time""
""fullscreenenter"",""0"",""17214""
","
","null","<p></p>","null","","","","","","","",""
"","image","258","434418","0.0-232.0-0.0","""event"",""trial"",""time""
""fullscreenenter"",""0"",""17214""
","
","
","""event"",""trial"",""time""
""fullscreenenter"",""0"",""17214""
","
","1724.6000001430511","run_exp/static/images/Set 6_rs/154a.jpg","86","","","","","","test","TR","3"
"","show_choice","259","434919","0.0-232.0-1.0","""event"",""trial"",""time""
""fullscreenenter"",""0"",""17214""
","
","
","""event"",""trial"",""time""
""fullscreenenter"",""0"",""17214""
","
","null","run_exp/static/images/Set 6_rs/154a.jpg","null","","","","","","test","TR",""
"","html-keyboard-response","260","435420","0.0-232.0-2.0","""event"",""trial"",""time""
""fullscreenenter"",""0"",""17214""
","
","
","""event"",""trial"",""time""
""fullscreenenter"",""0"",""17214""
","
","null","<p></p>","null","","","","","","","",""
"","image","261","436418","0.0-233.0-0.0","""event"",""trial"",""time""
""fullscreenenter"",""0"",""17214""
","
","
","""event"",""trial"",""time""
""fullscreenenter"",""0"",""17214""
","
","996.9000000953674","run_exp/static/images/Set 6_rs/036b.jpg","66","","","","","","test","TL","4"
"","show_choice","262","436919","0.0-233.0-1.0","""event"",""trial"",""time""
""fullscreenenter"",""0"",""17214""
","
","
","""event"",""trial"",""time""
""fullscreenenter"",""0"",""17214""
","
","null","run_exp/static/images/Set 6_rs/036b.jpg","null","","","","","","test","TL",""
"","html-keyboard-response","263","437421","0.0-233.0-2.0","""event"",""trial"",""time""
""fullscreenenter"",""0"",""17214""
","
","
","""event"",""trial"",""time""
""fullscreenenter"",""0"",""17214""
","
","null","<p></p>","null","","","","","","","",""
"","image","264","438514","0.0-234.0-0.0","""event"",""trial"",""time""
""fullscreenenter"",""0"",""17214""
","
","
","""event"",""trial"",""time""
""fullscreenenter"",""0"",""17214""
","
","1091.9000000953674","run_exp/static/images/Set 6_rs/085b.jpg","66","","","","","","test","TL","1"
"","show_choice","265","439015","0.0-234.0-1.0","""event"",""trial"",""time""
""fullscreenenter"",""0"",""17214""
","
","
","""event"",""trial"",""time""
""fullscreenenter"",""0"",""17214""
","
","null","run_exp/static/images/Set 6_rs/085b.jpg","null","","","","","","test","TL",""
"","html-keyboard-response","266","439517","0.0-234.0-2.0","""event"",""trial"",""time""
""fullscreenenter"",""0"",""17214""
","
","
","""event"",""trial"",""time""
""fullscreenenter"",""0"",""17214""
","
","null","<p></p>","null","","","","","","","",""
"","image","267","440523","0.0-235.0-0.0","""event"",""trial"",""time""
""fullscreenenter"",""0"",""17214""
","
","
","""event"",""trial"",""time""
""fullscreenenter"",""0"",""17214""
","
","1004.9000000953674","run_exp/static/images/Set 6_rs/169a.jpg","86","","","","","","test","TR","4"
"","show_choice","268","441025","0.0-235.0-1.0","""event"",""trial"",""time""
""fullscreenenter"",""0"",""17214""
","
","
","""event"",""trial"",""time""
""fullscreenenter"",""0"",""17214""
","
","null","run_exp/static/images/Set 6_rs/169a.jpg","null","","","","","","test","TR",""
"","html-keyboard-response","269","441527","0.0-235.0-2.0","""event"",""trial"",""time""
""fullscreenenter"",""0"",""17214""
","
","
","""event"",""trial"",""time""
""fullscreenenter"",""0"",""17214""
","
","null","<p></p>","null","","","","","","","",""
"","image","270","442570","0.0-236.0-0.0","""event"",""trial"",""time""
""fullscreenenter"",""0"",""17214""
","
","
","""event"",""trial"",""time""
""fullscreenenter"",""0"",""17214""
","
","1042.4000000953674","run_exp/static/images/Set 6_rs/116b.jpg","66","","","","","","test","TL","2"
"","show_choice","271","443072","0.0-236.0-1.0","""event"",""trial"",""time""
""fullscreenenter"",""0"",""17214""
","
","
","""event"",""trial"",""time""
""fullscreenenter"",""0"",""17214""
","
","null","run_exp/static/images/Set 6_rs/116b.jpg","null","","","","","","test","TL",""
"","html-keyboard-response","272","443572","0.0-236.0-2.0","""event"",""trial"",""time""
""fullscreenenter"",""0"",""17214""
","
","
","""event"",""trial"",""time""
""fullscreenenter"",""0"",""17214""
","
","null","<p></p>","null","","","","","","","",""
"","image","273","444675","0.0-237.0-0.0","""event"",""trial"",""time""
""fullscreenenter"",""0"",""17214""
","
","
","""event"",""trial"",""time""
""fullscreenenter"",""0"",""17214""
","
","1101.2000000476837","run_exp/static/images/Set 6_rs/006b.jpg","86","","","","","","test","TL","2"
"","show_choice","274","445175","0.0-237.0-1.0","""event"",""trial"",""time""
""fullscreenenter"",""0"",""17214""
","
","
","""event"",""trial"",""time""
""fullscreenenter"",""0"",""17214""
","
","null","run_exp/static/images/Set 6_rs/006b.jpg","null","","","","","","test","TL",""
"","html-keyboard-response","275","445676","0.0-237.0-2.0","""event"",""trial"",""time""
""fullscreenenter"",""0"",""17214""
","
","
","""event"",""trial"",""time""
""fullscreenenter"",""0"",""17214""
","
","null","<p></p>","null","","","","","","","",""
"","image","276","446754","0.0-238.0-0.0","""event"",""trial"",""time""
""fullscreenenter"",""0"",""17214""
","
","
","""event"",""trial"",""time""
""fullscreenenter"",""0"",""17214""
","
","1077","run_exp/static/images/Set 6_rs/118a.jpg","78","","","","","","test","TF","5"
"","show_choice","277","447255","0.0-238.0-1.0","""event"",""trial"",""time""
""fullscreenenter"",""0"",""17214""
","
","
","""event"",""trial"",""time""
""fullscreenenter"",""0"",""17214""
","
","null","run_exp/static/images/Set 6_rs/118a.jpg","null","","","","","","test","TF",""
"","html-keyboard-response","278","447757","0.0-238.0-2.0","""event"",""trial"",""time""
""fullscreenenter"",""0"",""17214""
","
","
","""event"",""trial"",""time""
""fullscreenenter"",""0"",""17214""
","
","null","<p></p>","null","","","","","","","",""
"","image","279","448594","0.0-239.0-0.0","""event"",""trial"",""time""
""fullscreenenter"",""0"",""17214""
","
","
","""event"",""trial"",""time""
""fullscreenenter"",""0"",""17214""
","
","835.9000000953674","run_exp/static/images/Set 6_rs/052a.jpg","78","","","","","","test","TF","1"
"","show_choice","280","449095","0.0-239.0-1.0","""event"",""trial"",""time""
""fullscreenenter"",""0"",""17214""
","
","
","""event"",""trial"",""time""
""fullscreenenter"",""0"",""17214""
","
","null","run_exp/static/images/Set 6_rs/052a.jpg","null","","","","","","test","TF",""
"","html-keyboard-response","281","449596","0.0-239.0-2.0","""event"",""trial"",""time""
""fullscreenenter"",""0"",""17214""
","
","
","""event"",""trial"",""time""
""fullscreenenter"",""0"",""17214""
","
","null","<p></p>","null","","","","","","","",""
"","image","282","451090","0.0-240.0-0.0","""event"",""trial"",""time""
""fullscreenenter"",""0"",""17214""
","
","
","""event"",""trial"",""time""
""fullscreenenter"",""0"",""17214""
","
","1493.2999999523163","run_exp/static/images/Set 6_rs/171a.jpg","78","","","","","","test","TF","1"
"","show_choice","283","451591","0.0-240.0-1.0","""event"",""trial"",""time""
""fullscreenenter"",""0"",""17214""
","
","
","""event"",""trial"",""time""
""fullscreenenter"",""0"",""17214""
","
","null","run_exp/static/images/Set 6_rs/171a.jpg","null","","","","","","test","TF",""
"","html-keyboard-response","284","452092","0.0-240.0-2.0","""event"",""trial"",""time""
""fullscreenenter"",""0"",""17214""
","
","
","""event"",""trial"",""time""
""fullscreenenter"",""0"",""17214""
","
","null","<p></p>","null","","","","","","","",""
"","image","285","453186","0.0-241.0-0.0","""event"",""trial"",""time""
""fullscreenenter"",""0"",""17214""
","
","
","""event"",""trial"",""time""
""fullscreenenter"",""0"",""17214""
","
","1093","run_exp/static/images/Set 6_rs/056a.jpg","78","","","","","","test","TF","3"
"","show_choice","286","453687","0.0-241.0-1.0","""event"",""trial"",""time""
""fullscreenenter"",""0"",""17214""
","
","
","""event"",""trial"",""time""
""fullscreenenter"",""0"",""17214""
","
","null","run_exp/static/images/Set 6_rs/056a.jpg","null","","","","","","test","TF",""
"","html-keyboard-response","287","454188","0.0-241.0-2.0","""event"",""trial"",""time""
""fullscreenenter"",""0"",""17214""
","
","
","""event"",""trial"",""time""
""fullscreenenter"",""0"",""17214""
","
","null","<p></p>","null","","","","","","","",""
"","image","288","455178","0.0-242.0-0.0","""event"",""trial"",""time""
""fullscreenenter"",""0"",""17214""
","
","
","""event"",""trial"",""time""
""fullscreenenter"",""0"",""17214""
","
","989.7000000476837","run_exp/static/images/Set 6_rs/088a.jpg","86","","","","","","test","TR","2"
"","show_choice","289","455679","0.0-242.0-1.0","""event"",""trial"",""time""
""fullscreenenter"",""0"",""17214""
","
","
","""event"",""trial"",""time""
""fullscreenenter"",""0"",""17214""
","
","null","run_exp/static/images/Set 6_rs/088a.jpg","null","","","","","","test","TR",""
"","html-keyboard-response","290","456181","0.0-242.0-2.0","""event"",""trial"",""time""
""fullscreenenter"",""0"",""17214""
","
","
","""event"",""trial"",""time""
""fullscreenenter"",""0"",""17214""
","
","null","<p></p>","null","","","","","","","",""
"","image","291","457178","0.0-243.0-0.0","""event"",""trial"",""time""
""fullscreenenter"",""0"",""17214""
","
","
","""event"",""trial"",""time""
""fullscreenenter"",""0"",""17214""
","
","996.7999999523163","run_exp/static/images/Set 6_rs/075a.jpg","86","","","","","","test","TR","1"
"","show_choice","292","457680","0.0-243.0-1.0","""event"",""trial"",""time""
""fullscreenenter"",""0"",""17214""
","
","
","""event"",""trial"",""time""
""fullscreenenter"",""0"",""17214""
","
","null","run_exp/static/images/Set 6_rs/075a.jpg","null","","","","","","test","TR",""
"","html-keyboard-response","293","458182","0.0-243.0-2.0","""event"",""trial"",""time""
""fullscreenenter"",""0"",""17214""
","
","
","""event"",""trial"",""time""
""fullscreenenter"",""0"",""17214""
","
","null","<p></p>","null","","","","","","","",""
"","image","294","458914","0.0-244.0-0.0","""event"",""trial"",""time""
""fullscreenenter"",""0"",""17214""
","
","
","""event"",""trial"",""time""
""fullscreenenter"",""0"",""17214""
","
","731.2999999523163","run_exp/static/images/Set 6_rs/122a.jpg","86","","","","","","test","TR","5"
"","show_choice","295","459416","0.0-244.0-1.0","""event"",""trial"",""time""
""fullscreenenter"",""0"",""17214""
","
","
","""event"",""trial"",""time""
""fullscreenenter"",""0"",""17214""
","
","null","run_exp/static/images/Set 6_rs/122a.jpg","null","","","","","","test","TR",""
"","html-keyboard-response","296","459918","0.0-244.0-2.0","""event"",""trial"",""time""
""fullscreenenter"",""0"",""17214""
","
","
","""event"",""trial"",""time""
""fullscreenenter"",""0"",""17214""
","
","null","<p></p>","null","","","","","","","",""
"","image","297","460922","0.0-245.0-0.0","""event"",""trial"",""time""
""fullscreenenter"",""0"",""17214""
","
","
","""event"",""trial"",""time""
""fullscreenenter"",""0"",""17214""
","
","1003","run_exp/static/images/Set 6_rs/089b.jpg","66","","","","","","test","TL","4"
"","show_choice","298","461422","0.0-245.0-1.0","""event"",""trial"",""time""
""fullscreenenter"",""0"",""17214""
","
","
","""event"",""trial"",""time""
""fullscreenenter"",""0"",""17214""
","
","null","run_exp/static/images/Set 6_rs/089b.jpg","null","","","","","","test","TL",""
"","html-keyboard-response","299","461925","0.0-245.0-2.0","""event"",""trial"",""time""
""fullscreenenter"",""0"",""17214""
","
","
","""event"",""trial"",""time""
""fullscreenenter"",""0"",""17214""
","
","null","<p></p>","null","","","","","","","",""
"","image","300","462746","0.0-246.0-0.0","""event"",""trial"",""time""
""fullscreenenter"",""0"",""17214""
","
","
","""event"",""trial"",""time""
""fullscreenenter"",""0"",""17214""
","
","820","run_exp/static/images/Set 6_rs/010a.jpg","86","","","","","","test","TR","5"
"","show_choice","301","463246","0.0-246.0-1.0","""event"",""trial"",""time""
""fullscreenenter"",""0"",""17214""
","
","
","""event"",""trial"",""time""
""fullscreenenter"",""0"",""17214""
","
","null","run_exp/static/images/Set 6_rs/010a.jpg","null","","","","","","test","TR",""
"","html-keyboard-response","302","463747","0.0-246.0-2.0","""event"",""trial"",""time""
""fullscreenenter"",""0"",""17214""
","
","
","""event"",""trial"",""time""
""fullscreenenter"",""0"",""17214""
","
","null","<p></p>","null","","","","","","","",""
"","image","303","464770","0.0-247.0-0.0","""event"",""trial"",""time""
""fullscreenenter"",""0"",""17214""
","
","
","""event"",""trial"",""time""
""fullscreenenter"",""0"",""17214""
","
","1021.6999998092651","run_exp/static/images/Set 6_rs/123b.jpg","66","","","","","","test","TL","2"
"","show_choice","304","465271","0.0-247.0-1.0","""event"",""trial"",""time""
""fullscreenenter"",""0"",""17214""
","
","
","""event"",""trial"",""time""
""fullscreenenter"",""0"",""17214""
","
","null","run_exp/static/images/Set 6_rs/123b.jpg","null","","","","","","test","TL",""
"","html-keyboard-response","305","465772","0.0-247.0-2.0","""event"",""trial"",""time""
""fullscreenenter"",""0"",""17214""
","
","
","""event"",""trial"",""time""
""fullscreenenter"",""0"",""17214""
","
","null","<p></p>","null","","","","","","","",""
"","image","306","466786","0.0-248.0-0.0","""event"",""trial"",""time""
""fullscreenenter"",""0"",""17214""
","
","
","""event"",""trial"",""time""
""fullscreenenter"",""0"",""17214""
","
","1012.8999998569489","run_exp/static/images/Set 6_rs/177a.jpg","86","","","","","","test","TR","5"
"","show_choice","307","467287","0.0-248.0-1.0","""event"",""trial"",""time""
""fullscreenenter"",""0"",""17214""
","
","
","""event"",""trial"",""time""
""fullscreenenter"",""0"",""17214""
","
","null","run_exp/static/images/Set 6_rs/177a.jpg","null","","","","","","test","TR",""
"","html-keyboard-response","308","467788","0.0-248.0-2.0","""event"",""trial"",""time""
""fullscreenenter"",""0"",""17214""
","
","
","""event"",""trial"",""time""
""fullscreenenter"",""0"",""17214""
","
","null","<p></p>","null","","","","","","","",""
"","image","309","468842","0.0-249.0-0.0","""event"",""trial"",""time""
""fullscreenenter"",""0"",""17214""
","
","
","""event"",""trial"",""time""
""fullscreenenter"",""0"",""17214""
","
","1053.2999999523163","run_exp/static/images/Set 6_rs/140a.jpg","78","","","","","","test","TF","1"
"","show_choice","310","469344","0.0-249.0-1.0","""event"",""trial"",""time""
""fullscreenenter"",""0"",""17214""
","
","
","""event"",""trial"",""time""
""fullscreenenter"",""0"",""17214""
","
","null","run_exp/static/images/Set 6_rs/140a.jpg","null","","","","","","test","TF",""
"","html-keyboard-response","311","469845","0.0-249.0-2.0","""event"",""trial"",""time""
""fullscreenenter"",""0"",""17214""
","
","
","""event"",""trial"",""time""
""fullscreenenter"",""0"",""17214""
","
","null","<p></p>","null","","","","","","","",""
"","image","312","470938","0.0-250.0-0.0","""event"",""trial"",""time""
""fullscreenenter"",""0"",""17214""
","
","
","""event"",""trial"",""time""
""fullscreenenter"",""0"",""17214""
","
","1092.8000001907349","run_exp/static/images/Set 6_rs/050b.jpg","66","","","","","","test","TL","3"
"","show_choice","313","471439","0.0-250.0-1.0","""event"",""trial"",""time""
""fullscreenenter"",""0"",""17214""
","
","
","""event"",""trial"",""time""
""fullscreenenter"",""0"",""17214""
","
","null","run_exp/static/images/Set 6_rs/050b.jpg","null","","","","","","test","TL",""
"","html-keyboard-response","314","471941","0.0-250.0-2.0","""event"",""trial"",""time""
""fullscreenenter"",""0"",""17214""
","
","
","""event"",""trial"",""time""
""fullscreenenter"",""0"",""17214""
","
","null","<p></p>","null","","","","","","","",""
"","image","315","472802","0.0-251.0-0.0","""event"",""trial"",""time""
""fullscreenenter"",""0"",""17214""
","
","
","""event"",""trial"",""time""
""fullscreenenter"",""0"",""17214""
","
","860","run_exp/static/images/Set 6_rs/062b.jpg","86","","","","","","test","TL","1"
"","show_choice","316","473303","0.0-251.0-1.0","""event"",""trial"",""time""
""fullscreenenter"",""0"",""17214""
","
","
","""event"",""trial"",""time""
""fullscreenenter"",""0"",""17214""
","
","null","run_exp/static/images/Set 6_rs/062b.jpg","null","","","","","","test","TL",""
"","html-keyboard-response","317","473805","0.0-251.0-2.0","""event"",""trial"",""time""
""fullscreenenter"",""0"",""17214""
","
","
","""event"",""trial"",""time""
""fullscreenenter"",""0"",""17214""
","
","null","<p></p>","null","","","","","","","",""
"","image","318","474930","0.0-252.0-0.0","""event"",""trial"",""time""
""fullscreenenter"",""0"",""17214""
","
","
","""event"",""trial"",""time""
""fullscreenenter"",""0"",""17214""
","
","1124.5","run_exp/static/images/Set 6_rs/167b.jpg","66","","","","","","test","TL","2"
"","show_choice","319","475432","0.0-252.0-1.0","""event"",""trial"",""time""
""fullscreenenter"",""0"",""17214""
","
","
","""event"",""trial"",""time""
""fullscreenenter"",""0"",""17214""
","
","null","run_exp/static/images/Set 6_rs/167b.jpg","null","","","","","","test","TL",""
"","html-keyboard-response","320","475933","0.0-252.0-2.0","""event"",""trial"",""time""
""fullscreenenter"",""0"",""17214""
","
","
","""event"",""trial"",""time""
""fullscreenenter"",""0"",""17214""
","
","null","<p></p>","null","","","","","","","",""
"","image","321","476779","0.0-253.0-0.0","""event"",""trial"",""time""
""fullscreenenter"",""0"",""17214""
","
","
","""event"",""trial"",""time""
""fullscreenenter"",""0"",""17214""
","
","845.0999999046326","run_exp/static/images/Set 6_rs/035a.jpg","78","","","","","","test","TF","4"
"","show_choice","322","477280","0.0-253.0-1.0","""event"",""trial"",""time""
""fullscreenenter"",""0"",""17214""
","
","
","""event"",""trial"",""time""
""fullscreenenter"",""0"",""17214""
","
","null","run_exp/static/images/Set 6_rs/035a.jpg","null","","","","","","test","TF",""
"","html-keyboard-response","323","477782","0.0-253.0-2.0","""event"",""trial"",""time""
""fullscreenenter"",""0"",""17214""
","
","
","""event"",""trial"",""time""
""fullscreenenter"",""0"",""17214""
","
","null","<p></p>","null","","","","","","","",""
"","image","324","479410","0.0-254.0-0.0","""event"",""trial"",""time""
""fullscreenenter"",""0"",""17214""
","
","
","""event"",""trial"",""time""
""fullscreenenter"",""0"",""17214""
","
","1627.5999999046326","run_exp/static/images/Set 6_rs/136a.jpg","86","","","","","","test","TF","4"
"","show_choice","325","479911","0.0-254.0-1.0","""event"",""trial"",""time""
""fullscreenenter"",""0"",""17214""
","
","
","""event"",""trial"",""time""
""fullscreenenter"",""0"",""17214""
","
","null","run_exp/static/images/Set 6_rs/136a.jpg","null","","","","","","test","TF",""
"","html-keyboard-response","326","480412","0.0-254.0-2.0","""event"",""trial"",""time""
""fullscreenenter"",""0"",""17214""
","
","
","""event"",""trial"",""time""
""fullscreenenter"",""0"",""17214""
","
","null","<p></p>","null","","","","","","","",""
"","image","327","481562","0.0-255.0-0.0","""event"",""trial"",""time""
""fullscreenenter"",""0"",""17214""
","
","
","""event"",""trial"",""time""
""fullscreenenter"",""0"",""17214""
","
","1148.7000000476837","run_exp/static/images/Set 6_rs/078a.jpg","78","","","","","","test","TF","1"
"","show_choice","328","482063","0.0-255.0-1.0","""event"",""trial"",""time""
""fullscreenenter"",""0"",""17214""
","
","
","""event"",""trial"",""time""
""fullscreenenter"",""0"",""17214""
","
","null","run_exp/static/images/Set 6_rs/078a.jpg","null","","","","","","test","TF",""
"","html-keyboard-response","329","482564","0.0-255.0-2.0","""event"",""trial"",""time""
""fullscreenenter"",""0"",""17214""
","
","
","""event"",""trial"",""time""
""fullscreenenter"",""0"",""17214""
","
","null","<p></p>","null","","","","","","","",""
"","image","330","483906","0.0-256.0-0.0","""event"",""trial"",""time""
""fullscreenenter"",""0"",""17214""
","
","
","""event"",""trial"",""time""
""fullscreenenter"",""0"",""17214""
","
","1341.2999999523163","run_exp/static/images/Set 6_rs/100a.jpg","78","","","","","","test","TF","2"
"","show_choice","331","484408","0.0-256.0-1.0","""event"",""trial"",""time""
""fullscreenenter"",""0"",""17214""
","
","
","""event"",""trial"",""time""
""fullscreenenter"",""0"",""17214""
","
","null","run_exp/static/images/Set 6_rs/100a.jpg","null","","","","","","test","TF",""
"","html-keyboard-response","332","484909","0.0-256.0-2.0","""event"",""trial"",""time""
""fullscreenenter"",""0"",""17214""
","
","
","""event"",""trial"",""time""
""fullscreenenter"",""0"",""17214""
","
","null","<p></p>","null","","","","","","","",""
"","image","333","485722","0.0-257.0-0.0","""event"",""trial"",""time""
""fullscreenenter"",""0"",""17214""
","
","
","""event"",""trial"",""time""
""fullscreenenter"",""0"",""17214""
","
","811.2999999523163","run_exp/static/images/Set 6_rs/152a.jpg","86","","","","","","test","TR","2"
"","show_choice","334","486223","0.0-257.0-1.0","""event"",""trial"",""time""
""fullscreenenter"",""0"",""17214""
","
","
","""event"",""trial"",""time""
""fullscreenenter"",""0"",""17214""
","
","null","run_exp/static/images/Set 6_rs/152a.jpg","null","","","","","","test","TR",""
"","html-keyboard-response","335","486724","0.0-257.0-2.0","""event"",""trial"",""time""
""fullscreenenter"",""0"",""17214""
","
","
","""event"",""trial"",""time""
""fullscreenenter"",""0"",""17214""
","
","null","<p></p>","null","","","","","","","",""
"","image","336","487802","0.0-258.0-0.0","""event"",""trial"",""time""
""fullscreenenter"",""0"",""17214""
","
","
","""event"",""trial"",""time""
""fullscreenenter"",""0"",""17214""
","
","1076.8999998569489","run_exp/static/images/Set 6_rs/117b.jpg","66","","","","","","test","TL","5"
"","show_choice","337","488303","0.0-258.0-1.0","""event"",""trial"",""time""
""fullscreenenter"",""0"",""17214""
","
","
","""event"",""trial"",""time""
""fullscreenenter"",""0"",""17214""
","
","null","run_exp/static/images/Set 6_rs/117b.jpg","null","","","","","","test","TL",""
"","html-keyboard-response","338","488804","0.0-258.0-2.0","""event"",""trial"",""time""
""fullscreenenter"",""0"",""17214""
","
","
","""event"",""trial"",""time""
""fullscreenenter"",""0"",""17214""
","
