"success","trial_type","trial_index","time_elapsed","internal_node_id","interactions","blur_events","focus_events","fullscreenenter_events","fullscreenexit_events","rt","stimulus","key_press","subject_id","participant_id","age","gender","prompt","phase","condition","lure_bin"
"true","fullscreen","0","13807","0.0-0.0","""event"",""trial"",""time""
""fullscreenenter"",""0"",""12827""
","
","
","""event"",""trial"",""time""
""fullscreenenter"",""0"",""12827""
","
","","","","","","","","","","",""
"","pavlovia","1","13814","0.0-1.0","""event"",""trial"",""time""
""fullscreenenter"",""0"",""12827""
","
","
","""event"",""trial"",""time""
""fullscreenenter"",""0"",""12827""
","
","","","","","","","","","","",""
"","welcome","2","56976","0.0-2.0","""event"",""trial"",""time""
""fullscreenenter"",""0"",""12827""
","
","
","""event"",""trial"",""time""
""fullscreenenter"",""0"",""12827""
","
","null","run_exp/static/audio/clip_1_welcome.m4a","null","487","894","21","Female","<div class='center'><p>Welcome to the third part of the study! First, you'll be shown pictures of items one at a time. For each picture, you have to decide if the item is typically found indoors or outdoors.</p><p>If you think it's usually found indoors, then press <b>v</b> key on your keyboard. If you think it's usually found outdoors, then press the <b>n</b> key.There will be reminders on the screen to help you remember which keys to press. </p><p>If you're not sure whether the item is an indoor item or an outdoor item, go ahead and take a guess but try your best not to skip that choice. </p></div>","","",""
"","html-keyboard-response","3","212250","0.0-3.0","""event"",""trial"",""time""
""fullscreenenter"",""0"",""12827""
","
","
","""event"",""trial"",""time""
""fullscreenenter"",""0"",""12827""
","
","155275.6000000015","<div class='center'><p>Welcome to the third part of the study! First, you'll be shown pictures of items one at a time. For each picture, you have to decide if the item is typically found indoors or outdoors.</p><p>If you think it's usually found indoors, then press <b>v</b> key on your keyboard. If you think it's usually found outdoors, then press the <b>n</b> key.There will be reminders on the screen to help you remember which keys to press. </p><p>If you're not sure whether the item is an indoor item or an outdoor item, go ahead and take a guess but try your best not to skip that choice. </p><div><p><b>[Press the space bar to continue]</b></p></div>","32","","","","","","","",""
"","image","4","214254","0.0-4.0","""event"",""trial"",""time""
""fullscreenenter"",""0"",""12827""
","
","
","""event"",""trial"",""time""
""fullscreenenter"",""0"",""12827""
","
","null","run_exp/static/images/Set 6_rs/177a.jpg","null","","","","","","learn","SR",""
"","show_choice","5","216258","0.0-5.0","""event"",""trial"",""time""
""fullscreenenter"",""0"",""12827""
","
","
","""event"",""trial"",""time""
""fullscreenenter"",""0"",""12827""
","
","null","run_exp/static/images/blank.png","null","","","","","","learn","SR",""
"","html-keyboard-response","6","216765","0.0-6.0","""event"",""trial"",""time""
""fullscreenenter"",""0"",""12827""
","
","
","""event"",""trial"",""time""
""fullscreenenter"",""0"",""12827""
","
","null","<p></p>","null","","","","","","","",""
"","image","7","217321","0.0-7.0","""event"",""trial"",""time""
""fullscreenenter"",""0"",""12827""
","
","
","""event"",""trial"",""time""
""fullscreenenter"",""0"",""12827""
","
","552.5","run_exp/static/images/Set 6_rs/019a.jpg","86","","","","","","learn","SL",""
"","show_choice","8","218773","0.0-8.0","""event"",""trial"",""time""
""fullscreenenter"",""0"",""12827""
","
","
","""event"",""trial"",""time""
""fullscreenenter"",""0"",""12827""
","
","null","run_exp/static/images/Set 6_rs/019a.jpg","null","","","","","","learn","SL",""
"","html-keyboard-response","9","219275","0.0-9.0","""event"",""trial"",""time""
""fullscreenenter"",""0"",""12827""
","
","
","""event"",""trial"",""time""
""fullscreenenter"",""0"",""12827""
","
","null","<p></p>","null","","","","","","","",""
"","image","10","219987","0.0-10.0","""event"",""trial"",""time""
""fullscreenenter"",""0"",""12827""
","
","
","""event"",""trial"",""time""
""fullscreenenter"",""0"",""12827""
","
","709.8999999985099","run_exp/static/images/Set 6_rs/152a.jpg","86","","","","","","learn","SR",""
"","show_choice","11","221283","0.0-11.0","""event"",""trial"",""time""
""fullscreenenter"",""0"",""12827""
","
","
","""event"",""trial"",""time""
""fullscreenenter"",""0"",""12827""
","
","null","run_exp/static/images/Set 6_rs/152a.jpg","null","","","","","","learn","SR",""
"","html-keyboard-response","12","221789","0.0-12.0","""event"",""trial"",""time""
""fullscreenenter"",""0"",""12827""
","
","
","""event"",""trial"",""time""
""fullscreenenter"",""0"",""12827""
","
","null","<p></p>","null","","","","","","","",""
"","image","13","222578","0.0-13.0","""event"",""trial"",""time""
""fullscreenenter"",""0"",""12827""
","
","
","""event"",""trial"",""time""
""fullscreenenter"",""0"",""12827""
","
","786","run_exp/static/images/Set 6_rs/141a.jpg","86","","","","","","learn","SR",""
"","show_choice","14","223797","0.0-14.0","""event"",""trial"",""time""
""fullscreenenter"",""0"",""12827""
","
","
","""event"",""trial"",""time""
""fullscreenenter"",""0"",""12827""
","
","null","run_exp/static/images/Set 6_rs/141a.jpg","null","","","","","","learn","SR",""
"","html-keyboard-response","15","224303","0.0-15.0","""event"",""trial"",""time""
""fullscreenenter"",""0"",""12827""
","
","
","""event"",""trial"",""time""
""fullscreenenter"",""0"",""12827""
","
","null","<p></p>","null","","","","","","","",""
"","image","16","225499","0.0-16.0","""event"",""trial"",""time""
""fullscreenenter"",""0"",""12827""
","
","
","""event"",""trial"",""time""
""fullscreenenter"",""0"",""12827""
","
","1193.5","run_exp/static/images/Set 6_rs/076a.jpg","78","","","","","","learn","SR",""
"","show_choice","17","226310","0.0-17.0","""event"",""trial"",""time""
""fullscreenenter"",""0"",""12827""
","
","
","""event"",""trial"",""time""
""fullscreenenter"",""0"",""12827""
","
","null","run_exp/static/images/Set 6_rs/076a.jpg","null","","","","","","learn","SR",""
"","html-keyboard-response","18","226817","0.0-18.0","""event"",""trial"",""time""
""fullscreenenter"",""0"",""12827""
","
","
","""event"",""trial"",""time""
""fullscreenenter"",""0"",""12827""
","
","null","<p></p>","null","","","","","","","",""
"","image","19","227501","0.0-19.0","""event"",""trial"",""time""
""fullscreenenter"",""0"",""12827""
","
","
","""event"",""trial"",""time""
""fullscreenenter"",""0"",""12827""
","
","682","run_exp/static/images/Set 6_rs/024a.jpg","86","","","","","","learn","SR",""
"","show_choice","20","228824","0.0-20.0","""event"",""trial"",""time""
""fullscreenenter"",""0"",""12827""
","
","
","""event"",""trial"",""time""
""fullscreenenter"",""0"",""12827""
","
","null","run_exp/static/images/Set 6_rs/024a.jpg","null","","","","","","learn","SR",""
"","html-keyboard-response","21","229330","0.0-21.0","""event"",""trial"",""time""
""fullscreenenter"",""0"",""12827""
","
","
","""event"",""trial"",""time""
""fullscreenenter"",""0"",""12827""
","
","null","<p></p>","null","","","","","","","",""
"","image","22","230118","0.0-22.0","""event"",""trial"",""time""
""fullscreenenter"",""0"",""12827""
","
","
","""event"",""trial"",""time""
""fullscreenenter"",""0"",""12827""
","
","785.7000000029802","run_exp/static/images/Set 6_rs/091a.jpg","86","","","","","","learn","SL",""
"","show_choice","23","231337","0.0-23.0","""event"",""trial"",""time""
""fullscreenenter"",""0"",""12827""
","
","
","""event"",""trial"",""time""
""fullscreenenter"",""0"",""12827""
","
","null","run_exp/static/images/Set 6_rs/091a.jpg","null","","","","","","learn","SL",""
"","html-keyboard-response","24","231844","0.0-24.0","""event"",""trial"",""time""
""fullscreenenter"",""0"",""12827""
","
","
","""event"",""trial"",""time""
""fullscreenenter"",""0"",""12827""
","
","null","<p></p>","null","","","","","","","",""
"","image","25","232612","0.0-25.0","""event"",""trial"",""time""
""fullscreenenter"",""0"",""12827""
","
","
","""event"",""trial"",""time""
""fullscreenenter"",""0"",""12827""
","
","765.8000000007451","run_exp/static/images/Set 6_rs/010a.jpg","86","","","","","","learn","SR",""
"","show_choice","26","233851","0.0-26.0","""event"",""trial"",""time""
""fullscreenenter"",""0"",""12827""
","
","
","""event"",""trial"",""time""
""fullscreenenter"",""0"",""12827""
","
","null","run_exp/static/images/Set 6_rs/010a.jpg","null","","","","","","learn","SR",""
"","html-keyboard-response","27","234358","0.0-27.0","""event"",""trial"",""time""
""fullscreenenter"",""0"",""12827""
","
","
","""event"",""trial"",""time""
""fullscreenenter"",""0"",""12827""
","
","null","<p></p>","null","","","","","","","",""
"","image","28","235118","0.0-28.0","""event"",""trial"",""time""
""fullscreenenter"",""0"",""12827""
","
","
","""event"",""trial"",""time""
""fullscreenenter"",""0"",""12827""
","
","758.5999999977648","run_exp/static/images/Set 6_rs/117a.jpg","86","","","","","","learn","SL",""
"","show_choice","29","236362","0.0-29.0","""event"",""trial"",""time""
""fullscreenenter"",""0"",""12827""
","
","
","""event"",""trial"",""time""
""fullscreenenter"",""0"",""12827""
","
","null","run_exp/static/images/Set 6_rs/117a.jpg","null","","","","","","learn","SL",""
"","html-keyboard-response","30","236864","0.0-30.0","""event"",""trial"",""time""
""fullscreenenter"",""0"",""12827""
","
","
","""event"",""trial"",""time""
""fullscreenenter"",""0"",""12827""
","
","null","<p></p>","null","","","","","","","",""
"","image","31","238179","0.0-31.0","""event"",""trial"",""time""
""fullscreenenter"",""0"",""12827""
","
","
","""event"",""trial"",""time""
""fullscreenenter"",""0"",""12827""
","
","1312.699999999255","run_exp/static/images/Set 6_rs/073a.jpg","86","","","","","","learn","SL",""
"","show_choice","32","238871","0.0-32.0","""event"",""trial"",""time""
""fullscreenenter"",""0"",""12827""
","
","
","""event"",""trial"",""time""
""fullscreenenter"",""0"",""12827""
","
","null","run_exp/static/images/Set 6_rs/073a.jpg","null","","","","","","learn","SL",""
"","html-keyboard-response","33","239373","0.0-33.0","""event"",""trial"",""time""
""fullscreenenter"",""0"",""12827""
","
","
","""event"",""trial"",""time""
""fullscreenenter"",""0"",""12827""
","
","null","<p></p>","null","","","","","","","",""
"","image","34","240394","0.0-34.0","""event"",""trial"",""time""
""fullscreenenter"",""0"",""12827""
","
","
","""event"",""trial"",""time""
""fullscreenenter"",""0"",""12827""
","
","1019.1999999992549","run_exp/static/images/Set 6_rs/071a.jpg","78","","","","","","learn","SL",""
"","show_choice","35","241381","0.0-35.0","""event"",""trial"",""time""
""fullscreenenter"",""0"",""12827""
","
","
","""event"",""trial"",""time""
""fullscreenenter"",""0"",""12827""
","
","null","run_exp/static/images/Set 6_rs/071a.jpg","null","","","","","","learn","SL",""
"","html-keyboard-response","36","241887","0.0-36.0","""event"",""trial"",""time""
""fullscreenenter"",""0"",""12827""
","
","
","""event"",""trial"",""time""
""fullscreenenter"",""0"",""12827""
","
","null","<p></p>","null","","","","","","","",""
"","image","37","243046","0.0-37.0","""event"",""trial"",""time""
""fullscreenenter"",""0"",""12827""
","
","
","""event"",""trial"",""time""
""fullscreenenter"",""0"",""12827""
","
","1157.5","run_exp/static/images/Set 6_rs/138a.jpg","78","","","","","","learn","SL",""
"","show_choice","38","243892","0.0-38.0","""event"",""trial"",""time""
""fullscreenenter"",""0"",""12827""
","
","
","""event"",""trial"",""time""
""fullscreenenter"",""0"",""12827""
","
","null","run_exp/static/images/Set 6_rs/138a.jpg","null","","","","","","learn","SL",""
"","html-keyboard-response","39","244397","0.0-39.0","""event"",""trial"",""time""
""fullscreenenter"",""0"",""12827""
","
","
","""event"",""trial"",""time""
""fullscreenenter"",""0"",""12827""
","
","null","<p></p>","null","","","","","","","",""
"","image","40","245268","0.0-40.0","""event"",""trial"",""time""
""fullscreenenter"",""0"",""12827""
","
","
","""event"",""trial"",""time""
""fullscreenenter"",""0"",""12827""
","
","869.7000000029802","run_exp/static/images/Set 6_rs/045a.jpg","86","","","","","","learn","SR",""
"","show_choice","41","246403","0.0-41.0","""event"",""trial"",""time""
""fullscreenenter"",""0"",""12827""
","
","
","""event"",""trial"",""time""
""fullscreenenter"",""0"",""12827""
","
","null","run_exp/static/images/Set 6_rs/045a.jpg","null","","","","","","learn","SR",""
"","html-keyboard-response","42","246910","0.0-42.0","""event"",""trial"",""time""
""fullscreenenter"",""0"",""12827""
","
","
","""event"",""trial"",""time""
""fullscreenenter"",""0"",""12827""
","
","null","<p></p>","null","","","","","","","",""
"","image","43","247586","0.0-43.0","""event"",""trial"",""time""
""fullscreenenter"",""0"",""12827""
","
","
","""event"",""trial"",""time""
""fullscreenenter"",""0"",""12827""
","
","673.5","run_exp/static/images/Set 6_rs/178a.jpg","86","","","","","","learn","SR",""
"","show_choice","44","248917","0.0-44.0","""event"",""trial"",""time""
""fullscreenenter"",""0"",""12827""
","
","
","""event"",""trial"",""time""
""fullscreenenter"",""0"",""12827""
","
","null","run_exp/static/images/Set 6_rs/178a.jpg","null","","","","","","learn","SR",""
"","html-keyboard-response","45","249421","0.0-45.0","""event"",""trial"",""time""
""fullscreenenter"",""0"",""12827""
","
","
","""event"",""trial"",""time""
""fullscreenenter"",""0"",""12827""
","
","null","<p></p>","null","","","","","","","",""
"","image","46","250360","0.0-46.0","""event"",""trial"",""time""
""fullscreenenter"",""0"",""12827""
","
","
","""event"",""trial"",""time""
""fullscreenenter"",""0"",""12827""
","
","937","run_exp/static/images/Set 6_rs/169a.jpg","78","","","","","","learn","SR",""
"","show_choice","47","251425","0.0-47.0","""event"",""trial"",""time""
""fullscreenenter"",""0"",""12827""
","
","
","""event"",""trial"",""time""
""fullscreenenter"",""0"",""12827""
","
","null","run_exp/static/images/Set 6_rs/169a.jpg","null","","","","","","learn","SR",""
"","html-keyboard-response","48","251926","0.0-48.0","""event"",""trial"",""time""
""fullscreenenter"",""0"",""12827""
","
","
","""event"",""trial"",""time""
""fullscreenenter"",""0"",""12827""
","
","null","<p></p>","null","","","","","","","",""
"","image","49","252685","0.0-49.0","""event"",""trial"",""time""
""fullscreenenter"",""0"",""12827""
","
","
","""event"",""trial"",""time""
""fullscreenenter"",""0"",""12827""
","
","756.6000000014901","run_exp/static/images/Set 6_rs/079a.jpg","86","","","","","","learn","SL",""
"","show_choice","50","253933","0.0-50.0","""event"",""trial"",""time""
""fullscreenenter"",""0"",""12827""
","
","
","""event"",""trial"",""time""
""fullscreenenter"",""0"",""12827""
","
","null","run_exp/static/images/Set 6_rs/079a.jpg","null","","","","","","learn","SL",""
"","html-keyboard-response","51","254439","0.0-51.0","""event"",""trial"",""time""
""fullscreenenter"",""0"",""12827""
","
","
","""event"",""trial"",""time""
""fullscreenenter"",""0"",""12827""
","
","null","<p></p>","null","","","","","","","",""
"","image","52","255559","0.0-52.0","""event"",""trial"",""time""
""fullscreenenter"",""0"",""12827""
","
","
","""event"",""trial"",""time""
""fullscreenenter"",""0"",""12827""
","
","1117.8999999985099","run_exp/static/images/Set 6_rs/168a.jpg","78","","","","","","learn","SL",""
"","show_choice","53","256443","0.0-53.0","""event"",""trial"",""time""
""fullscreenenter"",""0"",""12827""
","
","
","""event"",""trial"",""time""
""fullscreenenter"",""0"",""12827""
","
","null","run_exp/static/images/Set 6_rs/168a.jpg","null","","","","","","learn","SL",""
"","html-keyboard-response","54","256947","0.0-54.0","""event"",""trial"",""time""
""fullscreenenter"",""0"",""12827""
","
","
","""event"",""trial"",""time""
""fullscreenenter"",""0"",""12827""
","
","null","<p></p>","null","","","","","","","",""
"","image","55","258510","0.0-55.0","""event"",""trial"",""time""
""fullscreenenter"",""0"",""12827""
","
","
","""event"",""trial"",""time""
""fullscreenenter"",""0"",""12827""
","
","1561.5","run_exp/static/images/Set 6_rs/126a.jpg","78","","","","","","learn","SR",""
"","show_choice","56","258952","0.0-56.0","""event"",""trial"",""time""
""fullscreenenter"",""0"",""12827""
","
","
","""event"",""trial"",""time""
""fullscreenenter"",""0"",""12827""
","
","null","run_exp/static/images/Set 6_rs/126a.jpg","null","","","","","","learn","SR",""
"","html-keyboard-response","57","259456","0.0-57.0","""event"",""trial"",""time""
""fullscreenenter"",""0"",""12827""
","
","
","""event"",""trial"",""time""
""fullscreenenter"",""0"",""12827""
","
","null","<p></p>","null","","","","","","","",""
"","image","58","260529","0.0-58.0","""event"",""trial"",""time""
""fullscreenenter"",""0"",""12827""
","
","
","""event"",""trial"",""time""
""fullscreenenter"",""0"",""12827""
","
","1070.6000000014901","run_exp/static/images/Set 6_rs/014a.jpg","86","","","","","","learn","SL",""
"","show_choice","59","261461","0.0-59.0","""event"",""trial"",""time""
""fullscreenenter"",""0"",""12827""
","
","
","""event"",""trial"",""time""
""fullscreenenter"",""0"",""12827""
","
","null","run_exp/static/images/Set 6_rs/014a.jpg","null","","","","","","learn","SL",""
"","html-keyboard-response","60","261964","0.0-60.0","""event"",""trial"",""time""
""fullscreenenter"",""0"",""12827""
","
","
","""event"",""trial"",""time""
""fullscreenenter"",""0"",""12827""
","
","null","<p></p>","null","","","","","","","",""
"","image","61","263472","0.0-61.0","""event"",""trial"",""time""
""fullscreenenter"",""0"",""12827""
","
","
","""event"",""trial"",""time""
""fullscreenenter"",""0"",""12827""
","
","1505.300000000745","run_exp/static/images/Set 6_rs/167a.jpg","86","","","","","","learn","SL",""
"","show_choice","62","263972","0.0-62.0","""event"",""trial"",""time""
""fullscreenenter"",""0"",""12827""
","
","
","""event"",""trial"",""time""
""fullscreenenter"",""0"",""12827""
","
","null","run_exp/static/images/Set 6_rs/167a.jpg","null","","","","","","learn","SL",""
"","html-keyboard-response","63","264477","0.0-63.0","""event"",""trial"",""time""
""fullscreenenter"",""0"",""12827""
","
","
","""event"",""trial"",""time""
""fullscreenenter"",""0"",""12827""
","
","null","<p></p>","null","","","","","","","",""
"","image","64","265472","0.0-64.0","""event"",""trial"",""time""
""fullscreenenter"",""0"",""12827""
","
","
","""event"",""trial"",""time""
""fullscreenenter"",""0"",""12827""
","
","993.5999999977648","run_exp/static/images/Set 6_rs/023a.jpg","86","","","","","","learn","SR",""
"","show_choice","65","266484","0.0-65.0","""event"",""trial"",""time""
""fullscreenenter"",""0"",""12827""
","
","
","""event"",""trial"",""time""
""fullscreenenter"",""0"",""12827""
","
","null","run_exp/static/images/Set 6_rs/023a.jpg","null","","","","","","learn","SR",""
"","html-keyboard-response","66","266990","0.0-66.0","""event"",""trial"",""time""
""fullscreenenter"",""0"",""12827""
","
","
","""event"",""trial"",""time""
""fullscreenenter"",""0"",""12827""
","
","null","<p></p>","null","","","","","","","",""
"","image","67","267991","0.0-67.0","""event"",""trial"",""time""
""fullscreenenter"",""0"",""12827""
","
","
","""event"",""trial"",""time""
""fullscreenenter"",""0"",""12827""
","
","999.2999999970198","run_exp/static/images/Set 6_rs/144a.jpg","86","","","","","","learn","SL",""
"","show_choice","68","268997","0.0-68.0","""event"",""trial"",""time""
""fullscreenenter"",""0"",""12827""
","
","
","""event"",""trial"",""time""
""fullscreenenter"",""0"",""12827""
","
","null","run_exp/static/images/Set 6_rs/144a.jpg","null","","","","","","learn","SL",""
"","html-keyboard-response","69","269503","0.0-69.0","""event"",""trial"",""time""
""fullscreenenter"",""0"",""12827""
","
","
","""event"",""trial"",""time""
""fullscreenenter"",""0"",""12827""
","
","null","<p></p>","null","","","","","","","",""
"","image","70","271335","0.0-70.0","""event"",""trial"",""time""
""fullscreenenter"",""0"",""12827""
","
","
","""event"",""trial"",""time""
""fullscreenenter"",""0"",""12827""
","
","1829.9000000022352","run_exp/static/images/Set 6_rs/122a.jpg","86","","","","","","learn","SR",""
"","show_choice","71","271510","0.0-71.0","""event"",""trial"",""time""
""fullscreenenter"",""0"",""12827""
","
","
","""event"",""trial"",""time""
""fullscreenenter"",""0"",""12827""
","
","null","run_exp/static/images/Set 6_rs/122a.jpg","null","","","","","","learn","SR",""
"","html-keyboard-response","72","272017","0.0-72.0","""event"",""trial"",""time""
""fullscreenenter"",""0"",""12827""
","
","
","""event"",""trial"",""time""
""fullscreenenter"",""0"",""12827""
","
","null","<p></p>","null","","","","","","","",""
"","image","73","272892","0.0-73.0","""event"",""trial"",""time""
""fullscreenenter"",""0"",""12827""
","
","
","""event"",""trial"",""time""
""fullscreenenter"",""0"",""12827""
","
","873.2000000029802","run_exp/static/images/Set 6_rs/132a.jpg","86","","","","","","learn","SR",""
"","show_choice","74","274020","0.0-74.0","""event"",""trial"",""time""
""fullscreenenter"",""0"",""12827""
","
","
","""event"",""trial"",""time""
""fullscreenenter"",""0"",""12827""
","
","null","run_exp/static/images/Set 6_rs/132a.jpg","null","","","","","","learn","SR",""
"","html-keyboard-response","75","274525","0.0-75.0","""event"",""trial"",""time""
""fullscreenenter"",""0"",""12827""
","
","
","""event"",""trial"",""time""
""fullscreenenter"",""0"",""12827""
","
","null","<p></p>","null","","","","","","","",""
"","image","76","276399","0.0-76.0","""event"",""trial"",""time""
""fullscreenenter"",""0"",""12827""
","
","
","""event"",""trial"",""time""
""fullscreenenter"",""0"",""12827""
","
","1871.800000000745","run_exp/static/images/Set 6_rs/095a.jpg","86","","","","","","learn","SL",""
"","show_choice","77","276529","0.0-77.0","""event"",""trial"",""time""
""fullscreenenter"",""0"",""12827""
","
","
","""event"",""trial"",""time""
""fullscreenenter"",""0"",""12827""
","
","null","run_exp/static/images/Set 6_rs/095a.jpg","null","","","","","","learn","SL",""
"","html-keyboard-response","78","277034","0.0-78.0","""event"",""trial"",""time""
""fullscreenenter"",""0"",""12827""
","
","
","""event"",""trial"",""time""
""fullscreenenter"",""0"",""12827""
","
","null","<p></p>","null","","","","","","","",""
"","image","79","278203","0.0-79.0","""event"",""trial"",""time""
""fullscreenenter"",""0"",""12827""
","
","
","""event"",""trial"",""time""
""fullscreenenter"",""0"",""12827""
","
","1166.5","run_exp/static/images/Set 6_rs/150a.jpg","86","","","","","","learn","SR",""
"","show_choice","80","279038","0.0-80.0","""event"",""trial"",""time""
""fullscreenenter"",""0"",""12827""
","
","
","""event"",""trial"",""time""
""fullscreenenter"",""0"",""12827""
","
","null","run_exp/static/images/Set 6_rs/150a.jpg","null","","","","","","learn","SR",""
"","html-keyboard-response","81","279540","0.0-81.0","""event"",""trial"",""time""
""fullscreenenter"",""0"",""12827""
","
","
","""event"",""trial"",""time""
""fullscreenenter"",""0"",""12827""
","
","null","<p></p>","null","","","","","","","",""
"","image","82","280494","0.0-82.0","""event"",""trial"",""time""
""fullscreenenter"",""0"",""12827""
","
","
","""event"",""trial"",""time""
""fullscreenenter"",""0"",""12827""
","
","952.1000000014901","run_exp/static/images/Set 6_rs/055a.jpg","86","","","","","","learn","SL",""
"","show_choice","83","281547","0.0-83.0","""event"",""trial"",""time""
""fullscreenenter"",""0"",""12827""
","
","
","""event"",""trial"",""time""
""fullscreenenter"",""0"",""12827""
","
","null","run_exp/static/images/Set 6_rs/055a.jpg","null","","","","","","learn","SL",""
"","html-keyboard-response","84","282050","0.0-84.0","""event"",""trial"",""time""
""fullscreenenter"",""0"",""12827""
","
","
","""event"",""trial"",""time""
""fullscreenenter"",""0"",""12827""
","
","null","<p></p>","null","","","","","","","",""
"","image","85","282755","0.0-85.0","""event"",""trial"",""time""
""fullscreenenter"",""0"",""12827""
","
","
","""event"",""trial"",""time""
""fullscreenenter"",""0"",""12827""
","
","703","run_exp/static/images/Set 6_rs/063a.jpg","78","","","","","","learn","SR",""
"","show_choice","86","284054","0.0-86.0","""event"",""trial"",""time""
""fullscreenenter"",""0"",""12827""
","
","
","""event"",""trial"",""time""
""fullscreenenter"",""0"",""12827""
","
","null","run_exp/static/images/Set 6_rs/063a.jpg","null","","","","","","learn","SR",""
"","html-keyboard-response","87","284560","0.0-87.0","""event"",""trial"",""time""
""fullscreenenter"",""0"",""12827""
","
","
","""event"",""trial"",""time""
""fullscreenenter"",""0"",""12827""
","
","null","<p></p>","null","","","","","","","",""
"","image","88","285841","0.0-88.0","""event"",""trial"",""time""
""fullscreenenter"",""0"",""12827""
","
","
","""event"",""trial"",""time""
""fullscreenenter"",""0"",""12827""
","
","1279.199999999255","run_exp/static/images/Set 6_rs/008a.jpg","86","","","","","","learn","SL",""
"","show_choice","89","286567","0.0-89.0","""event"",""trial"",""time""
""fullscreenenter"",""0"",""12827""
","
","
","""event"",""trial"",""time""
""fullscreenenter"",""0"",""12827""
","
","null","run_exp/static/images/Set 6_rs/008a.jpg","null","","","","","","learn","SL",""
"","html-keyboard-response","90","287073","0.0-90.0","""event"",""trial"",""time""
""fullscreenenter"",""0"",""12827""
","
","
","""event"",""trial"",""time""
""fullscreenenter"",""0"",""12827""
","
","null","<p></p>","null","","","","","","","",""
"","image","91","288006","0.0-91.0","""event"",""trial"",""time""
""fullscreenenter"",""0"",""12827""
","
","
","""event"",""trial"",""time""
""fullscreenenter"",""0"",""12827""
","
","931.1000000014901","run_exp/static/images/Set 6_rs/017a.jpg","86","","","","","","learn","SL",""
"","show_choice","92","289080","0.0-92.0","""event"",""trial"",""time""
""fullscreenenter"",""0"",""12827""
","
","
","""event"",""trial"",""time""
""fullscreenenter"",""0"",""12827""
","
","null","run_exp/static/images/Set 6_rs/017a.jpg","null","","","","","","learn","SL",""
"","html-keyboard-response","93","289584","0.0-93.0","""event"",""trial"",""time""
""fullscreenenter"",""0"",""12827""
","
","
","""event"",""trial"",""time""
""fullscreenenter"",""0"",""12827""
","
","null","<p></p>","null","","","","","","","",""
"","image","94","290192","0.0-94.0","""event"",""trial"",""time""
""fullscreenenter"",""0"",""12827""
","
","
","""event"",""trial"",""time""
""fullscreenenter"",""0"",""12827""
","
","606.6000000014901","run_exp/static/images/Set 6_rs/088a.jpg","86","","","","","","learn","SR",""
"","show_choice","95","291591","0.0-95.0","""event"",""trial"",""time""
""fullscreenenter"",""0"",""12827""
","
","
","""event"",""trial"",""time""
""fullscreenenter"",""0"",""12827""
","
","null","run_exp/static/images/Set 6_rs/088a.jpg","null","","","","","","learn","SR",""
"","html-keyboard-response","96","292095","0.0-96.0","""event"",""trial"",""time""
""fullscreenenter"",""0"",""12827""
","
","
","""event"",""trial"",""time""
""fullscreenenter"",""0"",""12827""
","
","null","<p></p>","null","","","","","","","",""
"","image","97","292832","0.0-97.0","""event"",""trial"",""time""
""fullscreenenter"",""0"",""12827""
","
","
","""event"",""trial"",""time""
""fullscreenenter"",""0"",""12827""
","
","734.5","run_exp/static/images/Set 6_rs/154a.jpg","86","","","","","","learn","SR",""
"","show_choice","98","294099","0.0-98.0","""event"",""trial"",""time""
""fullscreenenter"",""0"",""12827""
","
","
","""event"",""trial"",""time""
""fullscreenenter"",""0"",""12827""
","
","null","run_exp/static/images/Set 6_rs/154a.jpg","null","","","","","","learn","SR",""
"","html-keyboard-response","99","294605","0.0-99.0","""event"",""trial"",""time""
""fullscreenenter"",""0"",""12827""
","
","
","""event"",""trial"",""time""
""fullscreenenter"",""0"",""12827""
","
","null","<p></p>","null","","","","","","","",""
"","image","100","295232","0.0-100.0","""event"",""trial"",""time""
""fullscreenenter"",""0"",""12827""
","
","
","""event"",""trial"",""time""
""fullscreenenter"",""0"",""12827""
","
","625","run_exp/static/images/Set 6_rs/006a.jpg","86","","","","","","learn","SL",""
"","show_choice","101","296612","0.0-101.0","""event"",""trial"",""time""
""fullscreenenter"",""0"",""12827""
","
","
","""event"",""trial"",""time""
""fullscreenenter"",""0"",""12827""
","
","null","run_exp/static/images/Set 6_rs/006a.jpg","null","","","","","","learn","SL",""
"","html-keyboard-response","102","297121","0.0-102.0","""event"",""trial"",""time""
""fullscreenenter"",""0"",""12827""
","
","
","""event"",""trial"",""time""
""fullscreenenter"",""0"",""12827""
","
","null","<p></p>","null","","","","","","","",""
"","image","103","297998","0.0-103.0","""event"",""trial"",""time""
""fullscreenenter"",""0"",""12827""
","
","
","""event"",""trial"",""time""
""fullscreenenter"",""0"",""12827""
","
","875","run_exp/static/images/Set 6_rs/186a.jpg","86","","","","","","learn","SR",""
"","show_choice","104","299127","0.0-104.0","""event"",""trial"",""time""
""fullscreenenter"",""0"",""12827""
","
","
","""event"",""trial"",""time""
""fullscreenenter"",""0"",""12827""
","
","null","run_exp/static/images/Set 6_rs/186a.jpg","null","","","","","","learn","SR",""
"","html-keyboard-response","105","299632","0.0-105.0","""event"",""trial"",""time""
""fullscreenenter"",""0"",""12827""
","
","
","""event"",""trial"",""time""
""fullscreenenter"",""0"",""12827""
","
","null","<p></p>","null","","","","","","","",""
"","image","106","300289","0.0-106.0","""event"",""trial"",""time""
""fullscreenenter"",""0"",""12827""
","
","
","""event"",""trial"",""time""
""fullscreenenter"",""0"",""12827""
","
","654.5","run_exp/static/images/Set 6_rs/062a.jpg","86","","","","","","learn","SL",""
"","show_choice","107","301640","0.0-107.0","""event"",""trial"",""time""
""fullscreenenter"",""0"",""12827""
","
","
","""event"",""trial"",""time""
""fullscreenenter"",""0"",""12827""
","
","null","run_exp/static/images/Set 6_rs/062a.jpg","null","","","","","","learn","SL",""
"","html-keyboard-response","108","302146","0.0-108.0","""event"",""trial"",""time""
""fullscreenenter"",""0"",""12827""
","
","
","""event"",""trial"",""time""
""fullscreenenter"",""0"",""12827""
","
","null","<p></p>","null","","","","","","","",""
"","image","109","302934","0.0-109.0","""event"",""trial"",""time""
""fullscreenenter"",""0"",""12827""
","
","
","""event"",""trial"",""time""
""fullscreenenter"",""0"",""12827""
","
","786","run_exp/static/images/Set 6_rs/016a.jpg","86","","","","","","learn","SL",""
"","show_choice","110","304153","0.0-110.0","""event"",""trial"",""time""
""fullscreenenter"",""0"",""12827""
","
","
","""event"",""trial"",""time""
""fullscreenenter"",""0"",""12827""
","
","null","run_exp/static/images/Set 6_rs/016a.jpg","null","","","","","","learn","SL",""
"","html-keyboard-response","111","304655","0.0-111.0","""event"",""trial"",""time""
""fullscreenenter"",""0"",""12827""
","
","
","""event"",""trial"",""time""
""fullscreenenter"",""0"",""12827""
","
","null","<p></p>","null","","","","","","","",""
"","image","112","305440","0.0-112.0","""event"",""trial"",""time""
""fullscreenenter"",""0"",""12827""
","
","
","""event"",""trial"",""time""
""fullscreenenter"",""0"",""12827""
","
","782.6999999992549","run_exp/static/images/Set 6_rs/074a.jpg","86","","","","","","learn","SL",""
"","show_choice","113","306660","0.0-113.0","""event"",""trial"",""time""
""fullscreenenter"",""0"",""12827""
","
","
","""event"",""trial"",""time""
""fullscreenenter"",""0"",""12827""
","
","null","run_exp/static/images/Set 6_rs/074a.jpg","null","","","","","","learn","SL",""
"","html-keyboard-response","114","307167","0.0-114.0","""event"",""trial"",""time""
""fullscreenenter"",""0"",""12827""
","
","
","""event"",""trial"",""time""
""fullscreenenter"",""0"",""12827""
","
","null","<p></p>","null","","","","","","","",""
"","image","115","307878","0.0-115.0","""event"",""trial"",""time""
""fullscreenenter"",""0"",""12827""
","
","
","""event"",""trial"",""time""
""fullscreenenter"",""0"",""12827""
","
","709.1000000014901","run_exp/static/images/Set 6_rs/057a.jpg","86","","","","","","learn","SL",""
"","show_choice","116","309174","0.0-116.0","""event"",""trial"",""time""
""fullscreenenter"",""0"",""12827""
","
","
","""event"",""trial"",""time""
""fullscreenenter"",""0"",""12827""
","
","null","run_exp/static/images/Set 6_rs/057a.jpg","null","","","","","","learn","SL",""
"","html-keyboard-response","117","309680","0.0-117.0","""event"",""trial"",""time""
""fullscreenenter"",""0"",""12827""
","
","
","""event"",""trial"",""time""
""fullscreenenter"",""0"",""12827""
","
","null","<p></p>","null","","","","","","","",""
"","image","118","310312","0.0-118.0","""event"",""trial"",""time""
""fullscreenenter"",""0"",""12827""
","
","
","""event"",""trial"",""time""
""fullscreenenter"",""0"",""12827""
","
","631.5","run_exp/static/images/Set 6_rs/123a.jpg","86","","","","","","learn","SL",""
"","show_choice","119","311686","0.0-119.0","""event"",""trial"",""time""
""fullscreenenter"",""0"",""12827""
","
","
","""event"",""trial"",""time""
""fullscreenenter"",""0"",""12827""
","
","null","run_exp/static/images/Set 6_rs/123a.jpg","null","","","","","","learn","SL",""
"","html-keyboard-response","120","312192","0.0-120.0","""event"",""trial"",""time""
""fullscreenenter"",""0"",""12827""
","
","
","""event"",""trial"",""time""
""fullscreenenter"",""0"",""12827""
","
","null","<p></p>","null","","","","","","","",""
"","image","121","312949","0.0-121.0","""event"",""trial"",""time""
""fullscreenenter"",""0"",""12827""
","
","
","""event"",""trial"",""time""
""fullscreenenter"",""0"",""12827""
","
","754.8000000007451","run_exp/static/images/Set 6_rs/108a.jpg","86","","","","","","learn","SR",""
"","show_choice","122","314199","0.0-122.0","""event"",""trial"",""time""
""fullscreenenter"",""0"",""12827""
","
","
","""event"",""trial"",""time""
""fullscreenenter"",""0"",""12827""
","
","null","run_exp/static/images/Set 6_rs/108a.jpg","null","","","","","","learn","SR",""
"","html-keyboard-response","123","314704","0.0-123.0","""event"",""trial"",""time""
""fullscreenenter"",""0"",""12827""
","
","
","""event"",""trial"",""time""
""fullscreenenter"",""0"",""12827""
","
","null","<p></p>","null","","","","","","","",""
"","image","124","315730","0.0-124.0","""event"",""trial"",""time""
""fullscreenenter"",""0"",""12827""
","
","
","""event"",""trial"",""time""
""fullscreenenter"",""0"",""12827""
","
","1024.3999999985099","run_exp/static/images/Set 6_rs/061a.jpg","78","","","","","","learn","SR",""
"","show_choice","125","316710","0.0-125.0","""event"",""trial"",""time""
""fullscreenenter"",""0"",""12827""
","
","
","""event"",""trial"",""time""
""fullscreenenter"",""0"",""12827""
","
","null","run_exp/static/images/Set 6_rs/061a.jpg","null","","","","","","learn","SR",""
"","html-keyboard-response","126","317213","0.0-126.0","""event"",""trial"",""time""
""fullscreenenter"",""0"",""12827""
","
","
","""event"",""trial"",""time""
""fullscreenenter"",""0"",""12827""
","
","null","<p></p>","null","","","","","","","",""
"","image","127","318307","0.0-127.0","""event"",""trial"",""time""
""fullscreenenter"",""0"",""12827""
","
","
","""event"",""trial"",""time""
""fullscreenenter"",""0"",""12827""
","
","1091.300000000745","run_exp/static/images/Set 6_rs/085a.jpg","78","","","","","","learn","SL",""
"","show_choice","128","319218","0.0-128.0","""event"",""trial"",""time""
""fullscreenenter"",""0"",""12827""
","
","
","""event"",""trial"",""time""
""fullscreenenter"",""0"",""12827""
","
","null","run_exp/static/images/Set 6_rs/085a.jpg","null","","","","","","learn","SL",""
"","html-keyboard-response","129","319724","0.0-129.0","""event"",""trial"",""time""
""fullscreenenter"",""0"",""12827""
","
","
","""event"",""trial"",""time""
""fullscreenenter"",""0"",""12827""
","
","null","<p></p>","null","","","","","","","",""
"","image","130","321727","0.0-130.0","""event"",""trial"",""time""
""fullscreenenter"",""0"",""12827""
","
","
","""event"",""trial"",""time""
""fullscreenenter"",""0"",""12827""
","
","null","run_exp/static/images/Set 6_rs/066a.jpg","null","","","","","","learn","SL",""
"","show_choice","131","323733","0.0-131.0","""event"",""trial"",""time""
""fullscreenenter"",""0"",""12827""
","
","
","""event"",""trial"",""time""
""fullscreenenter"",""0"",""12827""
","
","null","run_exp/static/images/blank.png","null","","","","","","learn","SL",""
"","html-keyboard-response","132","324236","0.0-132.0","""event"",""trial"",""time""
""fullscreenenter"",""0"",""12827""
","
","
","""event"",""trial"",""time""
""fullscreenenter"",""0"",""12827""
","
","null","<p></p>","null","","","","","","","",""
"","image","133","324825","0.0-133.0","""event"",""trial"",""time""
""fullscreenenter"",""0"",""12827""
","
","
","""event"",""trial"",""time""
""fullscreenenter"",""0"",""12827""
","
","586.6000000014901","run_exp/static/images/Set 6_rs/166a.jpg","86","","","","","","learn","SR",""
"","show_choice","134","326243","0.0-134.0","""event"",""trial"",""time""
""fullscreenenter"",""0"",""12827""
","
","
","""event"",""trial"",""time""
""fullscreenenter"",""0"",""12827""
","
","null","run_exp/static/images/Set 6_rs/166a.jpg","null","","","","","","learn","SR",""
"","html-keyboard-response","135","326747","0.0-135.0","""event"",""trial"",""time""
""fullscreenenter"",""0"",""12827""
","
","
","""event"",""trial"",""time""
""fullscreenenter"",""0"",""12827""
","
","null","<p></p>","null","","","","","","","",""
"","image","136","327617","0.0-136.0","""event"",""trial"",""time""
""fullscreenenter"",""0"",""12827""
","
","
","""event"",""trial"",""time""
""fullscreenenter"",""0"",""12827""
","
","867.8000000007451","run_exp/static/images/Set 6_rs/181a.jpg","78","","","","","","learn","SL",""
"","show_choice","137","328752","0.0-137.0","""event"",""trial"",""time""
""fullscreenenter"",""0"",""12827""
","
","
","""event"",""trial"",""time""
""fullscreenenter"",""0"",""12827""
","
","null","run_exp/static/images/Set 6_rs/181a.jpg","null","","","","","","learn","SL",""
"","html-keyboard-response","138","329259","0.0-138.0","""event"",""trial"",""time""
""fullscreenenter"",""0"",""12827""
","
","
","""event"",""trial"",""time""
""fullscreenenter"",""0"",""12827""
","
","null","<p></p>","null","","","","","","","",""
"","image","139","330162","0.0-139.0","""event"",""trial"",""time""
""fullscreenenter"",""0"",""12827""
","
","
","""event"",""trial"",""time""
""fullscreenenter"",""0"",""12827""
","
","900.8999999985099","run_exp/static/images/Set 6_rs/012a.jpg","86","","","","","","learn","SR",""
"","show_choice","140","331268","0.0-140.0","""event"",""trial"",""time""
""fullscreenenter"",""0"",""12827""
","
","
","""event"",""trial"",""time""
""fullscreenenter"",""0"",""12827""
","
","null","run_exp/static/images/Set 6_rs/012a.jpg","null","","","","","","learn","SR",""
"","html-keyboard-response","141","331769","0.0-141.0","""event"",""trial"",""time""
""fullscreenenter"",""0"",""12827""
","
","
","""event"",""trial"",""time""
""fullscreenenter"",""0"",""12827""
","
","null","<p></p>","null","","","","","","","",""
"","image","142","332587","0.0-142.0","""event"",""trial"",""time""
""fullscreenenter"",""0"",""12827""
","
","
","""event"",""trial"",""time""
""fullscreenenter"",""0"",""12827""
","
","816","run_exp/static/images/Set 6_rs/050a.jpg","86","","","","","","learn","SL",""
"","show_choice","143","333776","0.0-143.0","""event"",""trial"",""time""
""fullscreenenter"",""0"",""12827""
","
","
","""event"",""trial"",""time""
""fullscreenenter"",""0"",""12827""
","
","null","run_exp/static/images/Set 6_rs/050a.jpg","null","","","","","","learn","SL",""
"","html-keyboard-response","144","334283","0.0-144.0","""event"",""trial"",""time""
""fullscreenenter"",""0"",""12827""
","
","
","""event"",""trial"",""time""
""fullscreenenter"",""0"",""12827""
","
","null","<p></p>","null","","","","","","","",""
"","image","145","335222","0.0-145.0","""event"",""trial"",""time""
""fullscreenenter"",""0"",""12827""
","
","
","""event"",""trial"",""time""
""fullscreenenter"",""0"",""12827""
","
","936.8999999985099","run_exp/static/images/Set 6_rs/187a.jpg","86","","","","","","learn","SR",""
"","show_choice","146","336290","0.0-146.0","""event"",""trial"",""time""
""fullscreenenter"",""0"",""12827""
","
","
","""event"",""trial"",""time""
""fullscreenenter"",""0"",""12827""
","
","null","run_exp/static/images/Set 6_rs/187a.jpg","null","","","","","","learn","SR",""
"","html-keyboard-response","147","336791","0.0-147.0","""event"",""trial"",""time""
""fullscreenenter"",""0"",""12827""
","
","
","""event"",""trial"",""time""
""fullscreenenter"",""0"",""12827""
","
","null","<p></p>","null","","","","","","","",""
"","image","148","337407","0.0-148.0","""event"",""trial"",""time""
""fullscreenenter"",""0"",""12827""
","
","
","""event"",""trial"",""time""
""fullscreenenter"",""0"",""12827""
","
","613.3000000007451","run_exp/static/images/Set 6_rs/007a.jpg","86","","","","","","learn","SR",""
"","show_choice","149","338794","0.0-149.0","""event"",""trial"",""time""
""fullscreenenter"",""0"",""12827""
","
","
","""event"",""trial"",""time""
""fullscreenenter"",""0"",""12827""
","
","null","run_exp/static/images/Set 6_rs/007a.jpg","null","","","","","","learn","SR",""
"","html-keyboard-response","150","339300","0.0-150.0","""event"",""trial"",""time""
""fullscreenenter"",""0"",""12827""
","
","
","""event"",""trial"",""time""
""fullscreenenter"",""0"",""12827""
","
","null","<p></p>","null","","","","","","","",""
"","image","151","339962","0.0-151.0","""event"",""trial"",""time""
""fullscreenenter"",""0"",""12827""
","
","
","""event"",""trial"",""time""
""fullscreenenter"",""0"",""12827""
","
","660.1000000014901","run_exp/static/images/Set 6_rs/129a.jpg","86","","","","","","learn","SL",""
"","show_choice","152","341303","0.0-152.0","""event"",""trial"",""time""
""fullscreenenter"",""0"",""12827""
","
","
","""event"",""trial"",""time""
""fullscreenenter"",""0"",""12827""
","
","null","run_exp/static/images/Set 6_rs/129a.jpg","null","","","","","","learn","SL",""
"","html-keyboard-response","153","341807","0.0-153.0","""event"",""trial"",""time""
""fullscreenenter"",""0"",""12827""
","
","
","""event"",""trial"",""time""
""fullscreenenter"",""0"",""12827""
","
","null","<p></p>","null","","","","","","","",""
"","image","154","342882","0.0-154.0","""event"",""trial"",""time""
""fullscreenenter"",""0"",""12827""
","
","
","""event"",""trial"",""time""
""fullscreenenter"",""0"",""12827""
","
","1073.300000000745","run_exp/static/images/Set 6_rs/116a.jpg","86","","","","","","learn","SL",""
"","show_choice","155","343812","0.0-155.0","""event"",""trial"",""time""
""fullscreenenter"",""0"",""12827""
","
","
","""event"",""trial"",""time""
""fullscreenenter"",""0"",""12827""
","
","null","run_exp/static/images/Set 6_rs/116a.jpg","null","","","","","","learn","SL",""
"","html-keyboard-response","156","344317","0.0-156.0","""event"",""trial"",""time""
""fullscreenenter"",""0"",""12827""
","
","
","""event"",""trial"",""time""
""fullscreenenter"",""0"",""12827""
","
","null","<p></p>","null","","","","","","","",""
"","image","157","345159","0.0-157.0","""event"",""trial"",""time""
""fullscreenenter"",""0"",""12827""
","
","
","""event"",""trial"",""time""
""fullscreenenter"",""0"",""12827""
","
","840.4000000022352","run_exp/static/images/Set 6_rs/025a.jpg","78","","","","","","learn","SL",""
"","show_choice","158","346323","0.0-158.0","""event"",""trial"",""time""
""fullscreenenter"",""0"",""12827""
","
","
","""event"",""trial"",""time""
""fullscreenenter"",""0"",""12827""
","
","null","run_exp/static/images/Set 6_rs/025a.jpg","null","","","","","","learn","SL",""
"","html-keyboard-response","159","346826","0.0-159.0","""event"",""trial"",""time""
""fullscreenenter"",""0"",""12827""
","
","
","""event"",""trial"",""time""
""fullscreenenter"",""0"",""12827""
","
","null","<p></p>","null","","","","","","","",""
"","image","160","347638","0.0-160.0","""event"",""trial"",""time""
""fullscreenenter"",""0"",""12827""
","
","
","""event"",""trial"",""time""
""fullscreenenter"",""0"",""12827""
","
","810.7999999970198","run_exp/static/images/Set 6_rs/121a.jpg","86","","","","","","learn","SR",""
"","show_choice","161","348833","0.0-161.0","""event"",""trial"",""time""
""fullscreenenter"",""0"",""12827""
","
","
","""event"",""trial"",""time""
""fullscreenenter"",""0"",""12827""
","
","null","run_exp/static/images/Set 6_rs/121a.jpg","null","","","","","","learn","SR",""
"","html-keyboard-response","162","349336","0.0-162.0","""event"",""trial"",""time""
""fullscreenenter"",""0"",""12827""
","
","
","""event"",""trial"",""time""
""fullscreenenter"",""0"",""12827""
","
","null","<p></p>","null","","","","","","","",""
"","image","163","350214","0.0-163.0","""event"",""trial"",""time""
""fullscreenenter"",""0"",""12827""
","
","
","""event"",""trial"",""time""
""fullscreenenter"",""0"",""12827""
","
","876.0999999977648","run_exp/static/images/Set 6_rs/089a.jpg","86","","","","","","learn","SL",""
"","show_choice","164","351343","0.0-164.0","""event"",""trial"",""time""
""fullscreenenter"",""0"",""12827""
","
","
","""event"",""trial"",""time""
""fullscreenenter"",""0"",""12827""
","
","null","run_exp/static/images/Set 6_rs/089a.jpg","null","","","","","","learn","SL",""
"","html-keyboard-response","165","351849","0.0-165.0","""event"",""trial"",""time""
""fullscreenenter"",""0"",""12827""
","
","
","""event"",""trial"",""time""
""fullscreenenter"",""0"",""12827""
","
","null","<p></p>","null","","","","","","","",""
"","image","166","352713","0.0-166.0","""event"",""trial"",""time""
""fullscreenenter"",""0"",""12827""
","
","
","""event"",""trial"",""time""
""fullscreenenter"",""0"",""12827""
","
","862.3999999985099","run_exp/static/images/Set 6_rs/111a.jpg","86","","","","","","learn","SL",""
"","show_choice","167","353854","0.0-167.0","""event"",""trial"",""time""
""fullscreenenter"",""0"",""12827""
","
","
","""event"",""trial"",""time""
""fullscreenenter"",""0"",""12827""
","
","null","run_exp/static/images/Set 6_rs/111a.jpg","null","","","","","","learn","SL",""
"","html-keyboard-response","168","354361","0.0-168.0","""event"",""trial"",""time""
""fullscreenenter"",""0"",""12827""
","
","
","""event"",""trial"",""time""
""fullscreenenter"",""0"",""12827""
","
","null","<p></p>","null","","","","","","","",""
"","image","169","355105","0.0-169.0","""event"",""trial"",""time""
""fullscreenenter"",""0"",""12827""
","
","
","""event"",""trial"",""time""
""fullscreenenter"",""0"",""12827""
","
","742.6999999992549","run_exp/static/images/Set 6_rs/112a.jpg","86","","","","","","learn","SR",""
"","show_choice","170","356368","0.0-170.0","""event"",""trial"",""time""
""fullscreenenter"",""0"",""12827""
","
","
","""event"",""trial"",""time""
""fullscreenenter"",""0"",""12827""
","
","null","run_exp/static/images/Set 6_rs/112a.jpg","null","","","","","","learn","SR",""
"","html-keyboard-response","171","356870","0.0-171.0","""event"",""trial"",""time""
""fullscreenenter"",""0"",""12827""
","
","
","""event"",""trial"",""time""
""fullscreenenter"",""0"",""12827""
","
","null","<p></p>","null","","","","","","","",""
"","image","172","357675","0.0-172.0","""event"",""trial"",""time""
""fullscreenenter"",""0"",""12827""
","
","
","""event"",""trial"",""time""
""fullscreenenter"",""0"",""12827""
","
","802.6000000014901","run_exp/static/images/Set 6_rs/134a.jpg","86","","","","","","learn","SR",""
"","show_choice","173","358877","0.0-173.0","""event"",""trial"",""time""
""fullscreenenter"",""0"",""12827""
","
","
","""event"",""trial"",""time""
""fullscreenenter"",""0"",""12827""
","
","null","run_exp/static/images/Set 6_rs/134a.jpg","null","","","","","","learn","SR",""
"","html-keyboard-response","174","359379","0.0-174.0","""event"",""trial"",""time""
""fullscreenenter"",""0"",""12827""
","
","
","""event"",""trial"",""time""
""fullscreenenter"",""0"",""12827""
","
","null","<p></p>","null","","","","","","","",""
"","image","175","360122","0.0-175.0","""event"",""trial"",""time""
""fullscreenenter"",""0"",""12827""
","
","
","""event"",""trial"",""time""
""fullscreenenter"",""0"",""12827""
","
","742.5","run_exp/static/images/Set 6_rs/172a.jpg","78","","","","","","learn","SR",""
"","show_choice","176","361382","0.0-176.0","""event"",""trial"",""time""
""fullscreenenter"",""0"",""12827""
","
","
","""event"",""trial"",""time""
""fullscreenenter"",""0"",""12827""
","
","null","run_exp/static/images/Set 6_rs/172a.jpg","null","","","","","","learn","SR",""
"","html-keyboard-response","177","361885","0.0-177.0","""event"",""trial"",""time""
""fullscreenenter"",""0"",""12827""
","
","
","""event"",""trial"",""time""
""fullscreenenter"",""0"",""12827""
","
","null","<p></p>","null","","","","","","","",""
"","image","178","362611","0.0-178.0","""event"",""trial"",""time""
""fullscreenenter"",""0"",""12827""
","
","
","""event"",""trial"",""time""
""fullscreenenter"",""0"",""12827""
","
","724.4000000022352","run_exp/static/images/Set 6_rs/064a.jpg","86","","","","","","learn","SR",""
"","show_choice","179","363889","0.0-179.0","""event"",""trial"",""time""
""fullscreenenter"",""0"",""12827""
","
","
","""event"",""trial"",""time""
""fullscreenenter"",""0"",""12827""
","
","null","run_exp/static/images/Set 6_rs/064a.jpg","null","","","","","","learn","SR",""
"","html-keyboard-response","180","364392","0.0-180.0","""event"",""trial"",""time""
""fullscreenenter"",""0"",""12827""
","
","
","""event"",""trial"",""time""
""fullscreenenter"",""0"",""12827""
","
","null","<p></p>","null","","","","","","","",""
"","image","181","365007","0.0-181.0","""event"",""trial"",""time""
""fullscreenenter"",""0"",""12827""
","
","
","""event"",""trial"",""time""
""fullscreenenter"",""0"",""12827""
","
","613.6999999992549","run_exp/static/images/Set 6_rs/070a.jpg","86","","","","","","learn","SR",""
"","show_choice","182","366398","0.0-182.0","""event"",""trial"",""time""
""fullscreenenter"",""0"",""12827""
","
","
","""event"",""trial"",""time""
""fullscreenenter"",""0"",""12827""
","
","null","run_exp/static/images/Set 6_rs/070a.jpg","null","","","","","","learn","SR",""
"","html-keyboard-response","183","366904","0.0-183.0","""event"",""trial"",""time""
""fullscreenenter"",""0"",""12827""
","
","
","""event"",""trial"",""time""
""fullscreenenter"",""0"",""12827""
","
","null","<p></p>","null","","","","","","","",""
"","image","184","367543","0.0-184.0","""event"",""trial"",""time""
""fullscreenenter"",""0"",""12827""
","
","
","""event"",""trial"",""time""
""fullscreenenter"",""0"",""12827""
","
","637.1000000014901","run_exp/static/images/Set 6_rs/075a.jpg","86","","","","","","learn","SR",""
"","show_choice","185","368911","0.0-185.0","""event"",""trial"",""time""
""fullscreenenter"",""0"",""12827""
","
","
","""event"",""trial"",""time""
""fullscreenenter"",""0"",""12827""
","
","null","run_exp/static/images/Set 6_rs/075a.jpg","null","","","","","","learn","SR",""
"","html-keyboard-response","186","369415","0.0-186.0","""event"",""trial"",""time""
""fullscreenenter"",""0"",""12827""
","
","
","""event"",""trial"",""time""
""fullscreenenter"",""0"",""12827""
","
","null","<p></p>","null","","","","","","","",""
"","image","187","370445","0.0-187.0","""event"",""trial"",""time""
""fullscreenenter"",""0"",""12827""
","
","
","""event"",""trial"",""time""
""fullscreenenter"",""0"",""12827""
","
","1028.4000000022352","run_exp/static/images/Set 6_rs/036a.jpg","86","","","","","","learn","SL",""
"","show_choice","188","371420","0.0-188.0","""event"",""trial"",""time""
""fullscreenenter"",""0"",""12827""
","
","
","""event"",""trial"",""time""
""fullscreenenter"",""0"",""12827""
","
","null","run_exp/static/images/Set 6_rs/036a.jpg","null","","","","","","learn","SL",""
"","html-keyboard-response","189","371926","0.0-189.0","""event"",""trial"",""time""
""fullscreenenter"",""0"",""12827""
","
","
","""event"",""trial"",""time""
""fullscreenenter"",""0"",""12827""
","
","null","<p></p>","null","","","","","","","",""
"","image","190","372997","0.0-190.0","""event"",""trial"",""time""
""fullscreenenter"",""0"",""12827""
","
","
","""event"",""trial"",""time""
""fullscreenenter"",""0"",""12827""
","
","1069.2999999970198","run_exp/static/images/Set 6_rs/191a.jpg","86","","","","","","learn","SL",""
"","show_choice","191","373930","0.0-191.0","""event"",""trial"",""time""
""fullscreenenter"",""0"",""12827""
","
","
","""event"",""trial"",""time""
""fullscreenenter"",""0"",""12827""
","
","null","run_exp/static/images/Set 6_rs/191a.jpg","null","","","","","","learn","SL",""
"","html-keyboard-response","192","374435","0.0-192.0","""event"",""trial"",""time""
""fullscreenenter"",""0"",""12827""
","
","
","""event"",""trial"",""time""
""fullscreenenter"",""0"",""12827""
","
","null","<p></p>","null","","","","","","","",""
"","image","193","375368","0.0-193.0","""event"",""trial"",""time""
""fullscreenenter"",""0"",""12827""
","
","
","""event"",""trial"",""time""
""fullscreenenter"",""0"",""12827""
","
","931.1000000014901","run_exp/static/images/Set 6_rs/131a.jpg","86","","","","","","learn","SR",""
"","show_choice","194","376439","0.0-194.0","""event"",""trial"",""time""
""fullscreenenter"",""0"",""12827""
","
","
","""event"",""trial"",""time""
""fullscreenenter"",""0"",""12827""
","
","null","run_exp/static/images/Set 6_rs/131a.jpg","null","","","","","","learn","SR",""
"","html-keyboard-response","195","376946","0.0-195.0","""event"",""trial"",""time""
""fullscreenenter"",""0"",""12827""
","
","
","""event"",""trial"",""time""
""fullscreenenter"",""0"",""12827""
","
","null","<p></p>","null","","","","","","","",""
"","test_intro","196","414294","0.0-196.0","""event"",""trial"",""time""
""fullscreenenter"",""0"",""12827""
","
","
","""event"",""trial"",""time""
""fullscreenenter"",""0"",""12827""
","
","null","run_exp/static/audio/clip_2_memory.m4a","null","","","","","<div class='center'><p>Now, lets see how much you remember about the items you just saw.  For each item, you need to indicate if it was <b>old</b> by pressing the <b>v</b> key, <b>similar</b> by pressing the <b>b</b> key, or <b>new</b> by pressing the <b>n</b> key.</p><p>Old refers to an item that you saw before in the indoor/outdoor game that you just played, new refers to an item you have <b>not</b> seen before within the indoor/outdoor game, and similar refers to an item that is similar to an item youve seen before but is not exactly the same. </p><p>Before we begin, lets go over some brief demonstrations to make sure you understand.</p></div>","","",""
"","html-keyboard-response","197","414642","0.0-197.0","""event"",""trial"",""time""
""fullscreenenter"",""0"",""12827""
","
","
","""event"",""trial"",""time""
""fullscreenenter"",""0"",""12827""
","
","344.0999999977648","<div class='center'><p>Now, lets see how much you remember about the items you just saw.  For each item, you need to indicate if it was <b>old</b> by pressing the <b>v</b> key, <b>similar</b> by pressing the <b>b</b> key, or <b>new</b> by pressing the <b>n</b> key.</p><p>Old refers to an item that you saw before in the indoor/outdoor game that you just played, new refers to an item you have <b>not</b> seen before within the indoor/outdoor game, and similar refers to an item that is similar to an item youve seen before but is not exactly the same. </p><p>Before we begin, lets go over some brief demonstrations to make sure you understand.</p><div><p><b>[Press the space bar to continue]</b></p></div>","32","","","","","","","",""
"","items","198","422148","0.0-198.0","""event"",""trial"",""time""
""fullscreenenter"",""0"",""12827""
","
","
","""event"",""trial"",""time""
""fullscreenenter"",""0"",""12827""
","
","null","run_exp/static/audio/clip_3_items.m4a","null","","","","","","","",""
"","mop","199","426653","0.0-199.0","""event"",""trial"",""time""
""fullscreenenter"",""0"",""12827""
","
","
","""event"",""trial"",""time""
""fullscreenenter"",""0"",""12827""
","
","null","run_exp/static/audio/clip_4_mop.m4a","null","","","","","","","",""
"","baseball","200","430156","0.0-200.0","""event"",""trial"",""time""
""fullscreenenter"",""0"",""12827""
","
","
","""event"",""trial"",""time""
""fullscreenenter"",""0"",""12827""
","
","null","run_exp/static/audio/clip_5_baseball.m4a","null","","","","","","","",""
"","trumpet","201","433660","0.0-201.0","""event"",""trial"",""time""
""fullscreenenter"",""0"",""12827""
","
","
","""event"",""trial"",""time""
""fullscreenenter"",""0"",""12827""
","
","null","run_exp/static/audio/clip_6_trumpet.m4a","null","","","","","","","",""
"","gummies","202","437167","0.0-202.0","""event"",""trial"",""time""
""fullscreenenter"",""0"",""12827""
","
","
","""event"",""trial"",""time""
""fullscreenenter"",""0"",""12827""
","
","null","run_exp/static/audio/clip_7_gummies.m4a","null","","","","","","","",""
"","osn","203","441674","0.0-203.0","""event"",""trial"",""time""
""fullscreenenter"",""0"",""12827""
","
","
","""event"",""trial"",""time""
""fullscreenenter"",""0"",""12827""
","
","null","run_exp/static/audio/clip_8_osn.m4a","null","","","","","","","",""
"","old_1","204","448177","0.0-204.0","""event"",""trial"",""time""
""fullscreenenter"",""0"",""12827""
","
","
","""event"",""trial"",""time""
""fullscreenenter"",""0"",""12827""
","
","null","run_exp/static/audio/clip_9_old_trumpet.m4a","null","","","","","","","",""
"","new_1","205","455685","0.0-205.0","""event"",""trial"",""time""
""fullscreenenter"",""0"",""12827""
","
","
","""event"",""trial"",""time""
""fullscreenenter"",""0"",""12827""
","
","null","run_exp/static/audio/clip_10_new_balloon.m4a","null","","","","","","","",""
"","similar_1a","206","460193","0.0-206.0","""event"",""trial"",""time""
""fullscreenenter"",""0"",""12827""
","
","
","""event"",""trial"",""time""
""fullscreenenter"",""0"",""12827""
","
","null","run_exp/static/audio/clip_11a_similar_mop.m4a","null","","","","","","","",""
"","similar_1b","207","466700","0.0-207.0","""event"",""trial"",""time""
""fullscreenenter"",""0"",""12827""
","
","
","""event"",""trial"",""time""
""fullscreenenter"",""0"",""12827""
","
","null","run_exp/static/audio/clip_11b_similar_mop.m4a","null","","","","","","","",""
"","new_2","208","470207","0.0-208.0","""event"",""trial"",""time""
""fullscreenenter"",""0"",""12827""
","
","
","""event"",""trial"",""time""
""fullscreenenter"",""0"",""12827""
","
","null","run_exp/static/audio/clip_12_new_stoplight.m4a","null","","","","","","","",""
"","old_2","209","473714","0.0-209.0","""event"",""trial"",""time""
""fullscreenenter"",""0"",""12827""
","
","
","""event"",""trial"",""time""
""fullscreenenter"",""0"",""12827""
","
","null","run_exp/static/audio/clip_13_old_baseball.m4a","null","","","","","","","",""
"","similar_2a","210","477222","0.0-210.0","""event"",""trial"",""time""
""fullscreenenter"",""0"",""12827""
","
","
","""event"",""trial"",""time""
""fullscreenenter"",""0"",""12827""
","
","null","run_exp/static/audio/clip_14a_similar_gummies.m4a","null","","","","","","","",""
"","similar_2b","211","484728","0.0-211.0","""event"",""trial"",""time""
""fullscreenenter"",""0"",""12827""
","
","
","""event"",""trial"",""time""
""fullscreenenter"",""0"",""12827""
","
","null","run_exp/static/audio/clip_14b_similar_gummies.m4a","null","","","","","","","",""
"","practice","212","526979","0.0-212.0","""event"",""trial"",""time""
""fullscreenenter"",""0"",""12827""
","
","
","""event"",""trial"",""time""
""fullscreenenter"",""0"",""12827""
","
","null","run_exp/static/audio/clip_15_practice.m4a","null","","","","","<div class='center'><p>Lets practice a little to make sure you understand the difference between new, similar, and old. Lets say you saw these three items in the indoor/outdoor game.</p><p> Try your best to remember these images because youll soon be tested on them in a practice game. In the practice game, youll be shown images and youll have to say if they are old (one of the three images belows), similar (similar to one of the images below but not exactly the same), or new (are not one of the images below nor similar to them).</p><p>Once you press the space bar youll be shown these images again but one at time. Then youll begin the practice game.</p><p><img src='run_exp/static/images/tutorial/test/three_indoor_outdoor.png' height='300'></p></div>","","",""
"","html-keyboard-response","213","527496","0.0-213.0","""event"",""trial"",""time""
""fullscreenenter"",""0"",""12827""
","
","
","""event"",""trial"",""time""
""fullscreenenter"",""0"",""12827""
","
","514.8000000007451","<div class='center'><p>Lets practice a little to make sure you understand the difference between new, similar, and old. Lets say you saw these three items in the indoor/outdoor game.</p><p> Try your best to remember these images because youll soon be tested on them in a practice game. In the practice game, youll be shown images and youll have to say if they are old (one of the three images belows), similar (similar to one of the images below but not exactly the same), or new (are not one of the images below nor similar to them).</p><p>Once you press the space bar youll be shown these images again but one at time. Then youll begin the practice game.</p><p><img src='run_exp/static/images/tutorial/test/three_indoor_outdoor.png' height='300'></p><div><p><b>[Press the space bar to continue]</b></p></div>","32","","","","","","","",""
"","planet","214","529498","0.0-214.0","""event"",""trial"",""time""
""fullscreenenter"",""0"",""12827""
","
","
","""event"",""trial"",""time""
""fullscreenenter"",""0"",""12827""
","
","null","run_exp/static/images/tutorial/test/008a.jpg","null","","","","","","","",""
"","boot","215","531506","0.0-215.0","""event"",""trial"",""time""
""fullscreenenter"",""0"",""12827""
","
","
","""event"",""trial"",""time""
""fullscreenenter"",""0"",""12827""
","
","null","run_exp/static/images/tutorial/test/011a.jpg","null","","","","","","","",""
"","lemon","216","533513","0.0-216.0","""event"",""trial"",""time""
""fullscreenenter"",""0"",""12827""
","
","
","""event"",""trial"",""time""
""fullscreenenter"",""0"",""12827""
","
","null","run_exp/static/images/tutorial/test/018a.jpg","null","","","","","","","",""
"","practice_q1","217","539172","0.0-217.0","""event"",""trial"",""time""
""fullscreenenter"",""0"",""12827""
","
","
","""event"",""trial"",""time""
""fullscreenenter"",""0"",""12827""
","
","5656.599999997765","run_exp/static/audio/clip_16_practice_question.m4a","78","","","","","","","",""
"","correct","218","541208","0.0-218.0-0.0","""event"",""trial"",""time""
""fullscreenenter"",""0"",""12827""
","
","
","""event"",""trial"",""time""
""fullscreenenter"",""0"",""12827""
","
","null","run_exp/static/audio/clip_17_correct.m4a","null","","","","","<div class='center'><p>That's correct!</p></div>","","",""
"","html-keyboard-response","219","542804","0.0-218.0-1.0","""event"",""trial"",""time""
""fullscreenenter"",""0"",""12827""
","
","
","""event"",""trial"",""time""
""fullscreenenter"",""0"",""12827""
","
","1594","<div class='center'><p>That's correct!</p><div><p><b>[Press the space bar to continue]</b></p></div>","32","","","","","","","",""
"","practice_q2","220","545470","0.0-218.0-2.0","""event"",""trial"",""time""
""fullscreenenter"",""0"",""12827""
","
","
","""event"",""trial"",""time""
""fullscreenenter"",""0"",""12827""
","
","2662.400000002235","run_exp/static/audio/clip_16_practice_question.m4a","86","","","","","","","",""
"","correct","221","547518","0.0-219.0-0.0","""event"",""trial"",""time""
""fullscreenenter"",""0"",""12827""
","
","
","""event"",""trial"",""time""
""fullscreenenter"",""0"",""12827""
","
","null","run_exp/static/audio/clip_17_correct.m4a","null","","","","","<div class='center'><p>That's correct!</p></div>","","",""
"","html-keyboard-response","222","547959","0.0-219.0-1.0","""event"",""trial"",""time""
""fullscreenenter"",""0"",""12827""
","
","
","""event"",""trial"",""time""
""fullscreenenter"",""0"",""12827""
","
","439.69999999925494","<div class='center'><p>That's correct!</p><div><p><b>[Press the space bar to continue]</b></p></div>","32","","","","","","","",""
"","practice_q3","223","549402","0.0-219.0-2.0","""event"",""trial"",""time""
""fullscreenenter"",""0"",""12827""
","
","
","""event"",""trial"",""time""
""fullscreenenter"",""0"",""12827""
","
","1440.9000000022352","run_exp/static/audio/clip_16_practice_question.m4a","66","","","","","","","",""
"","correct","224","551548","0.0-220.0-0.0","""event"",""trial"",""time""
""fullscreenenter"",""0"",""12827""
","
","
","""event"",""trial"",""time""
""fullscreenenter"",""0"",""12827""
","
","null","run_exp/static/audio/clip_17_correct.m4a","null","","","","","<div class='center'><p>That's correct!</p></div>","","",""
"","html-keyboard-response","225","551872","0.0-220.0-1.0","""event"",""trial"",""time""
""fullscreenenter"",""0"",""12827""
","
","
","""event"",""trial"",""time""
""fullscreenenter"",""0"",""12827""
","
","322.80000000074506","<div class='center'><p>That's correct!</p><div><p><b>[Press the space bar to continue]</b></p></div>","32","","","","","","","",""
"","begin_text","226","570498","0.0-221.0-0.0","""event"",""trial"",""time""
""fullscreenenter"",""0"",""12827""
","
","
","""event"",""trial"",""time""
""fullscreenenter"",""0"",""12827""
","
","null","run_exp/static/audio/clip_22_begin_test.m4a","null","","","","","<div class='center'><p>On to the real game where well test your memory of items from the indoor/outdoor game. For each item, you need to indicate if the item is <b>old</b> by pressing the <b>v</b> key, <b>similar</b> by pressing the <b>b</b> key, or <b>new</b> by pressing the <b>n</b> key. </p></div>","","",""
"","html-keyboard-response","227","571657","0.0-221.0-1.0","""event"",""trial"",""time""
""fullscreenenter"",""0"",""12827""
","
","
","""event"",""trial"",""time""
""fullscreenenter"",""0"",""12827""
","
","1157.2000000029802","<div class='center'><p>On to the real game where well test your memory of items from the indoor/outdoor game. For each item, you need to indicate if the item is <b>old</b> by pressing the <b>v</b> key, <b>similar</b> by pressing the <b>b</b> key, or <b>new</b> by pressing the <b>n</b> key. </p><div><p><b>[Press the space bar to continue]</b></p></div>","32","","","","","","","",""
"","image","228","574189","0.0-222.0-0.0","""event"",""trial"",""time""
""fullscreenenter"",""0"",""12827""
","
","
","""event"",""trial"",""time""
""fullscreenenter"",""0"",""12827""
","
","2529.7000000029802","run_exp/static/images/Set 6_rs/088a.jpg","86","","","","","","test","TR","2"
"","show_choice","229","574692","0.0-222.0-1.0","""event"",""trial"",""time""
""fullscreenenter"",""0"",""12827""
","
","
","""event"",""trial"",""time""
""fullscreenenter"",""0"",""12827""
","
","null","run_exp/static/images/Set 6_rs/088a.jpg","null","","","","","","test","TR",""
"","html-keyboard-response","230","575198","0.0-222.0-2.0","""event"",""trial"",""time""
""fullscreenenter"",""0"",""12827""
","
","
","""event"",""trial"",""time""
""fullscreenenter"",""0"",""12827""
","
","null","<p></p>","null","","","","","","","",""
"","image","231","576601","0.0-223.0-0.0","""event"",""trial"",""time""
""fullscreenenter"",""0"",""12827""
","
","
","""event"",""trial"",""time""
""fullscreenenter"",""0"",""12827""
","
","1401.0999999977648","run_exp/static/images/Set 6_rs/186a.jpg","86","","","","","","test","TR","5"
"","show_choice","232","577103","0.0-223.0-1.0","""event"",""trial"",""time""
""fullscreenenter"",""0"",""12827""
","
","
","""event"",""trial"",""time""
""fullscreenenter"",""0"",""12827""
","
","null","run_exp/static/images/Set 6_rs/186a.jpg","null","","","","","","test","TR",""
"","html-keyboard-response","233","577610","0.0-223.0-2.0","""event"",""trial"",""time""
""fullscreenenter"",""0"",""12827""
","
","
","""event"",""trial"",""time""
""fullscreenenter"",""0"",""12827""
","
","null","<p></p>","null","","","","","","","",""
"","image","234","578704","0.0-224.0-0.0","""event"",""trial"",""time""
""fullscreenenter"",""0"",""12827""
","
","
","""event"",""trial"",""time""
""fullscreenenter"",""0"",""12827""
","
","1091.8999999985099","run_exp/static/images/Set 6_rs/016b.jpg","86","","","","","","test","TL","1"
"","show_choice","235","579210","0.0-224.0-1.0","""event"",""trial"",""time""
""fullscreenenter"",""0"",""12827""
","
","
","""event"",""trial"",""time""
""fullscreenenter"",""0"",""12827""
","
","null","run_exp/static/images/Set 6_rs/016b.jpg","null","","","","","","test","TL",""
"","html-keyboard-response","236","579714","0.0-224.0-2.0","""event"",""trial"",""time""
""fullscreenenter"",""0"",""12827""
","
","
","""event"",""trial"",""time""
""fullscreenenter"",""0"",""12827""
","
","null","<p></p>","null","","","","","","","",""
"","image","237","580932","0.0-225.0-0.0","""event"",""trial"",""time""
""fullscreenenter"",""0"",""12827""
","
","
","""event"",""trial"",""time""
""fullscreenenter"",""0"",""12827""
","
","1215.199999999255","run_exp/static/images/Set 6_rs/152a.jpg","86","","","","","","test","TR","2"
"","show_choice","238","581436","0.0-225.0-1.0","""event"",""trial"",""time""
""fullscreenenter"",""0"",""12827""
","
","
","""event"",""trial"",""time""
""fullscreenenter"",""0"",""12827""
","
","null","run_exp/static/images/Set 6_rs/152a.jpg","null","","","","","","test","TR",""
"","html-keyboard-response","239","581939","0.0-225.0-2.0","""event"",""trial"",""time""
""fullscreenenter"",""0"",""12827""
","
","
","""event"",""trial"",""time""
""fullscreenenter"",""0"",""12827""
","
","null","<p></p>","null","","","","","","","",""
"","image","240","583098","0.0-226.0-0.0","""event"",""trial"",""time""
""fullscreenenter"",""0"",""12827""
","
","
","""event"",""trial"",""time""
""fullscreenenter"",""0"",""12827""
","
","1156.6000000014901","run_exp/static/images/Set 6_rs/077a.jpg","78","","","","","","test","TF","3"
"","show_choice","241","583600","0.0-226.0-1.0","""event"",""trial"",""time""
""fullscreenenter"",""0"",""12827""
","
","
","""event"",""trial"",""time""
""fullscreenenter"",""0"",""12827""
","
","null","run_exp/static/images/Set 6_rs/077a.jpg","null","","","","","","test","TF",""
"","html-keyboard-response","242","584107","0.0-226.0-2.0","""event"",""trial"",""time""
""fullscreenenter"",""0"",""12827""
","
","
","""event"",""trial"",""time""
""fullscreenenter"",""0"",""12827""
","
","null","<p></p>","null","","","","","","","",""
"","image","243","585343","0.0-227.0-0.0","""event"",""trial"",""time""
""fullscreenenter"",""0"",""12827""
","
","
","""event"",""trial"",""time""
""fullscreenenter"",""0"",""12827""
","
","1233.5","run_exp/static/images/Set 6_rs/090a.jpg","66","","","","","","test","TF","5"
"","show_choice","244","585845","0.0-227.0-1.0","""event"",""trial"",""time""
""fullscreenenter"",""0"",""12827""
","
","
","""event"",""trial"",""time""
""fullscreenenter"",""0"",""12827""
","
","null","run_exp/static/images/Set 6_rs/090a.jpg","null","","","","","","test","TF",""
"","html-keyboard-response","245","586351","0.0-227.0-2.0","""event"",""trial"",""time""
""fullscreenenter"",""0"",""12827""
","
","
","""event"",""trial"",""time""
""fullscreenenter"",""0"",""12827""
","
","null","<p></p>","null","","","","","","","",""
"","image","246","587583","0.0-228.0-0.0","""event"",""trial"",""time""
""fullscreenenter"",""0"",""12827""
","
","
","""event"",""trial"",""time""
""fullscreenenter"",""0"",""12827""
","
","1229.699999999255","run_exp/static/images/Set 6_rs/176a.jpg","78","","","","","","test","TF","4"
"","show_choice","247","588088","0.0-228.0-1.0","""event"",""trial"",""time""
""fullscreenenter"",""0"",""12827""
","
","
","""event"",""trial"",""time""
""fullscreenenter"",""0"",""12827""
","
","null","run_exp/static/images/Set 6_rs/176a.jpg","null","","","","","","test","TF",""
"","html-keyboard-response","248","588594","0.0-228.0-2.0","""event"",""trial"",""time""
""fullscreenenter"",""0"",""12827""
","
","
","""event"",""trial"",""time""
""fullscreenenter"",""0"",""12827""
","
","null","<p></p>","null","","","","","","","",""
"","image","249","590206","0.0-229.0-0.0","""event"",""trial"",""time""
""fullscreenenter"",""0"",""12827""
","
","
","""event"",""trial"",""time""
""fullscreenenter"",""0"",""12827""
","
","1609.300000000745","run_exp/static/images/Set 6_rs/091b.jpg","66","","","","","","test","TL","3"
"","show_choice","250","590708","0.0-229.0-1.0","""event"",""trial"",""time""
""fullscreenenter"",""0"",""12827""
","
","
","""event"",""trial"",""time""
""fullscreenenter"",""0"",""12827""
","
","null","run_exp/static/images/Set 6_rs/091b.jpg","null","","","","","","test","TL",""
"","html-keyboard-response","251","591214","0.0-229.0-2.0","""event"",""trial"",""time""
""fullscreenenter"",""0"",""12827""
","
","
","""event"",""trial"",""time""
""fullscreenenter"",""0"",""12827""
","
","null","<p></p>","null","","","","","","","",""
"","image","252","592235","0.0-230.0-0.0","""event"",""trial"",""time""
""fullscreenenter"",""0"",""12827""
","
","
","""event"",""trial"",""time""
""fullscreenenter"",""0"",""12827""
","
","1017.8000000007451","run_exp/static/images/Set 6_rs/045a.jpg","86","","","","","","test","TR","2"
"","show_choice","253","592740","0.0-230.0-1.0","""event"",""trial"",""time""
""fullscreenenter"",""0"",""12827""
","
","
","""event"",""trial"",""time""
""fullscreenenter"",""0"",""12827""
","
","null","run_exp/static/images/Set 6_rs/045a.jpg","null","","","","","","test","TR",""
"","html-keyboard-response","254","593247","0.0-230.0-2.0","""event"",""trial"",""time""
""fullscreenenter"",""0"",""12827""
","
","
","""event"",""trial"",""time""
""fullscreenenter"",""0"",""12827""
","
","null","<p></p>","null","","","","","","","",""
"","image","255","594125","0.0-231.0-0.0","""event"",""trial"",""time""
""fullscreenenter"",""0"",""12827""
","
","
","""event"",""trial"",""time""
""fullscreenenter"",""0"",""12827""
","
","875.8999999985099","run_exp/static/images/Set 6_rs/005a.jpg","78","","","","","","test","TF","5"
"","show_choice","256","594630","0.0-231.0-1.0","""event"",""trial"",""time""
""fullscreenenter"",""0"",""12827""
","
","
","""event"",""trial"",""time""
""fullscreenenter"",""0"",""12827""
","
","null","run_exp/static/images/Set 6_rs/005a.jpg","null","","","","","","test","TF",""
"","html-keyboard-response","257","595137","0.0-231.0-2.0","""event"",""trial"",""time""
""fullscreenenter"",""0"",""12827""
","
","
","""event"",""trial"",""time""
""fullscreenenter"",""0"",""12827""
","
","null","<p></p>","null","","","","","","","",""
"","image","258","596082","0.0-232.0-0.0","""event"",""trial"",""time""
""fullscreenenter"",""0"",""12827""
","
","
","""event"",""trial"",""time""
""fullscreenenter"",""0"",""12827""
","
","942.3999999985099","run_exp/static/images/Set 6_rs/021a.jpg","78","","","","","","test","TF","2"
"","show_choice","259","596587","0.0-232.0-1.0","""event"",""trial"",""time""
""fullscreenenter"",""0"",""12827""
","
","
","""event"",""trial"",""time""
""fullscreenenter"",""0"",""12827""
","
","null","run_exp/static/images/Set 6_rs/021a.jpg","null","","","","","","test","TF",""
"","html-keyboard-response","260","597093","0.0-232.0-2.0","""event"",""trial"",""time""
""fullscreenenter"",""0"",""12827""
","
","
","""event"",""trial"",""time""
""fullscreenenter"",""0"",""12827""
","
","null","<p></p>","null","","","","","","","",""
"","image","261","598265","0.0-233.0-0.0","""event"",""trial"",""time""
""fullscreenenter"",""0"",""12827""
","
","
","""event"",""trial"",""time""
""fullscreenenter"",""0"",""12827""
","
","1170.199999999255","run_exp/static/images/Set 6_rs/117b.jpg","66","","","","","","test","TL","5"
"","show_choice","262","598767","0.0-233.0-1.0","""event"",""trial"",""time""
""fullscreenenter"",""0"",""12827""
","
","
","""event"",""trial"",""time""
""fullscreenenter"",""0"",""12827""
","
","null","run_exp/static/images/Set 6_rs/117b.jpg","null","","","","","","test","TL",""
"","html-keyboard-response","263","599272","0.0-233.0-2.0","""event"",""trial"",""time""
""fullscreenenter"",""0"",""12827""
","
","
","""event"",""trial"",""time""
""fullscreenenter"",""0"",""12827""
","
","null","<p></p>","null","","","","","","","",""
"","image","264","600295","0.0-234.0-0.0","""event"",""trial"",""time""
""fullscreenenter"",""0"",""12827""
","
","
","""event"",""trial"",""time""
""fullscreenenter"",""0"",""12827""
","
","1020.3999999985099","run_exp/static/images/Set 6_rs/133a.jpg","78","","","","","","test","TF","4"
"","show_choice","265","600800","0.0-234.0-1.0","""event"",""trial"",""time""
""fullscreenenter"",""0"",""12827""
","
","
","""event"",""trial"",""time""
""fullscreenenter"",""0"",""12827""
","
","null","run_exp/static/images/Set 6_rs/133a.jpg","null","","","","","","test","TF",""
"","html-keyboard-response","266","601306","0.0-234.0-2.0","""event"",""trial"",""time""
""fullscreenenter"",""0"",""12827""
","
","
","""event"",""trial"",""time""
""fullscreenenter"",""0"",""12827""
","
","null","<p></p>","null","","","","","","","",""
"","image","267","602392","0.0-235.0-0.0","""event"",""trial"",""time""
""fullscreenenter"",""0"",""12827""
","
","
","""event"",""trial"",""time""
""fullscreenenter"",""0"",""12827""
","
","1083.300000000745","run_exp/static/images/Set 6_rs/154a.jpg","66","","","","","","test","TR","3"
"","show_choice","268","602893","0.0-235.0-1.0","""event"",""trial"",""time""
""fullscreenenter"",""0"",""12827""
","
","
","""event"",""trial"",""time""
""fullscreenenter"",""0"",""12827""
","
","null","run_exp/static/images/Set 6_rs/154a.jpg","null","","","","","","test","TR",""
"","html-keyboard-response","269","603400","0.0-235.0-2.0","""event"",""trial"",""time""
""fullscreenenter"",""0"",""12827""
","
","
","""event"",""trial"",""time""
""fullscreenenter"",""0"",""12827""
","
","null","<p></p>","null","","","","","","","",""
"","image","270","604389","0.0-236.0-0.0","""event"",""trial"",""time""
""fullscreenenter"",""0"",""12827""
","
","
","""event"",""trial"",""time""
""fullscreenenter"",""0"",""12827""
","
","987.5","run_exp/static/images/Set 6_rs/075a.jpg","86","","","","","","test","TR","1"
"","show_choice","271","604895","0.0-236.0-1.0","""event"",""trial"",""time""
""fullscreenenter"",""0"",""12827""
","
","
","""event"",""trial"",""time""
""fullscreenenter"",""0"",""12827""
","
","null","run_exp/static/images/Set 6_rs/075a.jpg","null","","","","","","test","TR",""
"","html-keyboard-response","272","605399","0.0-236.0-2.0","""event"",""trial"",""time""
""fullscreenenter"",""0"",""12827""
","
","
","""event"",""trial"",""time""
""fullscreenenter"",""0"",""12827""
","
","null","<p></p>","null","","","","","","","",""
"","image","273","606357","0.0-237.0-0.0","""event"",""trial"",""time""
""fullscreenenter"",""0"",""12827""
","
","
","""event"",""trial"",""time""
""fullscreenenter"",""0"",""12827""
","
","955.5","run_exp/static/images/Set 6_rs/064a.jpg","86","","","","","","test","TR","5"
"","show_choice","274","606860","0.0-237.0-1.0","""event"",""trial"",""time""
""fullscreenenter"",""0"",""12827""
","
","
","""event"",""trial"",""time""
""fullscreenenter"",""0"",""12827""
","
","null","run_exp/static/images/Set 6_rs/064a.jpg","null","","","","","","test","TR",""
"","html-keyboard-response","275","607363","0.0-237.0-2.0","""event"",""trial"",""time""
""fullscreenenter"",""0"",""12827""
","
","
","""event"",""trial"",""time""
""fullscreenenter"",""0"",""12827""
","
","null","<p></p>","null","","","","","","","",""
"","image","276","609109","0.0-238.0-0.0","""event"",""trial"",""time""
""fullscreenenter"",""0"",""12827""
","
","
","""event"",""trial"",""time""
""fullscreenenter"",""0"",""12827""
","
","1744","run_exp/static/images/Set 6_rs/014b.jpg","86","","","","","","test","TL","5"
"","show_choice","277","609614","0.0-238.0-1.0","""event"",""trial"",""time""
""fullscreenenter"",""0"",""12827""
","
","
","""event"",""trial"",""time""
""fullscreenenter"",""0"",""12827""
","
","null","run_exp/static/images/Set 6_rs/014b.jpg","null","","","","","","test","TL",""
"","html-keyboard-response","278","610115","0.0-238.0-2.0","""event"",""trial"",""time""
""fullscreenenter"",""0"",""12827""
","
","
","""event"",""trial"",""time""
""fullscreenenter"",""0"",""12827""
","
","null","<p></p>","null","","","","","","","",""
"","image","279","611217","0.0-239.0-0.0","""event"",""trial"",""time""
""fullscreenenter"",""0"",""12827""
","
","
","""event"",""trial"",""time""
""fullscreenenter"",""0"",""12827""
","
","1099.699999999255","run_exp/static/images/Set 6_rs/061a.jpg","86","","","","","","test","TR","5"
"","show_choice","280","611722","0.0-239.0-1.0","""event"",""trial"",""time""
""fullscreenenter"",""0"",""12827""
","
","
","""event"",""trial"",""time""
""fullscreenenter"",""0"",""12827""
","
","null","run_exp/static/images/Set 6_rs/061a.jpg","null","","","","","","test","TR",""
"","html-keyboard-response","281","612229","0.0-239.0-2.0","""event"",""trial"",""time""
""fullscreenenter"",""0"",""12827""
","
","
","""event"",""trial"",""time""
""fullscreenenter"",""0"",""12827""
","
","null","<p></p>","null","","","","","","","",""
"","image","282","613112","0.0-240.0-0.0","""event"",""trial"",""time""
""fullscreenenter"",""0"",""12827""
","
","
","""event"",""trial"",""time""
""fullscreenenter"",""0"",""12827""
","
","880.5999999977648","run_exp/static/images/Set 6_rs/112a.jpg","86","","","","","","test","TR","5"
"","show_choice","283","613616","0.0-240.0-1.0","""event"",""trial"",""time""
""fullscreenenter"",""0"",""12827""
","
","
","""event"",""trial"",""time""
""fullscreenenter"",""0"",""12827""
","
","null","run_exp/static/images/Set 6_rs/112a.jpg","null","","","","","","test","TR",""
"","html-keyboard-response","284","614123","0.0-240.0-2.0","""event"",""trial"",""time""
""fullscreenenter"",""0"",""12827""
","
","
","""event"",""trial"",""time""
""fullscreenenter"",""0"",""12827""
","
","null","<p></p>","null","","","","","","","",""
"","image","285","615091","0.0-241.0-0.0","""event"",""trial"",""time""
""fullscreenenter"",""0"",""12827""
","
","
","""event"",""trial"",""time""
""fullscreenenter"",""0"",""12827""
","
","965.2999999970198","run_exp/static/images/Set 6_rs/105a.jpg","66","","","","","","test","TF","5"
"","show_choice","286","615595","0.0-241.0-1.0","""event"",""trial"",""time""
""fullscreenenter"",""0"",""12827""
","
","
","""event"",""trial"",""time""
""fullscreenenter"",""0"",""12827""
","
","null","run_exp/static/images/Set 6_rs/105a.jpg","null","","","","","","test","TF",""
"","html-keyboard-response","287","616102","0.0-241.0-2.0","""event"",""trial"",""time""
""fullscreenenter"",""0"",""12827""
","
","
","""event"",""trial"",""time""
""fullscreenenter"",""0"",""12827""
","
","null","<p></p>","null","","","","","","","",""
"","image","288","616978","0.0-242.0-0.0","""event"",""trial"",""time""
""fullscreenenter"",""0"",""12827""
","
","
","""event"",""trial"",""time""
""fullscreenenter"",""0"",""12827""
","
","874.3000000007451","run_exp/static/images/Set 6_rs/190a.jpg","78","","","","","","test","TF","3"
"","show_choice","289","617481","0.0-242.0-1.0","""event"",""trial"",""time""
""fullscreenenter"",""0"",""12827""
","
","
","""event"",""trial"",""time""
""fullscreenenter"",""0"",""12827""
","
","null","run_exp/static/images/Set 6_rs/190a.jpg","null","","","","","","test","TF",""
"","html-keyboard-response","290","617983","0.0-242.0-2.0","""event"",""trial"",""time""
""fullscreenenter"",""0"",""12827""
","
","
","""event"",""trial"",""time""
""fullscreenenter"",""0"",""12827""
","
","null","<p></p>","null","","","","","","","",""
"","image","291","618928","0.0-243.0-0.0","""event"",""trial"",""time""
""fullscreenenter"",""0"",""12827""
","
","
","""event"",""trial"",""time""
""fullscreenenter"",""0"",""12827""
","
","942.6999999992549","run_exp/static/images/Set 6_rs/141a.jpg","86","","","","","","test","TR","2"
"","show_choice","292","619432","0.0-243.0-1.0","""event"",""trial"",""time""
""fullscreenenter"",""0"",""12827""
","
","
","""event"",""trial"",""time""
""fullscreenenter"",""0"",""12827""
","
","null","run_exp/static/images/Set 6_rs/141a.jpg","null","","","","","","test","TR",""
"","html-keyboard-response","293","619939","0.0-243.0-2.0","""event"",""trial"",""time""
""fullscreenenter"",""0"",""12827""
","
","
","""event"",""trial"",""time""
""fullscreenenter"",""0"",""12827""
","
","null","<p></p>","null","","","","","","","",""
"","image","294","621250","0.0-244.0-0.0","""event"",""trial"",""time""
""fullscreenenter"",""0"",""12827""
","
","
","""event"",""trial"",""time""
""fullscreenenter"",""0"",""12827""
","
","1308.1000000014901","run_exp/static/images/Set 6_rs/011a.jpg","66","","","","","","test","TF","3"
"","show_choice","295","621752","0.0-244.0-1.0","""event"",""trial"",""time""
""fullscreenenter"",""0"",""12827""
","
","
","""event"",""trial"",""time""
""fullscreenenter"",""0"",""12827""
","
","null","run_exp/static/images/Set 6_rs/011a.jpg","null","","","","","","test","TF",""
"","html-keyboard-response","296","622259","0.0-244.0-2.0","""event"",""trial"",""time""
""fullscreenenter"",""0"",""12827""
","
","
","""event"",""trial"",""time""
""fullscreenenter"",""0"",""12827""
","
","null","<p></p>","null","","","","","","","",""
"","image","297","623309","0.0-245.0-0.0","""event"",""trial"",""time""
""fullscreenenter"",""0"",""12827""
","
","
","""event"",""trial"",""time""
""fullscreenenter"",""0"",""12827""
","
","1047.5999999977648","run_exp/static/images/Set 6_rs/065a.jpg","78","","","","","","test","TF","3"
"","show_choice","298","623813","0.0-245.0-1.0","""event"",""trial"",""time""
""fullscreenenter"",""0"",""12827""
","
","
","""event"",""trial"",""time""
""fullscreenenter"",""0"",""12827""
","
","null","run_exp/static/images/Set 6_rs/065a.jpg","null","","","","","","test","TF",""
"","html-keyboard-response","299","624319","0.0-245.0-2.0","""event"",""trial"",""time""
""fullscreenenter"",""0"",""12827""
","
","
","""event"",""trial"",""time""
""fullscreenenter"",""0"",""12827""
","
","null","<p></p>","null","","","","","","","",""
"","image","300","625125","0.0-246.0-0.0","""event"",""trial"",""time""
""fullscreenenter"",""0"",""12827""
","
","
","""event"",""trial"",""time""
""fullscreenenter"",""0"",""12827""
","
","803.8999999985099","run_exp/static/images/Set 6_rs/015a.jpg","78","","","","","","test","TF","4"
"","show_choice","301","625630","0.0-246.0-1.0","""event"",""trial"",""time""
""fullscreenenter"",""0"",""12827""
","
","
","""event"",""trial"",""time""
""fullscreenenter"",""0"",""12827""
","
","null","run_exp/static/images/Set 6_rs/015a.jpg","null","","","","","","test","TF",""
"","html-keyboard-response","302","626136","0.0-246.0-2.0","""event"",""trial"",""time""
""fullscreenenter"",""0"",""12827""
","
","
","""event"",""trial"",""time""
""fullscreenenter"",""0"",""12827""
","
","null","<p></p>","null","","","","","","","",""
"","image","303","627180","0.0-247.0-0.0","""event"",""trial"",""time""
""fullscreenenter"",""0"",""12827""
","
","
","""event"",""trial"",""time""
""fullscreenenter"",""0"",""12827""
","
","1041.5999999977648","run_exp/static/images/Set 6_rs/055b.jpg","66","","","","","","test","TL","4"
"","show_choice","304","627685","0.0-247.0-1.0","""event"",""trial"",""time""
""fullscreenenter"",""0"",""12827""
","
","
","""event"",""trial"",""time""
""fullscreenenter"",""0"",""12827""
","
","null","run_exp/static/images/Set 6_rs/055b.jpg","null","","","","","","test","TL",""
"","html-keyboard-response","305","628191","0.0-247.0-2.0","""event"",""trial"",""time""
""fullscreenenter"",""0"",""12827""
","
","
","""event"",""trial"",""time""
""fullscreenenter"",""0"",""12827""
","
","null","<p></p>","null","","","","","","","",""
"","image","306","629190","0.0-248.0-0.0","""event"",""trial"",""time""
""fullscreenenter"",""0"",""12827""
","
","
","""event"",""trial"",""time""
""fullscreenenter"",""0"",""12827""
","
","997","run_exp/static/images/Set 6_rs/177a.jpg","86","","","","","","test","TR","5"
"","show_choice","307","629692","0.0-248.0-1.0","""event"",""trial"",""time""
""fullscreenenter"",""0"",""12827""
","
","
","""event"",""trial"",""time""
""fullscreenenter"",""0"",""12827""
","
","null","run_exp/static/images/Set 6_rs/177a.jpg","null","","","","","","test","TR",""
"","html-keyboard-response","308","630194","0.0-248.0-2.0","""event"",""trial"",""time""
""fullscreenenter"",""0"",""12827""
","
","
","""event"",""trial"",""time""
""fullscreenenter"",""0"",""12827""
","
","null","<p></p>","null","","","","","","","",""
"","image","309","631028","0.0-249.0-0.0","""event"",""trial"",""time""
""fullscreenenter"",""0"",""12827""
","
","
","""event"",""trial"",""time""
""fullscreenenter"",""0"",""12827""
","
","831.6999999992549","run_exp/static/images/Set 6_rs/171a.jpg","78","","","","","","test","TF","1"
"","show_choice","310","631532","0.0-249.0-1.0","""event"",""trial"",""time""
""fullscreenenter"",""0"",""12827""
","
","
","""event"",""trial"",""time""
""fullscreenenter"",""0"",""12827""
","
","null","run_exp/static/images/Set 6_rs/171a.jpg","null","","","","","","test","TF",""
"","html-keyboard-response","311","632035","0.0-249.0-2.0","""event"",""trial"",""time""
""fullscreenenter"",""0"",""12827""
","
","
","""event"",""trial"",""time""
""fullscreenenter"",""0"",""12827""
","
","null","<p></p>","null","","","","","","","",""
"","image","312","632887","0.0-250.0-0.0","""event"",""trial"",""time""
""fullscreenenter"",""0"",""12827""
","
","
","""event"",""trial"",""time""
""fullscreenenter"",""0"",""12827""
","
","849","run_exp/static/images/Set 6_rs/008b.jpg","86","","","","","","test","TL","2"
"","show_choice","313","633391","0.0-250.0-1.0","""event"",""trial"",""time""
""fullscreenenter"",""0"",""12827""
","
","
","""event"",""trial"",""time""
""fullscreenenter"",""0"",""12827""
","
","null","run_exp/static/images/Set 6_rs/008b.jpg","null","","","","","","test","TL",""
"","html-keyboard-response","314","633897","0.0-250.0-2.0","""event"",""trial"",""time""
""fullscreenenter"",""0"",""12827""
","
","
","""event"",""trial"",""time""
""fullscreenenter"",""0"",""12827""
","
","null","<p></p>","null","","","","","","","",""
"","image","315","634794","0.0-251.0-0.0","""event"",""trial"",""time""
""fullscreenenter"",""0"",""12827""
","
","
","""event"",""trial"",""time""
""fullscreenenter"",""0"",""12827""
","
","894.5","run_exp/static/images/Set 6_rs/178a.jpg","86","","","","","","test","TR","3"
"","show_choice","316","635299","0.0-251.0-1.0","""event"",""trial"",""time""
""fullscreenenter"",""0"",""12827""
","
","
","""event"",""trial"",""time""
""fullscreenenter"",""0"",""12827""
","
","null","run_exp/static/images/Set 6_rs/178a.jpg","null","","","","","","test","TR",""
"","html-keyboard-response","317","635806","0.0-251.0-2.0","""event"",""trial"",""time""
""fullscreenenter"",""0"",""12827""
","
","
","""event"",""trial"",""time""
""fullscreenenter"",""0"",""12827""
","
","null","<p></p>","null","","","","","","","",""
"","image","318","636739","0.0-252.0-0.0","""event"",""trial"",""time""
""fullscreenenter"",""0"",""12827""
","
","
","""event"",""trial"",""time""
""fullscreenenter"",""0"",""12827""
","
","931.0999999977648","run_exp/static/images/Set 6_rs/073b.jpg","66","","","","","","test","TL","3"
"","show_choice","319","637241","0.0-252.0-1.0","""event"",""trial"",""time""
""fullscreenenter"",""0"",""12827""
","
","
","""event"",""trial"",""time""
""fullscreenenter"",""0"",""12827""
","
","null","run_exp/static/images/Set 6_rs/073b.jpg","null","","","","","","test","TL",""
"","html-keyboard-response","320","637748","0.0-252.0-2.0","""event"",""trial"",""time""
""fullscreenenter"",""0"",""12827""
","
","
","""event"",""trial"",""time""
""fullscreenenter"",""0"",""12827""
","
","null","<p></p>","null","","","","","","","",""
"","image","321","638642","0.0-253.0-0.0","""event"",""trial"",""time""
""fullscreenenter"",""0"",""12827""
","
","
","""event"",""trial"",""time""
""fullscreenenter"",""0"",""12827""
","
","892.1999999992549","run_exp/static/images/Set 6_rs/108a.jpg","86","","","","","","test","TR","5"
"","show_choice","322","639147","0.0-253.0-1.0","""event"",""trial"",""time""
""fullscreenenter"",""0"",""12827""
","
","
","""event"",""trial"",""time""
""fullscreenenter"",""0"",""12827""
","
","null","run_exp/static/images/Set 6_rs/108a.jpg","null","","","","","","test","TR",""
"","html-keyboard-response","323","639654","0.0-253.0-2.0","""event"",""trial"",""time""
""fullscreenenter"",""0"",""12827""
","
","
","""event"",""trial"",""time""
""fullscreenenter"",""0"",""12827""
","
","null","<p></p>","null","","","","","","","",""
"","image","324","640512","0.0-254.0-0.0","""event"",""trial"",""time""
""fullscreenenter"",""0"",""12827""
","
","
","""event"",""trial"",""time""
""fullscreenenter"",""0"",""12827""
","
","855.8999999985099","run_exp/static/images/Set 6_rs/118a.jpg","78","","","","","","test","TF","5"
"","show_choice","325","641014","0.0-254.0-1.0","""event"",""trial"",""time""
""fullscreenenter"",""0"",""12827""
","
","
","""event"",""trial"",""time""
""fullscreenenter"",""0"",""12827""
","
","null","run_exp/static/images/Set 6_rs/118a.jpg","null","","","","","","test","TF",""
"","html-keyboard-response","326","641521","0.0-254.0-2.0","""event"",""trial"",""time""
""fullscreenenter"",""0"",""12827""
","
","
","""event"",""trial"",""time""
""fullscreenenter"",""0"",""12827""
","
","null","<p></p>","null","","","","","","","",""
"","image","327","642576","0.0-255.0-0.0","""event"",""trial"",""time""
""fullscreenenter"",""0"",""12827""
","
","
","""event"",""trial"",""time""
""fullscreenenter"",""0"",""12827""
","
","1053.300000000745","run_exp/static/images/Set 6_rs/155a.jpg","78","","","","","","test","TF","4"
"","show_choice","328","643080","0.0-255.0-1.0","""event"",""trial"",""time""
""fullscreenenter"",""0"",""12827""
","
","
","""event"",""trial"",""time""
""fullscreenenter"",""0"",""12827""
","
","null","run_exp/static/images/Set 6_rs/155a.jpg","null","","","","","","test","TF",""
"","html-keyboard-response","329","643587","0.0-255.0-2.0","""event"",""trial"",""time""
""fullscreenenter"",""0"",""12827""
","
","
","""event"",""trial"",""time""
""fullscreenenter"",""0"",""12827""
","
","null","<p></p>","null","","","","","","","",""
"","image","330","644401","0.0-256.0-0.0","""event"",""trial"",""time""
""fullscreenenter"",""0"",""12827""
","
","
","""event"",""trial"",""time""
""fullscreenenter"",""0"",""12827""
","
","812.6000000014901","run_exp/static/images/Set 6_rs/132a.jpg","86","","","","","","test","TR","5"
"","show_choice","331","644906","0.0-256.0-1.0","""event"",""trial"",""time""
""fullscreenenter"",""0"",""12827""
","
","
","""event"",""trial"",""time""
""fullscreenenter"",""0"",""12827""
","
","null","run_exp/static/images/Set 6_rs/132a.jpg","null","","","","","","test","TR",""
"","html-keyboard-response","332","645412","0.0-256.0-2.0","""event"",""trial"",""time""
""fullscreenenter"",""0"",""12827""
","
","
","""event"",""trial"",""time""
""fullscreenenter"",""0"",""12827""
","
","null","<p></p>","null","","","","","","","",""
"","image","333","646281","0.0-257.0-0.0","""event"",""trial"",""time""
""fullscreenenter"",""0"",""12827""
","
","
","""event"",""trial"",""time""
""fullscreenenter"",""0"",""12827""
","
","866.8000000007451","run_exp/static/images/Set 6_rs/063a.jpg","86","","","","","","test","TR","2"
"","show_choice","334","646784","0.0-257.0-1.0","""event"",""trial"",""time""
""fullscreenenter"",""0"",""12827""
","
","
","""event"",""trial"",""time""
""fullscreenenter"",""0"",""12827""
","
","null","run_exp/static/images/Set 6_rs/063a.jpg","null","","","","","","test","TR",""
"","html-keyboard-response","335","647287","0.0-257.0-2.0","""event"",""trial"",""time""
""fullscreenenter"",""0"",""12827""
","
","
","""event"",""trial"",""time""
""fullscreenenter"",""0"",""12827""
","
","null","<p></p>","null","","","","","","","",""
"","image","336","648148","0.0-258.0-0.0","""event"",""trial"",""time""
""fullscreenenter"",""0"",""12827""
","
","
","""event"",""trial"",""time""
""fullscreenenter"",""0"",""12827""
","
","858.3999999985099","run_exp/static/images/Set 6_rs/136a.jpg","78","","","","","","test","TF","4"
"","show_choice","337","648652","0.0-258.0-1.0","""event"",""trial"",""time""
""fullscreenenter"",""0"",""12827""
","
","
","""event"",""trial"",""time""
""fullscreenenter"",""0"",""12827""
","
","null","run_exp/static/images/Set 6_rs/136a.jpg","null","","","","","","test","TF",""
"","html-keyboard-response","338","649159","0.0-258.0-2.0","""event"",""trial"",""time""
""fullscreenenter"",""0"",""12827""
","
","
","""event"",""trial"",""time""
""fullscreenenter"",""0"",""12827""
","
","null","<p></p>","null","","","","","","","",""
