"success","trial_type","trial_index","time_elapsed","internal_node_id","interactions","blur_events","focus_events","fullscreenenter_events","fullscreenexit_events","rt","stimulus","key_press","subject_id","participant_id","age","gender","prompt","phase","condition","lure_bin"
"true","fullscreen","0","2011","0.0-0.0","""event"",""trial"",""time""
""fullscreenenter"",""0"",""1023""
","
","
","""event"",""trial"",""time""
""fullscreenenter"",""0"",""1023""
","
","","","","","","","","","","",""
"","pavlovia","1","2014","0.0-1.0","""event"",""trial"",""time""
""fullscreenenter"",""0"",""1023""
","
","
","""event"",""trial"",""time""
""fullscreenenter"",""0"",""1023""
","
","","","","","","","","","","",""
"","welcome","2","44827","0.0-2.0","""event"",""trial"",""time""
""fullscreenenter"",""0"",""1023""
","
","
","""event"",""trial"",""time""
""fullscreenenter"",""0"",""1023""
","
","null","run_exp/static/audio/clip_1_welcome.m4a","null","1563","1570","18","Male","<div class='center'><p>Welcome to the third part of the study! First, you'll be shown pictures of items one at a time. For each picture, you have to decide if the item is typically found indoors or outdoors.</p><p>If you think it's usually found indoors, then press <b>v</b> key on your keyboard. If you think it's usually found outdoors, then press the <b>n</b> key.There will be reminders on the screen to help you remember which keys to press. </p><p>If you're not sure whether the item is an indoor item or an outdoor item, go ahead and take a guess but try your best not to skip that choice. </p></div>","","",""
"","html-keyboard-response","3","44896","0.0-3.0","""event"",""trial"",""time""
""fullscreenenter"",""0"",""1023""
","
","
","""event"",""trial"",""time""
""fullscreenenter"",""0"",""1023""
","
","67.90000000037253","<div class='center'><p>Welcome to the third part of the study! First, you'll be shown pictures of items one at a time. For each picture, you have to decide if the item is typically found indoors or outdoors.</p><p>If you think it's usually found indoors, then press <b>v</b> key on your keyboard. If you think it's usually found outdoors, then press the <b>n</b> key.There will be reminders on the screen to help you remember which keys to press. </p><p>If you're not sure whether the item is an indoor item or an outdoor item, go ahead and take a guess but try your best not to skip that choice. </p><div><p><b>[Press the space bar to continue]</b></p></div>","32","","","","","","","",""
"","image","4","46297","0.0-4.0","""event"",""trial"",""time""
""fullscreenenter"",""0"",""1023""
","
","
","""event"",""trial"",""time""
""fullscreenenter"",""0"",""1023""
","
","1399.5999999996275","run_exp/static/images/Set 6_rs/016a.jpg","86","","","","","","learn","SL",""
"","show_choice","5","46910","0.0-5.0","""event"",""trial"",""time""
""fullscreenenter"",""0"",""1023""
","
","
","""event"",""trial"",""time""
""fullscreenenter"",""0"",""1023""
","
","null","run_exp/static/images/Set 6_rs/016a.jpg","null","","","","","","learn","SL",""
"","html-keyboard-response","6","47419","0.0-6.0","""event"",""trial"",""time""
""fullscreenenter"",""0"",""1023""
","
","
","""event"",""trial"",""time""
""fullscreenenter"",""0"",""1023""
","
","null","<p></p>","null","","","","","","","",""
"","image","7","48966","0.0-7.0","""event"",""trial"",""time""
""fullscreenenter"",""0"",""1023""
","
","
","""event"",""trial"",""time""
""fullscreenenter"",""0"",""1023""
","
","1546.0999999996275","run_exp/static/images/Set 6_rs/064a.jpg","78","","","","","","learn","SR",""
"","show_choice","8","49427","0.0-8.0","""event"",""trial"",""time""
""fullscreenenter"",""0"",""1023""
","
","
","""event"",""trial"",""time""
""fullscreenenter"",""0"",""1023""
","
","null","run_exp/static/images/Set 6_rs/064a.jpg","null","","","","","","learn","SR",""
"","html-keyboard-response","9","49936","0.0-9.0","""event"",""trial"",""time""
""fullscreenenter"",""0"",""1023""
","
","
","""event"",""trial"",""time""
""fullscreenenter"",""0"",""1023""
","
","null","<p></p>","null","","","","","","","",""
"","image","10","50912","0.0-10.0","""event"",""trial"",""time""
""fullscreenenter"",""0"",""1023""
","
","
","""event"",""trial"",""time""
""fullscreenenter"",""0"",""1023""
","
","975.5999999996275","run_exp/static/images/Set 6_rs/062a.jpg","86","","","","","","learn","SL",""
"","show_choice","11","51941","0.0-11.0","""event"",""trial"",""time""
""fullscreenenter"",""0"",""1023""
","
","
","""event"",""trial"",""time""
""fullscreenenter"",""0"",""1023""
","
","null","run_exp/static/images/Set 6_rs/062a.jpg","null","","","","","","learn","SL",""
"","html-keyboard-response","12","52452","0.0-12.0","""event"",""trial"",""time""
""fullscreenenter"",""0"",""1023""
","
","
","""event"",""trial"",""time""
""fullscreenenter"",""0"",""1023""
","
","null","<p></p>","null","","","","","","","",""
"","image","13","52995","0.0-13.0","""event"",""trial"",""time""
""fullscreenenter"",""0"",""1023""
","
","
","""event"",""trial"",""time""
""fullscreenenter"",""0"",""1023""
","
","542.3999999985099","run_exp/static/images/Set 6_rs/187a.jpg","86","","","","","","learn","SR",""
"","show_choice","14","54459","0.0-14.0","""event"",""trial"",""time""
""fullscreenenter"",""0"",""1023""
","
","
","""event"",""trial"",""time""
""fullscreenenter"",""0"",""1023""
","
","null","run_exp/static/images/Set 6_rs/187a.jpg","null","","","","","","learn","SR",""
"","html-keyboard-response","15","54969","0.0-15.0","""event"",""trial"",""time""
""fullscreenenter"",""0"",""1023""
","
","
","""event"",""trial"",""time""
""fullscreenenter"",""0"",""1023""
","
","null","<p></p>","null","","","","","","","",""
"","image","16","55528","0.0-16.0","""event"",""trial"",""time""
""fullscreenenter"",""0"",""1023""
","
","
","""event"",""trial"",""time""
""fullscreenenter"",""0"",""1023""
","
","558.0999999996275","run_exp/static/images/Set 6_rs/045a.jpg","86","","","","","","learn","SR",""
"","show_choice","17","56975","0.0-17.0","""event"",""trial"",""time""
""fullscreenenter"",""0"",""1023""
","
","
","""event"",""trial"",""time""
""fullscreenenter"",""0"",""1023""
","
","null","run_exp/static/images/Set 6_rs/045a.jpg","null","","","","","","learn","SR",""
"","html-keyboard-response","18","57483","0.0-18.0","""event"",""trial"",""time""
""fullscreenenter"",""0"",""1023""
","
","
","""event"",""trial"",""time""
""fullscreenenter"",""0"",""1023""
","
","null","<p></p>","null","","","","","","","",""
"","image","19","58202","0.0-19.0","""event"",""trial"",""time""
""fullscreenenter"",""0"",""1023""
","
","
","""event"",""trial"",""time""
""fullscreenenter"",""0"",""1023""
","
","718.2000000011176","run_exp/static/images/Set 6_rs/169a.jpg","78","","","","","","learn","SR",""
"","show_choice","20","59491","0.0-20.0","""event"",""trial"",""time""
""fullscreenenter"",""0"",""1023""
","
","
","""event"",""trial"",""time""
""fullscreenenter"",""0"",""1023""
","
","null","run_exp/static/images/Set 6_rs/169a.jpg","null","","","","","","learn","SR",""
"","html-keyboard-response","21","60000","0.0-21.0","""event"",""trial"",""time""
""fullscreenenter"",""0"",""1023""
","
","
","""event"",""trial"",""time""
""fullscreenenter"",""0"",""1023""
","
","null","<p></p>","null","","","","","","","",""
"","image","22","61130","0.0-22.0","""event"",""trial"",""time""
""fullscreenenter"",""0"",""1023""
","
","
","""event"",""trial"",""time""
""fullscreenenter"",""0"",""1023""
","
","1129.2999999988824","run_exp/static/images/Set 6_rs/177a.jpg","78","","","","","","learn","SR",""
"","show_choice","23","62008","0.0-23.0","""event"",""trial"",""time""
""fullscreenenter"",""0"",""1023""
","
","
","""event"",""trial"",""time""
""fullscreenenter"",""0"",""1023""
","
","null","run_exp/static/images/Set 6_rs/177a.jpg","null","","","","","","learn","SR",""
"","html-keyboard-response","24","62519","0.0-24.0","""event"",""trial"",""time""
""fullscreenenter"",""0"",""1023""
","
","
","""event"",""trial"",""time""
""fullscreenenter"",""0"",""1023""
","
","null","<p></p>","null","","","","","","","",""
"","image","25","64168","0.0-25.0","""event"",""trial"",""time""
""fullscreenenter"",""0"",""1023""
","
","
","""event"",""trial"",""time""
""fullscreenenter"",""0"",""1023""
","
","1648.2000000011176","run_exp/static/images/Set 6_rs/168a.jpg","78","","","","","","learn","SL",""
"","show_choice","26","64525","0.0-26.0","""event"",""trial"",""time""
""fullscreenenter"",""0"",""1023""
","
","
","""event"",""trial"",""time""
""fullscreenenter"",""0"",""1023""
","
","null","run_exp/static/images/Set 6_rs/168a.jpg","null","","","","","","learn","SL",""
"","html-keyboard-response","27","65032","0.0-27.0","""event"",""trial"",""time""
""fullscreenenter"",""0"",""1023""
","
","
","""event"",""trial"",""time""
""fullscreenenter"",""0"",""1023""
","
","null","<p></p>","null","","","","","","","",""
"","image","28","65686","0.0-28.0","""event"",""trial"",""time""
""fullscreenenter"",""0"",""1023""
","
","
","""event"",""trial"",""time""
""fullscreenenter"",""0"",""1023""
","
","652.5","run_exp/static/images/Set 6_rs/178a.jpg","86","","","","","","learn","SR",""
"","show_choice","29","67035","0.0-29.0","""event"",""trial"",""time""
""fullscreenenter"",""0"",""1023""
","
","
","""event"",""trial"",""time""
""fullscreenenter"",""0"",""1023""
","
","null","run_exp/static/images/Set 6_rs/178a.jpg","null","","","","","","learn","SR",""
"","html-keyboard-response","30","67542","0.0-30.0","""event"",""trial"",""time""
""fullscreenenter"",""0"",""1023""
","
","
","""event"",""trial"",""time""
""fullscreenenter"",""0"",""1023""
","
","null","<p></p>","null","","","","","","","",""
"","image","31","68432","0.0-31.0","""event"",""trial"",""time""
""fullscreenenter"",""0"",""1023""
","
","
","""event"",""trial"",""time""
""fullscreenenter"",""0"",""1023""
","
","889.6000000014901","run_exp/static/images/Set 6_rs/019a.jpg","86","","","","","","learn","SL",""
"","show_choice","32","69548","0.0-32.0","""event"",""trial"",""time""
""fullscreenenter"",""0"",""1023""
","
","
","""event"",""trial"",""time""
""fullscreenenter"",""0"",""1023""
","
","null","run_exp/static/images/Set 6_rs/019a.jpg","null","","","","","","learn","SL",""
"","html-keyboard-response","33","70055","0.0-33.0","""event"",""trial"",""time""
""fullscreenenter"",""0"",""1023""
","
","
","""event"",""trial"",""time""
""fullscreenenter"",""0"",""1023""
","
","null","<p></p>","null","","","","","","","",""
"","image","34","71297","0.0-34.0","""event"",""trial"",""time""
""fullscreenenter"",""0"",""1023""
","
","
","""event"",""trial"",""time""
""fullscreenenter"",""0"",""1023""
","
","1241.5","run_exp/static/images/Set 6_rs/131a.jpg","86","","","","","","learn","SR",""
"","show_choice","35","72059","0.0-35.0","""event"",""trial"",""time""
""fullscreenenter"",""0"",""1023""
","
","
","""event"",""trial"",""time""
""fullscreenenter"",""0"",""1023""
","
","null","run_exp/static/images/Set 6_rs/131a.jpg","null","","","","","","learn","SR",""
"","html-keyboard-response","36","72571","0.0-36.0","""event"",""trial"",""time""
""fullscreenenter"",""0"",""1023""
","
","
","""event"",""trial"",""time""
""fullscreenenter"",""0"",""1023""
","
","null","<p></p>","null","","","","","","","",""
"","image","37","73369","0.0-37.0","""event"",""trial"",""time""
""fullscreenenter"",""0"",""1023""
","
","
","""event"",""trial"",""time""
""fullscreenenter"",""0"",""1023""
","
","797.5999999996275","run_exp/static/images/Set 6_rs/117a.jpg","86","","","","","","learn","SL",""
"","show_choice","38","74577","0.0-38.0","""event"",""trial"",""time""
""fullscreenenter"",""0"",""1023""
","
","
","""event"",""trial"",""time""
""fullscreenenter"",""0"",""1023""
","
","null","run_exp/static/images/Set 6_rs/117a.jpg","null","","","","","","learn","SL",""
"","html-keyboard-response","39","75085","0.0-39.0","""event"",""trial"",""time""
""fullscreenenter"",""0"",""1023""
","
","
","""event"",""trial"",""time""
""fullscreenenter"",""0"",""1023""
","
","null","<p></p>","null","","","","","","","",""
"","image","40","76209","0.0-40.0","""event"",""trial"",""time""
""fullscreenenter"",""0"",""1023""
","
","
","""event"",""trial"",""time""
""fullscreenenter"",""0"",""1023""
","
","1122.9000000003725","run_exp/static/images/Set 6_rs/111a.jpg","86","","","","","","learn","SL",""
"","show_choice","41","77087","0.0-41.0","""event"",""trial"",""time""
""fullscreenenter"",""0"",""1023""
","
","
","""event"",""trial"",""time""
""fullscreenenter"",""0"",""1023""
","
","null","run_exp/static/images/Set 6_rs/111a.jpg","null","","","","","","learn","SL",""
"","html-keyboard-response","42","77599","0.0-42.0","""event"",""trial"",""time""
""fullscreenenter"",""0"",""1023""
","
","
","""event"",""trial"",""time""
""fullscreenenter"",""0"",""1023""
","
","null","<p></p>","null","","","","","","","",""
"","image","43","78363","0.0-43.0","""event"",""trial"",""time""
""fullscreenenter"",""0"",""1023""
","
","
","""event"",""trial"",""time""
""fullscreenenter"",""0"",""1023""
","
","763.8999999985099","run_exp/static/images/Set 6_rs/172a.jpg","78","","","","","","learn","SR",""
"","show_choice","44","79616","0.0-44.0","""event"",""trial"",""time""
""fullscreenenter"",""0"",""1023""
","
","
","""event"",""trial"",""time""
""fullscreenenter"",""0"",""1023""
","
","null","run_exp/static/images/Set 6_rs/172a.jpg","null","","","","","","learn","SR",""
"","html-keyboard-response","45","80127","0.0-45.0","""event"",""trial"",""time""
""fullscreenenter"",""0"",""1023""
","
","
","""event"",""trial"",""time""
""fullscreenenter"",""0"",""1023""
","
","null","<p></p>","null","","","","","","","",""
"","image","46","80819","0.0-46.0","""event"",""trial"",""time""
""fullscreenenter"",""0"",""1023""
","
","
","""event"",""trial"",""time""
""fullscreenenter"",""0"",""1023""
","
","691.1999999992549","run_exp/static/images/Set 6_rs/186a.jpg","86","","","","","","learn","SR",""
"","show_choice","47","82135","0.0-47.0","""event"",""trial"",""time""
""fullscreenenter"",""0"",""1023""
","
","
","""event"",""trial"",""time""
""fullscreenenter"",""0"",""1023""
","
","null","run_exp/static/images/Set 6_rs/186a.jpg","null","","","","","","learn","SR",""
"","html-keyboard-response","48","82647","0.0-48.0","""event"",""trial"",""time""
""fullscreenenter"",""0"",""1023""
","
","
","""event"",""trial"",""time""
""fullscreenenter"",""0"",""1023""
","
","null","<p></p>","null","","","","","","","",""
"","image","49","83824","0.0-49.0","""event"",""trial"",""time""
""fullscreenenter"",""0"",""1023""
","
","
","""event"",""trial"",""time""
""fullscreenenter"",""0"",""1023""
","
","1176.7000000011176","run_exp/static/images/Set 6_rs/152a.jpg","86","","","","","","learn","SR",""
"","show_choice","50","84654","0.0-50.0","""event"",""trial"",""time""
""fullscreenenter"",""0"",""1023""
","
","
","""event"",""trial"",""time""
""fullscreenenter"",""0"",""1023""
","
","null","run_exp/static/images/Set 6_rs/152a.jpg","null","","","","","","learn","SR",""
"","html-keyboard-response","51","85164","0.0-51.0","""event"",""trial"",""time""
""fullscreenenter"",""0"",""1023""
","
","
","""event"",""trial"",""time""
""fullscreenenter"",""0"",""1023""
","
","null","<p></p>","null","","","","","","","",""
"","image","52","86217","0.0-52.0","""event"",""trial"",""time""
""fullscreenenter"",""0"",""1023""
","
","
","""event"",""trial"",""time""
""fullscreenenter"",""0"",""1023""
","
","1052.0999999996275","run_exp/static/images/Set 6_rs/129a.jpg","86","","","","","","learn","SL",""
"","show_choice","53","87172","0.0-53.0","""event"",""trial"",""time""
""fullscreenenter"",""0"",""1023""
","
","
","""event"",""trial"",""time""
""fullscreenenter"",""0"",""1023""
","
","null","run_exp/static/images/Set 6_rs/129a.jpg","null","","","","","","learn","SL",""
"","html-keyboard-response","54","87684","0.0-54.0","""event"",""trial"",""time""
""fullscreenenter"",""0"",""1023""
","
","
","""event"",""trial"",""time""
""fullscreenenter"",""0"",""1023""
","
","null","<p></p>","null","","","","","","","",""
"","image","55","88515","0.0-55.0","""event"",""trial"",""time""
""fullscreenenter"",""0"",""1023""
","
","
","""event"",""trial"",""time""
""fullscreenenter"",""0"",""1023""
","
","830.0999999996275","run_exp/static/images/Set 6_rs/070a.jpg","86","","","","","","learn","SR",""
"","show_choice","56","89696","0.0-56.0","""event"",""trial"",""time""
""fullscreenenter"",""0"",""1023""
","
","
","""event"",""trial"",""time""
""fullscreenenter"",""0"",""1023""
","
","null","run_exp/static/images/Set 6_rs/070a.jpg","null","","","","","","learn","SR",""
"","html-keyboard-response","57","90205","0.0-57.0","""event"",""trial"",""time""
""fullscreenenter"",""0"",""1023""
","
","
","""event"",""trial"",""time""
""fullscreenenter"",""0"",""1023""
","
","null","<p></p>","null","","","","","","","",""
"","image","58","91253","0.0-58.0","""event"",""trial"",""time""
""fullscreenenter"",""0"",""1023""
","
","
","""event"",""trial"",""time""
""fullscreenenter"",""0"",""1023""
","
","1047.5999999996275","run_exp/static/images/Set 6_rs/123a.jpg","78","","","","","","learn","SL",""
"","show_choice","59","92213","0.0-59.0","""event"",""trial"",""time""
""fullscreenenter"",""0"",""1023""
","
","
","""event"",""trial"",""time""
""fullscreenenter"",""0"",""1023""
","
","null","run_exp/static/images/Set 6_rs/123a.jpg","null","","","","","","learn","SL",""
"","html-keyboard-response","60","92724","0.0-60.0","""event"",""trial"",""time""
""fullscreenenter"",""0"",""1023""
","
","
","""event"",""trial"",""time""
""fullscreenenter"",""0"",""1023""
","
","null","<p></p>","null","","","","","","","",""
"","image","61","93667","0.0-61.0","""event"",""trial"",""time""
""fullscreenenter"",""0"",""1023""
","
","
","""event"",""trial"",""time""
""fullscreenenter"",""0"",""1023""
","
","942","run_exp/static/images/Set 6_rs/007a.jpg","86","","","","","","learn","SR",""
"","show_choice","62","94734","0.0-62.0","""event"",""trial"",""time""
""fullscreenenter"",""0"",""1023""
","
","
","""event"",""trial"",""time""
""fullscreenenter"",""0"",""1023""
","
","null","run_exp/static/images/Set 6_rs/007a.jpg","null","","","","","","learn","SR",""
"","html-keyboard-response","63","95245","0.0-63.0","""event"",""trial"",""time""
""fullscreenenter"",""0"",""1023""
","
","
","""event"",""trial"",""time""
""fullscreenenter"",""0"",""1023""
","
","null","<p></p>","null","","","","","","","",""
"","image","64","96242","0.0-64.0","""event"",""trial"",""time""
""fullscreenenter"",""0"",""1023""
","
","
","""event"",""trial"",""time""
""fullscreenenter"",""0"",""1023""
","
","996.0999999996275","run_exp/static/images/Set 6_rs/017a.jpg","78","","","","","","learn","SL",""
"","show_choice","65","97249","0.0-65.0","""event"",""trial"",""time""
""fullscreenenter"",""0"",""1023""
","
","
","""event"",""trial"",""time""
""fullscreenenter"",""0"",""1023""
","
","null","run_exp/static/images/Set 6_rs/017a.jpg","null","","","","","","learn","SL",""
"","html-keyboard-response","66","97757","0.0-66.0","""event"",""trial"",""time""
""fullscreenenter"",""0"",""1023""
","
","
","""event"",""trial"",""time""
""fullscreenenter"",""0"",""1023""
","
","null","<p></p>","null","","","","","","","",""
"","image","67","98765","0.0-67.0","""event"",""trial"",""time""
""fullscreenenter"",""0"",""1023""
","
","
","""event"",""trial"",""time""
""fullscreenenter"",""0"",""1023""
","
","1007.3000000007451","run_exp/static/images/Set 6_rs/181a.jpg","78","","","","","","learn","SL",""
"","show_choice","68","99766","0.0-68.0","""event"",""trial"",""time""
""fullscreenenter"",""0"",""1023""
","
","
","""event"",""trial"",""time""
""fullscreenenter"",""0"",""1023""
","
","null","run_exp/static/images/Set 6_rs/181a.jpg","null","","","","","","learn","SL",""
"","html-keyboard-response","69","100277","0.0-69.0","""event"",""trial"",""time""
""fullscreenenter"",""0"",""1023""
","
","
","""event"",""trial"",""time""
""fullscreenenter"",""0"",""1023""
","
","null","<p></p>","null","","","","","","","",""
"","image","70","101007","0.0-70.0","""event"",""trial"",""time""
""fullscreenenter"",""0"",""1023""
","
","
","""event"",""trial"",""time""
""fullscreenenter"",""0"",""1023""
","
","729.5","run_exp/static/images/Set 6_rs/025a.jpg","78","","","","","","learn","SL",""
"","show_choice","71","102284","0.0-71.0","""event"",""trial"",""time""
""fullscreenenter"",""0"",""1023""
","
","
","""event"",""trial"",""time""
""fullscreenenter"",""0"",""1023""
","
","null","run_exp/static/images/Set 6_rs/025a.jpg","null","","","","","","learn","SL",""
"","html-keyboard-response","72","102794","0.0-72.0","""event"",""trial"",""time""
""fullscreenenter"",""0"",""1023""
","
","
","""event"",""trial"",""time""
""fullscreenenter"",""0"",""1023""
","
","null","<p></p>","null","","","","","","","",""
"","image","73","104258","0.0-73.0","""event"",""trial"",""time""
""fullscreenenter"",""0"",""1023""
","
","
","""event"",""trial"",""time""
""fullscreenenter"",""0"",""1023""
","
","1463.0999999996275","run_exp/static/images/Set 6_rs/167a.jpg","78","","","","","","learn","SL",""
"","show_choice","74","104803","0.0-74.0","""event"",""trial"",""time""
""fullscreenenter"",""0"",""1023""
","
","
","""event"",""trial"",""time""
""fullscreenenter"",""0"",""1023""
","
","null","run_exp/static/images/Set 6_rs/167a.jpg","null","","","","","","learn","SL",""
"","html-keyboard-response","75","105312","0.0-75.0","""event"",""trial"",""time""
""fullscreenenter"",""0"",""1023""
","
","
","""event"",""trial"",""time""
""fullscreenenter"",""0"",""1023""
","
","null","<p></p>","null","","","","","","","",""
"","image","76","106088","0.0-76.0","""event"",""trial"",""time""
""fullscreenenter"",""0"",""1023""
","
","
","""event"",""trial"",""time""
""fullscreenenter"",""0"",""1023""
","
","775.2000000011176","run_exp/static/images/Set 6_rs/061a.jpg","78","","","","","","learn","SR",""
"","show_choice","77","107322","0.0-77.0","""event"",""trial"",""time""
""fullscreenenter"",""0"",""1023""
","
","
","""event"",""trial"",""time""
""fullscreenenter"",""0"",""1023""
","
","null","run_exp/static/images/Set 6_rs/061a.jpg","null","","","","","","learn","SR",""
"","html-keyboard-response","78","107830","0.0-78.0","""event"",""trial"",""time""
""fullscreenenter"",""0"",""1023""
","
","
","""event"",""trial"",""time""
""fullscreenenter"",""0"",""1023""
","
","null","<p></p>","null","","","","","","","",""
"","image","79","108582","0.0-79.0","""event"",""trial"",""time""
""fullscreenenter"",""0"",""1023""
","
","
","""event"",""trial"",""time""
""fullscreenenter"",""0"",""1023""
","
","750.5999999996275","run_exp/static/images/Set 6_rs/132a.jpg","78","","","","","","learn","SR",""
"","show_choice","80","109836","0.0-80.0","""event"",""trial"",""time""
""fullscreenenter"",""0"",""1023""
","
","
","""event"",""trial"",""time""
""fullscreenenter"",""0"",""1023""
","
","null","run_exp/static/images/Set 6_rs/132a.jpg","null","","","","","","learn","SR",""
"","html-keyboard-response","81","110347","0.0-81.0","""event"",""trial"",""time""
""fullscreenenter"",""0"",""1023""
","
","
","""event"",""trial"",""time""
""fullscreenenter"",""0"",""1023""
","
","null","<p></p>","null","","","","","","","",""
"","image","82","110991","0.0-82.0","""event"",""trial"",""time""
""fullscreenenter"",""0"",""1023""
","
","
","""event"",""trial"",""time""
""fullscreenenter"",""0"",""1023""
","
","643.7999999988824","run_exp/static/images/Set 6_rs/108a.jpg","78","","","","","","learn","SR",""
"","show_choice","83","112355","0.0-83.0","""event"",""trial"",""time""
""fullscreenenter"",""0"",""1023""
","
","
","""event"",""trial"",""time""
""fullscreenenter"",""0"",""1023""
","
","null","run_exp/static/images/Set 6_rs/108a.jpg","null","","","","","","learn","SR",""
"","html-keyboard-response","84","112866","0.0-84.0","""event"",""trial"",""time""
""fullscreenenter"",""0"",""1023""
","
","
","""event"",""trial"",""time""
""fullscreenenter"",""0"",""1023""
","
","null","<p></p>","null","","","","","","","",""
"","image","85","113617","0.0-85.0","""event"",""trial"",""time""
""fullscreenenter"",""0"",""1023""
","
","
","""event"",""trial"",""time""
""fullscreenenter"",""0"",""1023""
","
","750.5999999996275","run_exp/static/images/Set 6_rs/075a.jpg","86","","","","","","learn","SR",""
"","show_choice","86","114874","0.0-86.0","""event"",""trial"",""time""
""fullscreenenter"",""0"",""1023""
","
","
","""event"",""trial"",""time""
""fullscreenenter"",""0"",""1023""
","
","null","run_exp/static/images/Set 6_rs/075a.jpg","null","","","","","","learn","SR",""
"","html-keyboard-response","87","115384","0.0-87.0","""event"",""trial"",""time""
""fullscreenenter"",""0"",""1023""
","
","
","""event"",""trial"",""time""
""fullscreenenter"",""0"",""1023""
","
","null","<p></p>","null","","","","","","","",""
"","image","88","116055","0.0-88.0","""event"",""trial"",""time""
""fullscreenenter"",""0"",""1023""
","
","
","""event"",""trial"",""time""
""fullscreenenter"",""0"",""1023""
","
","670.1999999992549","run_exp/static/images/Set 6_rs/150a.jpg","86","","","","","","learn","SR",""
"","show_choice","89","117392","0.0-89.0","""event"",""trial"",""time""
""fullscreenenter"",""0"",""1023""
","
","
","""event"",""trial"",""time""
""fullscreenenter"",""0"",""1023""
","
","null","run_exp/static/images/Set 6_rs/150a.jpg","null","","","","","","learn","SR",""
"","html-keyboard-response","90","117900","0.0-90.0","""event"",""trial"",""time""
""fullscreenenter"",""0"",""1023""
","
","
","""event"",""trial"",""time""
""fullscreenenter"",""0"",""1023""
","
","null","<p></p>","null","","","","","","","",""
"","image","91","118687","0.0-91.0","""event"",""trial"",""time""
""fullscreenenter"",""0"",""1023""
","
","
","""event"",""trial"",""time""
""fullscreenenter"",""0"",""1023""
","
","785.9000000003725","run_exp/static/images/Set 6_rs/014a.jpg","86","","","","","","learn","SL",""
"","show_choice","92","119909","0.0-92.0","""event"",""trial"",""time""
""fullscreenenter"",""0"",""1023""
","
","
","""event"",""trial"",""time""
""fullscreenenter"",""0"",""1023""
","
","null","run_exp/static/images/Set 6_rs/014a.jpg","null","","","","","","learn","SL",""
"","html-keyboard-response","93","120420","0.0-93.0","""event"",""trial"",""time""
""fullscreenenter"",""0"",""1023""
","
","
","""event"",""trial"",""time""
""fullscreenenter"",""0"",""1023""
","
","null","<p></p>","null","","","","","","","",""
"","image","94","121103","0.0-94.0","""event"",""trial"",""time""
""fullscreenenter"",""0"",""1023""
","
","
","""event"",""trial"",""time""
""fullscreenenter"",""0"",""1023""
","
","682.2999999988824","run_exp/static/images/Set 6_rs/074a.jpg","78","","","","","","learn","SL",""
"","show_choice","95","122426","0.0-95.0","""event"",""trial"",""time""
""fullscreenenter"",""0"",""1023""
","
","
","""event"",""trial"",""time""
""fullscreenenter"",""0"",""1023""
","
","null","run_exp/static/images/Set 6_rs/074a.jpg","null","","","","","","learn","SL",""
"","html-keyboard-response","96","122937","0.0-96.0","""event"",""trial"",""time""
""fullscreenenter"",""0"",""1023""
","
","
","""event"",""trial"",""time""
""fullscreenenter"",""0"",""1023""
","
","null","<p></p>","null","","","","","","","",""
"","image","97","123857","0.0-97.0","""event"",""trial"",""time""
""fullscreenenter"",""0"",""1023""
","
","
","""event"",""trial"",""time""
""fullscreenenter"",""0"",""1023""
","
","919.5999999996275","run_exp/static/images/Set 6_rs/095a.jpg","86","","","","","","learn","SL",""
"","show_choice","98","124945","0.0-98.0","""event"",""trial"",""time""
""fullscreenenter"",""0"",""1023""
","
","
","""event"",""trial"",""time""
""fullscreenenter"",""0"",""1023""
","
","null","run_exp/static/images/Set 6_rs/095a.jpg","null","","","","","","learn","SL",""
"","html-keyboard-response","99","125446","0.0-99.0","""event"",""trial"",""time""
""fullscreenenter"",""0"",""1023""
","
","
","""event"",""trial"",""time""
""fullscreenenter"",""0"",""1023""
","
","null","<p></p>","null","","","","","","","",""
"","image","100","126168","0.0-100.0","""event"",""trial"",""time""
""fullscreenenter"",""0"",""1023""
","
","
","""event"",""trial"",""time""
""fullscreenenter"",""0"",""1023""
","
","721.8999999985099","run_exp/static/images/Set 6_rs/071a.jpg","78","","","","","","learn","SL",""
"","show_choice","101","127448","0.0-101.0","""event"",""trial"",""time""
""fullscreenenter"",""0"",""1023""
","
","
","""event"",""trial"",""time""
""fullscreenenter"",""0"",""1023""
","
","null","run_exp/static/images/Set 6_rs/071a.jpg","null","","","","","","learn","SL",""
"","html-keyboard-response","102","127957","0.0-102.0","""event"",""trial"",""time""
""fullscreenenter"",""0"",""1023""
","
","
","""event"",""trial"",""time""
""fullscreenenter"",""0"",""1023""
","
","null","<p></p>","null","","","","","","","",""
"","image","103","128584","0.0-103.0","""event"",""trial"",""time""
""fullscreenenter"",""0"",""1023""
","
","
","""event"",""trial"",""time""
""fullscreenenter"",""0"",""1023""
","
","626.7999999988824","run_exp/static/images/Set 6_rs/076a.jpg","78","","","","","","learn","SR",""
"","show_choice","104","129966","0.0-104.0","""event"",""trial"",""time""
""fullscreenenter"",""0"",""1023""
","
","
","""event"",""trial"",""time""
""fullscreenenter"",""0"",""1023""
","
","null","run_exp/static/images/Set 6_rs/076a.jpg","null","","","","","","learn","SR",""
"","html-keyboard-response","105","130478","0.0-105.0","""event"",""trial"",""time""
""fullscreenenter"",""0"",""1023""
","
","
","""event"",""trial"",""time""
""fullscreenenter"",""0"",""1023""
","
","null","<p></p>","null","","","","","","","",""
"","image","106","131649","0.0-106.0","""event"",""trial"",""time""
""fullscreenenter"",""0"",""1023""
","
","
","""event"",""trial"",""time""
""fullscreenenter"",""0"",""1023""
","
","1170.0999999996275","run_exp/static/images/Set 6_rs/008a.jpg","86","","","","","","learn","SL",""
"","show_choice","107","132483","0.0-107.0","""event"",""trial"",""time""
""fullscreenenter"",""0"",""1023""
","
","
","""event"",""trial"",""time""
""fullscreenenter"",""0"",""1023""
","
","null","run_exp/static/images/Set 6_rs/008a.jpg","null","","","","","","learn","SL",""
"","html-keyboard-response","108","132993","0.0-108.0","""event"",""trial"",""time""
""fullscreenenter"",""0"",""1023""
","
","
","""event"",""trial"",""time""
""fullscreenenter"",""0"",""1023""
","
","null","<p></p>","null","","","","","","","",""
"","image","109","133734","0.0-109.0","""event"",""trial"",""time""
""fullscreenenter"",""0"",""1023""
","
","
","""event"",""trial"",""time""
""fullscreenenter"",""0"",""1023""
","
","740.0999999996275","run_exp/static/images/Set 6_rs/144a.jpg","86","","","","","","learn","SL",""
"","show_choice","110","135003","0.0-110.0","""event"",""trial"",""time""
""fullscreenenter"",""0"",""1023""
","
","
","""event"",""trial"",""time""
""fullscreenenter"",""0"",""1023""
","
","null","run_exp/static/images/Set 6_rs/144a.jpg","null","","","","","","learn","SL",""
"","html-keyboard-response","111","135511","0.0-111.0","""event"",""trial"",""time""
""fullscreenenter"",""0"",""1023""
","
","
","""event"",""trial"",""time""
""fullscreenenter"",""0"",""1023""
","
","null","<p></p>","null","","","","","","","",""
"","image","112","137521","0.0-112.0","""event"",""trial"",""time""
""fullscreenenter"",""0"",""1023""
","
","
","""event"",""trial"",""time""
""fullscreenenter"",""0"",""1023""
","
","null","run_exp/static/images/Set 6_rs/066a.jpg","null","","","","","","learn","SL",""
"","show_choice","113","139526","0.0-113.0","""event"",""trial"",""time""
""fullscreenenter"",""0"",""1023""
","
","
","""event"",""trial"",""time""
""fullscreenenter"",""0"",""1023""
","
","null","run_exp/static/images/blank.png","null","","","","","","learn","SL",""
"","html-keyboard-response","114","140032","0.0-114.0","""event"",""trial"",""time""
""fullscreenenter"",""0"",""1023""
","
","
","""event"",""trial"",""time""
""fullscreenenter"",""0"",""1023""
","
","null","<p></p>","null","","","","","","","",""
"","image","115","141075","0.0-115.0","""event"",""trial"",""time""
""fullscreenenter"",""0"",""1023""
","
","
","""event"",""trial"",""time""
""fullscreenenter"",""0"",""1023""
","
","1042.800000000745","run_exp/static/images/Set 6_rs/085a.jpg","78","","","","","","learn","SL",""
"","show_choice","116","142038","0.0-116.0","""event"",""trial"",""time""
""fullscreenenter"",""0"",""1023""
","
","
","""event"",""trial"",""time""
""fullscreenenter"",""0"",""1023""
","
","null","run_exp/static/images/Set 6_rs/085a.jpg","null","","","","","","learn","SL",""
"","html-keyboard-response","117","142550","0.0-117.0","""event"",""trial"",""time""
""fullscreenenter"",""0"",""1023""
","
","
","""event"",""trial"",""time""
""fullscreenenter"",""0"",""1023""
","
","null","<p></p>","null","","","","","","","",""
"","image","118","144555","0.0-118.0","""event"",""trial"",""time""
""fullscreenenter"",""0"",""1023""
","
","
","""event"",""trial"",""time""
""fullscreenenter"",""0"",""1023""
","
","null","run_exp/static/images/Set 6_rs/050a.jpg","null","","","","","","learn","SL",""
"","show_choice","119","146560","0.0-119.0","""event"",""trial"",""time""
""fullscreenenter"",""0"",""1023""
","
","
","""event"",""trial"",""time""
""fullscreenenter"",""0"",""1023""
","
","null","run_exp/static/images/blank.png","null","","","","","","learn","SL",""
"","html-keyboard-response","120","147068","0.0-120.0","""event"",""trial"",""time""
""fullscreenenter"",""0"",""1023""
","
","
","""event"",""trial"",""time""
""fullscreenenter"",""0"",""1023""
","
","null","<p></p>","null","","","","","","","",""
"","image","121","147442","0.0-121.0","""event"",""trial"",""time""
""fullscreenenter"",""0"",""1023""
","
","
","""event"",""trial"",""time""
""fullscreenenter"",""0"",""1023""
","
","373.09999999962747","run_exp/static/images/Set 6_rs/057a.jpg","86","","","","","","learn","SL",""
"","show_choice","122","149076","0.0-122.0","""event"",""trial"",""time""
""fullscreenenter"",""0"",""1023""
","
","
","""event"",""trial"",""time""
""fullscreenenter"",""0"",""1023""
","
","null","run_exp/static/images/Set 6_rs/057a.jpg","null","","","","","","learn","SL",""
"","html-keyboard-response","123","149582","0.0-123.0","""event"",""trial"",""time""
""fullscreenenter"",""0"",""1023""
","
","
","""event"",""trial"",""time""
""fullscreenenter"",""0"",""1023""
","
","null","<p></p>","null","","","","","","","",""
"","image","124","150239","0.0-124.0","""event"",""trial"",""time""
""fullscreenenter"",""0"",""1023""
","
","
","""event"",""trial"",""time""
""fullscreenenter"",""0"",""1023""
","
","656.1999999992549","run_exp/static/images/Set 6_rs/191a.jpg","78","","","","","","learn","SL",""
"","show_choice","125","151592","0.0-125.0","""event"",""trial"",""time""
""fullscreenenter"",""0"",""1023""
","
","
","""event"",""trial"",""time""
""fullscreenenter"",""0"",""1023""
","
","null","run_exp/static/images/Set 6_rs/191a.jpg","null","","","","","","learn","SL",""
"","html-keyboard-response","126","152100","0.0-126.0","""event"",""trial"",""time""
""fullscreenenter"",""0"",""1023""
","
","
","""event"",""trial"",""time""
""fullscreenenter"",""0"",""1023""
","
","null","<p></p>","null","","","","","","","",""
"","image","127","152677","0.0-127.0","""event"",""trial"",""time""
""fullscreenenter"",""0"",""1023""
","
","
","""event"",""trial"",""time""
""fullscreenenter"",""0"",""1023""
","
","576.5","run_exp/static/images/Set 6_rs/012a.jpg","86","","","","","","learn","SR",""
"","show_choice","128","154104","0.0-128.0","""event"",""trial"",""time""
""fullscreenenter"",""0"",""1023""
","
","
","""event"",""trial"",""time""
""fullscreenenter"",""0"",""1023""
","
","null","run_exp/static/images/Set 6_rs/012a.jpg","null","","","","","","learn","SR",""
"","html-keyboard-response","129","154616","0.0-129.0","""event"",""trial"",""time""
""fullscreenenter"",""0"",""1023""
","
","
","""event"",""trial"",""time""
""fullscreenenter"",""0"",""1023""
","
","null","<p></p>","null","","","","","","","",""
"","image","130","155451","0.0-130.0","""event"",""trial"",""time""
""fullscreenenter"",""0"",""1023""
","
","
","""event"",""trial"",""time""
""fullscreenenter"",""0"",""1023""
","
","834","run_exp/static/images/Set 6_rs/036a.jpg","86","","","","","","learn","SL",""
"","show_choice","131","156620","0.0-131.0","""event"",""trial"",""time""
""fullscreenenter"",""0"",""1023""
","
","
","""event"",""trial"",""time""
""fullscreenenter"",""0"",""1023""
","
","null","run_exp/static/images/Set 6_rs/036a.jpg","null","","","","","","learn","SL",""
"","html-keyboard-response","132","157128","0.0-132.0","""event"",""trial"",""time""
""fullscreenenter"",""0"",""1023""
","
","
","""event"",""trial"",""time""
""fullscreenenter"",""0"",""1023""
","
","null","<p></p>","null","","","","","","","",""
"","image","133","158186","0.0-133.0","""event"",""trial"",""time""
""fullscreenenter"",""0"",""1023""
","
","
","""event"",""trial"",""time""
""fullscreenenter"",""0"",""1023""
","
","1057.199999999255","run_exp/static/images/Set 6_rs/141a.jpg","86","","","","","","learn","SR",""
"","show_choice","134","159136","0.0-134.0","""event"",""trial"",""time""
""fullscreenenter"",""0"",""1023""
","
","
","""event"",""trial"",""time""
""fullscreenenter"",""0"",""1023""
","
","null","run_exp/static/images/Set 6_rs/141a.jpg","null","","","","","","learn","SR",""
"","html-keyboard-response","135","159644","0.0-135.0","""event"",""trial"",""time""
""fullscreenenter"",""0"",""1023""
","
","
","""event"",""trial"",""time""
""fullscreenenter"",""0"",""1023""
","
","null","<p></p>","null","","","","","","","",""
"","image","136","160436","0.0-136.0","""event"",""trial"",""time""
""fullscreenenter"",""0"",""1023""
","
","
","""event"",""trial"",""time""
""fullscreenenter"",""0"",""1023""
","
","791.7999999988824","run_exp/static/images/Set 6_rs/091a.jpg","78","","","","","","learn","SL",""
"","show_choice","137","161649","0.0-137.0","""event"",""trial"",""time""
""fullscreenenter"",""0"",""1023""
","
","
","""event"",""trial"",""time""
""fullscreenenter"",""0"",""1023""
","
","null","run_exp/static/images/Set 6_rs/091a.jpg","null","","","","","","learn","SL",""
"","html-keyboard-response","138","162160","0.0-138.0","""event"",""trial"",""time""
""fullscreenenter"",""0"",""1023""
","
","
","""event"",""trial"",""time""
""fullscreenenter"",""0"",""1023""
","
","null","<p></p>","null","","","","","","","",""
"","image","139","162810","0.0-139.0","""event"",""trial"",""time""
""fullscreenenter"",""0"",""1023""
","
","
","""event"",""trial"",""time""
""fullscreenenter"",""0"",""1023""
","
","650.1000000014901","run_exp/static/images/Set 6_rs/166a.jpg","86","","","","","","learn","SR",""
"","show_choice","140","164164","0.0-140.0","""event"",""trial"",""time""
""fullscreenenter"",""0"",""1023""
","
","
","""event"",""trial"",""time""
""fullscreenenter"",""0"",""1023""
","
","null","run_exp/static/images/Set 6_rs/166a.jpg","null","","","","","","learn","SR",""
"","html-keyboard-response","141","164676","0.0-141.0","""event"",""trial"",""time""
""fullscreenenter"",""0"",""1023""
","
","
","""event"",""trial"",""time""
""fullscreenenter"",""0"",""1023""
","
","null","<p></p>","null","","","","","","","",""
"","image","142","165282","0.0-142.0","""event"",""trial"",""time""
""fullscreenenter"",""0"",""1023""
","
","
","""event"",""trial"",""time""
""fullscreenenter"",""0"",""1023""
","
","605.0999999996275","run_exp/static/images/Set 6_rs/024a.jpg","86","","","","","","learn","SR",""
"","show_choice","143","166678","0.0-143.0","""event"",""trial"",""time""
""fullscreenenter"",""0"",""1023""
","
","
","""event"",""trial"",""time""
""fullscreenenter"",""0"",""1023""
","
","null","run_exp/static/images/Set 6_rs/024a.jpg","null","","","","","","learn","SR",""
"","html-keyboard-response","144","167185","0.0-144.0","""event"",""trial"",""time""
""fullscreenenter"",""0"",""1023""
","
","
","""event"",""trial"",""time""
""fullscreenenter"",""0"",""1023""
","
","null","<p></p>","null","","","","","","","",""
"","image","145","167720","0.0-145.0","""event"",""trial"",""time""
""fullscreenenter"",""0"",""1023""
","
","
","""event"",""trial"",""time""
""fullscreenenter"",""0"",""1023""
","
","533.5999999996275","run_exp/static/images/Set 6_rs/023a.jpg","86","","","","","","learn","SR",""
"","show_choice","146","169193","0.0-146.0","""event"",""trial"",""time""
""fullscreenenter"",""0"",""1023""
","
","
","""event"",""trial"",""time""
""fullscreenenter"",""0"",""1023""
","
","null","run_exp/static/images/Set 6_rs/023a.jpg","null","","","","","","learn","SR",""
"","html-keyboard-response","147","169701","0.0-147.0","""event"",""trial"",""time""
""fullscreenenter"",""0"",""1023""
","
","
","""event"",""trial"",""time""
""fullscreenenter"",""0"",""1023""
","
","null","<p></p>","null","","","","","","","",""
"","image","148","170213","0.0-148.0","""event"",""trial"",""time""
""fullscreenenter"",""0"",""1023""
","
","
","""event"",""trial"",""time""
""fullscreenenter"",""0"",""1023""
","
","512","run_exp/static/images/Set 6_rs/154a.jpg","86","","","","","","learn","SR",""
"","show_choice","149","171706","0.0-149.0","""event"",""trial"",""time""
""fullscreenenter"",""0"",""1023""
","
","
","""event"",""trial"",""time""
""fullscreenenter"",""0"",""1023""
","
","null","run_exp/static/images/Set 6_rs/154a.jpg","null","","","","","","learn","SR",""
"","html-keyboard-response","150","172214","0.0-150.0","""event"",""trial"",""time""
""fullscreenenter"",""0"",""1023""
","
","
","""event"",""trial"",""time""
""fullscreenenter"",""0"",""1023""
","
","null","<p></p>","null","","","","","","","",""
"","image","151","172623","0.0-151.0","""event"",""trial"",""time""
""fullscreenenter"",""0"",""1023""
","
","
","""event"",""trial"",""time""
""fullscreenenter"",""0"",""1023""
","
","408.1000000014901","run_exp/static/images/Set 6_rs/134a.jpg","86","","","","","","learn","SR",""
"","show_choice","152","174217","0.0-152.0","""event"",""trial"",""time""
""fullscreenenter"",""0"",""1023""
","
","
","""event"",""trial"",""time""
""fullscreenenter"",""0"",""1023""
","
","null","run_exp/static/images/Set 6_rs/134a.jpg","null","","","","","","learn","SR",""
"","html-keyboard-response","153","174728","0.0-153.0","""event"",""trial"",""time""
""fullscreenenter"",""0"",""1023""
","
","
","""event"",""trial"",""time""
""fullscreenenter"",""0"",""1023""
","
","null","<p></p>","null","","","","","","","",""
"","image","154","175283","0.0-154.0","""event"",""trial"",""time""
""fullscreenenter"",""0"",""1023""
","
","
","""event"",""trial"",""time""
""fullscreenenter"",""0"",""1023""
","
","554.1999999992549","run_exp/static/images/Set 6_rs/112a.jpg","86","","","","","","learn","SR",""
"","show_choice","155","176735","0.0-155.0","""event"",""trial"",""time""
""fullscreenenter"",""0"",""1023""
","
","
","""event"",""trial"",""time""
""fullscreenenter"",""0"",""1023""
","
","null","run_exp/static/images/Set 6_rs/112a.jpg","null","","","","","","learn","SR",""
"","html-keyboard-response","156","177244","0.0-156.0","""event"",""trial"",""time""
""fullscreenenter"",""0"",""1023""
","
","
","""event"",""trial"",""time""
""fullscreenenter"",""0"",""1023""
","
","null","<p></p>","null","","","","","","","",""
"","image","157","178022","0.0-157.0","""event"",""trial"",""time""
""fullscreenenter"",""0"",""1023""
","
","
","""event"",""trial"",""time""
""fullscreenenter"",""0"",""1023""
","
","777.5","run_exp/static/images/Set 6_rs/138a.jpg","78","","","","","","learn","SL",""
"","show_choice","158","179247","0.0-158.0","""event"",""trial"",""time""
""fullscreenenter"",""0"",""1023""
","
","
","""event"",""trial"",""time""
""fullscreenenter"",""0"",""1023""
","
","null","run_exp/static/images/Set 6_rs/138a.jpg","null","","","","","","learn","SL",""
"","html-keyboard-response","159","179754","0.0-159.0","""event"",""trial"",""time""
""fullscreenenter"",""0"",""1023""
","
","
","""event"",""trial"",""time""
""fullscreenenter"",""0"",""1023""
","
","null","<p></p>","null","","","","","","","",""
"","image","160","180230","0.0-160.0","""event"",""trial"",""time""
""fullscreenenter"",""0"",""1023""
","
","
","""event"",""trial"",""time""
""fullscreenenter"",""0"",""1023""
","
","475.2000000011176","run_exp/static/images/Set 6_rs/116a.jpg","86","","","","","","learn","SL",""
"","show_choice","161","181760","0.0-161.0","""event"",""trial"",""time""
""fullscreenenter"",""0"",""1023""
","
","
","""event"",""trial"",""time""
""fullscreenenter"",""0"",""1023""
","
","null","run_exp/static/images/Set 6_rs/116a.jpg","null","","","","","","learn","SL",""
"","html-keyboard-response","162","182269","0.0-162.0","""event"",""trial"",""time""
""fullscreenenter"",""0"",""1023""
","
","
","""event"",""trial"",""time""
""fullscreenenter"",""0"",""1023""
","
","null","<p></p>","null","","","","","","","",""
"","image","163","182801","0.0-163.0","""event"",""trial"",""time""
""fullscreenenter"",""0"",""1023""
","
","
","""event"",""trial"",""time""
""fullscreenenter"",""0"",""1023""
","
","531.3000000007451","run_exp/static/images/Set 6_rs/055a.jpg","86","","","","","","learn","SL",""
"","show_choice","164","184274","0.0-164.0","""event"",""trial"",""time""
""fullscreenenter"",""0"",""1023""
","
","
","""event"",""trial"",""time""
""fullscreenenter"",""0"",""1023""
","
","null","run_exp/static/images/Set 6_rs/055a.jpg","null","","","","","","learn","SL",""
"","html-keyboard-response","165","184785","0.0-165.0","""event"",""trial"",""time""
""fullscreenenter"",""0"",""1023""
","
","
","""event"",""trial"",""time""
""fullscreenenter"",""0"",""1023""
","
","null","<p></p>","null","","","","","","","",""
"","image","166","185689","0.0-166.0","""event"",""trial"",""time""
""fullscreenenter"",""0"",""1023""
","
","
","""event"",""trial"",""time""
""fullscreenenter"",""0"",""1023""
","
","903.4000000003725","run_exp/static/images/Set 6_rs/006a.jpg","86","","","","","","learn","SL",""
"","show_choice","167","186790","0.0-167.0","""event"",""trial"",""time""
""fullscreenenter"",""0"",""1023""
","
","
","""event"",""trial"",""time""
""fullscreenenter"",""0"",""1023""
","
","null","run_exp/static/images/Set 6_rs/006a.jpg","null","","","","","","learn","SL",""
"","html-keyboard-response","168","187298","0.0-168.0","""event"",""trial"",""time""
""fullscreenenter"",""0"",""1023""
","
","
","""event"",""trial"",""time""
""fullscreenenter"",""0"",""1023""
","
","null","<p></p>","null","","","","","","","",""
"","image","169","188120","0.0-169.0","""event"",""trial"",""time""
""fullscreenenter"",""0"",""1023""
","
","
","""event"",""trial"",""time""
""fullscreenenter"",""0"",""1023""
","
","820.9000000003725","run_exp/static/images/Set 6_rs/126a.jpg","86","","","","","","learn","SR",""
"","show_choice","170","189302","0.0-170.0","""event"",""trial"",""time""
""fullscreenenter"",""0"",""1023""
","
","
","""event"",""trial"",""time""
""fullscreenenter"",""0"",""1023""
","
","null","run_exp/static/images/Set 6_rs/126a.jpg","null","","","","","","learn","SR",""
"","html-keyboard-response","171","189810","0.0-171.0","""event"",""trial"",""time""
""fullscreenenter"",""0"",""1023""
","
","
","""event"",""trial"",""time""
""fullscreenenter"",""0"",""1023""
","
","null","<p></p>","null","","","","","","","",""
"","image","172","190327","0.0-172.0","""event"",""trial"",""time""
""fullscreenenter"",""0"",""1023""
","
","
","""event"",""trial"",""time""
""fullscreenenter"",""0"",""1023""
","
","516.3000000007451","run_exp/static/images/Set 6_rs/079a.jpg","86","","","","","","learn","SL",""
"","show_choice","173","191815","0.0-173.0","""event"",""trial"",""time""
""fullscreenenter"",""0"",""1023""
","
","
","""event"",""trial"",""time""
""fullscreenenter"",""0"",""1023""
","
","null","run_exp/static/images/Set 6_rs/079a.jpg","null","","","","","","learn","SL",""
"","html-keyboard-response","174","192325","0.0-174.0","""event"",""trial"",""time""
""fullscreenenter"",""0"",""1023""
","
","
","""event"",""trial"",""time""
""fullscreenenter"",""0"",""1023""
","
","null","<p></p>","null","","","","","","","",""
"","image","175","193108","0.0-175.0","""event"",""trial"",""time""
""fullscreenenter"",""0"",""1023""
","
","
","""event"",""trial"",""time""
""fullscreenenter"",""0"",""1023""
","
","782.2999999988824","run_exp/static/images/Set 6_rs/063a.jpg","86","","","","","","learn","SR",""
"","show_choice","176","194331","0.0-176.0","""event"",""trial"",""time""
""fullscreenenter"",""0"",""1023""
","
","
","""event"",""trial"",""time""
""fullscreenenter"",""0"",""1023""
","
","null","run_exp/static/images/Set 6_rs/063a.jpg","null","","","","","","learn","SR",""
"","html-keyboard-response","177","194842","0.0-177.0","""event"",""trial"",""time""
""fullscreenenter"",""0"",""1023""
","
","
","""event"",""trial"",""time""
""fullscreenenter"",""0"",""1023""
","
","null","<p></p>","null","","","","","","","",""
"","image","178","195864","0.0-178.0","""event"",""trial"",""time""
""fullscreenenter"",""0"",""1023""
","
","
","""event"",""trial"",""time""
""fullscreenenter"",""0"",""1023""
","
","1020.8000000007451","run_exp/static/images/Set 6_rs/122a.jpg","86","","","","","","learn","SR",""
"","show_choice","179","196846","0.0-179.0","""event"",""trial"",""time""
""fullscreenenter"",""0"",""1023""
","
","
","""event"",""trial"",""time""
""fullscreenenter"",""0"",""1023""
","
","null","run_exp/static/images/Set 6_rs/122a.jpg","null","","","","","","learn","SR",""
"","html-keyboard-response","180","197354","0.0-180.0","""event"",""trial"",""time""
""fullscreenenter"",""0"",""1023""
","
","
","""event"",""trial"",""time""
""fullscreenenter"",""0"",""1023""
","
","null","<p></p>","null","","","","","","","",""
"","image","181","197955","0.0-181.0","""event"",""trial"",""time""
""fullscreenenter"",""0"",""1023""
","
","
","""event"",""trial"",""time""
""fullscreenenter"",""0"",""1023""
","
","600.5999999996275","run_exp/static/images/Set 6_rs/089a.jpg","86","","","","","","learn","SL",""
"","show_choice","182","199361","0.0-182.0","""event"",""trial"",""time""
""fullscreenenter"",""0"",""1023""
","
","
","""event"",""trial"",""time""
""fullscreenenter"",""0"",""1023""
","
","null","run_exp/static/images/Set 6_rs/089a.jpg","null","","","","","","learn","SL",""
"","html-keyboard-response","183","199867","0.0-183.0","""event"",""trial"",""time""
""fullscreenenter"",""0"",""1023""
","
","
","""event"",""trial"",""time""
""fullscreenenter"",""0"",""1023""
","
","null","<p></p>","null","","","","","","","",""
"","image","184","200407","0.0-184.0","""event"",""trial"",""time""
""fullscreenenter"",""0"",""1023""
","
","
","""event"",""trial"",""time""
""fullscreenenter"",""0"",""1023""
","
","538.6999999992549","run_exp/static/images/Set 6_rs/010a.jpg","86","","","","","","learn","SR",""
"","show_choice","185","201874","0.0-185.0","""event"",""trial"",""time""
""fullscreenenter"",""0"",""1023""
","
","
","""event"",""trial"",""time""
""fullscreenenter"",""0"",""1023""
","
","null","run_exp/static/images/Set 6_rs/010a.jpg","null","","","","","","learn","SR",""
"","html-keyboard-response","186","202384","0.0-186.0","""event"",""trial"",""time""
""fullscreenenter"",""0"",""1023""
","
","
","""event"",""trial"",""time""
""fullscreenenter"",""0"",""1023""
","
","null","<p></p>","null","","","","","","","",""
"","image","187","203173","0.0-187.0","""event"",""trial"",""time""
""fullscreenenter"",""0"",""1023""
","
","
","""event"",""trial"",""time""
""fullscreenenter"",""0"",""1023""
","
","788","run_exp/static/images/Set 6_rs/088a.jpg","86","","","","","","learn","SR",""
"","show_choice","188","204387","0.0-188.0","""event"",""trial"",""time""
""fullscreenenter"",""0"",""1023""
","
","
","""event"",""trial"",""time""
""fullscreenenter"",""0"",""1023""
","
","null","run_exp/static/images/Set 6_rs/088a.jpg","null","","","","","","learn","SR",""
"","html-keyboard-response","189","204896","0.0-189.0","""event"",""trial"",""time""
""fullscreenenter"",""0"",""1023""
","
","
","""event"",""trial"",""time""
""fullscreenenter"",""0"",""1023""
","
","null","<p></p>","null","","","","","","","",""
"","image","190","205498","0.0-190.0","""event"",""trial"",""time""
""fullscreenenter"",""0"",""1023""
","
","
","""event"",""trial"",""time""
""fullscreenenter"",""0"",""1023""
","
","600.7999999988824","run_exp/static/images/Set 6_rs/121a.jpg","86","","","","","","learn","SR",""
"","show_choice","191","206901","0.0-191.0","""event"",""trial"",""time""
""fullscreenenter"",""0"",""1023""
","
","
","""event"",""trial"",""time""
""fullscreenenter"",""0"",""1023""
","
","null","run_exp/static/images/Set 6_rs/121a.jpg","null","","","","","","learn","SR",""
"","html-keyboard-response","192","207409","0.0-192.0","""event"",""trial"",""time""
""fullscreenenter"",""0"",""1023""
","
","
","""event"",""trial"",""time""
""fullscreenenter"",""0"",""1023""
","
","null","<p></p>","null","","","","","","","",""
"","image","193","208060","0.0-193.0","""event"",""trial"",""time""
""fullscreenenter"",""0"",""1023""
","
","
","""event"",""trial"",""time""
""fullscreenenter"",""0"",""1023""
","
","650.3999999985099","run_exp/static/images/Set 6_rs/073a.jpg","86","","","","","","learn","SL",""
"","show_choice","194","209415","0.0-194.0","""event"",""trial"",""time""
""fullscreenenter"",""0"",""1023""
","
","
","""event"",""trial"",""time""
""fullscreenenter"",""0"",""1023""
","
","null","run_exp/static/images/Set 6_rs/073a.jpg","null","","","","","","learn","SL",""
"","html-keyboard-response","195","209924","0.0-195.0","""event"",""trial"",""time""
""fullscreenenter"",""0"",""1023""
""blur"",""196"",""225222""
""focus"",""196"",""226676""
","""event"",""trial"",""time""
""blur"",""196"",""225222""
","""event"",""trial"",""time""
""focus"",""196"",""226676""
","""event"",""trial"",""time""
""fullscreenenter"",""0"",""1023""
","
","null","<p></p>","null","","","","","","","",""
"","test_intro","196","247947","0.0-196.0","""event"",""trial"",""time""
""fullscreenenter"",""0"",""1023""
""blur"",""196"",""225222""
""focus"",""196"",""226676""
","""event"",""trial"",""time""
""blur"",""196"",""225222""
","""event"",""trial"",""time""
""focus"",""196"",""226676""
","""event"",""trial"",""time""
""fullscreenenter"",""0"",""1023""
","
","null","run_exp/static/audio/clip_2_memory.m4a","null","","","","","<div class='center'><p>Now, lets see how much you remember about the items you just saw.  For each item, you need to indicate if it was <b>old</b> by pressing the <b>v</b> key, <b>similar</b> by pressing the <b>b</b> key, or <b>new</b> by pressing the <b>n</b> key.</p><p>Old refers to an item that you saw before in the indoor/outdoor game that you just played, new refers to an item you have <b>not</b> seen before within the indoor/outdoor game, and similar refers to an item that is similar to an item youve seen before but is not exactly the same. </p><p>Before we begin, lets go over some brief demonstrations to make sure you understand.</p></div>","","",""
"","html-keyboard-response","197","248976","0.0-197.0","""event"",""trial"",""time""
""fullscreenenter"",""0"",""1023""
""blur"",""196"",""225222""
""focus"",""196"",""226676""
","""event"",""trial"",""time""
""blur"",""196"",""225222""
","""event"",""trial"",""time""
""focus"",""196"",""226676""
","""event"",""trial"",""time""
""fullscreenenter"",""0"",""1023""
","
","1028","<div class='center'><p>Now, lets see how much you remember about the items you just saw.  For each item, you need to indicate if it was <b>old</b> by pressing the <b>v</b> key, <b>similar</b> by pressing the <b>b</b> key, or <b>new</b> by pressing the <b>n</b> key.</p><p>Old refers to an item that you saw before in the indoor/outdoor game that you just played, new refers to an item you have <b>not</b> seen before within the indoor/outdoor game, and similar refers to an item that is similar to an item youve seen before but is not exactly the same. </p><p>Before we begin, lets go over some brief demonstrations to make sure you understand.</p><div><p><b>[Press the space bar to continue]</b></p></div>","32","","","","","","","",""
"","items","198","256483","0.0-198.0","""event"",""trial"",""time""
""fullscreenenter"",""0"",""1023""
""blur"",""196"",""225222""
""focus"",""196"",""226676""
","""event"",""trial"",""time""
""blur"",""196"",""225222""
","""event"",""trial"",""time""
""focus"",""196"",""226676""
","""event"",""trial"",""time""
""fullscreenenter"",""0"",""1023""
","
","null","run_exp/static/audio/clip_3_items.m4a","null","","","","","","","",""
"","mop","199","260998","0.0-199.0","""event"",""trial"",""time""
""fullscreenenter"",""0"",""1023""
""blur"",""196"",""225222""
""focus"",""196"",""226676""
","""event"",""trial"",""time""
""blur"",""196"",""225222""
","""event"",""trial"",""time""
""focus"",""196"",""226676""
","""event"",""trial"",""time""
""fullscreenenter"",""0"",""1023""
","
","null","run_exp/static/audio/clip_4_mop.m4a","null","","","","","","","",""
"","baseball","200","264503","0.0-200.0","""event"",""trial"",""time""
""fullscreenenter"",""0"",""1023""
""blur"",""196"",""225222""
""focus"",""196"",""226676""
","""event"",""trial"",""time""
""blur"",""196"",""225222""
","""event"",""trial"",""time""
""focus"",""196"",""226676""
","""event"",""trial"",""time""
""fullscreenenter"",""0"",""1023""
","
","null","run_exp/static/audio/clip_5_baseball.m4a","null","","","","","","","",""
"","trumpet","201","268018","0.0-201.0","""event"",""trial"",""time""
""fullscreenenter"",""0"",""1023""
""blur"",""196"",""225222""
""focus"",""196"",""226676""
""blur"",""202"",""271272""
","""event"",""trial"",""time""
""blur"",""196"",""225222""
""blur"",""202"",""271272""
","""event"",""trial"",""time""
""focus"",""196"",""226676""
","""event"",""trial"",""time""
""fullscreenenter"",""0"",""1023""
","
","null","run_exp/static/audio/clip_6_trumpet.m4a","null","","","","","","","",""
"","gummies","202","271527","0.0-202.0","""event"",""trial"",""time""
""fullscreenenter"",""0"",""1023""
""blur"",""196"",""225222""
""focus"",""196"",""226676""
""blur"",""202"",""271272""
""focus"",""203"",""273258""
","""event"",""trial"",""time""
""blur"",""196"",""225222""
""blur"",""202"",""271272""
","""event"",""trial"",""time""
""focus"",""196"",""226676""
""focus"",""203"",""273258""
","""event"",""trial"",""time""
""fullscreenenter"",""0"",""1023""
","
","null","run_exp/static/audio/clip_7_gummies.m4a","null","","","","","","","",""
"","osn","203","276039","0.0-203.0","""event"",""trial"",""time""
""fullscreenenter"",""0"",""1023""
""blur"",""196"",""225222""
""focus"",""196"",""226676""
""blur"",""202"",""271272""
""focus"",""203"",""273258""
","""event"",""trial"",""time""
""blur"",""196"",""225222""
""blur"",""202"",""271272""
","""event"",""trial"",""time""
""focus"",""196"",""226676""
""focus"",""203"",""273258""
","""event"",""trial"",""time""
""fullscreenenter"",""0"",""1023""
","
","null","run_exp/static/audio/clip_8_osn.m4a","null","","","","","","","",""
"","old_1","204","282545","0.0-204.0","""event"",""trial"",""time""
""fullscreenenter"",""0"",""1023""
""blur"",""196"",""225222""
""focus"",""196"",""226676""
""blur"",""202"",""271272""
""focus"",""203"",""273258""
","""event"",""trial"",""time""
""blur"",""196"",""225222""
""blur"",""202"",""271272""
","""event"",""trial"",""time""
""focus"",""196"",""226676""
""focus"",""203"",""273258""
","""event"",""trial"",""time""
""fullscreenenter"",""0"",""1023""
","
","null","run_exp/static/audio/clip_9_old_trumpet.m4a","null","","","","","","","",""
"","new_1","205","290055","0.0-205.0","""event"",""trial"",""time""
""fullscreenenter"",""0"",""1023""
""blur"",""196"",""225222""
""focus"",""196"",""226676""
""blur"",""202"",""271272""
""focus"",""203"",""273258""
","""event"",""trial"",""time""
""blur"",""196"",""225222""
""blur"",""202"",""271272""
","""event"",""trial"",""time""
""focus"",""196"",""226676""
""focus"",""203"",""273258""
","""event"",""trial"",""time""
""fullscreenenter"",""0"",""1023""
","
","null","run_exp/static/audio/clip_10_new_balloon.m4a","null","","","","","","","",""
"","similar_1a","206","294563","0.0-206.0","""event"",""trial"",""time""
""fullscreenenter"",""0"",""1023""
""blur"",""196"",""225222""
""focus"",""196"",""226676""
""blur"",""202"",""271272""
""focus"",""203"",""273258""
","""event"",""trial"",""time""
""blur"",""196"",""225222""
""blur"",""202"",""271272""
","""event"",""trial"",""time""
""focus"",""196"",""226676""
""focus"",""203"",""273258""
","""event"",""trial"",""time""
""fullscreenenter"",""0"",""1023""
","
","null","run_exp/static/audio/clip_11a_similar_mop.m4a","null","","","","","","","",""
"","similar_1b","207","301078","0.0-207.0","""event"",""trial"",""time""
""fullscreenenter"",""0"",""1023""
""blur"",""196"",""225222""
""focus"",""196"",""226676""
""blur"",""202"",""271272""
""focus"",""203"",""273258""
","""event"",""trial"",""time""
""blur"",""196"",""225222""
""blur"",""202"",""271272""
","""event"",""trial"",""time""
""focus"",""196"",""226676""
""focus"",""203"",""273258""
","""event"",""trial"",""time""
""fullscreenenter"",""0"",""1023""
","
","null","run_exp/static/audio/clip_11b_similar_mop.m4a","null","","","","","","","",""
"","new_2","208","304582","0.0-208.0","""event"",""trial"",""time""
""fullscreenenter"",""0"",""1023""
""blur"",""196"",""225222""
""focus"",""196"",""226676""
""blur"",""202"",""271272""
""focus"",""203"",""273258""
","""event"",""trial"",""time""
""blur"",""196"",""225222""
""blur"",""202"",""271272""
","""event"",""trial"",""time""
""focus"",""196"",""226676""
""focus"",""203"",""273258""
","""event"",""trial"",""time""
""fullscreenenter"",""0"",""1023""
","
","null","run_exp/static/audio/clip_12_new_stoplight.m4a","null","","","","","","","",""
"","old_2","209","308085","0.0-209.0","""event"",""trial"",""time""
""fullscreenenter"",""0"",""1023""
""blur"",""196"",""225222""
""focus"",""196"",""226676""
""blur"",""202"",""271272""
""focus"",""203"",""273258""
","""event"",""trial"",""time""
""blur"",""196"",""225222""
""blur"",""202"",""271272""
","""event"",""trial"",""time""
""focus"",""196"",""226676""
""focus"",""203"",""273258""
","""event"",""trial"",""time""
""fullscreenenter"",""0"",""1023""
","
","null","run_exp/static/audio/clip_13_old_baseball.m4a","null","","","","","","","",""
"","similar_2a","210","311593","0.0-210.0","""event"",""trial"",""time""
""fullscreenenter"",""0"",""1023""
""blur"",""196"",""225222""
""focus"",""196"",""226676""
""blur"",""202"",""271272""
""focus"",""203"",""273258""
","""event"",""trial"",""time""
""blur"",""196"",""225222""
""blur"",""202"",""271272""
","""event"",""trial"",""time""
""focus"",""196"",""226676""
""focus"",""203"",""273258""
","""event"",""trial"",""time""
""fullscreenenter"",""0"",""1023""
","
","null","run_exp/static/audio/clip_14a_similar_gummies.m4a","null","","","","","","","",""
"","similar_2b","211","319103","0.0-211.0","""event"",""trial"",""time""
""fullscreenenter"",""0"",""1023""
""blur"",""196"",""225222""
""focus"",""196"",""226676""
""blur"",""202"",""271272""
""focus"",""203"",""273258""
","""event"",""trial"",""time""
""blur"",""196"",""225222""
""blur"",""202"",""271272""
","""event"",""trial"",""time""
""focus"",""196"",""226676""
""focus"",""203"",""273258""
","""event"",""trial"",""time""
""fullscreenenter"",""0"",""1023""
","
","null","run_exp/static/audio/clip_14b_similar_gummies.m4a","null","","","","","","","",""
"","practice","212","361447","0.0-212.0","""event"",""trial"",""time""
""fullscreenenter"",""0"",""1023""
""blur"",""196"",""225222""
""focus"",""196"",""226676""
""blur"",""202"",""271272""
""focus"",""203"",""273258""
","""event"",""trial"",""time""
""blur"",""196"",""225222""
""blur"",""202"",""271272""
","""event"",""trial"",""time""
""focus"",""196"",""226676""
""focus"",""203"",""273258""
","""event"",""trial"",""time""
""fullscreenenter"",""0"",""1023""
","
","null","run_exp/static/audio/clip_15_practice.m4a","null","","","","","<div class='center'><p>Lets practice a little to make sure you understand the difference between new, similar, and old. Lets say you saw these three items in the indoor/outdoor game.</p><p> Try your best to remember these images because youll soon be tested on them in a practice game. In the practice game, youll be shown images and youll have to say if they are old (one of the three images belows), similar (similar to one of the images below but not exactly the same), or new (are not one of the images below nor similar to them).</p><p>Once you press the space bar youll be shown these images again but one at time. Then youll begin the practice game.</p><p><img src='run_exp/static/images/tutorial/test/three_indoor_outdoor.png' height='300'></p></div>","","",""
"","html-keyboard-response","213","362025","0.0-213.0","""event"",""trial"",""time""
""fullscreenenter"",""0"",""1023""
""blur"",""196"",""225222""
""focus"",""196"",""226676""
""blur"",""202"",""271272""
""focus"",""203"",""273258""
","""event"",""trial"",""time""
""blur"",""196"",""225222""
""blur"",""202"",""271272""
","""event"",""trial"",""time""
""focus"",""196"",""226676""
""focus"",""203"",""273258""
","""event"",""trial"",""time""
""fullscreenenter"",""0"",""1023""
","
","576.9000000003725","<div class='center'><p>Lets practice a little to make sure you understand the difference between new, similar, and old. Lets say you saw these three items in the indoor/outdoor game.</p><p> Try your best to remember these images because youll soon be tested on them in a practice game. In the practice game, youll be shown images and youll have to say if they are old (one of the three images belows), similar (similar to one of the images below but not exactly the same), or new (are not one of the images below nor similar to them).</p><p>Once you press the space bar youll be shown these images again but one at time. Then youll begin the practice game.</p><p><img src='run_exp/static/images/tutorial/test/three_indoor_outdoor.png' height='300'></p><div><p><b>[Press the space bar to continue]</b></p></div>","32","","","","","","","",""
"","planet","214","364031","0.0-214.0","""event"",""trial"",""time""
""fullscreenenter"",""0"",""1023""
""blur"",""196"",""225222""
""focus"",""196"",""226676""
""blur"",""202"",""271272""
""focus"",""203"",""273258""
","""event"",""trial"",""time""
""blur"",""196"",""225222""
""blur"",""202"",""271272""
","""event"",""trial"",""time""
""focus"",""196"",""226676""
""focus"",""203"",""273258""
","""event"",""trial"",""time""
""fullscreenenter"",""0"",""1023""
","
","null","run_exp/static/images/tutorial/test/008a.jpg","null","","","","","","","",""
"","boot","215","366038","0.0-215.0","""event"",""trial"",""time""
""fullscreenenter"",""0"",""1023""
""blur"",""196"",""225222""
""focus"",""196"",""226676""
""blur"",""202"",""271272""
""focus"",""203"",""273258""
","""event"",""trial"",""time""
""blur"",""196"",""225222""
""blur"",""202"",""271272""
","""event"",""trial"",""time""
""focus"",""196"",""226676""
""focus"",""203"",""273258""
","""event"",""trial"",""time""
""fullscreenenter"",""0"",""1023""
","
","null","run_exp/static/images/tutorial/test/011a.jpg","null","","","","","","","",""
"","lemon","216","368045","0.0-216.0","""event"",""trial"",""time""
""fullscreenenter"",""0"",""1023""
""blur"",""196"",""225222""
""focus"",""196"",""226676""
""blur"",""202"",""271272""
""focus"",""203"",""273258""
","""event"",""trial"",""time""
""blur"",""196"",""225222""
""blur"",""202"",""271272""
","""event"",""trial"",""time""
""focus"",""196"",""226676""
""focus"",""203"",""273258""
","""event"",""trial"",""time""
""fullscreenenter"",""0"",""1023""
","
","null","run_exp/static/images/tutorial/test/018a.jpg","null","","","","","","","",""
"","practice_q1","217","371291","0.0-217.0","""event"",""trial"",""time""
""fullscreenenter"",""0"",""1023""
""blur"",""196"",""225222""
""focus"",""196"",""226676""
""blur"",""202"",""271272""
""focus"",""203"",""273258""
","""event"",""trial"",""time""
""blur"",""196"",""225222""
""blur"",""202"",""271272""
","""event"",""trial"",""time""
""focus"",""196"",""226676""
""focus"",""203"",""273258""
","""event"",""trial"",""time""
""fullscreenenter"",""0"",""1023""
","
","3244.7999999988824","run_exp/static/audio/clip_16_practice_question.m4a","78","","","","","","","",""
"","correct","218","373406","0.0-218.0-0.0","""event"",""trial"",""time""
""fullscreenenter"",""0"",""1023""
""blur"",""196"",""225222""
""focus"",""196"",""226676""
""blur"",""202"",""271272""
""focus"",""203"",""273258""
","""event"",""trial"",""time""
""blur"",""196"",""225222""
""blur"",""202"",""271272""
","""event"",""trial"",""time""
""focus"",""196"",""226676""
""focus"",""203"",""273258""
","""event"",""trial"",""time""
""fullscreenenter"",""0"",""1023""
","
","null","run_exp/static/audio/clip_17_correct.m4a","null","","","","","<div class='center'><p>That's correct!</p></div>","","",""
"","html-keyboard-response","219","374417","0.0-218.0-1.0","""event"",""trial"",""time""
""fullscreenenter"",""0"",""1023""
""blur"",""196"",""225222""
""focus"",""196"",""226676""
""blur"",""202"",""271272""
""focus"",""203"",""273258""
","""event"",""trial"",""time""
""blur"",""196"",""225222""
""blur"",""202"",""271272""
","""event"",""trial"",""time""
""focus"",""196"",""226676""
""focus"",""203"",""273258""
","""event"",""trial"",""time""
""fullscreenenter"",""0"",""1023""
","
","1009.5999999996275","<div class='center'><p>That's correct!</p><div><p><b>[Press the space bar to continue]</b></p></div>","32","","","","","","","",""
"","practice_q2","220","380019","0.0-218.0-2.0","""event"",""trial"",""time""
""fullscreenenter"",""0"",""1023""
""blur"",""196"",""225222""
""focus"",""196"",""226676""
""blur"",""202"",""271272""
""focus"",""203"",""273258""
","""event"",""trial"",""time""
""blur"",""196"",""225222""
""blur"",""202"",""271272""
","""event"",""trial"",""time""
""focus"",""196"",""226676""
""focus"",""203"",""273258""
","""event"",""trial"",""time""
""fullscreenenter"",""0"",""1023""
","
","5601.5","run_exp/static/audio/clip_16_practice_question.m4a","86","","","","","","","",""
"","correct","221","381907","0.0-219.0-0.0","""event"",""trial"",""time""
""fullscreenenter"",""0"",""1023""
""blur"",""196"",""225222""
""focus"",""196"",""226676""
""blur"",""202"",""271272""
""focus"",""203"",""273258""
","""event"",""trial"",""time""
""blur"",""196"",""225222""
""blur"",""202"",""271272""
","""event"",""trial"",""time""
""focus"",""196"",""226676""
""focus"",""203"",""273258""
","""event"",""trial"",""time""
""fullscreenenter"",""0"",""1023""
","
","null","run_exp/static/audio/clip_17_correct.m4a","null","","","","","<div class='center'><p>That's correct!</p></div>","","",""
"","html-keyboard-response","222","383031","0.0-219.0-1.0","""event"",""trial"",""time""
""fullscreenenter"",""0"",""1023""
""blur"",""196"",""225222""
""focus"",""196"",""226676""
""blur"",""202"",""271272""
""focus"",""203"",""273258""
","""event"",""trial"",""time""
""blur"",""196"",""225222""
""blur"",""202"",""271272""
","""event"",""trial"",""time""
""focus"",""196"",""226676""
""focus"",""203"",""273258""
","""event"",""trial"",""time""
""fullscreenenter"",""0"",""1023""
","
","1123.699999999255","<div class='center'><p>That's correct!</p><div><p><b>[Press the space bar to continue]</b></p></div>","32","","","","","","","",""
"","practice_q3","223","385386","0.0-219.0-2.0","""event"",""trial"",""time""
""fullscreenenter"",""0"",""1023""
""blur"",""196"",""225222""
""focus"",""196"",""226676""
""blur"",""202"",""271272""
""focus"",""203"",""273258""
","""event"",""trial"",""time""
""blur"",""196"",""225222""
""blur"",""202"",""271272""
","""event"",""trial"",""time""
""focus"",""196"",""226676""
""focus"",""203"",""273258""
","""event"",""trial"",""time""
""fullscreenenter"",""0"",""1023""
","
","2353.5","run_exp/static/audio/clip_16_practice_question.m4a","66","","","","","","","",""
"","correct","224","387426","0.0-220.0-0.0","""event"",""trial"",""time""
""fullscreenenter"",""0"",""1023""
""blur"",""196"",""225222""
""focus"",""196"",""226676""
""blur"",""202"",""271272""
""focus"",""203"",""273258""
","""event"",""trial"",""time""
""blur"",""196"",""225222""
""blur"",""202"",""271272""
","""event"",""trial"",""time""
""focus"",""196"",""226676""
""focus"",""203"",""273258""
","""event"",""trial"",""time""
""fullscreenenter"",""0"",""1023""
","
","null","run_exp/static/audio/clip_17_correct.m4a","null","","","","","<div class='center'><p>That's correct!</p></div>","","",""
"","html-keyboard-response","225","387884","0.0-220.0-1.0","""event"",""trial"",""time""
""fullscreenenter"",""0"",""1023""
""blur"",""196"",""225222""
""focus"",""196"",""226676""
""blur"",""202"",""271272""
""focus"",""203"",""273258""
","""event"",""trial"",""time""
""blur"",""196"",""225222""
""blur"",""202"",""271272""
","""event"",""trial"",""time""
""focus"",""196"",""226676""
""focus"",""203"",""273258""
","""event"",""trial"",""time""
""fullscreenenter"",""0"",""1023""
","
","457.19999999925494","<div class='center'><p>That's correct!</p><div><p><b>[Press the space bar to continue]</b></p></div>","32","","","","","","","",""
"","begin_text","226","406567","0.0-221.0-0.0","""event"",""trial"",""time""
""fullscreenenter"",""0"",""1023""
""blur"",""196"",""225222""
""focus"",""196"",""226676""
""blur"",""202"",""271272""
""focus"",""203"",""273258""
","""event"",""trial"",""time""
""blur"",""196"",""225222""
""blur"",""202"",""271272""
","""event"",""trial"",""time""
""focus"",""196"",""226676""
""focus"",""203"",""273258""
","""event"",""trial"",""time""
""fullscreenenter"",""0"",""1023""
","
","null","run_exp/static/audio/clip_22_begin_test.m4a","null","","","","","<div class='center'><p>On to the real game where well test your memory of items from the indoor/outdoor game. For each item, you need to indicate if the item is <b>old</b> by pressing the <b>v</b> key, <b>similar</b> by pressing the <b>b</b> key, or <b>new</b> by pressing the <b>n</b> key. </p></div>","","",""
"","html-keyboard-response","227","412201","0.0-221.0-1.0","""event"",""trial"",""time""
""fullscreenenter"",""0"",""1023""
""blur"",""196"",""225222""
""focus"",""196"",""226676""
""blur"",""202"",""271272""
""focus"",""203"",""273258""
","""event"",""trial"",""time""
""blur"",""196"",""225222""
""blur"",""202"",""271272""
","""event"",""trial"",""time""
""focus"",""196"",""226676""
""focus"",""203"",""273258""
","""event"",""trial"",""time""
""fullscreenenter"",""0"",""1023""
","
","5633.5","<div class='center'><p>On to the real game where well test your memory of items from the indoor/outdoor game. For each item, you need to indicate if the item is <b>old</b> by pressing the <b>v</b> key, <b>similar</b> by pressing the <b>b</b> key, or <b>new</b> by pressing the <b>n</b> key. </p><div><p><b>[Press the space bar to continue]</b></p></div>","32","","","","","","","",""
"","image","228","414309","0.0-222.0-0.0","""event"",""trial"",""time""
""fullscreenenter"",""0"",""1023""
""blur"",""196"",""225222""
""focus"",""196"",""226676""
""blur"",""202"",""271272""
""focus"",""203"",""273258""
","""event"",""trial"",""time""
""blur"",""196"",""225222""
""blur"",""202"",""271272""
","""event"",""trial"",""time""
""focus"",""196"",""226676""
""focus"",""203"",""273258""
","""event"",""trial"",""time""
""fullscreenenter"",""0"",""1023""
","
","2107","run_exp/static/images/Set 6_rs/100a.jpg","78","","","","","","test","TF","2"
"","show_choice","229","414816","0.0-222.0-1.0","""event"",""trial"",""time""
""fullscreenenter"",""0"",""1023""
""blur"",""196"",""225222""
""focus"",""196"",""226676""
""blur"",""202"",""271272""
""focus"",""203"",""273258""
","""event"",""trial"",""time""
""blur"",""196"",""225222""
""blur"",""202"",""271272""
","""event"",""trial"",""time""
""focus"",""196"",""226676""
""focus"",""203"",""273258""
","""event"",""trial"",""time""
""fullscreenenter"",""0"",""1023""
","
","null","run_exp/static/images/Set 6_rs/100a.jpg","null","","","","","","test","TF",""
"","html-keyboard-response","230","415325","0.0-222.0-2.0","""event"",""trial"",""time""
""fullscreenenter"",""0"",""1023""
""blur"",""196"",""225222""
""focus"",""196"",""226676""
""blur"",""202"",""271272""
""focus"",""203"",""273258""
","""event"",""trial"",""time""
""blur"",""196"",""225222""
""blur"",""202"",""271272""
","""event"",""trial"",""time""
""focus"",""196"",""226676""
""focus"",""203"",""273258""
","""event"",""trial"",""time""
""fullscreenenter"",""0"",""1023""
","
","null","<p></p>","null","","","","","","","",""
"","image","231","416618","0.0-223.0-0.0","""event"",""trial"",""time""
""fullscreenenter"",""0"",""1023""
""blur"",""196"",""225222""
""focus"",""196"",""226676""
""blur"",""202"",""271272""
""focus"",""203"",""273258""
","""event"",""trial"",""time""
""blur"",""196"",""225222""
""blur"",""202"",""271272""
","""event"",""trial"",""time""
""focus"",""196"",""226676""
""focus"",""203"",""273258""
","""event"",""trial"",""time""
""fullscreenenter"",""0"",""1023""
","
","1291.800000000745","run_exp/static/images/Set 6_rs/012a.jpg","66","","","","","","test","TR","1"
"","show_choice","232","417131","0.0-223.0-1.0","""event"",""trial"",""time""
""fullscreenenter"",""0"",""1023""
""blur"",""196"",""225222""
""focus"",""196"",""226676""
""blur"",""202"",""271272""
""focus"",""203"",""273258""
","""event"",""trial"",""time""
""blur"",""196"",""225222""
""blur"",""202"",""271272""
","""event"",""trial"",""time""
""focus"",""196"",""226676""
""focus"",""203"",""273258""
","""event"",""trial"",""time""
""fullscreenenter"",""0"",""1023""
","
","null","run_exp/static/images/Set 6_rs/012a.jpg","null","","","","","","test","TR",""
"","html-keyboard-response","233","417639","0.0-223.0-2.0","""event"",""trial"",""time""
""fullscreenenter"",""0"",""1023""
""blur"",""196"",""225222""
""focus"",""196"",""226676""
""blur"",""202"",""271272""
""focus"",""203"",""273258""
","""event"",""trial"",""time""
""blur"",""196"",""225222""
""blur"",""202"",""271272""
","""event"",""trial"",""time""
""focus"",""196"",""226676""
""focus"",""203"",""273258""
","""event"",""trial"",""time""
""fullscreenenter"",""0"",""1023""
","
","null","<p></p>","null","","","","","","","",""
"","image","234","418619","0.0-224.0-0.0","""event"",""trial"",""time""
""fullscreenenter"",""0"",""1023""
""blur"",""196"",""225222""
""focus"",""196"",""226676""
""blur"",""202"",""271272""
""focus"",""203"",""273258""
","""event"",""trial"",""time""
""blur"",""196"",""225222""
""blur"",""202"",""271272""
","""event"",""trial"",""time""
""focus"",""196"",""226676""
""focus"",""203"",""273258""
","""event"",""trial"",""time""
""fullscreenenter"",""0"",""1023""
","
","979","run_exp/static/images/Set 6_rs/074b.jpg","86","","","","","","test","TL","4"
"","show_choice","235","419125","0.0-224.0-1.0","""event"",""trial"",""time""
""fullscreenenter"",""0"",""1023""
""blur"",""196"",""225222""
""focus"",""196"",""226676""
""blur"",""202"",""271272""
""focus"",""203"",""273258""
","""event"",""trial"",""time""
""blur"",""196"",""225222""
""blur"",""202"",""271272""
","""event"",""trial"",""time""
""focus"",""196"",""226676""
""focus"",""203"",""273258""
","""event"",""trial"",""time""
""fullscreenenter"",""0"",""1023""
","
","null","run_exp/static/images/Set 6_rs/074b.jpg","null","","","","","","test","TL",""
"","html-keyboard-response","236","419637","0.0-224.0-2.0","""event"",""trial"",""time""
""fullscreenenter"",""0"",""1023""
""blur"",""196"",""225222""
""focus"",""196"",""226676""
""blur"",""202"",""271272""
""focus"",""203"",""273258""
","""event"",""trial"",""time""
""blur"",""196"",""225222""
""blur"",""202"",""271272""
","""event"",""trial"",""time""
""focus"",""196"",""226676""
""focus"",""203"",""273258""
","""event"",""trial"",""time""
""fullscreenenter"",""0"",""1023""
","
","null","<p></p>","null","","","","","","","",""
"","image","237","420419","0.0-225.0-0.0","""event"",""trial"",""time""
""fullscreenenter"",""0"",""1023""
""blur"",""196"",""225222""
""focus"",""196"",""226676""
""blur"",""202"",""271272""
""focus"",""203"",""273258""
","""event"",""trial"",""time""
""blur"",""196"",""225222""
""blur"",""202"",""271272""
","""event"",""trial"",""time""
""focus"",""196"",""226676""
""focus"",""203"",""273258""
","""event"",""trial"",""time""
""fullscreenenter"",""0"",""1023""
","
","781.1000000014901","run_exp/static/images/Set 6_rs/187a.jpg","86","","","","","","test","TR","3"
"","show_choice","238","420924","0.0-225.0-1.0","""event"",""trial"",""time""
""fullscreenenter"",""0"",""1023""
""blur"",""196"",""225222""
""focus"",""196"",""226676""
""blur"",""202"",""271272""
""focus"",""203"",""273258""
","""event"",""trial"",""time""
""blur"",""196"",""225222""
""blur"",""202"",""271272""
","""event"",""trial"",""time""
""focus"",""196"",""226676""
""focus"",""203"",""273258""
","""event"",""trial"",""time""
""fullscreenenter"",""0"",""1023""
","
","null","run_exp/static/images/Set 6_rs/187a.jpg","null","","","","","","test","TR",""
"","html-keyboard-response","239","421434","0.0-225.0-2.0","""event"",""trial"",""time""
""fullscreenenter"",""0"",""1023""
""blur"",""196"",""225222""
""focus"",""196"",""226676""
""blur"",""202"",""271272""
""focus"",""203"",""273258""
","""event"",""trial"",""time""
""blur"",""196"",""225222""
""blur"",""202"",""271272""
","""event"",""trial"",""time""
""focus"",""196"",""226676""
""focus"",""203"",""273258""
","""event"",""trial"",""time""
""fullscreenenter"",""0"",""1023""
","
","null","<p></p>","null","","","","","","","",""
"","image","240","422539","0.0-226.0-0.0","""event"",""trial"",""time""
""fullscreenenter"",""0"",""1023""
""blur"",""196"",""225222""
""focus"",""196"",""226676""
""blur"",""202"",""271272""
""focus"",""203"",""273258""
","""event"",""trial"",""time""
""blur"",""196"",""225222""
""blur"",""202"",""271272""
","""event"",""trial"",""time""
""focus"",""196"",""226676""
""focus"",""203"",""273258""
","""event"",""trial"",""time""
""fullscreenenter"",""0"",""1023""
","
","1103.9000000003725","run_exp/static/images/Set 6_rs/090a.jpg","78","","","","","","test","TF","5"
"","show_choice","241","423041","0.0-226.0-1.0","""event"",""trial"",""time""
""fullscreenenter"",""0"",""1023""
""blur"",""196"",""225222""
""focus"",""196"",""226676""
""blur"",""202"",""271272""
""focus"",""203"",""273258""
","""event"",""trial"",""time""
""blur"",""196"",""225222""
""blur"",""202"",""271272""
","""event"",""trial"",""time""
""focus"",""196"",""226676""
""focus"",""203"",""273258""
","""event"",""trial"",""time""
""fullscreenenter"",""0"",""1023""
","
","null","run_exp/static/images/Set 6_rs/090a.jpg","null","","","","","","test","TF",""
"","html-keyboard-response","242","423547","0.0-226.0-2.0","""event"",""trial"",""time""
""fullscreenenter"",""0"",""1023""
""blur"",""196"",""225222""
""focus"",""196"",""226676""
""blur"",""202"",""271272""
""focus"",""203"",""273258""
","""event"",""trial"",""time""
""blur"",""196"",""225222""
""blur"",""202"",""271272""
","""event"",""trial"",""time""
""focus"",""196"",""226676""
""focus"",""203"",""273258""
","""event"",""trial"",""time""
""fullscreenenter"",""0"",""1023""
","
","null","<p></p>","null","","","","","","","",""
"","image","243","424194","0.0-227.0-0.0","""event"",""trial"",""time""
""fullscreenenter"",""0"",""1023""
""blur"",""196"",""225222""
""focus"",""196"",""226676""
""blur"",""202"",""271272""
""focus"",""203"",""273258""
","""event"",""trial"",""time""
""blur"",""196"",""225222""
""blur"",""202"",""271272""
","""event"",""trial"",""time""
""focus"",""196"",""226676""
""focus"",""203"",""273258""
","""event"",""trial"",""time""
""fullscreenenter"",""0"",""1023""
","
","646.5999999996275","run_exp/static/images/Set 6_rs/063a.jpg","86","","","","","","test","TR","2"
"","show_choice","244","424706","0.0-227.0-1.0","""event"",""trial"",""time""
""fullscreenenter"",""0"",""1023""
""blur"",""196"",""225222""
""focus"",""196"",""226676""
""blur"",""202"",""271272""
""focus"",""203"",""273258""
","""event"",""trial"",""time""
""blur"",""196"",""225222""
""blur"",""202"",""271272""
","""event"",""trial"",""time""
""focus"",""196"",""226676""
""focus"",""203"",""273258""
","""event"",""trial"",""time""
""fullscreenenter"",""0"",""1023""
","
","null","run_exp/static/images/Set 6_rs/063a.jpg","null","","","","","","test","TR",""
"","html-keyboard-response","245","425215","0.0-227.0-2.0","""event"",""trial"",""time""
""fullscreenenter"",""0"",""1023""
""blur"",""196"",""225222""
""focus"",""196"",""226676""
""blur"",""202"",""271272""
""focus"",""203"",""273258""
","""event"",""trial"",""time""
""blur"",""196"",""225222""
""blur"",""202"",""271272""
","""event"",""trial"",""time""
""focus"",""196"",""226676""
""focus"",""203"",""273258""
","""event"",""trial"",""time""
""fullscreenenter"",""0"",""1023""
","
","null","<p></p>","null","","","","","","","",""
"","image","246","426574","0.0-228.0-0.0","""event"",""trial"",""time""
""fullscreenenter"",""0"",""1023""
""blur"",""196"",""225222""
""focus"",""196"",""226676""
""blur"",""202"",""271272""
""focus"",""203"",""273258""
","""event"",""trial"",""time""
""blur"",""196"",""225222""
""blur"",""202"",""271272""
","""event"",""trial"",""time""
""focus"",""196"",""226676""
""focus"",""203"",""273258""
","""event"",""trial"",""time""
""fullscreenenter"",""0"",""1023""
","
","1358.7000000011176","run_exp/static/images/Set 6_rs/061a.jpg","86","","","","","","test","TR","5"
"","show_choice","247","427084","0.0-228.0-1.0","""event"",""trial"",""time""
""fullscreenenter"",""0"",""1023""
""blur"",""196"",""225222""
""focus"",""196"",""226676""
""blur"",""202"",""271272""
""focus"",""203"",""273258""
","""event"",""trial"",""time""
""blur"",""196"",""225222""
""blur"",""202"",""271272""
","""event"",""trial"",""time""
""focus"",""196"",""226676""
""focus"",""203"",""273258""
","""event"",""trial"",""time""
""fullscreenenter"",""0"",""1023""
","
","null","run_exp/static/images/Set 6_rs/061a.jpg","null","","","","","","test","TR",""
"","html-keyboard-response","248","427591","0.0-228.0-2.0","""event"",""trial"",""time""
""fullscreenenter"",""0"",""1023""
""blur"",""196"",""225222""
""focus"",""196"",""226676""
""blur"",""202"",""271272""
""focus"",""203"",""273258""
","""event"",""trial"",""time""
""blur"",""196"",""225222""
""blur"",""202"",""271272""
","""event"",""trial"",""time""
""focus"",""196"",""226676""
""focus"",""203"",""273258""
","""event"",""trial"",""time""
""fullscreenenter"",""0"",""1023""
","
","null","<p></p>","null","","","","","","","",""
"","image","249","428523","0.0-229.0-0.0","""event"",""trial"",""time""
""fullscreenenter"",""0"",""1023""
""blur"",""196"",""225222""
""focus"",""196"",""226676""
""blur"",""202"",""271272""
""focus"",""203"",""273258""
","""event"",""trial"",""time""
""blur"",""196"",""225222""
""blur"",""202"",""271272""
","""event"",""trial"",""time""
""focus"",""196"",""226676""
""focus"",""203"",""273258""
","""event"",""trial"",""time""
""fullscreenenter"",""0"",""1023""
","
","930.1999999992549","run_exp/static/images/Set 6_rs/016b.jpg","86","","","","","","test","TL","1"
"","show_choice","250","429026","0.0-229.0-1.0","""event"",""trial"",""time""
""fullscreenenter"",""0"",""1023""
""blur"",""196"",""225222""
""focus"",""196"",""226676""
""blur"",""202"",""271272""
""focus"",""203"",""273258""
","""event"",""trial"",""time""
""blur"",""196"",""225222""
""blur"",""202"",""271272""
","""event"",""trial"",""time""
""focus"",""196"",""226676""
""focus"",""203"",""273258""
","""event"",""trial"",""time""
""fullscreenenter"",""0"",""1023""
","
","null","run_exp/static/images/Set 6_rs/016b.jpg","null","","","","","","test","TL",""
"","html-keyboard-response","251","429537","0.0-229.0-2.0","""event"",""trial"",""time""
""fullscreenenter"",""0"",""1023""
""blur"",""196"",""225222""
""focus"",""196"",""226676""
""blur"",""202"",""271272""
""focus"",""203"",""273258""
","""event"",""trial"",""time""
""blur"",""196"",""225222""
""blur"",""202"",""271272""
","""event"",""trial"",""time""
""focus"",""196"",""226676""
""focus"",""203"",""273258""
","""event"",""trial"",""time""
""fullscreenenter"",""0"",""1023""
","
","null","<p></p>","null","","","","","","","",""
"","image","252","430183","0.0-230.0-0.0","""event"",""trial"",""time""
""fullscreenenter"",""0"",""1023""
""blur"",""196"",""225222""
""focus"",""196"",""226676""
""blur"",""202"",""271272""
""focus"",""203"",""273258""
","""event"",""trial"",""time""
""blur"",""196"",""225222""
""blur"",""202"",""271272""
","""event"",""trial"",""time""
""focus"",""196"",""226676""
""focus"",""203"",""273258""
","""event"",""trial"",""time""
""fullscreenenter"",""0"",""1023""
","
","645.5999999996275","run_exp/static/images/Set 6_rs/166a.jpg","86","","","","","","test","TR","1"
"","show_choice","253","430696","0.0-230.0-1.0","""event"",""trial"",""time""
""fullscreenenter"",""0"",""1023""
""blur"",""196"",""225222""
""focus"",""196"",""226676""
""blur"",""202"",""271272""
""focus"",""203"",""273258""
","""event"",""trial"",""time""
""blur"",""196"",""225222""
""blur"",""202"",""271272""
","""event"",""trial"",""time""
""focus"",""196"",""226676""
""focus"",""203"",""273258""
","""event"",""trial"",""time""
""fullscreenenter"",""0"",""1023""
","
","null","run_exp/static/images/Set 6_rs/166a.jpg","null","","","","","","test","TR",""
"","html-keyboard-response","254","431204","0.0-230.0-2.0","""event"",""trial"",""time""
""fullscreenenter"",""0"",""1023""
""blur"",""196"",""225222""
""focus"",""196"",""226676""
""blur"",""202"",""271272""
""focus"",""203"",""273258""
","""event"",""trial"",""time""
""blur"",""196"",""225222""
""blur"",""202"",""271272""
","""event"",""trial"",""time""
""focus"",""196"",""226676""
""focus"",""203"",""273258""
","""event"",""trial"",""time""
""fullscreenenter"",""0"",""1023""
","
","null","<p></p>","null","","","","","","","",""
"","image","255","432280","0.0-231.0-0.0","""event"",""trial"",""time""
""fullscreenenter"",""0"",""1023""
""blur"",""196"",""225222""
""focus"",""196"",""226676""
""blur"",""202"",""271272""
""focus"",""203"",""273258""
","""event"",""trial"",""time""
""blur"",""196"",""225222""
""blur"",""202"",""271272""
","""event"",""trial"",""time""
""focus"",""196"",""226676""
""focus"",""203"",""273258""
","""event"",""trial"",""time""
""fullscreenenter"",""0"",""1023""
","
","1075.9000000003725","run_exp/static/images/Set 6_rs/065a.jpg","78","","","","","","test","TF","3"
"","show_choice","256","432794","0.0-231.0-1.0","""event"",""trial"",""time""
""fullscreenenter"",""0"",""1023""
""blur"",""196"",""225222""
""focus"",""196"",""226676""
""blur"",""202"",""271272""
""focus"",""203"",""273258""
","""event"",""trial"",""time""
""blur"",""196"",""225222""
""blur"",""202"",""271272""
","""event"",""trial"",""time""
""focus"",""196"",""226676""
""focus"",""203"",""273258""
","""event"",""trial"",""time""
""fullscreenenter"",""0"",""1023""
","
","null","run_exp/static/images/Set 6_rs/065a.jpg","null","","","","","","test","TF",""
"","html-keyboard-response","257","433304","0.0-231.0-2.0","""event"",""trial"",""time""
""fullscreenenter"",""0"",""1023""
""blur"",""196"",""225222""
""focus"",""196"",""226676""
""blur"",""202"",""271272""
""focus"",""203"",""273258""
","""event"",""trial"",""time""
""blur"",""196"",""225222""
""blur"",""202"",""271272""
","""event"",""trial"",""time""
""focus"",""196"",""226676""
""focus"",""203"",""273258""
","""event"",""trial"",""time""
""fullscreenenter"",""0"",""1023""
","
","null","<p></p>","null","","","","","","","",""
"","image","258","434221","0.0-232.0-0.0","""event"",""trial"",""time""
""fullscreenenter"",""0"",""1023""
""blur"",""196"",""225222""
""focus"",""196"",""226676""
""blur"",""202"",""271272""
""focus"",""203"",""273258""
","""event"",""trial"",""time""
""blur"",""196"",""225222""
""blur"",""202"",""271272""
","""event"",""trial"",""time""
""focus"",""196"",""226676""
""focus"",""203"",""273258""
","""event"",""trial"",""time""
""fullscreenenter"",""0"",""1023""
","
","916","run_exp/static/images/Set 6_rs/070a.jpg","86","","","","","","test","TR","2"
"","show_choice","259","434727","0.0-232.0-1.0","""event"",""trial"",""time""
""fullscreenenter"",""0"",""1023""
""blur"",""196"",""225222""
""focus"",""196"",""226676""
""blur"",""202"",""271272""
""focus"",""203"",""273258""
","""event"",""trial"",""time""
""blur"",""196"",""225222""
""blur"",""202"",""271272""
","""event"",""trial"",""time""
""focus"",""196"",""226676""
""focus"",""203"",""273258""
","""event"",""trial"",""time""
""fullscreenenter"",""0"",""1023""
","
","null","run_exp/static/images/Set 6_rs/070a.jpg","null","","","","","","test","TR",""
"","html-keyboard-response","260","435232","0.0-232.0-2.0","""event"",""trial"",""time""
""fullscreenenter"",""0"",""1023""
""blur"",""196"",""225222""
""focus"",""196"",""226676""
""blur"",""202"",""271272""
""focus"",""203"",""273258""
","""event"",""trial"",""time""
""blur"",""196"",""225222""
""blur"",""202"",""271272""
","""event"",""trial"",""time""
""focus"",""196"",""226676""
""focus"",""203"",""273258""
","""event"",""trial"",""time""
""fullscreenenter"",""0"",""1023""
","
","null","<p></p>","null","","","","","","","",""
"","image","261","436221","0.0-233.0-0.0","""event"",""trial"",""time""
""fullscreenenter"",""0"",""1023""
""blur"",""196"",""225222""
""focus"",""196"",""226676""
""blur"",""202"",""271272""
""focus"",""203"",""273258""
","""event"",""trial"",""time""
""blur"",""196"",""225222""
""blur"",""202"",""271272""
","""event"",""trial"",""time""
""focus"",""196"",""226676""
""focus"",""203"",""273258""
","""event"",""trial"",""time""
""fullscreenenter"",""0"",""1023""
","
","988.3999999985099","run_exp/static/images/Set 6_rs/118a.jpg","78","","","","","","test","TF","5"
"","show_choice","262","436731","0.0-233.0-1.0","""event"",""trial"",""time""
""fullscreenenter"",""0"",""1023""
""blur"",""196"",""225222""
""focus"",""196"",""226676""
""blur"",""202"",""271272""
""focus"",""203"",""273258""
","""event"",""trial"",""time""
""blur"",""196"",""225222""
""blur"",""202"",""271272""
","""event"",""trial"",""time""
""focus"",""196"",""226676""
""focus"",""203"",""273258""
","""event"",""trial"",""time""
""fullscreenenter"",""0"",""1023""
","
","null","run_exp/static/images/Set 6_rs/118a.jpg","null","","","","","","test","TF",""
"","html-keyboard-response","263","437241","0.0-233.0-2.0","""event"",""trial"",""time""
""fullscreenenter"",""0"",""1023""
""blur"",""196"",""225222""
""focus"",""196"",""226676""
""blur"",""202"",""271272""
""focus"",""203"",""273258""
","""event"",""trial"",""time""
""blur"",""196"",""225222""
""blur"",""202"",""271272""
","""event"",""trial"",""time""
""focus"",""196"",""226676""
""focus"",""203"",""273258""
","""event"",""trial"",""time""
""fullscreenenter"",""0"",""1023""
","
","null","<p></p>","null","","","","","","","",""
"","image","264","438323","0.0-234.0-0.0","""event"",""trial"",""time""
""fullscreenenter"",""0"",""1023""
""blur"",""196"",""225222""
""focus"",""196"",""226676""
""blur"",""202"",""271272""
""focus"",""203"",""273258""
","""event"",""trial"",""time""
""blur"",""196"",""225222""
""blur"",""202"",""271272""
","""event"",""trial"",""time""
""focus"",""196"",""226676""
""focus"",""203"",""273258""
","""event"",""trial"",""time""
""fullscreenenter"",""0"",""1023""
","
","1082","run_exp/static/images/Set 6_rs/055b.jpg","66","","","","","","test","TL","4"
"","show_choice","265","438832","0.0-234.0-1.0","""event"",""trial"",""time""
""fullscreenenter"",""0"",""1023""
""blur"",""196"",""225222""
""focus"",""196"",""226676""
""blur"",""202"",""271272""
""focus"",""203"",""273258""
","""event"",""trial"",""time""
""blur"",""196"",""225222""
""blur"",""202"",""271272""
","""event"",""trial"",""time""
""focus"",""196"",""226676""
""focus"",""203"",""273258""
","""event"",""trial"",""time""
""fullscreenenter"",""0"",""1023""
","
","null","run_exp/static/images/Set 6_rs/055b.jpg","null","","","","","","test","TL",""
"","html-keyboard-response","266","439340","0.0-234.0-2.0","""event"",""trial"",""time""
""fullscreenenter"",""0"",""1023""
""blur"",""196"",""225222""
""focus"",""196"",""226676""
""blur"",""202"",""271272""
""focus"",""203"",""273258""
","""event"",""trial"",""time""
""blur"",""196"",""225222""
""blur"",""202"",""271272""
","""event"",""trial"",""time""
""focus"",""196"",""226676""
""focus"",""203"",""273258""
","""event"",""trial"",""time""
""fullscreenenter"",""0"",""1023""
","
","null","<p></p>","null","","","","","","","",""
"","image","267","440392","0.0-235.0-0.0","""event"",""trial"",""time""
""fullscreenenter"",""0"",""1023""
""blur"",""196"",""225222""
""focus"",""196"",""226676""
""blur"",""202"",""271272""
""focus"",""203"",""273258""
","""event"",""trial"",""time""
""blur"",""196"",""225222""
""blur"",""202"",""271272""
","""event"",""trial"",""time""
""focus"",""196"",""226676""
""focus"",""203"",""273258""
","""event"",""trial"",""time""
""fullscreenenter"",""0"",""1023""
","
","1050.7999999988824","run_exp/static/images/Set 6_rs/136a.jpg","78","","","","","","test","TF","4"
