"success","trial_type","trial_index","time_elapsed","internal_node_id","rt","stimulus","key_press","subject_id","participant_id","age","gender","prompt","phase","condition","lure_bin"
"true","fullscreen","0","4372","0.0-0.0","","","","","","","","","","",""
"","pavlovia","1","4379","0.0-1.0","","","","","","","","","","",""
"","welcome","2","40100","0.0-2.0","null","run_exp/static/audio/clip_1_welcome.m4a","null","67","521","10","male","<div class='center'><p>This is your last game of the experiment! First, you'll be shown pictures of items one at a time. For each picture, you have to decide if the item is typically found indoors or outdoors.</p><p>If you think it's usually found indoors, then press <b>v</b> key on your keyboard. If you think it's usually found outdoors, then press the <b>n</b> key.There will be reminders on the screen to help you remember which keys to press. </p><p>If you're not sure whether the item is an indoor item or outdoor item, go ahead and take a guess but try your best not to skip that choice. </p></div>","","",""
"","html-keyboard-response","3","42270","0.0-3.0","2155.099999964237","<div class='center'><p>This is your last game of the experiment! First, you'll be shown pictures of items one at a time. For each picture, you have to decide if the item is typically found indoors or outdoors.</p><p>If you think it's usually found indoors, then press <b>v</b> key on your keyboard. If you think it's usually found outdoors, then press the <b>n</b> key.There will be reminders on the screen to help you remember which keys to press. </p><p>If you're not sure whether the item is an indoor item or outdoor item, go ahead and take a guess but try your best not to skip that choice. </p><div><p><b>[Press the space bar to continue]</b></p></div>","32","","","","","","","",""
"","image","4","43914","0.0-4.0","1641.3999999761581","run_exp/static/images/Set 6_rs/167a.jpg","86","","","","","","learn","SL",""
"","show_choice","5","44275","0.0-5.0","null","run_exp/static/images/Set 6_rs/167a.jpg","null","","","","","","learn","SL",""
"","html-keyboard-response","6","44781","0.0-6.0","null","<p></p>","null","","","","","","","",""
"","image","7","45615","0.0-7.0","832.6000000238419","run_exp/static/images/Set 6_rs/055a.jpg","78","","","","","","learn","SL",""
"","show_choice","8","46785","0.0-8.0","null","run_exp/static/images/Set 6_rs/055a.jpg","null","","","","","","learn","SL",""
"","html-keyboard-response","9","47291","0.0-9.0","null","<p></p>","null","","","","","","","",""
"","image","10","47935","0.0-10.0","642.8000000119209","run_exp/static/images/Set 6_rs/168a.jpg","86","","","","","","learn","SL",""
"","show_choice","11","49293","0.0-11.0","null","run_exp/static/images/Set 6_rs/168a.jpg","null","","","","","","learn","SL",""
"","html-keyboard-response","12","49796","0.0-12.0","null","<p></p>","null","","","","","","","",""
"","image","13","51174","0.0-13.0","1374.9000000357628","run_exp/static/images/Set 6_rs/191a.jpg","86","","","","","","learn","SL",""
"","show_choice","14","51801","0.0-14.0","null","run_exp/static/images/Set 6_rs/191a.jpg","null","","","","","","learn","SL",""
"","html-keyboard-response","15","52302","0.0-15.0","null","<p></p>","null","","","","","","","",""
"","image","16","52870","0.0-16.0","567","run_exp/static/images/Set 6_rs/062a.jpg","78","","","","","","learn","SL",""
"","show_choice","17","54308","0.0-17.0","null","run_exp/static/images/Set 6_rs/062a.jpg","null","","","","","","learn","SL",""
"","html-keyboard-response","18","54813","0.0-18.0","null","<p></p>","null","","","","","","","",""
"","image","19","55459","0.0-19.0","644.9000000357628","run_exp/static/images/Set 6_rs/141a.jpg","78","","","","","","learn","SR",""
"","show_choice","20","56820","0.0-20.0","null","run_exp/static/images/Set 6_rs/141a.jpg","null","","","","","","learn","SR",""
"","html-keyboard-response","21","57324","0.0-21.0","null","<p></p>","null","","","","","","","",""
"","image","22","58716","0.0-22.0","1390.199999988079","run_exp/static/images/Set 6_rs/169a.jpg","78","","","","","","learn","SR",""
"","show_choice","23","59331","0.0-23.0","null","run_exp/static/images/Set 6_rs/169a.jpg","null","","","","","","learn","SR",""
"","html-keyboard-response","24","59832","0.0-24.0","null","<p></p>","null","","","","","","","",""
"","image","25","60916","0.0-25.0","1082.8999999761581","run_exp/static/images/Set 6_rs/010a.jpg","86","","","","","","learn","SR",""
"","show_choice","26","61838","0.0-26.0","null","run_exp/static/images/Set 6_rs/010a.jpg","null","","","","","","learn","SR",""
"","html-keyboard-response","27","62342","0.0-27.0","null","<p></p>","null","","","","","","","",""
"","image","28","63257","0.0-28.0","913.3999999761581","run_exp/static/images/Set 6_rs/108a.jpg","78","","","","","","learn","SR",""
"","show_choice","29","64346","0.0-29.0","null","run_exp/static/images/Set 6_rs/108a.jpg","null","","","","","","learn","SR",""
"","html-keyboard-response","30","64851","0.0-30.0","null","<p></p>","null","","","","","","","",""
"","image","31","65850","0.0-31.0","997.8000000119209","run_exp/static/images/Set 6_rs/134a.jpg","78","","","","","","learn","SR",""
"","show_choice","32","66854","0.0-32.0","null","run_exp/static/images/Set 6_rs/134a.jpg","null","","","","","","learn","SR",""
"","html-keyboard-response","33","67359","0.0-33.0","null","<p></p>","null","","","","","","","",""
"","image","34","68984","0.0-34.0","1624.5","run_exp/static/images/Set 6_rs/057a.jpg","86","","","","","","learn","SL",""
"","show_choice","35","69364","0.0-35.0","null","run_exp/static/images/Set 6_rs/057a.jpg","null","","","","","","learn","SL",""
"","html-keyboard-response","36","69869","0.0-36.0","null","<p></p>","null","","","","","","","",""
"","image","37","71218","0.0-37.0","1348","run_exp/static/images/Set 6_rs/019a.jpg","86","","","","","","learn","SL",""
"","show_choice","38","71875","0.0-38.0","null","run_exp/static/images/Set 6_rs/019a.jpg","null","","","","","","learn","SL",""
"","html-keyboard-response","39","72376","0.0-39.0","null","<p></p>","null","","","","","","","",""
"","image","40","74382","0.0-40.0","null","run_exp/static/images/Set 6_rs/076a.jpg","null","","","","","","learn","SR",""
"","show_choice","41","76384","0.0-41.0","null","run_exp/static/images/blank.png","null","","","","","","learn","SR",""
"","html-keyboard-response","42","76889","0.0-42.0","null","<p></p>","null","","","","","","","",""
"","image","43","78893","0.0-43.0","null","run_exp/static/images/Set 6_rs/060a.jpg","null","","","","","","learn","SL",""
"","show_choice","44","80894","0.0-44.0","null","run_exp/static/images/blank.png","null","","","","","","learn","SL",""
"","html-keyboard-response","45","81400","0.0-45.0","null","<p></p>","null","","","","","","","",""
"","image","46","83406","0.0-46.0","null","run_exp/static/images/Set 6_rs/061a.jpg","null","","","","","","learn","SR",""
"","show_choice","47","85410","0.0-47.0","null","run_exp/static/images/blank.png","null","","","","","","learn","SR",""
"","html-keyboard-response","48","85916","0.0-48.0","null","<p></p>","null","","","","","","","",""
"","image","49","86806","0.0-49.0","889.6999999880791","run_exp/static/images/Set 6_rs/166a.jpg","78","","","","","","learn","SR",""
"","show_choice","50","87919","0.0-50.0","null","run_exp/static/images/Set 6_rs/166a.jpg","null","","","","","","learn","SR",""
"","html-keyboard-response","51","88420","0.0-51.0","null","<p></p>","null","","","","","","","",""
"","image","52","89218","0.0-52.0","797.3999999761581","run_exp/static/images/Set 6_rs/045a.jpg","86","","","","","","learn","SR",""
"","show_choice","53","90423","0.0-53.0","null","run_exp/static/images/Set 6_rs/045a.jpg","null","","","","","","learn","SR",""
"","html-keyboard-response","54","90927","0.0-54.0","null","<p></p>","null","","","","","","","",""
"","image","55","92376","0.0-55.0","1448.1000000238419","run_exp/static/images/Set 6_rs/095a.jpg","86","","","","","","learn","SL",""
"","show_choice","56","92933","0.0-56.0","null","run_exp/static/images/Set 6_rs/095a.jpg","null","","","","","","learn","SL",""
"","html-keyboard-response","57","93434","0.0-57.0","null","<p></p>","null","","","","","","","",""
"","image","58","95216","0.0-58.0","1780.0999999642372","run_exp/static/images/Set 6_rs/017a.jpg","86","","","","","","learn","SL",""
"","show_choice","59","95440","0.0-59.0","null","run_exp/static/images/Set 6_rs/017a.jpg","null","","","","","","learn","SL",""
"","html-keyboard-response","60","95945","0.0-60.0","null","<p></p>","null","","","","","","","",""
"","image","61","97384","0.0-61.0","1437.8999999761581","run_exp/static/images/Set 6_rs/063a.jpg","86","","","","","","learn","SR",""
"","show_choice","62","97952","0.0-62.0","null","run_exp/static/images/Set 6_rs/063a.jpg","null","","","","","","learn","SR",""
"","html-keyboard-response","63","98457","0.0-63.0","null","<p></p>","null","","","","","","","",""
"","image","64","100165","0.0-64.0","1706.7999999523163","run_exp/static/images/Set 6_rs/126a.jpg","86","","","","","","learn","SR",""
"","show_choice","65","100461","0.0-65.0","null","run_exp/static/images/Set 6_rs/126a.jpg","null","","","","","","learn","SR",""
"","html-keyboard-response","66","100965","0.0-66.0","null","<p></p>","null","","","","","","","",""
"","image","67","102066","0.0-67.0","1100","run_exp/static/images/Set 6_rs/012a.jpg","86","","","","","","learn","SR",""
"","show_choice","68","102971","0.0-68.0","null","run_exp/static/images/Set 6_rs/012a.jpg","null","","","","","","learn","SR",""
"","html-keyboard-response","69","103477","0.0-69.0","null","<p></p>","null","","","","","","","",""
"","image","70","104419","0.0-70.0","939","run_exp/static/images/Set 6_rs/089a.jpg","86","","","","","","learn","SL",""
"","show_choice","71","105486","0.0-71.0","null","run_exp/static/images/Set 6_rs/089a.jpg","null","","","","","","learn","SL",""
"","html-keyboard-response","72","105991","0.0-72.0","null","<p></p>","null","","","","","","","",""
"","image","73","106986","0.0-73.0","993.5","run_exp/static/images/Set 6_rs/071a.jpg","86","","","","","","learn","SL",""
"","show_choice","74","107995","0.0-74.0","null","run_exp/static/images/Set 6_rs/071a.jpg","null","","","","","","learn","SL",""
"","html-keyboard-response","75","108500","0.0-75.0","null","<p></p>","null","","","","","","","",""
"","image","76","109263","0.0-76.0","761.7999999523163","run_exp/static/images/Set 6_rs/036a.jpg","86","","","","","","learn","SL",""
"","show_choice","77","110505","0.0-77.0","null","run_exp/static/images/Set 6_rs/036a.jpg","null","","","","","","learn","SL",""
"","html-keyboard-response","78","111010","0.0-78.0","null","<p></p>","null","","","","","","","",""
"","image","79","112265","0.0-79.0","1253.9000000357628","run_exp/static/images/Set 6_rs/187a.jpg","78","","","","","","learn","SR",""
"","show_choice","80","113013","0.0-80.0","null","run_exp/static/images/Set 6_rs/187a.jpg","null","","","","","","learn","SR",""
"","html-keyboard-response","81","113514","0.0-81.0","null","<p></p>","null","","","","","","","",""
"","image","82","115416","0.0-82.0","1901","run_exp/static/images/Set 6_rs/177a.jpg","78","","","","","","learn","SR",""
"","show_choice","83","115521","0.0-83.0","null","run_exp/static/images/Set 6_rs/177a.jpg","null","","","","","","learn","SR",""
"","html-keyboard-response","84","116024","0.0-84.0","null","<p></p>","null","","","","","","","",""
"","image","85","117725","0.0-85.0","1699.2000000476837","run_exp/static/images/Set 6_rs/181a.jpg","86","","","","","","learn","SL",""
"","show_choice","86","118029","0.0-86.0","null","run_exp/static/images/Set 6_rs/181a.jpg","null","","","","","","learn","SL",""
"","html-keyboard-response","87","118534","0.0-87.0","null","<p></p>","null","","","","","","","",""
"","image","88","120115","0.0-88.0","1579.2999999523163","run_exp/static/images/Set 6_rs/024a.jpg","86","","","","","","learn","SR",""
"","show_choice","89","120540","0.0-89.0","null","run_exp/static/images/Set 6_rs/024a.jpg","null","","","","","","learn","SR",""
"","html-keyboard-response","90","121045","0.0-90.0","null","<p></p>","null","","","","","","","",""
"","image","91","122901","0.0-91.0","1854.5999999642372","run_exp/static/images/Set 6_rs/079a.jpg","86","","","","","","learn","SL",""
"","show_choice","92","123051","0.0-92.0","null","run_exp/static/images/Set 6_rs/079a.jpg","null","","","","","","learn","SL",""
"","html-keyboard-response","93","123557","0.0-93.0","null","<p></p>","null","","","","","","","",""
"","image","94","125272","0.0-94.0","1714.1000000238419","run_exp/static/images/Set 6_rs/073a.jpg","78","","","","","","learn","SL",""
"","show_choice","95","125562","0.0-95.0","null","run_exp/static/images/Set 6_rs/073a.jpg","null","","","","","","learn","SL",""
"","html-keyboard-response","96","126066","0.0-96.0","null","<p></p>","null","","","","","","","",""
"","image","97","127566","0.0-97.0","1498.699999988079","run_exp/static/images/Set 6_rs/088a.jpg","86","","","","","","learn","SR",""
"","show_choice","98","128071","0.0-98.0","null","run_exp/static/images/Set 6_rs/088a.jpg","null","","","","","","learn","SR",""
"","html-keyboard-response","99","128572","0.0-99.0","null","<p></p>","null","","","","","","","",""
"","image","100","129678","0.0-100.0","1104","run_exp/static/images/Set 6_rs/122a.jpg","86","","","","","","learn","SR",""
"","show_choice","101","130579","0.0-101.0","null","run_exp/static/images/Set 6_rs/122a.jpg","null","","","","","","learn","SR",""
"","html-keyboard-response","102","131079","0.0-102.0","null","<p></p>","null","","","","","","","",""
"","image","103","132051","0.0-103.0","970.2999999523163","run_exp/static/images/Set 6_rs/075a.jpg","86","","","","","","learn","SR",""
"","show_choice","104","133086","0.0-104.0","null","run_exp/static/images/Set 6_rs/075a.jpg","null","","","","","","learn","SR",""
"","html-keyboard-response","105","133587","0.0-105.0","null","<p></p>","null","","","","","","","",""
"","image","106","134823","0.0-106.0","1234.5","run_exp/static/images/Set 6_rs/025a.jpg","86","","","","","","learn","SL",""
"","show_choice","107","135593","0.0-107.0","null","run_exp/static/images/Set 6_rs/025a.jpg","null","","","","","","learn","SL",""
"","html-keyboard-response","108","136096","0.0-108.0","null","<p></p>","null","","","","","","","",""
"","image","109","137494","0.0-109.0","1396","run_exp/static/images/Set 6_rs/064a.jpg","78","","","","","","learn","SR",""
"","show_choice","110","138103","0.0-110.0","null","run_exp/static/images/Set 6_rs/064a.jpg","null","","","","","","learn","SR",""
"","html-keyboard-response","111","138604","0.0-111.0","null","<p></p>","null","","","","","","","",""
"","image","112","140607","0.0-112.0","null","run_exp/static/images/Set 6_rs/144a.jpg","null","","","","","","learn","SL",""
"","show_choice","113","142613","0.0-113.0","null","run_exp/static/images/blank.png","null","","","","","","learn","SL",""
"","html-keyboard-response","114","143119","0.0-114.0","null","<p></p>","null","","","","","","","",""
"","image","115","145122","0.0-115.0","null","run_exp/static/images/Set 6_rs/138a.jpg","null","","","","","","learn","SL",""
"","show_choice","116","147127","0.0-116.0","null","run_exp/static/images/blank.png","null","","","","","","learn","SL",""
"","html-keyboard-response","117","147630","0.0-117.0","null","<p></p>","null","","","","","","","",""
"","image","118","148733","0.0-118.0","1100.8999999761581","run_exp/static/images/Set 6_rs/178a.jpg","78","","","","","","learn","SR",""
"","show_choice","119","149633","0.0-119.0","null","run_exp/static/images/Set 6_rs/178a.jpg","null","","","","","","learn","SR",""
"","html-keyboard-response","120","150136","0.0-120.0","null","<p></p>","null","","","","","","","",""
"","image","121","151564","0.0-121.0","1426.5","run_exp/static/images/Set 6_rs/066a.jpg","78","","","","","","learn","SL",""
"","show_choice","122","152140","0.0-122.0","null","run_exp/static/images/Set 6_rs/066a.jpg","null","","","","","","learn","SL",""
"","html-keyboard-response","123","152645","0.0-123.0","null","<p></p>","null","","","","","","","",""
"","image","124","154648","0.0-124.0","null","run_exp/static/images/Set 6_rs/117a.jpg","null","","","","","","learn","SL",""
"","show_choice","125","156650","0.0-125.0","null","run_exp/static/images/blank.png","null","","","","","","learn","SL",""
"","html-keyboard-response","126","157152","0.0-126.0","null","<p></p>","null","","","","","","","",""
"","image","127","157957","0.0-127.0","804","run_exp/static/images/Set 6_rs/152a.jpg","78","","","","","","learn","SR",""
"","show_choice","128","159155","0.0-128.0","null","run_exp/static/images/Set 6_rs/152a.jpg","null","","","","","","learn","SR",""
"","html-keyboard-response","129","159661","0.0-129.0","null","<p></p>","null","","","","","","","",""
"","image","130","160823","0.0-130.0","1160.8999999761581","run_exp/static/images/Set 6_rs/007a.jpg","86","","","","","","learn","SR",""
"","show_choice","131","161665","0.0-131.0","null","run_exp/static/images/Set 6_rs/007a.jpg","null","","","","","","learn","SR",""
"","html-keyboard-response","132","162170","0.0-132.0","null","<p></p>","null","","","","","","","",""
"","image","133","163221","0.0-133.0","1049.699999988079","run_exp/static/images/Set 6_rs/131a.jpg","86","","","","","","learn","SR",""
"","show_choice","134","164173","0.0-134.0","null","run_exp/static/images/Set 6_rs/131a.jpg","null","","","","","","learn","SR",""
"","html-keyboard-response","135","164678","0.0-135.0","null","<p></p>","null","","","","","","","",""
"","image","136","165662","0.0-136.0","982.6999999880791","run_exp/static/images/Set 6_rs/111a.jpg","86","","","","","","learn","SL",""
"","show_choice","137","166682","0.0-137.0","null","run_exp/static/images/Set 6_rs/111a.jpg","null","","","","","","learn","SL",""
"","html-keyboard-response","138","167187","0.0-138.0","null","<p></p>","null","","","","","","","",""
"","image","139","167626","0.0-139.0","437.7000000476837","run_exp/static/images/Set 6_rs/085a.jpg","86","","","","","","learn","SL",""
"","show_choice","140","169190","0.0-140.0","null","run_exp/static/images/Set 6_rs/085a.jpg","null","","","","","","learn","SL",""
"","html-keyboard-response","141","169692","0.0-141.0","null","<p></p>","null","","","","","","","",""
"","image","142","170440","0.0-142.0","747.3000000119209","run_exp/static/images/Set 6_rs/129a.jpg","86","","","","","","learn","SL",""
"","show_choice","143","171695","0.0-143.0","null","run_exp/static/images/Set 6_rs/129a.jpg","null","","","","","","learn","SL",""
"","html-keyboard-response","144","172199","0.0-144.0","null","<p></p>","null","","","","","","","",""
"","image","145","172628","0.0-145.0","428.19999998807907","run_exp/static/images/Set 6_rs/074a.jpg","86","","","","","","learn","SL",""
"","show_choice","146","174200","0.0-146.0","null","run_exp/static/images/Set 6_rs/074a.jpg","null","","","","","","learn","SL",""
"","html-keyboard-response","147","174706","0.0-147.0","null","<p></p>","null","","","","","","","",""
"","image","148","175388","0.0-148.0","680.5999999642372","run_exp/static/images/Set 6_rs/091a.jpg","86","","","","","","learn","SL",""
"","show_choice","149","176712","0.0-149.0","null","run_exp/static/images/Set 6_rs/091a.jpg","null","","","","","","learn","SL",""
"","html-keyboard-response","150","177216","0.0-150.0","null","<p></p>","null","","","","","","","",""
"","image","151","178030","0.0-151.0","813.3999999761581","run_exp/static/images/Set 6_rs/186a.jpg","86","","","","","","learn","SR",""
"","show_choice","152","179220","0.0-152.0","null","run_exp/static/images/Set 6_rs/186a.jpg","null","","","","","","learn","SR",""
"","html-keyboard-response","153","179725","0.0-153.0","null","<p></p>","null","","","","","","","",""
"","image","154","180505","0.0-154.0","779.4000000357628","run_exp/static/images/Set 6_rs/132a.jpg","86","","","","","","learn","SR",""
"","show_choice","155","181731","0.0-155.0","null","run_exp/static/images/Set 6_rs/132a.jpg","null","","","","","","learn","SR",""
"","html-keyboard-response","156","182233","0.0-156.0","null","<p></p>","null","","","","","","","",""
"","image","157","183545","0.0-157.0","1311.699999988079","run_exp/static/images/Set 6_rs/008a.jpg","78","","","","","","learn","SL",""
"","show_choice","158","184235","0.0-158.0","null","run_exp/static/images/Set 6_rs/008a.jpg","null","","","","","","learn","SL",""
"","html-keyboard-response","159","184738","0.0-159.0","null","<p></p>","null","","","","","","","",""
"","image","160","185370","0.0-160.0","631.1999999880791","run_exp/static/images/Set 6_rs/006a.jpg","86","","","","","","learn","SL",""
"","show_choice","161","186739","0.0-161.0","null","run_exp/static/images/Set 6_rs/006a.jpg","null","","","","","","learn","SL",""
"","html-keyboard-response","162","187245","0.0-162.0","null","<p></p>","null","","","","","","","",""
"","image","163","187892","0.0-163.0","645.6999999880791","run_exp/static/images/Set 6_rs/148a.jpg","86","","","","","","learn","SR",""
"","show_choice","164","189250","0.0-164.0","null","run_exp/static/images/Set 6_rs/148a.jpg","null","","","","","","learn","SR",""
"","html-keyboard-response","165","189752","0.0-165.0","null","<p></p>","null","","","","","","","",""
"","image","166","190180","0.0-166.0","427.69999998807907","run_exp/static/images/Set 6_rs/123a.jpg","86","","","","","","learn","SL",""
"","show_choice","167","191758","0.0-167.0","null","run_exp/static/images/Set 6_rs/123a.jpg","null","","","","","","learn","SL",""
"","html-keyboard-response","168","192261","0.0-168.0","null","<p></p>","null","","","","","","","",""
"","image","169","193557","0.0-169.0","1294.6000000238419","run_exp/static/images/Set 6_rs/154a.jpg","86","","","","","","learn","SR",""
"","show_choice","170","194267","0.0-170.0","null","run_exp/static/images/Set 6_rs/154a.jpg","null","","","","","","learn","SR",""
"","html-keyboard-response","171","194769","0.0-171.0","null","<p></p>","null","","","","","","","",""
"","image","172","195957","0.0-172.0","1186.7999999523163","run_exp/static/images/Set 6_rs/067a.jpg","86","","","","","","learn","SL",""
"","show_choice","173","196776","0.0-173.0","null","run_exp/static/images/Set 6_rs/067a.jpg","null","","","","","","learn","SL",""
"","html-keyboard-response","174","197279","0.0-174.0","null","<p></p>","null","","","","","","","",""
"","image","175","198023","0.0-175.0","742.6999999880791","run_exp/static/images/Set 6_rs/023a.jpg","86","","","","","","learn","SR",""
"","show_choice","176","199284","0.0-176.0","null","run_exp/static/images/Set 6_rs/023a.jpg","null","","","","","","learn","SR",""
"","html-keyboard-response","177","199788","0.0-177.0","null","<p></p>","null","","","","","","","",""
"","image","178","200543","0.0-178.0","752.3000000119209","run_exp/static/images/Set 6_rs/121a.jpg","86","","","","","","learn","SR",""
"","show_choice","179","201796","0.0-179.0","null","run_exp/static/images/Set 6_rs/121a.jpg","null","","","","","","learn","SR",""
"","html-keyboard-response","180","202300","0.0-180.0","null","<p></p>","null","","","","","","","",""
"","image","181","202646","0.0-181.0","344.19999998807907","run_exp/static/images/Set 6_rs/150a.jpg","86","","","","","","learn","SR",""
"","show_choice","182","204307","0.0-182.0","null","run_exp/static/images/Set 6_rs/150a.jpg","null","","","","","","learn","SR",""
"","html-keyboard-response","183","204813","0.0-183.0","null","<p></p>","null","","","","","","","",""
"","image","184","205343","0.0-184.0","529","run_exp/static/images/Set 6_rs/016a.jpg","86","","","","","","learn","SL",""
"","show_choice","185","206818","0.0-185.0","null","run_exp/static/images/Set 6_rs/016a.jpg","null","","","","","","learn","SL",""
"","html-keyboard-response","186","207321","0.0-186.0","null","<p></p>","null","","","","","","","",""
"","image","187","208036","0.0-187.0","713.1000000238419","run_exp/static/images/Set 6_rs/112a.jpg","78","","","","","","learn","SR",""
"","show_choice","188","209324","0.0-188.0","null","run_exp/static/images/Set 6_rs/112a.jpg","null","","","","","","learn","SR",""
"","html-keyboard-response","189","209830","0.0-189.0","null","<p></p>","null","","","","","","","",""
"","image","190","210346","0.0-190.0","514.8999999761581","run_exp/static/images/Set 6_rs/172a.jpg","78","","","","","","learn","SR",""
"","show_choice","191","211835","0.0-191.0","null","run_exp/static/images/Set 6_rs/172a.jpg","null","","","","","","learn","SR",""
"","html-keyboard-response","192","212340","0.0-192.0","null","<p></p>","null","","","","","","","",""
"","image","193","213020","0.0-193.0","678.6000000238419","run_exp/static/images/Set 6_rs/116a.jpg","86","","","","","","learn","SL",""
"","show_choice","194","214347","0.0-194.0","null","run_exp/static/images/Set 6_rs/116a.jpg","null","","","","","","learn","SL",""
"","html-keyboard-response","195","214851","0.0-195.0","null","<p></p>","null","","","","","","","",""
"","test_intro","196","256412","0.0-196.0","null","run_exp/static/audio/clip_2_memory.m4a","null","","","","","<div class='center'><p>Now, let’s see how much you remember about the items you just saw.  For each item, you need to indicate if it was <b>old</b> by pressing the <b>v</b> key, <b>similar</b> by pressing the <b>b</b> key, or <b>new</b> by pressing the <b>n</b> key.</p><p>Old refers to an item that you saw before in the indoor/outdoor game that you just played, new refers to an item you have <b>not</b> seen before within the indoor/outdoor game, and similar refers to an item that is similar to an item you’ve seen before but is not exactly the same. </p><p>Before we begin, let’s go over some brief demonstrations to make sure you understand.</p></div>","","",""
"","html-keyboard-response","197","259235","0.0-197.0","2822.100000023842","<div class='center'><p>Now, let’s see how much you remember about the items you just saw.  For each item, you need to indicate if it was <b>old</b> by pressing the <b>v</b> key, <b>similar</b> by pressing the <b>b</b> key, or <b>new</b> by pressing the <b>n</b> key.</p><p>Old refers to an item that you saw before in the indoor/outdoor game that you just played, new refers to an item you have <b>not</b> seen before within the indoor/outdoor game, and similar refers to an item that is similar to an item you’ve seen before but is not exactly the same. </p><p>Before we begin, let’s go over some brief demonstrations to make sure you understand.</p><div><p><b>[Press the space bar to continue]</b></p></div>","32","","","","","","","",""
"","items","198","266738","0.0-198.0","null","run_exp/static/audio/clip_3_items.m4a","null","","","","","","","",""
"","mop","199","271245","0.0-199.0","null","run_exp/static/audio/clip_4_mop.m4a","null","","","","","","","",""
"","baseball","200","274752","0.0-200.0","null","run_exp/static/audio/clip_5_baseball.m4a","null","","","","","","","",""
"","trumpet","201","278255","0.0-201.0","null","run_exp/static/audio/clip_6_trumpet.m4a","null","","","","","","","",""
"","gummies","202","281757","0.0-202.0","null","run_exp/static/audio/clip_7_gummies.m4a","null","","","","","","","",""
"","osn","203","286262","0.0-203.0","null","run_exp/static/audio/clip_8_osn.m4a","null","","","","","","","",""
"","old_1","204","292768","0.0-204.0","null","run_exp/static/audio/clip_9_old_trumpet.m4a","null","","","","","","","",""
"","new_1","205","300275","0.0-205.0","null","run_exp/static/audio/clip_10_new_balloon.m4a","null","","","","","","","",""
"","similar_1a","206","304778","0.0-206.0","null","run_exp/static/audio/clip_11a_similar_mop.m4a","null","","","","","","","",""
"","similar_1b","207","311283","0.0-207.0","null","run_exp/static/audio/clip_11b_similar_mop.m4a","null","","","","","","","",""
"","new_2","208","314786","0.0-208.0","null","run_exp/static/audio/clip_12_new_stoplight.m4a","null","","","","","","","",""
"","old_2","209","318291","0.0-209.0","null","run_exp/static/audio/clip_13_old_baseball.m4a","null","","","","","","","",""
"","similar_2a","210","321794","0.0-210.0","null","run_exp/static/audio/clip_14a_similar_gummies.m4a","null","","","","","","","",""
"","similar_2b","211","329298","0.0-211.0","null","run_exp/static/audio/clip_14b_similar_gummies.m4a","null","","","","","","","",""
"","practice","212","345042","0.0-212.0","null","run_exp/static/audio/clip_15_practice.m4a","null","","","","","<div class='center'><p>Ok, let’s practice a little to make sure you understand the difference between new, similar, and old. Let’s say you saw these three items in the indoor/outdoor game. Study these because you’ll be tested on them soon in this practice game. </p><p><img src='run_exp/static/images/tutorial/test/three_indoor_outdoor.png' height='300'></p></div>","","",""
"","html-keyboard-response","213","346693","0.0-213.0","1648.8999999761581","<div class='center'><p>Ok, let’s practice a little to make sure you understand the difference between new, similar, and old. Let’s say you saw these three items in the indoor/outdoor game. Study these because you’ll be tested on them soon in this practice game. </p><p><img src='run_exp/static/images/tutorial/test/three_indoor_outdoor.png' height='300'></p><div><p><b>[Press the space bar to continue]</b></p></div>","32","","","","","","","",""
"","practice_q1","214","352760","0.0-214.0","6065.700000047684","run_exp/static/audio/clip_16_practice_question.m4a","78","","","","","","","",""
"","correct","215","354655","0.0-215.0-0.0","null","run_exp/static/audio/clip_17_correct.m4a","null","","","","","<div class='center'><p>That's correct!</p></div>","","",""
"","html-keyboard-response","216","356227","0.0-215.0-1.0","1570.5","<div class='center'><p>That's correct!</p><div><p><b>[Press the space bar to continue]</b></p></div>","32","","","","","","","",""
"","practice_q2","217","360960","0.0-215.0-2.0","4730.5","run_exp/static/audio/clip_16_practice_question.m4a","78","","","","","","","",""
"","incorrect_q2","218","363989","0.0-216.0-0.0","null","run_exp/static/audio/clip_19_incorrect_old.m4a","null","","","","","<div class='center'><p>That’s incorrect. It’s old.</p></div>","","",""
"","html-keyboard-response","219","364933","0.0-216.0-1.0","942.3000000119209","<div class='center'><p>That’s incorrect. It’s old.</p><div><p><b>[Press the space bar to continue]</b></p></div>","32","","","","","","","",""
"","practice_q3","220","366730","0.0-216.0-2.0","1795.5","run_exp/static/audio/clip_16_practice_question.m4a","66","","","","","","","",""
"","correct","221","368610","0.0-217.0-0.0","null","run_exp/static/audio/clip_17_correct.m4a","null","","","","","<div class='center'><p>That's correct!</p></div>","","",""
"","html-keyboard-response","222","370243","0.0-217.0-1.0","1632.1000000238419","<div class='center'><p>That's correct!</p><div><p><b>[Press the space bar to continue]</b></p></div>","32","","","","","","","",""
"","repeat","223","374950","0.0-218.0-0.0","null","run_exp/static/audio/clip_21_practice_again.m4a","null","","","","","<div class='center'><p>Oops. you missed at least one of these questions. Let's try practiceing again. </p></div>","","",""
"","html-keyboard-response","224","376578","0.0-218.0-1.0","1627.7999999523163","<div class='center'><p>Oops. you missed at least one of these questions. Let's try practiceing again. </p><div><p><b>[Press the space bar to continue]</b></p></div>","32","","","","","","","",""
"","practice_q1","225","377621","0.0-218.0-2.0","1040.5","run_exp/static/audio/clip_16_practice_question.m4a","78","","","","","","","",""
"","correct","226","379500","0.0-219.0-0.0","null","run_exp/static/audio/clip_17_correct.m4a","null","","","","","<div class='center'><p>That's correct!</p></div>","","",""
"","html-keyboard-response","227","380974","0.0-219.0-1.0","1472.2000000476837","<div class='center'><p>That's correct!</p><div><p><b>[Press the space bar to continue]</b></p></div>","32","","","","","","","",""
"","practice_q2","228","382378","0.0-219.0-2.0","1403.0999999642372","run_exp/static/audio/clip_16_practice_question.m4a","86","","","","","","","",""
"","correct","229","384260","0.0-220.0-0.0","null","run_exp/static/audio/clip_17_correct.m4a","null","","","","","<div class='center'><p>That's correct!</p></div>","","",""
"","html-keyboard-response","230","384677","0.0-220.0-1.0","415.2000000476837","<div class='center'><p>That's correct!</p><div><p><b>[Press the space bar to continue]</b></p></div>","32","","","","","","","",""
"","practice_q3","231","385366","0.0-220.0-2.0","687.7999999523163","run_exp/static/audio/clip_16_practice_question.m4a","66","","","","","","","",""
"","correct","232","387447","0.0-221.0-0.0","null","run_exp/static/audio/clip_17_correct.m4a","null","","","","","<div class='center'><p>That's correct!</p></div>","","",""
"","html-keyboard-response","233","388650","0.0-221.0-1.0","1198.6000000238419","<div class='center'><p>That's correct!</p><div><p><b>[Press the space bar to continue]</b></p></div>","32","","","","","","","",""
"","begin_text","234","403753","0.0-222.0-0.0","null","run_exp/static/audio/clip_22_begin_test.m4a","null","","","","","<div class='center'><p>Now it’s your turn. For each item, you need to indicate if the item is <b>old</b> by pressing the <b>v</b> key, <b>similar</b> by pressing the <b>b</b> key, or <b>new</b> by pressing the <b>n</b> key. </p></div>","","",""
"","html-keyboard-response","235","404705","0.0-222.0-1.0","949.5","<div class='center'><p>Now it’s your turn. For each item, you need to indicate if the item is <b>old</b> by pressing the <b>v</b> key, <b>similar</b> by pressing the <b>b</b> key, or <b>new</b> by pressing the <b>n</b> key. </p><div><p><b>[Press the space bar to continue]</b></p></div>","32","","","","","","","",""
"","image","236","405989","0.0-223.0-0.0","1281.800000011921","run_exp/static/images/Set 6_rs/089b.jpg","66","","","","","","test","TL","4"
"","show_choice","237","406492","0.0-223.0-1.0","null","run_exp/static/images/Set 6_rs/089b.jpg","null","","","","","","test","TL",""
"","html-keyboard-response","238","406995","0.0-223.0-2.0","null","<p></p>","null","","","","","","","",""
"","image","239","407674","0.0-224.0-0.0","677.5999999642372","run_exp/static/images/Set 6_rs/022a.jpg","66","","","","","","test","TF","4"
"","show_choice","240","408180","0.0-224.0-1.0","null","run_exp/static/images/Set 6_rs/022a.jpg","null","","","","","","test","TF",""
"","html-keyboard-response","241","408685","0.0-224.0-2.0","null","<p></p>","null","","","","","","","",""
"","image","242","409696","0.0-225.0-0.0","1008.6999999880791","run_exp/static/images/Set 6_rs/023a.jpg","66","","","","","","test","TR","3"
"","show_choice","243","410200","0.0-225.0-1.0","null","run_exp/static/images/Set 6_rs/023a.jpg","null","","","","","","test","TR",""
"","html-keyboard-response","244","410703","0.0-225.0-2.0","null","<p></p>","null","","","","","","","",""
"","image","245","411817","0.0-226.0-0.0","1111.5","run_exp/static/images/Set 6_rs/073b.jpg","66","","","","","","test","TL","3"
"","show_choice","246","412321","0.0-226.0-1.0","null","run_exp/static/images/Set 6_rs/073b.jpg","null","","","","","","test","TL",""
"","html-keyboard-response","247","412827","0.0-226.0-2.0","null","<p></p>","null","","","","","","","",""
"","image","248","413974","0.0-227.0-0.0","1144.800000011921","run_exp/static/images/Set 6_rs/019b.jpg","66","","","","","","test","TL","2"
"","show_choice","249","414475","0.0-227.0-1.0","null","run_exp/static/images/Set 6_rs/019b.jpg","null","","","","","","test","TL",""
"","html-keyboard-response","250","414979","0.0-227.0-2.0","null","<p></p>","null","","","","","","","",""
"","image","251","416094","0.0-228.0-0.0","1113","run_exp/static/images/Set 6_rs/108a.jpg","86","","","","","","test","TR","5"
"","show_choice","252","416599","0.0-228.0-1.0","null","run_exp/static/images/Set 6_rs/108a.jpg","null","","","","","","test","TR",""
"","html-keyboard-response","253","417101","0.0-228.0-2.0","null","<p></p>","null","","","","","","","",""
"","image","254","418689","0.0-229.0-0.0","1586.5","run_exp/static/images/Set 6_rs/140a.jpg","66","","","","","","test","TF","1"
"","show_choice","255","419191","0.0-229.0-1.0","null","run_exp/static/images/Set 6_rs/140a.jpg","null","","","","","","test","TF",""
"","html-keyboard-response","256","419694","0.0-229.0-2.0","null","<p></p>","null","","","","","","","",""
"","image","257","420963","0.0-230.0-0.0","1268.199999988079","run_exp/static/images/Set 6_rs/154a.jpg","78","","","","","","test","TR","3"
"","show_choice","258","421467","0.0-230.0-1.0","null","run_exp/static/images/Set 6_rs/154a.jpg","null","","","","","","test","TR",""
"","html-keyboard-response","259","421972","0.0-230.0-2.0","null","<p></p>","null","","","","","","","",""
"","image","260","423730","0.0-231.0-0.0","1756.0999999642372","run_exp/static/images/Set 6_rs/117b.jpg","66","","","","","","test","TL","5"
"","show_choice","261","424235","0.0-231.0-1.0","null","run_exp/static/images/Set 6_rs/117b.jpg","null","","","","","","test","TL",""
"","html-keyboard-response","262","424737","0.0-231.0-2.0","null","<p></p>","null","","","","","","","",""
"","image","263","426482","0.0-232.0-0.0","1743.699999988079","run_exp/static/images/Set 6_rs/152a.jpg","78","","","","","","test","TR","2"
"","show_choice","264","426985","0.0-232.0-1.0","null","run_exp/static/images/Set 6_rs/152a.jpg","null","","","","","","test","TR",""
"","html-keyboard-response","265","427491","0.0-232.0-2.0","null","<p></p>","null","","","","","","","",""
"","image","266","428632","0.0-233.0-0.0","1139.300000011921","run_exp/static/images/Set 6_rs/100a.jpg","78","","","","","","test","TF","2"
"","show_choice","267","429135","0.0-233.0-1.0","null","run_exp/static/images/Set 6_rs/100a.jpg","null","","","","","","test","TF",""
"","html-keyboard-response","268","429637","0.0-233.0-2.0","null","<p></p>","null","","","","","","","",""
"","image","269","430920","0.0-234.0-0.0","1281.5","run_exp/static/images/Set 6_rs/155a.jpg","78","","","","","","test","TF","4"
"","show_choice","270","431426","0.0-234.0-1.0","null","run_exp/static/images/Set 6_rs/155a.jpg","null","","","","","","test","TF",""
"","html-keyboard-response","271","431927","0.0-234.0-2.0","null","<p></p>","null","","","","","","","",""
"","image","272","433071","0.0-235.0-0.0","1141.5","run_exp/static/images/Set 6_rs/088a.jpg","78","","","","","","test","TR","2"
"","show_choice","273","433576","0.0-235.0-1.0","null","run_exp/static/images/Set 6_rs/088a.jpg","null","","","","","","test","TR",""
"","html-keyboard-response","274","434079","0.0-235.0-2.0","null","<p></p>","null","","","","","","","",""
"","image","275","435234","0.0-236.0-0.0","1153","run_exp/static/images/Set 6_rs/016b.jpg","78","","","","","","test","TL","1"
"","show_choice","276","435735","0.0-236.0-1.0","null","run_exp/static/images/Set 6_rs/016b.jpg","null","","","","","","test","TL",""
"","html-keyboard-response","277","436239","0.0-236.0-2.0","null","<p></p>","null","","","","","","","",""
"","image","278","437962","0.0-237.0-0.0","1721.800000011921","run_exp/static/images/Set 6_rs/177a.jpg","78","","","","","","test","TR","5"
"","show_choice","279","438464","0.0-237.0-1.0","null","run_exp/static/images/Set 6_rs/177a.jpg","null","","","","","","test","TR",""
"","html-keyboard-response","280","438970","0.0-237.0-2.0","null","<p></p>","null","","","","","","","",""
"","image","281","440213","0.0-238.0-0.0","1241.8999999761581","run_exp/static/images/Set 6_rs/138b.jpg","86","","","","","","test","TL","1"
"","show_choice","282","440714","0.0-238.0-1.0","null","run_exp/static/images/Set 6_rs/138b.jpg","null","","","","","","test","TL",""
"","html-keyboard-response","283","441218","0.0-238.0-2.0","null","<p></p>","null","","","","","","","",""
"","image","284","442135","0.0-239.0-0.0","915.6999999880791","run_exp/static/images/Set 6_rs/067b.jpg","86","","","","","","test","TL","5"
"","show_choice","285","442640","0.0-239.0-1.0","null","run_exp/static/images/Set 6_rs/067b.jpg","null","","","","","","test","TL",""
"","html-keyboard-response","286","443142","0.0-239.0-2.0","null","<p></p>","null","","","","","","","",""
"","image","287","444673","0.0-240.0-0.0","1528.800000011921","run_exp/static/images/Set 6_rs/074b.jpg","86","","","","","","test","TL","4"
"","show_choice","288","445178","0.0-240.0-1.0","null","run_exp/static/images/Set 6_rs/074b.jpg","null","","","","","","test","TL",""
"","html-keyboard-response","289","445682","0.0-240.0-2.0","null","<p></p>","null","","","","","","","",""
"","image","290","446621","0.0-241.0-0.0","937.6000000238419","run_exp/static/images/Set 6_rs/075a.jpg","66","","","","","","test","TR","1"
"","show_choice","291","447123","0.0-241.0-1.0","null","run_exp/static/images/Set 6_rs/075a.jpg","null","","","","","","test","TR",""
"","html-keyboard-response","292","447629","0.0-241.0-2.0","null","<p></p>","null","","","","","","","",""
"","image","293","448326","0.0-242.0-0.0","695.7999999523163","run_exp/static/images/Set 6_rs/017b.jpg","66","","","","","","test","TL","3"
"","show_choice","294","448830","0.0-242.0-1.0","null","run_exp/static/images/Set 6_rs/017b.jpg","null","","","","","","test","TL",""
"","html-keyboard-response","295","449332","0.0-242.0-2.0","null","<p></p>","null","","","","","","","",""
"","image","296","449765","0.0-243.0-0.0","431.69999998807907","run_exp/static/images/Set 6_rs/097a.jpg","66","","","","","","test","TF","5"
"","show_choice","297","450267","0.0-243.0-1.0","null","run_exp/static/images/Set 6_rs/097a.jpg","null","","","","","","test","TF",""
"","html-keyboard-response","298","450773","0.0-243.0-2.0","null","<p></p>","null","","","","","","","",""
"","image","299","451476","0.0-244.0-0.0","702","run_exp/static/images/Set 6_rs/056a.jpg","66","","","","","","test","TF","3"
"","show_choice","300","451980","0.0-244.0-1.0","null","run_exp/static/images/Set 6_rs/056a.jpg","null","","","","","","test","TF",""
"","html-keyboard-response","301","452483","0.0-244.0-2.0","null","<p></p>","null","","","","","","","",""
"","image","302","453424","0.0-245.0-0.0","940.3000000119209","run_exp/static/images/Set 6_rs/012a.jpg","66","","","","","","test","TR","1"
"","show_choice","303","453930","0.0-245.0-1.0","null","run_exp/static/images/Set 6_rs/012a.jpg","null","","","","","","test","TR",""
"","html-keyboard-response","304","454433","0.0-245.0-2.0","null","<p></p>","null","","","","","","","",""
"","image","305","456100","0.0-246.0-0.0","1666","run_exp/static/images/Set 6_rs/025b.jpg","66","","","","","","test","TL","5"
"","show_choice","306","456602","0.0-246.0-1.0","null","run_exp/static/images/Set 6_rs/025b.jpg","null","","","","","","test","TL",""
"","html-keyboard-response","307","457106","0.0-246.0-2.0","null","<p></p>","null","","","","","","","",""
"","image","308","458337","0.0-247.0-0.0","1229.9000000357628","run_exp/static/images/Set 6_rs/178a.jpg","66","","","","","","test","TR","3"
"","show_choice","309","458838","0.0-247.0-1.0","null","run_exp/static/images/Set 6_rs/178a.jpg","null","","","","","","test","TR",""
"","html-keyboard-response","310","459342","0.0-247.0-2.0","null","<p></p>","null","","","","","","","",""
"","image","311","460657","0.0-248.0-0.0","1313.699999988079","run_exp/static/images/Set 6_rs/015a.jpg","78","","","","","","test","TF","4"
"","show_choice","312","461159","0.0-248.0-1.0","null","run_exp/static/images/Set 6_rs/015a.jpg","null","","","","","","test","TF",""
"","html-keyboard-response","313","461664","0.0-248.0-2.0","null","<p></p>","null","","","","","","","",""
"","image","314","463052","0.0-249.0-0.0","1387","run_exp/static/images/Set 6_rs/116b.jpg","78","","","","","","test","TL","2"
"","show_choice","315","463557","0.0-249.0-1.0","null","run_exp/static/images/Set 6_rs/116b.jpg","null","","","","","","test","TL",""
"","html-keyboard-response","316","464059","0.0-249.0-2.0","null","<p></p>","null","","","","","","","",""
"","image","317","465125","0.0-250.0-0.0","1064.199999988079","run_exp/static/images/Set 6_rs/086a.jpg","78","","","","","","test","TF","1"
"","show_choice","318","465630","0.0-250.0-1.0","null","run_exp/static/images/Set 6_rs/086a.jpg","null","","","","","","test","TF",""
"","html-keyboard-response","319","466132","0.0-250.0-2.0","null","<p></p>","null","","","","","","","",""
"","image","320","467348","0.0-251.0-0.0","1215.300000011921","run_exp/static/images/Set 6_rs/060b.jpg","66","","","","","","test","TL","3"
"","show_choice","321","467851","0.0-251.0-1.0","null","run_exp/static/images/Set 6_rs/060b.jpg","null","","","","","","test","TL",""
"","html-keyboard-response","322","468354","0.0-251.0-2.0","null","<p></p>","null","","","","","","","",""
"","image","323","469230","0.0-252.0-0.0","873.6999999880791","run_exp/static/images/Set 6_rs/095b.jpg","86","","","","","","test","TL","5"
"","show_choice","324","469731","0.0-252.0-1.0","null","run_exp/static/images/Set 6_rs/095b.jpg","null","","","","","","test","TL",""
"","html-keyboard-response","325","470236","0.0-252.0-2.0","null","<p></p>","null","","","","","","","",""
"","image","326","472577","0.0-253.0-0.0","2339.599999964237","run_exp/static/images/Set 6_rs/167b.jpg","66","","","","","","test","TL","2"
"","show_choice","327","473080","0.0-253.0-1.0","null","run_exp/static/images/Set 6_rs/167b.jpg","null","","","","","","test","TL",""
"","html-keyboard-response","328","473585","0.0-253.0-2.0","null","<p></p>","null","","","","","","","",""
"","image","329","476000","0.0-254.0-0.0","2413.199999988079","run_exp/static/images/Set 6_rs/036b.jpg","66","","","","","","test","TL","4"
"","show_choice","330","476502","0.0-254.0-1.0","null","run_exp/static/images/Set 6_rs/036b.jpg","null","","","","","","test","TL",""
"","html-keyboard-response","331","477006","0.0-254.0-2.0","null","<p></p>","null","","","","","","","",""
"","image","332","479809","0.0-255.0-0.0","2801.899999976158","run_exp/static/images/Set 6_rs/078a.jpg","78","","","","","","test","TF","1"
"","show_choice","333","480314","0.0-255.0-1.0","null","run_exp/static/images/Set 6_rs/078a.jpg","null","","","","","","test","TF",""
"","html-keyboard-response","334","480815","0.0-255.0-2.0","null","<p></p>","null","","","","","","","",""
"","image","335","481961","0.0-256.0-0.0","1144.1000000238419","run_exp/static/images/Set 6_rs/188a.jpg","78","","","","","","test","TF","3"
"","show_choice","336","482462","0.0-256.0-1.0","null","run_exp/static/images/Set 6_rs/188a.jpg","null","","","","","","test","TF",""
"","html-keyboard-response","337","482963","0.0-256.0-2.0","null","<p></p>","null","","","","","","","",""
"","image","338","483789","0.0-257.0-0.0","823.8999999761581","run_exp/static/images/Set 6_rs/172a.jpg","78","","","","","","test","TR","1"
"","show_choice","339","484291","0.0-257.0-1.0","null","run_exp/static/images/Set 6_rs/172a.jpg","null","","","","","","test","TR",""
"","html-keyboard-response","340","484797","0.0-257.0-2.0","null","<p></p>","null","","","","","","","",""
"","image","341","486194","0.0-258.0-0.0","1395.300000011921","run_exp/static/images/Set 6_rs/144b.jpg","66","","","","","","test","TL","4"
"","show_choice","342","486698","0.0-258.0-1.0","null","run_exp/static/images/Set 6_rs/144b.jpg","null","","","","","","test","TL",""
"","html-keyboard-response","343","487199","0.0-258.0-2.0","null","<p></p>","null","","","","","","","",""
"","image","344","488605","0.0-259.0-0.0","1405.0999999642372","run_exp/static/images/Set 6_rs/008b.jpg","66","","","","","","test","TL","2"
"","show_choice","345","489111","0.0-259.0-1.0","null","run_exp/static/images/Set 6_rs/008b.jpg","null","","","","","","test","TL",""
"","html-keyboard-response","346","489617","0.0-259.0-2.0","null","<p></p>","null","","","","","","","",""
"","image","347","491193","0.0-260.0-0.0","1574.7999999523163","run_exp/static/images/Set 6_rs/136a.jpg","86","","","","","","test","TF","4"
"","show_choice","348","491698","0.0-260.0-1.0","null","run_exp/static/images/Set 6_rs/136a.jpg","null","","","","","","test","TF",""
"","html-keyboard-response","349","492204","0.0-260.0-2.0","null","<p></p>","null","","","","","","","",""
"","image","350","494057","0.0-261.0-0.0","1852.1000000238419","run_exp/static/images/Set 6_rs/035a.jpg","66","","","","","","test","TF","4"
"","show_choice","351","494562","0.0-261.0-1.0","null","run_exp/static/images/Set 6_rs/035a.jpg","null","","","","","","test","TF",""
"","html-keyboard-response","352","495064","0.0-261.0-2.0","null","<p></p>","null","","","","","","","",""
"","image","353","496028","0.0-262.0-0.0","963.3000000119209","run_exp/static/images/Set 6_rs/189a.jpg","78","","","","","","test","TF","5"
"","show_choice","354","496533","0.0-262.0-1.0","null","run_exp/static/images/Set 6_rs/189a.jpg","null","","","","","","test","TF",""
"","html-keyboard-response","355","497038","0.0-262.0-2.0","null","<p></p>","null","","","","","","","",""
"","image","356","498726","0.0-263.0-0.0","1687.199999988079","run_exp/static/images/Set 6_rs/065a.jpg","78","","","","","","test","TF","3"
"","show_choice","357","499231","0.0-263.0-1.0","null","run_exp/static/images/Set 6_rs/065a.jpg","null","","","","","","test","TF",""
"","html-keyboard-response","358","499733","0.0-263.0-2.0","null","<p></p>","null","","","","","","","",""
"","image","359","500882","0.0-264.0-0.0","1147.5","run_exp/static/images/Set 6_rs/007a.jpg","66","","","","","","test","TR","3"
"","show_choice","360","501383","0.0-264.0-1.0","null","run_exp/static/images/Set 6_rs/007a.jpg","null","","","","","","test","TR",""
"","html-keyboard-response","361","501888","0.0-264.0-2.0","null","<p></p>","null","","","","","","","",""
"","image","362","503122","0.0-265.0-0.0","1232.800000011921","run_exp/static/images/Set 6_rs/071b.jpg","78","","","","","","test","TL","4"
"","show_choice","363","503627","0.0-265.0-1.0","null","run_exp/static/images/Set 6_rs/071b.jpg","null","","","","","","test","TL",""
"","html-keyboard-response","364","504130","0.0-265.0-2.0","null","<p></p>","null","","","","","","","",""
"","image","365","505081","0.0-266.0-0.0","949","run_exp/static/images/Set 6_rs/170a.jpg","66","","","","","","test","TF","2"
"","show_choice","366","505585","0.0-266.0-1.0","null","run_exp/static/images/Set 6_rs/170a.jpg","null","","","","","","test","TF",""
"","html-keyboard-response","367","506089","0.0-266.0-2.0","null","<p></p>","null","","","","","","","",""
"","image","368","507213","0.0-267.0-0.0","1122.699999988079","run_exp/static/images/Set 6_rs/121a.jpg","86","","","","","","test","TR","4"
"","show_choice","369","507715","0.0-267.0-1.0","null","run_exp/static/images/Set 6_rs/121a.jpg","null","","","","","","test","TR",""
"","html-keyboard-response","370","508221","0.0-267.0-2.0","null","<p></p>","null","","","","","","","",""
"","image","371","509018","0.0-268.0-0.0","795.8000000119209","run_exp/static/images/Set 6_rs/186a.jpg","86","","","","","","test","TR","5"
"","show_choice","372","509522","0.0-268.0-1.0","null","run_exp/static/images/Set 6_rs/186a.jpg","null","","","","","","test","TR",""
"","html-keyboard-response","373","510028","0.0-268.0-2.0","null","<p></p>","null","","","","","","","",""
"","image","374","511276","0.0-269.0-0.0","1246","run_exp/static/images/Set 6_rs/176a.jpg","66","","","","","","test","TF","4"
"","show_choice","375","511778","0.0-269.0-1.0","null","run_exp/static/images/Set 6_rs/176a.jpg","null","","","","","","test","TF",""
"","html-keyboard-response","376","512284","0.0-269.0-2.0","null","<p></p>","null","","","","","","","",""
"","image","377","515289","0.0-270.0-0.0","null","run_exp/static/images/Set 6_rs/066b.jpg","null","","","","","","test","TL","5"
"","show_choice","378","515796","0.0-270.0-1.0","null","run_exp/static/images/Set 6_rs/066b.jpg","null","","","","","","test","TL",""
"","html-keyboard-response","379","516298","0.0-270.0-2.0","null","<p></p>","null","","","","","","","",""
"","image","380","518391","0.0-271.0-0.0","2092.300000011921","run_exp/static/images/Set 6_rs/141a.jpg","78","","","","","","test","TR","2"
"","show_choice","381","518896","0.0-271.0-1.0","null","run_exp/static/images/Set 6_rs/141a.jpg","null","","","","","","test","TR",""
"","html-keyboard-response","382","519400","0.0-271.0-2.0","null","<p></p>","null","","","","","","","",""
"","image","383","521131","0.0-272.0-0.0","1730.0999999642372","run_exp/static/images/Set 6_rs/191b.jpg","66","","","","","","test","TL","2"
"","show_choice","384","521636","0.0-272.0-1.0","null","run_exp/static/images/Set 6_rs/191b.jpg","null","","","","","","test","TL",""
"","html-keyboard-response","385","522140","0.0-272.0-2.0","null","<p></p>","null","","","","","","","",""
"","image","386","523343","0.0-273.0-0.0","1201.6000000238419","run_exp/static/images/Set 6_rs/006b.jpg","66","","","","","","test","TL","2"
"","show_choice","387","523845","0.0-273.0-1.0","null","run_exp/static/images/Set 6_rs/006b.jpg","null","","","","","","test","TL",""
"","html-keyboard-response","388","524346","0.0-273.0-2.0","null","<p></p>","null","","","","","","","",""
"","image","389","525265","0.0-274.0-0.0","917.3999999761581","run_exp/static/images/Set 6_rs/057b.jpg","86","","","","","","test","TL","1"
"","show_choice","390","525767","0.0-274.0-1.0","null","run_exp/static/images/Set 6_rs/057b.jpg","null","","","","","","test","TL",""
"","html-keyboard-response","391","526273","0.0-274.0-2.0","null","<p></p>","null","","","","","","","",""
"","image","392","527187","0.0-275.0-0.0","913","run_exp/static/images/Set 6_rs/090a.jpg","66","","","","","","test","TF","5"
"","show_choice","393","527691","0.0-275.0-1.0","null","run_exp/static/images/Set 6_rs/090a.jpg","null","","","","","","test","TF",""
"","html-keyboard-response","394","528192","0.0-275.0-2.0","null","<p></p>","null","","","","","","","",""
"","image","395","528917","0.0-276.0-0.0","723","run_exp/static/images/Set 6_rs/045a.jpg","86","","","","","","test","TR","2"
"","show_choice","396","529422","0.0-276.0-1.0","null","run_exp/static/images/Set 6_rs/045a.jpg","null","","","","","","test","TR",""
"","html-keyboard-response","397","529924","0.0-276.0-2.0","null","<p></p>","null","","","","","","","",""
"","image","398","530809","0.0-277.0-0.0","883","run_exp/static/images/Set 6_rs/011a.jpg","66","","","","","","test","TF","3"
"","show_choice","399","531314","0.0-277.0-1.0","null","run_exp/static/images/Set 6_rs/011a.jpg","null","","","","","","test","TF",""
"","html-keyboard-response","400","531820","0.0-277.0-2.0","null","<p></p>","null","","","","","","","",""
"","image","401","532800","0.0-278.0-0.0","978.5","run_exp/static/images/Set 6_rs/105a.jpg","78","","","","","","test","TF","5"
"","show_choice","402","533305","0.0-278.0-1.0","null","run_exp/static/images/Set 6_rs/105a.jpg","null","","","","","","test","TF",""
"","html-keyboard-response","403","533808","0.0-278.0-2.0","null","<p></p>","null","","","","","","","",""
"","image","404","534927","0.0-279.0-0.0","1117.2999999523163","run_exp/static/images/Set 6_rs/132a.jpg","66","","","","","","test","TR","5"
"","show_choice","405","535429","0.0-279.0-1.0","null","run_exp/static/images/Set 6_rs/132a.jpg","null","","","","","","test","TR",""
"","html-keyboard-response","406","535934","0.0-279.0-2.0","null","<p></p>","null","","","","","","","",""
"","image","407","536901","0.0-280.0-0.0","965.5","run_exp/static/images/Set 6_rs/062b.jpg","86","","","","","","test","TL","1"
"","show_choice","408","537406","0.0-280.0-1.0","null","run_exp/static/images/Set 6_rs/062b.jpg","null","","","","","","test","TL",""
"","html-keyboard-response","409","537909","0.0-280.0-2.0","null","<p></p>","null","","","","","","","",""
"","image","410","538532","0.0-281.0-0.0","621.3000000119209","run_exp/static/images/Set 6_rs/055b.jpg","86","","","","","","test","TL","4"
"","show_choice","411","539034","0.0-281.0-1.0","null","run_exp/static/images/Set 6_rs/055b.jpg","null","","","","","","test","TL",""
"","html-keyboard-response","412","539537","0.0-281.0-2.0","null","<p></p>","null","","","","","","","",""
"","image","413","540192","0.0-282.0-0.0","654.1000000238419","run_exp/static/images/Set 6_rs/048a.jpg","78","","","","","","test","TF","4"
"","show_choice","414","540697","0.0-282.0-1.0","null","run_exp/static/images/Set 6_rs/048a.jpg","null","","","","","","test","TF",""
"","html-keyboard-response","415","541198","0.0-282.0-2.0","null","<p></p>","null","","","","","","","",""
"","image","416","541701","0.0-283.0-0.0","501.69999998807907","run_exp/static/images/Set 6_rs/112a.jpg","78","","","","","","test","TR","5"
"","show_choice","417","542207","0.0-283.0-1.0","null","run_exp/static/images/Set 6_rs/112a.jpg","null","","","","","","test","TR",""
"","html-keyboard-response","418","542709","0.0-283.0-2.0","null","<p></p>","null","","","","","","","",""
"","image","419","544049","0.0-284.0-0.0","1338.800000011921","run_exp/static/images/Set 6_rs/010a.jpg","86","","","","","","test","TR","5"
"","show_choice","420","544554","0.0-284.0-1.0","null","run_exp/static/images/Set 6_rs/010a.jpg","null","","","","","","test","TR",""
"","html-keyboard-response","421","545059","0.0-284.0-2.0","null","<p></p>","null","","","","","","","",""
"","image","422","546139","0.0-285.0-0.0","1078.800000011921","run_exp/static/images/Set 6_rs/122a.jpg","86","","","","","","test","TR","5"
"","show_choice","423","546643","0.0-285.0-1.0","null","run_exp/static/images/Set 6_rs/122a.jpg","null","","","","","","test","TR",""
"","html-keyboard-response","424","547147","0.0-285.0-2.0","null","<p></p>","null","","","","","","","",""
"","image","425","548131","0.0-286.0-0.0","982.6999999880791","run_exp/static/images/Set 6_rs/166a.jpg","86","","","","","","test","TR","1"
"","show_choice","426","548636","0.0-286.0-1.0","null","run_exp/static/images/Set 6_rs/166a.jpg","null","","","","","","test","TR",""
"","html-keyboard-response","427","549142","0.0-286.0-2.0","null","<p></p>","null","","","","","","","",""
"","image","428","550628","0.0-287.0-0.0","1484.699999988079","run_exp/static/images/Set 6_rs/126a.jpg","86","","","","","","test","TR","2"
"","show_choice","429","551134","0.0-287.0-1.0","null","run_exp/static/images/Set 6_rs/126a.jpg","null","","","","","","test","TR",""
"","html-keyboard-response","430","551637","0.0-287.0-2.0","null","<p></p>","null","","","","","","","",""
"","image","431","552241","0.0-288.0-0.0","602.8000000119209","run_exp/static/images/Set 6_rs/047a.jpg","86","","","","","","test","TF","3"
"","show_choice","432","552743","0.0-288.0-1.0","null","run_exp/static/images/Set 6_rs/047a.jpg","null","","","","","","test","TF",""
"","html-keyboard-response","433","553248","0.0-288.0-2.0","null","<p></p>","null","","","","","","","",""
"","image","434","554117","0.0-289.0-0.0","867.6999999880791","run_exp/static/images/Set 6_rs/061a.jpg","86","","","","","","test","TR","5"
"","show_choice","435","554622","0.0-289.0-1.0","null","run_exp/static/images/Set 6_rs/061a.jpg","null","","","","","","test","TR",""
"","html-keyboard-response","436","555127","0.0-289.0-2.0","null","<p></p>","null","","","","","","","",""
"","image","437","555696","0.0-290.0-0.0","567.6999999880791","run_exp/static/images/Set 6_rs/111b.jpg","78","","","","","","test","TL","3"
"","show_choice","438","556201","0.0-290.0-1.0","null","run_exp/static/images/Set 6_rs/111b.jpg","null","","","","","","test","TL",""
"","html-keyboard-response","439","556707","0.0-290.0-2.0","null","<p></p>","null","","","","","","","",""
"","image","440","557609","0.0-291.0-0.0","900.3000000119209","run_exp/static/images/Set 6_rs/076a.jpg","66","","","","","","test","TR","4"
"","show_choice","441","558110","0.0-291.0-1.0","null","run_exp/static/images/Set 6_rs/076a.jpg","null","","","","","","test","TR",""
"","html-keyboard-response","442","558613","0.0-291.0-2.0","null","<p></p>","null","","","","","","","",""
"","image","443","559401","0.0-292.0-0.0","786.2000000476837","run_exp/static/images/Set 6_rs/001a.jpg","66","","","","","","test","TF","1"
"","show_choice","444","559906","0.0-292.0-1.0","null","run_exp/static/images/Set 6_rs/001a.jpg","null","","","","","","test","TF",""
"","html-keyboard-response","445","560411","0.0-292.0-2.0","null","<p></p>","null","","","","","","","",""
"","image","446","561331","0.0-293.0-0.0","919.1999999880791","run_exp/static/images/Set 6_rs/021a.jpg","78","","","","","","test","TF","2"
"","show_choice","447","561833","0.0-293.0-1.0","null","run_exp/static/images/Set 6_rs/021a.jpg","null","","","","","","test","TF",""
"","html-keyboard-response","448","562336","0.0-293.0-2.0","null","<p></p>","null","","","","","","","",""
"","image","449","563062","0.0-294.0-0.0","725","run_exp/static/images/Set 6_rs/052a.jpg","78","","","","","","test","TF","1"
"","show_choice","450","563568","0.0-294.0-1.0","null","run_exp/static/images/Set 6_rs/052a.jpg","null","","","","","","test","TF",""
"","html-keyboard-response","451","564074","0.0-294.0-2.0","null","<p></p>","null","","","","","","","",""
"","image","452","564695","0.0-295.0-0.0","620.3999999761581","run_exp/static/images/Set 6_rs/091b.jpg","78","","","","","","test","TL","3"
"","show_choice","453","565200","0.0-295.0-1.0","null","run_exp/static/images/Set 6_rs/091b.jpg","null","","","","","","test","TL",""
"","html-keyboard-response","454","565702","0.0-295.0-2.0","null","<p></p>","null","","","","","","","",""
"","image","455","566108","0.0-296.0-0.0","404.5999999642372","run_exp/static/images/Set 6_rs/187a.jpg","78","","","","","","test","TR","3"
"","show_choice","456","566611","0.0-296.0-1.0","null","run_exp/static/images/Set 6_rs/187a.jpg","null","","","","","","test","TR",""
"","html-keyboard-response","457","567117","0.0-296.0-2.0","null","<p></p>","null","","","","","","","",""
"","image","458","568155","0.0-297.0-0.0","1036.8999999761581","run_exp/static/images/Set 6_rs/131a.jpg","86","","","","","","test","TR","5"
"","show_choice","459","568661","0.0-297.0-1.0","null","run_exp/static/images/Set 6_rs/131a.jpg","null","","","","","","test","TR",""
"","html-keyboard-response","460","569167","0.0-297.0-2.0","null","<p></p>","null","","","","","","","",""
"","image","461","570174","0.0-298.0-0.0","1006.1999999880791","run_exp/static/images/Set 6_rs/169a.jpg","86","","","","","","test","TR","4"
"","show_choice","462","570678","0.0-298.0-1.0","null","run_exp/static/images/Set 6_rs/169a.jpg","null","","","","","","test","TR",""
"","html-keyboard-response","463","571184","0.0-298.0-2.0","null","<p></p>","null","","","","","","","",""
"","image","464","572096","0.0-299.0-0.0","910.9000000357628","run_exp/static/images/Set 6_rs/148a.jpg","86","","","","","","test","TR","2"
"","show_choice","465","572602","0.0-299.0-1.0","null","run_exp/static/images/Set 6_rs/148a.jpg","null","","","","","","test","TR",""
"","html-keyboard-response","466","573104","0.0-299.0-2.0","null","<p></p>","null","","","","","","","",""
"","image","467","574035","0.0-300.0-0.0","929.3000000119209","run_exp/static/images/Set 6_rs/024a.jpg","86","","","","","","test","TR","5"
"","show_choice","468","574540","0.0-300.0-1.0","null","run_exp/static/images/Set 6_rs/024a.jpg","null","","","","","","test","TR",""
"","html-keyboard-response","469","575045","0.0-300.0-2.0","null","<p></p>","null","","","","","","","",""
"","image","470","575971","0.0-301.0-0.0","924.2999999523163","run_exp/static/images/Set 6_rs/109a.jpg","66","","","","","","test","TF","5"
"","show_choice","471","576476","0.0-301.0-1.0","null","run_exp/static/images/Set 6_rs/109a.jpg","null","","","","","","test","TF",""
"","html-keyboard-response","472","576979","0.0-301.0-2.0","null","<p></p>","null","","","","","","","",""
"","image","473","578255","0.0-302.0-0.0","1274.699999988079","run_exp/static/images/Set 6_rs/028a.jpg","78","","","","","","test","TF","1"
"","show_choice","474","578756","0.0-302.0-1.0","null","run_exp/static/images/Set 6_rs/028a.jpg","null","","","","","","test","TF",""
"","html-keyboard-response","475","579259","0.0-302.0-2.0","null","<p></p>","null","","","","","","","",""
"","image","476","580127","0.0-303.0-0.0","866.6000000238419","run_exp/static/images/Set 6_rs/133a.jpg","78","","","","","","test","TF","4"
"","show_choice","477","580629","0.0-303.0-1.0","null","run_exp/static/images/Set 6_rs/133a.jpg","null","","","","","","test","TF",""
"","html-keyboard-response","478","581134","0.0-303.0-2.0","null","<p></p>","null","","","","","","","",""
"","image","479","582376","0.0-304.0-0.0","1241.1000000238419","run_exp/static/images/Set 6_rs/064a.jpg","86","","","","","","test","TR","5"
"","show_choice","480","582879","0.0-304.0-1.0","null","run_exp/static/images/Set 6_rs/064a.jpg","null","","","","","","test","TR",""
"","html-keyboard-response","481","583383","0.0-304.0-2.0","null","<p></p>","null","","","","","","","",""
"","image","482","584932","0.0-305.0-0.0","1546.699999988079","run_exp/static/images/Set 6_rs/190a.jpg","78","","","","","","test","TF","3"
"","show_choice","483","585437","0.0-305.0-1.0","null","run_exp/static/images/Set 6_rs/190a.jpg","null","","","","","","test","TF",""
"","html-keyboard-response","484","585938","0.0-305.0-2.0","null","<p></p>","null","","","","","","","",""
"","image","485","587494","0.0-306.0-0.0","1554","run_exp/static/images/Set 6_rs/150a.jpg","66","","","","","","test","TR","1"
"","show_choice","486","587997","0.0-306.0-1.0","null","run_exp/static/images/Set 6_rs/150a.jpg","null","","","","","","test","TR",""
"","html-keyboard-response","487","588498","0.0-306.0-2.0","null","<p></p>","null","","","","","","","",""
"","image","488","590281","0.0-307.0-0.0","1781.6000000238419","run_exp/static/images/Set 6_rs/134a.jpg","66","","","","","","test","TR","3"
"","show_choice","489","590787","0.0-307.0-1.0","null","run_exp/static/images/Set 6_rs/134a.jpg","null","","","","","","test","TR",""
"","html-keyboard-response","490","591288","0.0-307.0-2.0","null","<p></p>","null","","","","","","","",""
"","image","491","592530","0.0-308.0-0.0","1240.0999999642372","run_exp/static/images/Set 6_rs/118a.jpg","78","","","","","","test","TF","5"
"","show_choice","492","593031","0.0-308.0-1.0","null","run_exp/static/images/Set 6_rs/118a.jpg","null","","","","","","test","TF",""
"","html-keyboard-response","493","593534","0.0-308.0-2.0","null","<p></p>","null","","","","","","","",""
"","image","494","594668","0.0-309.0-0.0","1132.5","run_exp/static/images/Set 6_rs/123b.jpg","78","","","","","","test","TL","2"
"","show_choice","495","595171","0.0-309.0-1.0","null","run_exp/static/images/Set 6_rs/123b.jpg","null","","","","","","test","TL",""
"","html-keyboard-response","496","595673","0.0-309.0-2.0","null","<p></p>","null","","","","","","","",""
"","image","497","597431","0.0-310.0-0.0","1756.5","run_exp/static/images/Set 6_rs/181b.jpg","66","","","","","","test","TL","1"
"","show_choice","498","597933","0.0-310.0-1.0","null","run_exp/static/images/Set 6_rs/181b.jpg","null","","","","","","test","TL",""
"","html-keyboard-response","499","598439","0.0-310.0-2.0","null","<p></p>","null","","","","","","","",""
"","image","500","600022","0.0-311.0-0.0","1581.699999988079","run_exp/static/images/Set 6_rs/077a.jpg","86","","","","","","test","TF","3"
"","show_choice","501","600527","0.0-311.0-1.0","null","run_exp/static/images/Set 6_rs/077a.jpg","null","","","","","","test","TF",""
"","html-keyboard-response","502","601031","0.0-311.0-2.0","null","<p></p>","null","","","","","","","",""
"","image","503","602121","0.0-312.0-0.0","1088.6000000238419","run_exp/static/images/Set 6_rs/079b.jpg","86","","","","","","test","TL","5"
"","show_choice","504","602626","0.0-312.0-1.0","null","run_exp/static/images/Set 6_rs/079b.jpg","null","","","","","","test","TL",""
"","html-keyboard-response","505","603131","0.0-312.0-2.0","null","<p></p>","null","","","","","","","",""
"","image","506","604233","0.0-313.0-0.0","1100.6000000238419","run_exp/static/images/Set 6_rs/149a.jpg","78","","","","","","test","TF","1"
"","show_choice","507","604735","0.0-313.0-1.0","null","run_exp/static/images/Set 6_rs/149a.jpg","null","","","","","","test","TF",""
"","html-keyboard-response","508","605238","0.0-313.0-2.0","null","<p></p>","null","","","","","","","",""
"","image","509","606054","0.0-314.0-0.0","814","run_exp/static/images/Set 6_rs/063a.jpg","66","","","","","","test","TR","2"
"","show_choice","510","606557","0.0-314.0-1.0","null","run_exp/static/images/Set 6_rs/063a.jpg","null","","","","","","test","TR",""
"","html-keyboard-response","511","607061","0.0-314.0-2.0","null","<p></p>","null","","","","","","","",""
"","image","512","608632","0.0-315.0-0.0","1569.199999988079","run_exp/static/images/Set 6_rs/171a.jpg","78","","","","","","test","TF","1"
"","show_choice","513","609137","0.0-315.0-1.0","null","run_exp/static/images/Set 6_rs/171a.jpg","null","","","","","","test","TF",""
"","html-keyboard-response","514","609639","0.0-315.0-2.0","null","<p></p>","null","","","","","","","",""
"","image","515","610693","0.0-316.0-0.0","1051.9000000357628","run_exp/static/images/Set 6_rs/085b.jpg","86","","","","","","test","TL","1"
"","show_choice","516","611196","0.0-316.0-1.0","null","run_exp/static/images/Set 6_rs/085b.jpg","null","","","","","","test","TL",""
"","html-keyboard-response","517","611699","0.0-316.0-2.0","null","<p></p>","null","","","","","","","",""
"","image","518","612616","0.0-317.0-0.0","916.0999999642372","run_exp/static/images/Set 6_rs/129b.jpg","66","","","","","","test","TL","1"
"","show_choice","519","613122","0.0-317.0-1.0","null","run_exp/static/images/Set 6_rs/129b.jpg","null","","","","","","test","TL",""
"","html-keyboard-response","520","613626","0.0-317.0-2.0","null","<p></p>","null","","","","","","","",""
"","image","521","615473","0.0-318.0-0.0","1845.699999988079","run_exp/static/images/Set 6_rs/168b.jpg","86","","","","","","test","TL","3"
"","show_choice","522","615975","0.0-318.0-1.0","null","run_exp/static/images/Set 6_rs/168b.jpg","null","","","","","","test","TL",""
"","html-keyboard-response","523","616477","0.0-318.0-2.0","null","<p></p>","null","","","","","","","",""
"","all_done","524","623581","0.0-319.0-0.0","null","run_exp/static/audio/clip_23_all_done.m4a","null","","","","","<div class='center'><p>You are finished with all three parts of the experiment! You can press the space bar to end the game now. </p></div>","","",""
"","html-keyboard-response","525","624186","0.0-319.0-1.0","603.3000000119209","<div class='center'><p>You are finished with all three parts of the experiment! You can press the space bar to end the game now. </p><div><p><b>[Press the space bar to continue]</b></p></div>","32","","","","","","","",""
