"success","trial_type","trial_index","time_elapsed","internal_node_id","rt","stimulus","key_press","subject_id","participant_id","age","gender","prompt","phase","condition","lure_bin"
"true","fullscreen","0","3136","0.0-0.0","","","","","","","","","","",""
"","pavlovia","1","3143","0.0-1.0","","","","","","","","","","",""
"","welcome","2","38930","0.0-2.0","null","run_exp/static/audio/clip_1_welcome.m4a","null","61","73","11","female","<div class='center'><p>This is your last game of the experiment! First, you'll be shown pictures of items one at a time. For each picture, you have to decide if the item is typically found indoors or outdoors.</p><p>If you think it's usually found indoors, then press <b>v</b> key on your keyboard. If you think it's usually found outdoors, then press the <b>n</b> key.There will be reminders on the screen to help you remember which keys to press. </p><p>If you're not sure whether the item is an indoor item or outdoor item, go ahead and take a guess but try your best not to skip that choice. </p></div>","","",""
"","html-keyboard-response","3","39619","0.0-3.0","685.5","<div class='center'><p>This is your last game of the experiment! First, you'll be shown pictures of items one at a time. For each picture, you have to decide if the item is typically found indoors or outdoors.</p><p>If you think it's usually found indoors, then press <b>v</b> key on your keyboard. If you think it's usually found outdoors, then press the <b>n</b> key.There will be reminders on the screen to help you remember which keys to press. </p><p>If you're not sure whether the item is an indoor item or outdoor item, go ahead and take a guess but try your best not to skip that choice. </p><div><p><b>[Press the space bar to continue]</b></p></div>","32","","","","","","","",""
"","image","4","41623","0.0-4.0","null","run_exp/static/images/Set 6_rs/010a.jpg","null","","","","","","learn","SR",""
"","show_choice","5","43635","0.0-5.0","null","run_exp/static/images/blank.png","null","","","","","","learn","SR",""
"","html-keyboard-response","6","44147","0.0-6.0","null","<p></p>","null","","","","","","","",""
"","image","7","45158","0.0-7.0","1008.5","run_exp/static/images/Set 6_rs/057a.jpg","86","","","","","","learn","SL",""
"","show_choice","8","46160","0.0-8.0","null","run_exp/static/images/Set 6_rs/057a.jpg","null","","","","","","learn","SL",""
"","html-keyboard-response","9","46672","0.0-9.0","null","<p></p>","null","","","","","","","",""
"","image","10","48568","0.0-10.0","1894.300000011921","run_exp/static/images/Set 6_rs/134a.jpg","78","","","","","","learn","SR",""
"","show_choice","11","48678","0.0-11.0","null","run_exp/static/images/Set 6_rs/134a.jpg","null","","","","","","learn","SR",""
"","html-keyboard-response","12","49185","0.0-12.0","null","<p></p>","null","","","","","","","",""
"","image","13","50279","0.0-13.0","1091.6000000238419","run_exp/static/images/Set 6_rs/178a.jpg","78","","","","","","learn","SR",""
"","show_choice","14","51201","0.0-14.0","null","run_exp/static/images/Set 6_rs/178a.jpg","null","","","","","","learn","SR",""
"","html-keyboard-response","15","51716","0.0-15.0","null","<p></p>","null","","","","","","","",""
"","image","16","53048","0.0-16.0","1329.7999999523163","run_exp/static/images/Set 6_rs/152a.jpg","86","","","","","","learn","SR",""
"","show_choice","17","53731","0.0-17.0","null","run_exp/static/images/Set 6_rs/152a.jpg","null","","","","","","learn","SR",""
"","html-keyboard-response","18","54245","0.0-18.0","null","<p></p>","null","","","","","","","",""
"","image","19","55528","0.0-19.0","1280.5999999642372","run_exp/static/images/Set 6_rs/132a.jpg","78","","","","","","learn","SR",""
"","show_choice","20","56263","0.0-20.0","null","run_exp/static/images/Set 6_rs/132a.jpg","null","","","","","","learn","SR",""
"","html-keyboard-response","21","56764","0.0-21.0","null","<p></p>","null","","","","","","","",""
"","image","22","58047","0.0-22.0","1281.3999999761581","run_exp/static/images/Set 6_rs/023a.jpg","86","","","","","","learn","SR",""
"","show_choice","23","58767","0.0-23.0","null","run_exp/static/images/Set 6_rs/023a.jpg","null","","","","","","learn","SR",""
"","html-keyboard-response","24","59284","0.0-24.0","null","<p></p>","null","","","","","","","",""
"","image","25","60118","0.0-25.0","832.8000000119209","run_exp/static/images/Set 6_rs/025a.jpg","78","","","","","","learn","SL",""
"","show_choice","26","61288","0.0-26.0","null","run_exp/static/images/Set 6_rs/025a.jpg","null","","","","","","learn","SL",""
"","html-keyboard-response","27","61804","0.0-27.0","null","<p></p>","null","","","","","","","",""
"","image","28","63079","0.0-28.0","1272.4000000357628","run_exp/static/images/Set 6_rs/006a.jpg","86","","","","","","learn","SL",""
"","show_choice","29","63809","0.0-29.0","null","run_exp/static/images/Set 6_rs/006a.jpg","null","","","","","","learn","SL",""
"","html-keyboard-response","30","64311","0.0-30.0","null","<p></p>","null","","","","","","","",""
"","image","31","65108","0.0-31.0","795.1999999880791","run_exp/static/images/Set 6_rs/112a.jpg","86","","","","","","learn","SR",""
"","show_choice","32","66313","0.0-32.0","null","run_exp/static/images/Set 6_rs/112a.jpg","null","","","","","","learn","SR",""
"","html-keyboard-response","33","66815","0.0-33.0","null","<p></p>","null","","","","","","","",""
"","image","34","67438","0.0-34.0","621.3000000119209","run_exp/static/images/Set 6_rs/116a.jpg","78","","","","","","learn","SL",""
"","show_choice","35","68828","0.0-35.0","null","run_exp/static/images/Set 6_rs/116a.jpg","null","","","","","","learn","SL",""
"","html-keyboard-response","36","69343","0.0-36.0","null","<p></p>","null","","","","","","","",""
"","image","37","70869","0.0-37.0","1523.9000000357628","run_exp/static/images/Set 6_rs/131a.jpg","86","","","","","","learn","SR",""
"","show_choice","38","71350","0.0-38.0","null","run_exp/static/images/Set 6_rs/131a.jpg","null","","","","","","learn","SR",""
"","html-keyboard-response","39","71864","0.0-39.0","null","<p></p>","null","","","","","","","",""
"","image","40","73881","0.0-40.0","null","run_exp/static/images/Set 6_rs/016a.jpg","null","","","","","","learn","SL",""
"","show_choice","41","75889","0.0-41.0","null","run_exp/static/images/blank.png","null","","","","","","learn","SL",""
"","html-keyboard-response","42","76401","0.0-42.0","null","<p></p>","null","","","","","","","",""
"","image","43","77499","0.0-43.0","1095.9000000357628","run_exp/static/images/Set 6_rs/064a.jpg","78","","","","","","learn","SR",""
"","show_choice","44","78407","0.0-44.0","null","run_exp/static/images/Set 6_rs/064a.jpg","null","","","","","","learn","SR",""
"","html-keyboard-response","45","78921","0.0-45.0","null","<p></p>","null","","","","","","","",""
"","image","46","80597","0.0-46.0","1674.8999999761581","run_exp/static/images/Set 6_rs/091a.jpg","78","","","","","","learn","SL",""
"","show_choice","47","80926","0.0-47.0","null","run_exp/static/images/Set 6_rs/091a.jpg","null","","","","","","learn","SL",""
"","html-keyboard-response","48","81439","0.0-48.0","null","<p></p>","null","","","","","","","",""
"","image","49","82758","0.0-49.0","1317.5999999642372","run_exp/static/images/Set 6_rs/060a.jpg","86","","","","","","learn","SL",""
"","show_choice","50","83452","0.0-50.0","null","run_exp/static/images/Set 6_rs/060a.jpg","null","","","","","","learn","SL",""
"","html-keyboard-response","51","83966","0.0-51.0","null","<p></p>","null","","","","","","","",""
"","image","52","85538","0.0-52.0","1570.3999999761581","run_exp/static/images/Set 6_rs/144a.jpg","86","","","","","","learn","SL",""
"","show_choice","53","85970","0.0-53.0","null","run_exp/static/images/Set 6_rs/144a.jpg","null","","","","","","learn","SL",""
"","html-keyboard-response","54","86482","0.0-54.0","null","<p></p>","null","","","","","","","",""
"","image","55","87478","0.0-55.0","994.6999999880791","run_exp/static/images/Set 6_rs/111a.jpg","86","","","","","","learn","SL",""
"","show_choice","56","88489","0.0-56.0","null","run_exp/static/images/Set 6_rs/111a.jpg","null","","","","","","learn","SL",""
"","html-keyboard-response","57","89002","0.0-57.0","null","<p></p>","null","","","","","","","",""
"","image","58","91007","0.0-58.0","null","run_exp/static/images/Set 6_rs/019a.jpg","null","","","","","","learn","SL",""
"","show_choice","59","93011","0.0-59.0","null","run_exp/static/images/blank.png","null","","","","","","learn","SL",""
"","html-keyboard-response","60","93526","0.0-60.0","null","<p></p>","null","","","","","","","",""
"","image","61","94478","0.0-61.0","950.6000000238419","run_exp/static/images/Set 6_rs/108a.jpg","78","","","","","","learn","SR",""
"","show_choice","62","95534","0.0-62.0","null","run_exp/static/images/Set 6_rs/108a.jpg","null","","","","","","learn","SR",""
"","html-keyboard-response","63","96048","0.0-63.0","null","<p></p>","null","","","","","","","",""
"","image","64","97679","0.0-64.0","1628.699999988079","run_exp/static/images/Set 6_rs/150a.jpg","86","","","","","","learn","SR",""
"","show_choice","65","98054","0.0-65.0","null","run_exp/static/images/Set 6_rs/150a.jpg","null","","","","","","learn","SR",""
"","html-keyboard-response","66","98569","0.0-66.0","null","<p></p>","null","","","","","","","",""
"","image","67","99487","0.0-67.0","916.6999999880791","run_exp/static/images/Set 6_rs/076a.jpg","78","","","","","","learn","SR",""
"","show_choice","68","100587","0.0-68.0","null","run_exp/static/images/Set 6_rs/076a.jpg","null","","","","","","learn","SR",""
"","html-keyboard-response","69","101100","0.0-69.0","null","<p></p>","null","","","","","","","",""
"","image","70","102072","0.0-70.0","970.6999999880791","run_exp/static/images/Set 6_rs/071a.jpg","86","","","","","","learn","SL",""
"","show_choice","71","103108","0.0-71.0","null","run_exp/static/images/Set 6_rs/071a.jpg","null","","","","","","learn","SL",""
"","html-keyboard-response","72","103623","0.0-72.0","null","<p></p>","null","","","","","","","",""
"","image","73","104268","0.0-73.0","643.4000000357628","run_exp/static/images/Set 6_rs/036a.jpg","86","","","","","","learn","SL",""
"","show_choice","74","105637","0.0-74.0","null","run_exp/static/images/Set 6_rs/036a.jpg","null","","","","","","learn","SL",""
"","html-keyboard-response","75","106153","0.0-75.0","null","<p></p>","null","","","","","","","",""
"","image","76","107228","0.0-76.0","1072.9000000357628","run_exp/static/images/Set 6_rs/123a.jpg","78","","","","","","learn","SL",""
"","show_choice","77","108170","0.0-77.0","null","run_exp/static/images/Set 6_rs/123a.jpg","null","","","","","","learn","SL",""
"","html-keyboard-response","78","108686","0.0-78.0","null","<p></p>","null","","","","","","","",""
"","image","79","109529","0.0-79.0","840.9000000357628","run_exp/static/images/Set 6_rs/169a.jpg","78","","","","","","learn","SR",""
"","show_choice","80","110702","0.0-80.0","null","run_exp/static/images/Set 6_rs/169a.jpg","null","","","","","","learn","SR",""
"","html-keyboard-response","81","111218","0.0-81.0","null","<p></p>","null","","","","","","","",""
"","image","82","112258","0.0-82.0","1038.800000011921","run_exp/static/images/Set 6_rs/186a.jpg","86","","","","","","learn","SR",""
"","show_choice","83","113235","0.0-83.0","null","run_exp/static/images/Set 6_rs/186a.jpg","null","","","","","","learn","SR",""
"","html-keyboard-response","84","113750","0.0-84.0","null","<p></p>","null","","","","","","","",""
"","image","85","115418","0.0-85.0","1665.800000011921","run_exp/static/images/Set 6_rs/089a.jpg","78","","","","","","learn","SL",""
"","show_choice","86","115766","0.0-86.0","null","run_exp/static/images/Set 6_rs/089a.jpg","null","","","","","","learn","SL",""
"","html-keyboard-response","87","116281","0.0-87.0","null","<p></p>","null","","","","","","","",""
"","image","88","117348","0.0-88.0","1065","run_exp/static/images/Set 6_rs/177a.jpg","78","","","","","","learn","SR",""
"","show_choice","89","118297","0.0-89.0","null","run_exp/static/images/Set 6_rs/177a.jpg","null","","","","","","learn","SR",""
"","html-keyboard-response","90","118812","0.0-90.0","null","<p></p>","null","","","","","","","",""
"","image","91","120658","0.0-91.0","1845.0999999642372","run_exp/static/images/Set 6_rs/148a.jpg","78","","","","","","learn","SR",""
"","show_choice","92","120828","0.0-92.0","null","run_exp/static/images/Set 6_rs/148a.jpg","null","","","","","","learn","SR",""
"","html-keyboard-response","93","121344","0.0-93.0","null","<p></p>","null","","","","","","","",""
"","image","94","122188","0.0-94.0","842.5","run_exp/static/images/Set 6_rs/073a.jpg","86","","","","","","learn","SL",""
"","show_choice","95","123347","0.0-95.0","null","run_exp/static/images/Set 6_rs/073a.jpg","null","","","","","","learn","SL",""
"","html-keyboard-response","96","123863","0.0-96.0","null","<p></p>","null","","","","","","","",""
"","image","97","125148","0.0-97.0","1283.199999988079","run_exp/static/images/Set 6_rs/117a.jpg","86","","","","","","learn","SL",""
"","show_choice","98","125880","0.0-98.0","null","run_exp/static/images/Set 6_rs/117a.jpg","null","","","","","","learn","SL",""
"","html-keyboard-response","99","126394","0.0-99.0","null","<p></p>","null","","","","","","","",""
"","image","100","127510","0.0-100.0","1113.199999988079","run_exp/static/images/Set 6_rs/138a.jpg","78","","","","","","learn","SL",""
"","show_choice","101","128400","0.0-101.0","null","run_exp/static/images/Set 6_rs/138a.jpg","null","","","","","","learn","SL",""
"","html-keyboard-response","102","128916","0.0-102.0","null","<p></p>","null","","","","","","","",""
"","image","103","130238","0.0-103.0","1320.9000000357628","run_exp/static/images/Set 6_rs/122a.jpg","78","","","","","","learn","SR",""
"","show_choice","104","130933","0.0-104.0","null","run_exp/static/images/Set 6_rs/122a.jpg","null","","","","","","learn","SR",""
"","html-keyboard-response","105","131434","0.0-105.0","null","<p></p>","null","","","","","","","",""
"","image","106","132229","0.0-106.0","793.1000000238419","run_exp/static/images/Set 6_rs/166a.jpg","86","","","","","","learn","SR",""
"","show_choice","107","133442","0.0-107.0","null","run_exp/static/images/Set 6_rs/166a.jpg","null","","","","","","learn","SR",""
"","html-keyboard-response","108","133944","0.0-108.0","null","<p></p>","null","","","","","","","",""
"","image","109","135298","0.0-109.0","1352.6000000238419","run_exp/static/images/Set 6_rs/154a.jpg","86","","","","","","learn","SR",""
"","show_choice","110","135949","0.0-110.0","null","run_exp/static/images/Set 6_rs/154a.jpg","null","","","","","","learn","SR",""
"","html-keyboard-response","111","136451","0.0-111.0","null","<p></p>","null","","","","","","","",""
"","image","112","137348","0.0-112.0","895.3999999761581","run_exp/static/images/Set 6_rs/075a.jpg","86","","","","","","learn","SR",""
"","show_choice","113","138465","0.0-113.0","null","run_exp/static/images/Set 6_rs/075a.jpg","null","","","","","","learn","SR",""
"","html-keyboard-response","114","138966","0.0-114.0","null","<p></p>","null","","","","","","","",""
"","image","115","139678","0.0-115.0","710.6000000238419","run_exp/static/images/Set 6_rs/095a.jpg","86","","","","","","learn","SL",""
"","show_choice","116","140982","0.0-116.0","null","run_exp/static/images/Set 6_rs/095a.jpg","null","","","","","","learn","SL",""
"","html-keyboard-response","117","141499","0.0-117.0","null","<p></p>","null","","","","","","","",""
"","image","118","142859","0.0-118.0","1358.5","run_exp/static/images/Set 6_rs/066a.jpg","78","","","","","","learn","SL",""
"","show_choice","119","143505","0.0-119.0","null","run_exp/static/images/Set 6_rs/066a.jpg","null","","","","","","learn","SL",""
"","html-keyboard-response","120","144007","0.0-120.0","null","<p></p>","null","","","","","","","",""
"","image","121","145078","0.0-121.0","1069.8999999761581","run_exp/static/images/Set 6_rs/167a.jpg","86","","","","","","learn","SL",""
"","show_choice","122","146022","0.0-122.0","null","run_exp/static/images/Set 6_rs/167a.jpg","null","","","","","","learn","SL",""
"","html-keyboard-response","123","146538","0.0-123.0","null","<p></p>","null","","","","","","","",""
"","image","124","147548","0.0-124.0","1008.6000000238419","run_exp/static/images/Set 6_rs/045a.jpg","78","","","","","","learn","SR",""
"","show_choice","125","148556","0.0-125.0","null","run_exp/static/images/Set 6_rs/045a.jpg","null","","","","","","learn","SR",""
"","html-keyboard-response","126","149058","0.0-126.0","null","<p></p>","null","","","","","","","",""
"","image","127","150488","0.0-127.0","1428.6000000238419","run_exp/static/images/Set 6_rs/061a.jpg","78","","","","","","learn","SR",""
"","show_choice","128","151061","0.0-128.0","null","run_exp/static/images/Set 6_rs/061a.jpg","null","","","","","","learn","SR",""
"","html-keyboard-response","129","151576","0.0-129.0","null","<p></p>","null","","","","","","","",""
"","image","130","152408","0.0-130.0","830.3999999761581","run_exp/static/images/Set 6_rs/017a.jpg","78","","","","","","learn","SL",""
"","show_choice","131","153593","0.0-131.0","null","run_exp/static/images/Set 6_rs/017a.jpg","null","","","","","","learn","SL",""
"","html-keyboard-response","132","154095","0.0-132.0","null","<p></p>","null","","","","","","","",""
"","image","133","155020","0.0-133.0","924.3000000119209","run_exp/static/images/Set 6_rs/088a.jpg","86","","","","","","learn","SR",""
"","show_choice","134","156102","0.0-134.0","null","run_exp/static/images/Set 6_rs/088a.jpg","null","","","","","","learn","SR",""
"","html-keyboard-response","135","156614","0.0-135.0","null","<p></p>","null","","","","","","","",""
"","image","136","158158","0.0-136.0","1542.3999999761581","run_exp/static/images/Set 6_rs/191a.jpg","78","","","","","","learn","SL",""
"","show_choice","137","158630","0.0-137.0","null","run_exp/static/images/Set 6_rs/191a.jpg","null","","","","","","learn","SL",""
"","html-keyboard-response","138","159132","0.0-138.0","null","<p></p>","null","","","","","","","",""
"","image","139","160679","0.0-139.0","1545.1000000238419","run_exp/static/images/Set 6_rs/055a.jpg","86","","","","","","learn","SL",""
"","show_choice","140","161145","0.0-140.0","null","run_exp/static/images/Set 6_rs/055a.jpg","null","","","","","","learn","SL",""
"","html-keyboard-response","141","161646","0.0-141.0","null","<p></p>","null","","","","","","","",""
"","image","142","162678","0.0-142.0","1030.6000000238419","run_exp/static/images/Set 6_rs/181a.jpg","78","","","","","","learn","SL",""
"","show_choice","143","163650","0.0-143.0","null","run_exp/static/images/Set 6_rs/181a.jpg","null","","","","","","learn","SL",""
"","html-keyboard-response","144","164165","0.0-144.0","null","<p></p>","null","","","","","","","",""
"","image","145","165529","0.0-145.0","1362.6000000238419","run_exp/static/images/Set 6_rs/008a.jpg","78","","","","","","learn","SL",""
"","show_choice","146","166168","0.0-146.0","null","run_exp/static/images/Set 6_rs/008a.jpg","null","","","","","","learn","SL",""
"","html-keyboard-response","147","166670","0.0-147.0","null","<p></p>","null","","","","","","","",""
"","image","148","167658","0.0-148.0","986.8000000119209","run_exp/static/images/Set 6_rs/062a.jpg","86","","","","","","learn","SL",""
"","show_choice","149","168686","0.0-149.0","null","run_exp/static/images/Set 6_rs/062a.jpg","null","","","","","","learn","SL",""
"","html-keyboard-response","150","169202","0.0-150.0","null","<p></p>","null","","","","","","","",""
"","image","151","170228","0.0-151.0","1025","run_exp/static/images/Set 6_rs/063a.jpg","78","","","","","","learn","SR",""
"","show_choice","152","171215","0.0-152.0","null","run_exp/static/images/Set 6_rs/063a.jpg","null","","","","","","learn","SR",""
"","html-keyboard-response","153","171730","0.0-153.0","null","<p></p>","null","","","","","","","",""
"","image","154","173188","0.0-154.0","1456.6000000238419","run_exp/static/images/Set 6_rs/012a.jpg","86","","","","","","learn","SR",""
"","show_choice","155","173748","0.0-155.0","null","run_exp/static/images/Set 6_rs/012a.jpg","null","","","","","","learn","SR",""
"","html-keyboard-response","156","174264","0.0-156.0","null","<p></p>","null","","","","","","","",""
"","image","157","175459","0.0-157.0","1192.800000011921","run_exp/static/images/Set 6_rs/141a.jpg","86","","","","","","learn","SR",""
"","show_choice","158","176268","0.0-158.0","null","run_exp/static/images/Set 6_rs/141a.jpg","null","","","","","","learn","SR",""
"","html-keyboard-response","159","176784","0.0-159.0","null","<p></p>","null","","","","","","","",""
"","image","160","178569","0.0-160.0","1783.5","run_exp/static/images/Set 6_rs/121a.jpg","86","","","","","","learn","SR",""
"","show_choice","161","178799","0.0-161.0","null","run_exp/static/images/Set 6_rs/121a.jpg","null","","","","","","learn","SR",""
"","html-keyboard-response","162","179311","0.0-162.0","null","<p></p>","null","","","","","","","",""
"","image","163","181029","0.0-163.0","1716","run_exp/static/images/Set 6_rs/067a.jpg","86","","","","","","learn","SL",""
"","show_choice","164","181329","0.0-164.0","null","run_exp/static/images/Set 6_rs/067a.jpg","null","","","","","","learn","SL",""
"","html-keyboard-response","165","181842","0.0-165.0","null","<p></p>","null","","","","","","","",""
"","image","166","183029","0.0-166.0","1185","run_exp/static/images/Set 6_rs/074a.jpg","78","","","","","","learn","SL",""
"","show_choice","167","183849","0.0-167.0","null","run_exp/static/images/Set 6_rs/074a.jpg","null","","","","","","learn","SL",""
"","html-keyboard-response","168","184363","0.0-168.0","null","<p></p>","null","","","","","","","",""
"","image","169","185630","0.0-169.0","1264.8999999761581","run_exp/static/images/Set 6_rs/129a.jpg","86","","","","","","learn","SL",""
"","show_choice","170","186374","0.0-170.0","null","run_exp/static/images/Set 6_rs/129a.jpg","null","","","","","","learn","SL",""
"","html-keyboard-response","171","186889","0.0-171.0","null","<p></p>","null","","","","","","","",""
"","image","172","188089","0.0-172.0","1198.6000000238419","run_exp/static/images/Set 6_rs/168a.jpg","78","","","","","","learn","SL",""
"","show_choice","173","188901","0.0-173.0","null","run_exp/static/images/Set 6_rs/168a.jpg","null","","","","","","learn","SL",""
"","html-keyboard-response","174","189417","0.0-174.0","null","<p></p>","null","","","","","","","",""
"","image","175","190649","0.0-175.0","1230.9000000357628","run_exp/static/images/Set 6_rs/085a.jpg","86","","","","","","learn","SL",""
"","show_choice","176","191427","0.0-176.0","null","run_exp/static/images/Set 6_rs/085a.jpg","null","","","","","","learn","SL",""
"","html-keyboard-response","177","191929","0.0-177.0","null","<p></p>","null","","","","","","","",""
"","image","178","193158","0.0-178.0","1227","run_exp/static/images/Set 6_rs/007a.jpg","86","","","","","","learn","SR",""
"","show_choice","179","193941","0.0-179.0","null","run_exp/static/images/Set 6_rs/007a.jpg","null","","","","","","learn","SR",""
"","html-keyboard-response","180","194442","0.0-180.0","null","<p></p>","null","","","","","","","",""
"","image","181","196128","0.0-181.0","1684.9000000357628","run_exp/static/images/Set 6_rs/126a.jpg","78","","","","","","learn","SR",""
"","show_choice","182","196454","0.0-182.0","null","run_exp/static/images/Set 6_rs/126a.jpg","null","","","","","","learn","SR",""
"","html-keyboard-response","183","196969","0.0-183.0","null","<p></p>","null","","","","","","","",""
"","image","184","198109","0.0-184.0","1138.800000011921","run_exp/static/images/Set 6_rs/024a.jpg","86","","","","","","learn","SR",""
"","show_choice","185","198976","0.0-185.0","null","run_exp/static/images/Set 6_rs/024a.jpg","null","","","","","","learn","SR",""
"","html-keyboard-response","186","199492","0.0-186.0","null","<p></p>","null","","","","","","","",""
"","image","187","200588","0.0-187.0","1095","run_exp/static/images/Set 6_rs/172a.jpg","78","","","","","","learn","SR",""
"","show_choice","188","201494","0.0-188.0","null","run_exp/static/images/Set 6_rs/172a.jpg","null","","","","","","learn","SR",""
"","html-keyboard-response","189","202006","0.0-189.0","null","<p></p>","null","","","","","","","",""
"","image","190","203359","0.0-190.0","1351.2000000476837","run_exp/static/images/Set 6_rs/187a.jpg","86","","","","","","learn","SR",""
"","show_choice","191","204016","0.0-191.0","null","run_exp/static/images/Set 6_rs/187a.jpg","null","","","","","","learn","SR",""
"","html-keyboard-response","192","204517","0.0-192.0","null","<p></p>","null","","","","","","","",""
"","image","193","205818","0.0-193.0","1299.5999999642372","run_exp/static/images/Set 6_rs/079a.jpg","86","","","","","","learn","SL",""
"","show_choice","194","206525","0.0-194.0","null","run_exp/static/images/Set 6_rs/079a.jpg","null","","","","","","learn","SL",""
"","html-keyboard-response","195","207039","0.0-195.0","null","<p></p>","null","","","","","","","",""
"","test_intro","196","248758","0.0-196.0","null","run_exp/static/audio/clip_2_memory.m4a","null","","","","","<div class='center'><p>Now, let’s see how much you remember about the items you just saw.  For each item, you need to indicate if it was <b>old</b> by pressing the <b>v</b> key, <b>similar</b> by pressing the <b>b</b> key, or <b>new</b> by pressing the <b>n</b> key.</p><p>Old refers to an item that you saw before in the indoor/outdoor game that you just played, new refers to an item you have <b>not</b> seen before within the indoor/outdoor game, and similar refers to an item that is similar to an item you’ve seen before but is not exactly the same. </p><p>Before we begin, let’s go over some brief demonstrations to make sure you understand.</p></div>","","",""
"","html-keyboard-response","197","250019","0.0-197.0","1259.6000000238419","<div class='center'><p>Now, let’s see how much you remember about the items you just saw.  For each item, you need to indicate if it was <b>old</b> by pressing the <b>v</b> key, <b>similar</b> by pressing the <b>b</b> key, or <b>new</b> by pressing the <b>n</b> key.</p><p>Old refers to an item that you saw before in the indoor/outdoor game that you just played, new refers to an item you have <b>not</b> seen before within the indoor/outdoor game, and similar refers to an item that is similar to an item you’ve seen before but is not exactly the same. </p><p>Before we begin, let’s go over some brief demonstrations to make sure you understand.</p><div><p><b>[Press the space bar to continue]</b></p></div>","32","","","","","","","",""
"","items","198","257537","0.0-198.0","null","run_exp/static/audio/clip_3_items.m4a","null","","","","","","","",""
"","mop","199","262043","0.0-199.0","null","run_exp/static/audio/clip_4_mop.m4a","null","","","","","","","",""
"","baseball","200","265556","0.0-200.0","null","run_exp/static/audio/clip_5_baseball.m4a","null","","","","","","","",""
"","trumpet","201","269073","0.0-201.0","null","run_exp/static/audio/clip_6_trumpet.m4a","null","","","","","","","",""
"","gummies","202","272589","0.0-202.0","null","run_exp/static/audio/clip_7_gummies.m4a","null","","","","","","","",""
"","osn","203","277105","0.0-203.0","null","run_exp/static/audio/clip_8_osn.m4a","null","","","","","","","",""
"","old_1","204","283609","0.0-204.0","null","run_exp/static/audio/clip_9_old_trumpet.m4a","null","","","","","","","",""
"","new_1","205","291121","0.0-205.0","null","run_exp/static/audio/clip_10_new_balloon.m4a","null","","","","","","","",""
"","similar_1a","206","295636","0.0-206.0","null","run_exp/static/audio/clip_11a_similar_mop.m4a","null","","","","","","","",""
"","similar_1b","207","302152","0.0-207.0","null","run_exp/static/audio/clip_11b_similar_mop.m4a","null","","","","","","","",""
"","new_2","208","305654","0.0-208.0","null","run_exp/static/audio/clip_12_new_stoplight.m4a","null","","","","","","","",""
"","old_2","209","309169","0.0-209.0","null","run_exp/static/audio/clip_13_old_baseball.m4a","null","","","","","","","",""
"","similar_2a","210","312672","0.0-210.0","null","run_exp/static/audio/clip_14a_similar_gummies.m4a","null","","","","","","","",""
"","similar_2b","211","320176","0.0-211.0","null","run_exp/static/audio/clip_14b_similar_gummies.m4a","null","","","","","","","",""
"","practice","212","335920","0.0-212.0","null","run_exp/static/audio/clip_15_practice.m4a","null","","","","","<div class='center'><p>Ok, let’s practice a little to make sure you understand the difference between new, similar, and old. Let’s say you saw these three items in the indoor/outdoor game. Study these because you’ll be tested on them soon in this practice game. </p><p><img src='run_exp/static/images/tutorial/test/three_indoor_outdoor.png' height='300'></p></div>","","",""
"","html-keyboard-response","213","337641","0.0-213.0","1718.199999988079","<div class='center'><p>Ok, let’s practice a little to make sure you understand the difference between new, similar, and old. Let’s say you saw these three items in the indoor/outdoor game. Study these because you’ll be tested on them soon in this practice game. </p><p><img src='run_exp/static/images/tutorial/test/three_indoor_outdoor.png' height='300'></p><div><p><b>[Press the space bar to continue]</b></p></div>","32","","","","","","","",""
"","practice_q1","214","340601","0.0-214.0","2958","run_exp/static/audio/clip_16_practice_question.m4a","86","","","","","","","",""
"","incorrect_q1","215","343459","0.0-215.0-0.0","null","run_exp/static/audio/clip_18_incorrect_new.m4a","null","","","","","<div class='center'><p>That’s incorrect. It’s new.</p></div>","","",""
"","html-keyboard-response","216","344342","0.0-215.0-1.0","880.8999999761581","<div class='center'><p>That’s incorrect. It’s new.</p><div><p><b>[Press the space bar to continue]</b></p></div>","32","","","","","","","",""
"","practice_q2","217","347481","0.0-215.0-2.0","3137.100000023842","run_exp/static/audio/clip_16_practice_question.m4a","86","","","","","","","",""
"","correct","218","349400","0.0-216.0-0.0","null","run_exp/static/audio/clip_17_correct.m4a","null","","","","","<div class='center'><p>That's correct!</p></div>","","",""
"","html-keyboard-response","219","350220","0.0-216.0-1.0","818.5","<div class='center'><p>That's correct!</p><div><p><b>[Press the space bar to continue]</b></p></div>","32","","","","","","","",""
"","practice_q3","220","354100","0.0-216.0-2.0","3878.100000023842","run_exp/static/audio/clip_16_practice_question.m4a","66","","","","","","","",""
"","correct","221","355999","0.0-217.0-0.0","null","run_exp/static/audio/clip_17_correct.m4a","null","","","","","<div class='center'><p>That's correct!</p></div>","","",""
"","html-keyboard-response","222","356880","0.0-217.0-1.0","879","<div class='center'><p>That's correct!</p><div><p><b>[Press the space bar to continue]</b></p></div>","32","","","","","","","",""
"","repeat","223","361619","0.0-218.0-0.0","null","run_exp/static/audio/clip_21_practice_again.m4a","null","","","","","<div class='center'><p>Oops. you missed at least one of these questions. Let's try practiceing again. </p></div>","","",""
"","html-keyboard-response","224","362191","0.0-218.0-1.0","569.5999999642372","<div class='center'><p>Oops. you missed at least one of these questions. Let's try practiceing again. </p><div><p><b>[Press the space bar to continue]</b></p></div>","32","","","","","","","",""
"","practice_q1","225","365990","0.0-218.0-2.0","3797.5","run_exp/static/audio/clip_16_practice_question.m4a","78","","","","","","","",""
"","correct","226","367880","0.0-219.0-0.0","null","run_exp/static/audio/clip_17_correct.m4a","null","","","","","<div class='center'><p>That's correct!</p></div>","","",""
"","html-keyboard-response","227","372040","0.0-219.0-1.0","4158.699999988079","<div class='center'><p>That's correct!</p><div><p><b>[Press the space bar to continue]</b></p></div>","32","","","","","","","",""
"","practice_q2","228","374551","0.0-219.0-2.0","2508","run_exp/static/audio/clip_16_practice_question.m4a","86","","","","","","","",""
"","correct","229","376439","0.0-220.0-0.0","null","run_exp/static/audio/clip_17_correct.m4a","null","","","","","<div class='center'><p>That's correct!</p></div>","","",""
"","html-keyboard-response","230","377230","0.0-220.0-1.0","789","<div class='center'><p>That's correct!</p><div><p><b>[Press the space bar to continue]</b></p></div>","32","","","","","","","",""
"","practice_q3","231","378081","0.0-220.0-2.0","848.8000000119209","run_exp/static/audio/clip_16_practice_question.m4a","66","","","","","","","",""
"","correct","232","380219","0.0-221.0-0.0","null","run_exp/static/audio/clip_17_correct.m4a","null","","","","","<div class='center'><p>That's correct!</p></div>","","",""
"","html-keyboard-response","233","380901","0.0-221.0-1.0","679.1999999880791","<div class='center'><p>That's correct!</p><div><p><b>[Press the space bar to continue]</b></p></div>","32","","","","","","","",""
"","begin_text","234","395960","0.0-222.0-0.0","null","run_exp/static/audio/clip_22_begin_test.m4a","null","","","","","<div class='center'><p>Now it’s your turn. For each item, you need to indicate if the item is <b>old</b> by pressing the <b>v</b> key, <b>similar</b> by pressing the <b>b</b> key, or <b>new</b> by pressing the <b>n</b> key. </p></div>","","",""
"","html-keyboard-response","235","396361","0.0-222.0-1.0","399.19999998807907","<div class='center'><p>Now it’s your turn. For each item, you need to indicate if the item is <b>old</b> by pressing the <b>v</b> key, <b>similar</b> by pressing the <b>b</b> key, or <b>new</b> by pressing the <b>n</b> key. </p><div><p><b>[Press the space bar to continue]</b></p></div>","32","","","","","","","",""
"","image","236","398914","0.0-223.0-0.0","2551.699999988079","run_exp/static/images/Set 6_rs/052a.jpg","86","","","","","","test","TF","1"
"","show_choice","237","399424","0.0-223.0-1.0","null","run_exp/static/images/Set 6_rs/052a.jpg","null","","","","","","test","TF",""
"","html-keyboard-response","238","399940","0.0-223.0-2.0","null","<p></p>","null","","","","","","","",""
"","image","239","402031","0.0-224.0-0.0","2089","run_exp/static/images/Set 6_rs/036b.jpg","66","","","","","","test","TL","4"
"","show_choice","240","402542","0.0-224.0-1.0","null","run_exp/static/images/Set 6_rs/036b.jpg","null","","","","","","test","TL",""
"","html-keyboard-response","241","403056","0.0-224.0-2.0","null","<p></p>","null","","","","","","","",""
"","image","242","405331","0.0-225.0-0.0","2273.100000023842","run_exp/static/images/Set 6_rs/132a.jpg","86","","","","","","test","TR","5"
"","show_choice","243","405838","0.0-225.0-1.0","null","run_exp/static/images/Set 6_rs/132a.jpg","null","","","","","","test","TR",""
"","html-keyboard-response","244","406353","0.0-225.0-2.0","null","<p></p>","null","","","","","","","",""
"","image","245","408382","0.0-226.0-0.0","2026.9000000357628","run_exp/static/images/Set 6_rs/064a.jpg","86","","","","","","test","TR","5"
"","show_choice","246","408887","0.0-226.0-1.0","null","run_exp/static/images/Set 6_rs/064a.jpg","null","","","","","","test","TR",""
"","html-keyboard-response","247","409401","0.0-226.0-2.0","null","<p></p>","null","","","","","","","",""
"","image","248","410701","0.0-227.0-0.0","1298.3999999761581","run_exp/static/images/Set 6_rs/063a.jpg","86","","","","","","test","TR","2"
"","show_choice","249","411204","0.0-227.0-1.0","null","run_exp/static/images/Set 6_rs/063a.jpg","null","","","","","","test","TR",""
"","html-keyboard-response","250","411719","0.0-227.0-2.0","null","<p></p>","null","","","","","","","",""
"","image","251","413561","0.0-228.0-0.0","1839.6000000238419","run_exp/static/images/Set 6_rs/189a.jpg","78","","","","","","test","TF","5"
"","show_choice","252","414068","0.0-228.0-1.0","null","run_exp/static/images/Set 6_rs/189a.jpg","null","","","","","","test","TF",""
"","html-keyboard-response","253","414581","0.0-228.0-2.0","null","<p></p>","null","","","","","","","",""
"","image","254","416331","0.0-229.0-0.0","1747.699999988079","run_exp/static/images/Set 6_rs/133a.jpg","78","","","","","","test","TF","4"
"","show_choice","255","416848","0.0-229.0-1.0","null","run_exp/static/images/Set 6_rs/133a.jpg","null","","","","","","test","TF",""
"","html-keyboard-response","256","417358","0.0-229.0-2.0","null","<p></p>","null","","","","","","","",""
"","image","257","419821","0.0-230.0-0.0","2461.5","run_exp/static/images/Set 6_rs/075a.jpg","86","","","","","","test","TR","1"
"","show_choice","258","420327","0.0-230.0-1.0","null","run_exp/static/images/Set 6_rs/075a.jpg","null","","","","","","test","TR",""
"","html-keyboard-response","259","420843","0.0-230.0-2.0","null","<p></p>","null","","","","","","","",""
"","image","260","422200","0.0-231.0-0.0","1354.5","run_exp/static/images/Set 6_rs/067b.jpg","78","","","","","","test","TL","5"
"","show_choice","261","422710","0.0-231.0-1.0","null","run_exp/static/images/Set 6_rs/067b.jpg","null","","","","","","test","TL",""
"","html-keyboard-response","262","423222","0.0-231.0-2.0","null","<p></p>","null","","","","","","","",""
"","image","263","425880","0.0-232.0-0.0","2656.699999988079","run_exp/static/images/Set 6_rs/061a.jpg","86","","","","","","test","TR","5"
"","show_choice","264","426395","0.0-232.0-1.0","null","run_exp/static/images/Set 6_rs/061a.jpg","null","","","","","","test","TR",""
"","html-keyboard-response","265","426908","0.0-232.0-2.0","null","<p></p>","null","","","","","","","",""
"","image","266","428541","0.0-233.0-0.0","1631.2999999523163","run_exp/static/images/Set 6_rs/190a.jpg","78","","","","","","test","TF","3"
"","show_choice","267","429055","0.0-233.0-1.0","null","run_exp/static/images/Set 6_rs/190a.jpg","null","","","","","","test","TF",""
"","html-keyboard-response","268","429569","0.0-233.0-2.0","null","<p></p>","null","","","","","","","",""
"","image","269","431292","0.0-234.0-0.0","1720.4000000357628","run_exp/static/images/Set 6_rs/170a.jpg","78","","","","","","test","TF","2"
"","show_choice","270","431809","0.0-234.0-1.0","null","run_exp/static/images/Set 6_rs/170a.jpg","null","","","","","","test","TF",""
"","html-keyboard-response","271","432321","0.0-234.0-2.0","null","<p></p>","null","","","","","","","",""
"","image","272","434331","0.0-235.0-0.0","2007.300000011921","run_exp/static/images/Set 6_rs/076a.jpg","86","","","","","","test","TR","4"
"","show_choice","273","434840","0.0-235.0-1.0","null","run_exp/static/images/Set 6_rs/076a.jpg","null","","","","","","test","TR",""
"","html-keyboard-response","274","435356","0.0-235.0-2.0","null","<p></p>","null","","","","","","","",""
"","image","275","437071","0.0-236.0-0.0","1713.6000000238419","run_exp/static/images/Set 6_rs/056a.jpg","78","","","","","","test","TF","3"
"","show_choice","276","437577","0.0-236.0-1.0","null","run_exp/static/images/Set 6_rs/056a.jpg","null","","","","","","test","TF",""
"","html-keyboard-response","277","438079","0.0-236.0-2.0","null","<p></p>","null","","","","","","","",""
"","image","278","439801","0.0-237.0-0.0","1719.5","run_exp/static/images/Set 6_rs/118a.jpg","78","","","","","","test","TF","5"
"","show_choice","279","440303","0.0-237.0-1.0","null","run_exp/static/images/Set 6_rs/118a.jpg","null","","","","","","test","TF",""
"","html-keyboard-response","280","440816","0.0-237.0-2.0","null","<p></p>","null","","","","","","","",""
"","image","281","442271","0.0-238.0-0.0","1453","run_exp/static/images/Set 6_rs/023a.jpg","86","","","","","","test","TR","3"
"","show_choice","282","442780","0.0-238.0-1.0","null","run_exp/static/images/Set 6_rs/023a.jpg","null","","","","","","test","TR",""
"","html-keyboard-response","283","443291","0.0-238.0-2.0","null","<p></p>","null","","","","","","","",""
"","image","284","444751","0.0-239.0-0.0","1457.5","run_exp/static/images/Set 6_rs/166a.jpg","86","","","","","","test","TR","1"
"","show_choice","285","445266","0.0-239.0-1.0","null","run_exp/static/images/Set 6_rs/166a.jpg","null","","","","","","test","TR",""
"","html-keyboard-response","286","445781","0.0-239.0-2.0","null","<p></p>","null","","","","","","","",""
"","image","287","447782","0.0-240.0-0.0","1998.800000011921","run_exp/static/images/Set 6_rs/141a.jpg","86","","","","","","test","TR","2"
"","show_choice","288","448295","0.0-240.0-1.0","null","run_exp/static/images/Set 6_rs/141a.jpg","null","","","","","","test","TR",""
"","html-keyboard-response","289","448808","0.0-240.0-2.0","null","<p></p>","null","","","","","","","",""
"","image","290","450791","0.0-241.0-0.0","1980.800000011921","run_exp/static/images/Set 6_rs/035a.jpg","78","","","","","","test","TF","4"
"","show_choice","291","451297","0.0-241.0-1.0","null","run_exp/static/images/Set 6_rs/035a.jpg","null","","","","","","test","TF",""
"","html-keyboard-response","292","451799","0.0-241.0-2.0","null","<p></p>","null","","","","","","","",""
"","image","293","453711","0.0-242.0-0.0","1910.300000011921","run_exp/static/images/Set 6_rs/015a.jpg","78","","","","","","test","TF","4"
"","show_choice","294","454221","0.0-242.0-1.0","null","run_exp/static/images/Set 6_rs/015a.jpg","null","","","","","","test","TF",""
"","html-keyboard-response","295","454723","0.0-242.0-2.0","null","<p></p>","null","","","","","","","",""
"","image","296","456861","0.0-243.0-0.0","2136.199999988079","run_exp/static/images/Set 6_rs/086a.jpg","78","","","","","","test","TF","1"
"","show_choice","297","457375","0.0-243.0-1.0","null","run_exp/static/images/Set 6_rs/086a.jpg","null","","","","","","test","TF",""
"","html-keyboard-response","298","457886","0.0-243.0-2.0","null","<p></p>","null","","","","","","","",""
"","image","299","459561","0.0-244.0-0.0","1672.5999999642372","run_exp/static/images/Set 6_rs/105a.jpg","78","","","","","","test","TF","5"
"","show_choice","300","460074","0.0-244.0-1.0","null","run_exp/static/images/Set 6_rs/105a.jpg","null","","","","","","test","TF",""
"","html-keyboard-response","301","460584","0.0-244.0-2.0","null","<p></p>","null","","","","","","","",""
"","image","302","462341","0.0-245.0-0.0","1754.699999988079","run_exp/static/images/Set 6_rs/167b.jpg","66","","","","","","test","TL","2"
"","show_choice","303","462857","0.0-245.0-1.0","null","run_exp/static/images/Set 6_rs/167b.jpg","null","","","","","","test","TL",""
"","html-keyboard-response","304","463373","0.0-245.0-2.0","null","<p></p>","null","","","","","","","",""
"","image","305","464992","0.0-246.0-0.0","1617.0999999642372","run_exp/static/images/Set 6_rs/117b.jpg","86","","","","","","test","TL","5"
"","show_choice","306","465506","0.0-246.0-1.0","null","run_exp/static/images/Set 6_rs/117b.jpg","null","","","","","","test","TL",""
"","html-keyboard-response","307","466019","0.0-246.0-2.0","null","<p></p>","null","","","","","","","",""
"","image","308","467361","0.0-247.0-0.0","1339.9000000357628","run_exp/static/images/Set 6_rs/048a.jpg","78","","","","","","test","TF","4"
"","show_choice","309","467867","0.0-247.0-1.0","null","run_exp/static/images/Set 6_rs/048a.jpg","null","","","","","","test","TF",""
"","html-keyboard-response","310","468382","0.0-247.0-2.0","null","<p></p>","null","","","","","","","",""
"","image","311","469981","0.0-248.0-0.0","1596.5999999642372","run_exp/static/images/Set 6_rs/095b.jpg","66","","","","","","test","TL","5"
"","show_choice","312","470483","0.0-248.0-1.0","null","run_exp/static/images/Set 6_rs/095b.jpg","null","","","","","","test","TL",""
"","html-keyboard-response","313","470996","0.0-248.0-2.0","null","<p></p>","null","","","","","","","",""
"","image","314","473291","0.0-249.0-0.0","2293.7000000476837","run_exp/static/images/Set 6_rs/191b.jpg","86","","","","","","test","TL","2"
"","show_choice","315","473797","0.0-249.0-1.0","null","run_exp/static/images/Set 6_rs/191b.jpg","null","","","","","","test","TL",""
"","html-keyboard-response","316","474311","0.0-249.0-2.0","null","<p></p>","null","","","","","","","",""
"","image","317","475752","0.0-250.0-0.0","1439.5","run_exp/static/images/Set 6_rs/188a.jpg","78","","","","","","test","TF","3"
"","show_choice","318","476268","0.0-250.0-1.0","null","run_exp/static/images/Set 6_rs/188a.jpg","null","","","","","","test","TF",""
"","html-keyboard-response","319","476781","0.0-250.0-2.0","null","<p></p>","null","","","","","","","",""
"","image","320","478191","0.0-251.0-0.0","1408.5999999642372","run_exp/static/images/Set 6_rs/109a.jpg","78","","","","","","test","TF","5"
"","show_choice","321","478707","0.0-251.0-1.0","null","run_exp/static/images/Set 6_rs/109a.jpg","null","","","","","","test","TF",""
"","html-keyboard-response","322","479220","0.0-251.0-2.0","null","<p></p>","null","","","","","","","",""
"","image","323","480921","0.0-252.0-0.0","1698.5999999642372","run_exp/static/images/Set 6_rs/172a.jpg","86","","","","","","test","TR","1"
"","show_choice","324","481426","0.0-252.0-1.0","null","run_exp/static/images/Set 6_rs/172a.jpg","null","","","","","","test","TR",""
"","html-keyboard-response","325","481939","0.0-252.0-2.0","null","<p></p>","null","","","","","","","",""
"","image","326","483151","0.0-253.0-0.0","1209.4000000357628","run_exp/static/images/Set 6_rs/016b.jpg","78","","","","","","test","TL","1"
"","show_choice","327","483667","0.0-253.0-1.0","null","run_exp/static/images/Set 6_rs/016b.jpg","null","","","","","","test","TL",""
"","html-keyboard-response","328","484181","0.0-253.0-2.0","null","<p></p>","null","","","","","","","",""
"","image","329","486152","0.0-254.0-0.0","1969.300000011921","run_exp/static/images/Set 6_rs/097a.jpg","78","","","","","","test","TF","5"
"","show_choice","330","486656","0.0-254.0-1.0","null","run_exp/static/images/Set 6_rs/097a.jpg","null","","","","","","test","TF",""
"","html-keyboard-response","331","487169","0.0-254.0-2.0","null","<p></p>","null","","","","","","","",""
"","image","332","488552","0.0-255.0-0.0","1379.8999999761581","run_exp/static/images/Set 6_rs/148a.jpg","86","","","","","","test","TR","2"
"","show_choice","333","489068","0.0-255.0-1.0","null","run_exp/static/images/Set 6_rs/148a.jpg","null","","","","","","test","TR",""
"","html-keyboard-response","334","489581","0.0-255.0-2.0","null","<p></p>","null","","","","","","","",""
"","image","335","491231","0.0-256.0-0.0","1648","run_exp/static/images/Set 6_rs/028a.jpg","78","","","","","","test","TF","1"
"","show_choice","336","491744","0.0-256.0-1.0","null","run_exp/static/images/Set 6_rs/028a.jpg","null","","","","","","test","TF",""
"","html-keyboard-response","337","492259","0.0-256.0-2.0","null","<p></p>","null","","","","","","","",""
"","image","338","493251","0.0-257.0-0.0","990.8000000119209","run_exp/static/images/Set 6_rs/126a.jpg","86","","","","","","test","TR","2"
"","show_choice","339","493767","0.0-257.0-1.0","null","run_exp/static/images/Set 6_rs/126a.jpg","null","","","","","","test","TR",""
"","html-keyboard-response","340","494283","0.0-257.0-2.0","null","<p></p>","null","","","","","","","",""
"","image","341","495202","0.0-258.0-0.0","917.3000000119209","run_exp/static/images/Set 6_rs/187a.jpg","86","","","","","","test","TR","3"
"","show_choice","342","495713","0.0-258.0-1.0","null","run_exp/static/images/Set 6_rs/187a.jpg","null","","","","","","test","TR",""
"","html-keyboard-response","343","496227","0.0-258.0-2.0","null","<p></p>","null","","","","","","","",""
"","image","344","497773","0.0-259.0-0.0","1542.3999999761581","run_exp/static/images/Set 6_rs/178a.jpg","86","","","","","","test","TR","3"
"","show_choice","345","498279","0.0-259.0-1.0","null","run_exp/static/images/Set 6_rs/178a.jpg","null","","","","","","test","TR",""
"","html-keyboard-response","346","498792","0.0-259.0-2.0","null","<p></p>","null","","","","","","","",""
"","image","347","500152","0.0-260.0-0.0","1358","run_exp/static/images/Set 6_rs/022a.jpg","78","","","","","","test","TF","4"
"","show_choice","348","500663","0.0-260.0-1.0","null","run_exp/static/images/Set 6_rs/022a.jpg","null","","","","","","test","TF",""
"","html-keyboard-response","349","501177","0.0-260.0-2.0","null","<p></p>","null","","","","","","","",""
"","image","350","502551","0.0-261.0-0.0","1372.199999988079","run_exp/static/images/Set 6_rs/134a.jpg","86","","","","","","test","TR","3"
"","show_choice","351","503056","0.0-261.0-1.0","null","run_exp/static/images/Set 6_rs/134a.jpg","null","","","","","","test","TR",""
"","html-keyboard-response","352","503568","0.0-261.0-2.0","null","<p></p>","null","","","","","","","",""
"","image","353","504953","0.0-262.0-0.0","1382.5999999642372","run_exp/static/images/Set 6_rs/074b.jpg","86","","","","","","test","TL","4"
"","show_choice","354","505469","0.0-262.0-1.0","null","run_exp/static/images/Set 6_rs/074b.jpg","null","","","","","","test","TL",""
"","html-keyboard-response","355","505986","0.0-262.0-2.0","null","<p></p>","null","","","","","","","",""
"","image","356","507471","0.0-263.0-0.0","1482.8999999761581","run_exp/static/images/Set 6_rs/021a.jpg","78","","","","","","test","TF","2"
"","show_choice","357","507977","0.0-263.0-1.0","null","run_exp/static/images/Set 6_rs/021a.jpg","null","","","","","","test","TF",""
"","html-keyboard-response","358","508489","0.0-263.0-2.0","null","<p></p>","null","","","","","","","",""
"","image","359","510273","0.0-264.0-0.0","1782.5","run_exp/static/images/Set 6_rs/088a.jpg","86","","","","","","test","TR","2"
"","show_choice","360","510775","0.0-264.0-1.0","null","run_exp/static/images/Set 6_rs/088a.jpg","null","","","","","","test","TR",""
"","html-keyboard-response","361","511279","0.0-264.0-2.0","null","<p></p>","null","","","","","","","",""
"","image","362","512261","0.0-265.0-0.0","980.1000000238419","run_exp/static/images/Set 6_rs/078a.jpg","78","","","","","","test","TF","1"
"","show_choice","363","512776","0.0-265.0-1.0","null","run_exp/static/images/Set 6_rs/078a.jpg","null","","","","","","test","TF",""
"","html-keyboard-response","364","513288","0.0-265.0-2.0","null","<p></p>","null","","","","","","","",""
"","image","365","514962","0.0-266.0-0.0","1671.7000000476837","run_exp/static/images/Set 6_rs/010a.jpg","86","","","","","","test","TR","5"
"","show_choice","366","515464","0.0-266.0-1.0","null","run_exp/static/images/Set 6_rs/010a.jpg","null","","","","","","test","TR",""
"","html-keyboard-response","367","515978","0.0-266.0-2.0","null","<p></p>","null","","","","","","","",""
"","image","368","518072","0.0-267.0-0.0","2091.100000023842","run_exp/static/images/Set 6_rs/065a.jpg","66","","","","","","test","TF","3"
"","show_choice","369","518574","0.0-267.0-1.0","null","run_exp/static/images/Set 6_rs/065a.jpg","null","","","","","","test","TF",""
"","html-keyboard-response","370","519085","0.0-267.0-2.0","null","<p></p>","null","","","","","","","",""
"","image","371","520332","0.0-268.0-0.0","1245.199999988079","run_exp/static/images/Set 6_rs/006b.jpg","86","","","","","","test","TL","2"
"","show_choice","372","520839","0.0-268.0-1.0","null","run_exp/static/images/Set 6_rs/006b.jpg","null","","","","","","test","TL",""
"","html-keyboard-response","373","521353","0.0-268.0-2.0","null","<p></p>","null","","","","","","","",""
"","image","374","522172","0.0-269.0-0.0","817.5","run_exp/static/images/Set 6_rs/024a.jpg","86","","","","","","test","TR","5"
"","show_choice","375","522678","0.0-269.0-1.0","null","run_exp/static/images/Set 6_rs/024a.jpg","null","","","","","","test","TR",""
"","html-keyboard-response","376","523192","0.0-269.0-2.0","null","<p></p>","null","","","","","","","",""
"","image","377","524562","0.0-270.0-0.0","1368.1000000238419","run_exp/static/images/Set 6_rs/131a.jpg","86","","","","","","test","TR","5"
"","show_choice","378","525074","0.0-270.0-1.0","null","run_exp/static/images/Set 6_rs/131a.jpg","null","","","","","","test","TR",""
"","html-keyboard-response","379","525588","0.0-270.0-2.0","null","<p></p>","null","","","","","","","",""
"","image","380","526582","0.0-271.0-0.0","991.1999999880791","run_exp/static/images/Set 6_rs/045a.jpg","86","","","","","","test","TR","2"
"","show_choice","381","527098","0.0-271.0-1.0","null","run_exp/static/images/Set 6_rs/045a.jpg","null","","","","","","test","TR",""
"","html-keyboard-response","382","527611","0.0-271.0-2.0","null","<p></p>","null","","","","","","","",""
"","image","383","529521","0.0-272.0-0.0","1908.3999999761581","run_exp/static/images/Set 6_rs/055b.jpg","66","","","","","","test","TL","4"
"","show_choice","384","530025","0.0-272.0-1.0","null","run_exp/static/images/Set 6_rs/055b.jpg","null","","","","","","test","TL",""
"","html-keyboard-response","385","530538","0.0-272.0-2.0","null","<p></p>","null","","","","","","","",""
"","image","386","531863","0.0-273.0-0.0","1322.800000011921","run_exp/static/images/Set 6_rs/047a.jpg","78","","","","","","test","TF","3"
"","show_choice","387","532372","0.0-273.0-1.0","null","run_exp/static/images/Set 6_rs/047a.jpg","null","","","","","","test","TF",""
"","html-keyboard-response","388","532885","0.0-273.0-2.0","null","<p></p>","null","","","","","","","",""
"","image","389","534362","0.0-274.0-0.0","1474.5","run_exp/static/images/Set 6_rs/149a.jpg","78","","","","","","test","TF","1"
"","show_choice","390","534874","0.0-274.0-1.0","null","run_exp/static/images/Set 6_rs/149a.jpg","null","","","","","","test","TF",""
"","html-keyboard-response","391","535388","0.0-274.0-2.0","null","<p></p>","null","","","","","","","",""
"","image","392","537942","0.0-275.0-0.0","2552.399999976158","run_exp/static/images/Set 6_rs/123b.jpg","86","","","","","","test","TL","2"
"","show_choice","393","538449","0.0-275.0-1.0","null","run_exp/static/images/Set 6_rs/123b.jpg","null","","","","","","test","TL",""
"","html-keyboard-response","394","538965","0.0-275.0-2.0","null","<p></p>","null","","","","","","","",""
"","image","395","540212","0.0-276.0-0.0","1245.699999988079","run_exp/static/images/Set 6_rs/057b.jpg","86","","","","","","test","TL","1"
"","show_choice","396","540717","0.0-276.0-1.0","null","run_exp/static/images/Set 6_rs/057b.jpg","null","","","","","","test","TL",""
"","html-keyboard-response","397","541228","0.0-276.0-2.0","null","<p></p>","null","","","","","","","",""
"","image","398","542643","0.0-277.0-0.0","1413.1000000238419","run_exp/static/images/Set 6_rs/140a.jpg","78","","","","","","test","TF","1"
"","show_choice","399","543151","0.0-277.0-1.0","null","run_exp/static/images/Set 6_rs/140a.jpg","null","","","","","","test","TF",""
"","html-keyboard-response","400","543653","0.0-277.0-2.0","null","<p></p>","null","","","","","","","",""
"","image","401","545192","0.0-278.0-0.0","1537.5","run_exp/static/images/Set 6_rs/177a.jpg","86","","","","","","test","TR","5"
"","show_choice","402","545704","0.0-278.0-1.0","null","run_exp/static/images/Set 6_rs/177a.jpg","null","","","","","","test","TR",""
"","html-keyboard-response","403","546217","0.0-278.0-2.0","null","<p></p>","null","","","","","","","",""
"","image","404","547403","0.0-279.0-0.0","1183.300000011921","run_exp/static/images/Set 6_rs/121a.jpg","86","","","","","","test","TR","4"
"","show_choice","405","547915","0.0-279.0-1.0","null","run_exp/static/images/Set 6_rs/121a.jpg","null","","","","","","test","TR",""
"","html-keyboard-response","406","548429","0.0-279.0-2.0","null","<p></p>","null","","","","","","","",""
"","image","407","550792","0.0-280.0-0.0","2360.800000011921","run_exp/static/images/Set 6_rs/073b.jpg","66","","","","","","test","TL","3"
"","show_choice","408","551294","0.0-280.0-1.0","null","run_exp/static/images/Set 6_rs/073b.jpg","null","","","","","","test","TL",""
"","html-keyboard-response","409","551807","0.0-280.0-2.0","null","<p></p>","null","","","","","","","",""
"","image","410","553543","0.0-281.0-0.0","1735.1000000238419","run_exp/static/images/Set 6_rs/085b.jpg","86","","","","","","test","TL","1"
"","show_choice","411","554059","0.0-281.0-1.0","null","run_exp/static/images/Set 6_rs/085b.jpg","null","","","","","","test","TL",""
"","html-keyboard-response","412","554572","0.0-281.0-2.0","null","<p></p>","null","","","","","","","",""
"","image","413","555502","0.0-282.0-0.0","928.0999999642372","run_exp/static/images/Set 6_rs/012a.jpg","86","","","","","","test","TR","1"
"","show_choice","414","556006","0.0-282.0-1.0","null","run_exp/static/images/Set 6_rs/012a.jpg","null","","","","","","test","TR",""
"","html-keyboard-response","415","556522","0.0-282.0-2.0","null","<p></p>","null","","","","","","","",""
"","image","416","557812","0.0-283.0-0.0","1288.5999999642372","run_exp/static/images/Set 6_rs/155a.jpg","78","","","","","","test","TF","4"
"","show_choice","417","558328","0.0-283.0-1.0","null","run_exp/static/images/Set 6_rs/155a.jpg","null","","","","","","test","TF",""
"","html-keyboard-response","418","558843","0.0-283.0-2.0","null","<p></p>","null","","","","","","","",""
"","image","419","560853","0.0-284.0-0.0","2007.699999988079","run_exp/static/images/Set 6_rs/011a.jpg","78","","","","","","test","TF","3"
"","show_choice","420","561364","0.0-284.0-1.0","null","run_exp/static/images/Set 6_rs/011a.jpg","null","","","","","","test","TF",""
"","html-keyboard-response","421","561877","0.0-284.0-2.0","null","<p></p>","null","","","","","","","",""
"","image","422","563082","0.0-285.0-0.0","1203.0999999642372","run_exp/static/images/Set 6_rs/176a.jpg","78","","","","","","test","TF","4"
"","show_choice","423","563586","0.0-285.0-1.0","null","run_exp/static/images/Set 6_rs/176a.jpg","null","","","","","","test","TF",""
"","html-keyboard-response","424","564096","0.0-285.0-2.0","null","<p></p>","null","","","","","","","",""
"","image","425","565063","0.0-286.0-0.0","964.8000000119209","run_exp/static/images/Set 6_rs/077a.jpg","78","","","","","","test","TF","3"
"","show_choice","426","565576","0.0-286.0-1.0","null","run_exp/static/images/Set 6_rs/077a.jpg","null","","","","","","test","TF",""
"","html-keyboard-response","427","566086","0.0-286.0-2.0","null","<p></p>","null","","","","","","","",""
"","image","428","566872","0.0-287.0-0.0","784","run_exp/static/images/Set 6_rs/112a.jpg","86","","","","","","test","TR","5"
"","show_choice","429","567375","0.0-287.0-1.0","null","run_exp/static/images/Set 6_rs/112a.jpg","null","","","","","","test","TR",""
"","html-keyboard-response","430","567887","0.0-287.0-2.0","null","<p></p>","null","","","","","","","",""
"","image","431","569292","0.0-288.0-0.0","1402.9000000357628","run_exp/static/images/Set 6_rs/168b.jpg","78","","","","","","test","TL","3"
"","show_choice","432","569796","0.0-288.0-1.0","null","run_exp/static/images/Set 6_rs/168b.jpg","null","","","","","","test","TL",""
"","html-keyboard-response","433","570308","0.0-288.0-2.0","null","<p></p>","null","","","","","","","",""
"","image","434","571332","0.0-289.0-0.0","1021.8999999761581","run_exp/static/images/Set 6_rs/108a.jpg","86","","","","","","test","TR","5"
"","show_choice","435","571848","0.0-289.0-1.0","null","run_exp/static/images/Set 6_rs/108a.jpg","null","","","","","","test","TR",""
"","html-keyboard-response","436","572360","0.0-289.0-2.0","null","<p></p>","null","","","","","","","",""
"","image","437","573742","0.0-290.0-0.0","1380.4000000357628","run_exp/static/images/Set 6_rs/001a.jpg","78","","","","","","test","TF","1"
"","show_choice","438","574258","0.0-290.0-1.0","null","run_exp/static/images/Set 6_rs/001a.jpg","null","","","","","","test","TF",""
"","html-keyboard-response","439","574768","0.0-290.0-2.0","null","<p></p>","null","","","","","","","",""
"","image","440","576884","0.0-291.0-0.0","2113.5","run_exp/static/images/Set 6_rs/019b.jpg","86","","","","","","test","TL","2"
"","show_choice","441","577396","0.0-291.0-1.0","null","run_exp/static/images/Set 6_rs/019b.jpg","null","","","","","","test","TL",""
"","html-keyboard-response","442","577909","0.0-291.0-2.0","null","<p></p>","null","","","","","","","",""
"","image","443","579213","0.0-292.0-0.0","1301.7000000476837","run_exp/static/images/Set 6_rs/071b.jpg","86","","","","","","test","TL","4"
"","show_choice","444","579715","0.0-292.0-1.0","null","run_exp/static/images/Set 6_rs/071b.jpg","null","","","","","","test","TL",""
"","html-keyboard-response","445","580228","0.0-292.0-2.0","null","<p></p>","null","","","","","","","",""
"","image","446","581153","0.0-293.0-0.0","922.6999999880791","run_exp/static/images/Set 6_rs/152a.jpg","86","","","","","","test","TR","2"
"","show_choice","447","581659","0.0-293.0-1.0","null","run_exp/static/images/Set 6_rs/152a.jpg","null","","","","","","test","TR",""
"","html-keyboard-response","448","582172","0.0-293.0-2.0","null","<p></p>","null","","","","","","","",""
"","image","449","583832","0.0-294.0-0.0","1658.6000000238419","run_exp/static/images/Set 6_rs/116b.jpg","66","","","","","","test","TL","2"
"","show_choice","450","584344","0.0-294.0-1.0","null","run_exp/static/images/Set 6_rs/116b.jpg","null","","","","","","test","TL",""
"","html-keyboard-response","451","584858","0.0-294.0-2.0","null","<p></p>","null","","","","","","","",""
"","image","452","585762","0.0-295.0-0.0","901.8000000119209","run_exp/static/images/Set 6_rs/171a.jpg","78","","","","","","test","TF","1"
"","show_choice","453","586270","0.0-295.0-1.0","null","run_exp/static/images/Set 6_rs/171a.jpg","null","","","","","","test","TF",""
"","html-keyboard-response","454","586785","0.0-295.0-2.0","null","<p></p>","null","","","","","","","",""
"","image","455","587945","0.0-296.0-0.0","1158.5","run_exp/static/images/Set 6_rs/017b.jpg","86","","","","","","test","TL","3"
"","show_choice","456","588451","0.0-296.0-1.0","null","run_exp/static/images/Set 6_rs/017b.jpg","null","","","","","","test","TL",""
"","html-keyboard-response","457","588962","0.0-296.0-2.0","null","<p></p>","null","","","","","","","",""
"","image","458","591262","0.0-297.0-0.0","2297.599999964237","run_exp/static/images/Set 6_rs/138b.jpg","66","","","","","","test","TL","1"
"","show_choice","459","591777","0.0-297.0-1.0","null","run_exp/static/images/Set 6_rs/138b.jpg","null","","","","","","test","TL",""
"","html-keyboard-response","460","592288","0.0-297.0-2.0","null","<p></p>","null","","","","","","","",""
"","image","461","593713","0.0-298.0-0.0","1423","run_exp/static/images/Set 6_rs/144b.jpg","78","","","","","","test","TL","4"
"","show_choice","462","594215","0.0-298.0-1.0","null","run_exp/static/images/Set 6_rs/144b.jpg","null","","","","","","test","TL",""
"","html-keyboard-response","463","594731","0.0-298.0-2.0","null","<p></p>","null","","","","","","","",""
"","image","464","596843","0.0-299.0-0.0","2110.400000035763","run_exp/static/images/Set 6_rs/060b.jpg","86","","","","","","test","TL","3"
"","show_choice","465","597352","0.0-299.0-1.0","null","run_exp/static/images/Set 6_rs/060b.jpg","null","","","","","","test","TL",""
"","html-keyboard-response","466","597854","0.0-299.0-2.0","null","<p></p>","null","","","","","","","",""
"","image","467","598713","0.0-300.0-0.0","857.3000000119209","run_exp/static/images/Set 6_rs/129b.jpg","86","","","","","","test","TL","1"
"","show_choice","468","599218","0.0-300.0-1.0","null","run_exp/static/images/Set 6_rs/129b.jpg","null","","","","","","test","TL",""
"","html-keyboard-response","469","599731","0.0-300.0-2.0","null","<p></p>","null","","","","","","","",""
"","image","470","601253","0.0-301.0-0.0","1519.3999999761581","run_exp/static/images/Set 6_rs/007a.jpg","86","","","","","","test","TR","3"
"","show_choice","471","601769","0.0-301.0-1.0","null","run_exp/static/images/Set 6_rs/007a.jpg","null","","","","","","test","TR",""
"","html-keyboard-response","472","602281","0.0-301.0-2.0","null","<p></p>","null","","","","","","","",""
"","image","473","603422","0.0-302.0-0.0","1138.9000000357628","run_exp/static/images/Set 6_rs/150a.jpg","86","","","","","","test","TR","1"
"","show_choice","474","603931","0.0-302.0-1.0","null","run_exp/static/images/Set 6_rs/150a.jpg","null","","","","","","test","TR",""
"","html-keyboard-response","475","604441","0.0-302.0-2.0","null","<p></p>","null","","","","","","","",""
"","image","476","606272","0.0-303.0-0.0","1829.5","run_exp/static/images/Set 6_rs/111b.jpg","66","","","","","","test","TL","3"
"","show_choice","477","606788","0.0-303.0-1.0","null","run_exp/static/images/Set 6_rs/111b.jpg","null","","","","","","test","TL",""
"","html-keyboard-response","478","607302","0.0-303.0-2.0","null","<p></p>","null","","","","","","","",""
"","image","479","608933","0.0-304.0-0.0","1630.0999999642372","run_exp/static/images/Set 6_rs/091b.jpg","78","","","","","","test","TL","3"
"","show_choice","480","609449","0.0-304.0-1.0","null","run_exp/static/images/Set 6_rs/091b.jpg","null","","","","","","test","TL",""
"","html-keyboard-response","481","609962","0.0-304.0-2.0","null","<p></p>","null","","","","","","","",""
"","image","482","611372","0.0-305.0-0.0","1408","run_exp/static/images/Set 6_rs/136a.jpg","78","","","","","","test","TF","4"
"","show_choice","483","611875","0.0-305.0-1.0","null","run_exp/static/images/Set 6_rs/136a.jpg","null","","","","","","test","TF",""
"","html-keyboard-response","484","612388","0.0-305.0-2.0","null","<p></p>","null","","","","","","","",""
"","image","485","614092","0.0-306.0-0.0","1702.300000011921","run_exp/static/images/Set 6_rs/154a.jpg","86","","","","","","test","TR","3"
"","show_choice","486","614606","0.0-306.0-1.0","null","run_exp/static/images/Set 6_rs/154a.jpg","null","","","","","","test","TR",""
"","html-keyboard-response","487","615117","0.0-306.0-2.0","null","<p></p>","null","","","","","","","",""
"","image","488","616393","0.0-307.0-0.0","1273.7999999523163","run_exp/static/images/Set 6_rs/062b.jpg","86","","","","","","test","TL","1"
"","show_choice","489","616905","0.0-307.0-1.0","null","run_exp/static/images/Set 6_rs/062b.jpg","null","","","","","","test","TL",""
"","html-keyboard-response","490","617416","0.0-307.0-2.0","null","<p></p>","null","","","","","","","",""
"","image","491","619703","0.0-308.0-0.0","2285.600000023842","run_exp/static/images/Set 6_rs/169a.jpg","86","","","","","","test","TR","4"
"","show_choice","492","620220","0.0-308.0-1.0","null","run_exp/static/images/Set 6_rs/169a.jpg","null","","","","","","test","TR",""
"","html-keyboard-response","493","620733","0.0-308.0-2.0","null","<p></p>","null","","","","","","","",""
"","image","494","621824","0.0-309.0-0.0","1089.1000000238419","run_exp/static/images/Set 6_rs/186a.jpg","78","","","","","","test","TR","5"
"","show_choice","495","622333","0.0-309.0-1.0","null","run_exp/static/images/Set 6_rs/186a.jpg","null","","","","","","test","TR",""
"","html-keyboard-response","496","622845","0.0-309.0-2.0","null","<p></p>","null","","","","","","","",""
"","image","497","623973","0.0-310.0-0.0","1125.3999999761581","run_exp/static/images/Set 6_rs/025b.jpg","86","","","","","","test","TL","5"
"","show_choice","498","624477","0.0-310.0-1.0","null","run_exp/static/images/Set 6_rs/025b.jpg","null","","","","","","test","TL",""
"","html-keyboard-response","499","624991","0.0-310.0-2.0","null","<p></p>","null","","","","","","","",""
"","image","500","626073","0.0-311.0-0.0","1080","run_exp/static/images/Set 6_rs/181b.jpg","86","","","","","","test","TL","1"
"","show_choice","501","626575","0.0-311.0-1.0","null","run_exp/static/images/Set 6_rs/181b.jpg","null","","","","","","test","TL",""
"","html-keyboard-response","502","627086","0.0-311.0-2.0","null","<p></p>","null","","","","","","","",""
"","image","503","629313","0.0-312.0-0.0","2225.5","run_exp/static/images/Set 6_rs/090a.jpg","78","","","","","","test","TF","5"
"","show_choice","504","629825","0.0-312.0-1.0","null","run_exp/static/images/Set 6_rs/090a.jpg","null","","","","","","test","TF",""
"","html-keyboard-response","505","630338","0.0-312.0-2.0","null","<p></p>","null","","","","","","","",""
"","image","506","631563","0.0-313.0-0.0","1223.8999999761581","run_exp/static/images/Set 6_rs/100a.jpg","78","","","","","","test","TF","2"
"","show_choice","507","632067","0.0-313.0-1.0","null","run_exp/static/images/Set 6_rs/100a.jpg","null","","","","","","test","TF",""
"","html-keyboard-response","508","632578","0.0-313.0-2.0","null","<p></p>","null","","","","","","","",""
"","image","509","633552","0.0-314.0-0.0","972.0999999642372","run_exp/static/images/Set 6_rs/122a.jpg","86","","","","","","test","TR","5"
"","show_choice","510","634056","0.0-314.0-1.0","null","run_exp/static/images/Set 6_rs/122a.jpg","null","","","","","","test","TR",""
"","html-keyboard-response","511","634566","0.0-314.0-2.0","null","<p></p>","null","","","","","","","",""
"","image","512","636012","0.0-315.0-0.0","1444.5","run_exp/static/images/Set 6_rs/079b.jpg","78","","","","","","test","TL","5"
"","show_choice","513","636521","0.0-315.0-1.0","null","run_exp/static/images/Set 6_rs/079b.jpg","null","","","","","","test","TL",""
"","html-keyboard-response","514","637034","0.0-315.0-2.0","null","<p></p>","null","","","","","","","",""
"","image","515","639232","0.0-316.0-0.0","2196.899999976158","run_exp/static/images/Set 6_rs/066b.jpg","78","","","","","","test","TL","5"
"","show_choice","516","639747","0.0-316.0-1.0","null","run_exp/static/images/Set 6_rs/066b.jpg","null","","","","","","test","TL",""
"","html-keyboard-response","517","640261","0.0-316.0-2.0","null","<p></p>","null","","","","","","","",""
"","image","518","642124","0.0-317.0-0.0","1860.300000011921","run_exp/static/images/Set 6_rs/008b.jpg","66","","","","","","test","TL","2"
"","show_choice","519","642639","0.0-317.0-1.0","null","run_exp/static/images/Set 6_rs/008b.jpg","null","","","","","","test","TL",""
"","html-keyboard-response","520","643141","0.0-317.0-2.0","null","<p></p>","null","","","","","","","",""
"","image","521","644234","0.0-318.0-0.0","1091.5","run_exp/static/images/Set 6_rs/089b.jpg","66","","","","","","test","TL","4"
"","show_choice","522","644745","0.0-318.0-1.0","null","run_exp/static/images/Set 6_rs/089b.jpg","null","","","","","","test","TL",""
"","html-keyboard-response","523","645258","0.0-318.0-2.0","null","<p></p>","null","","","","","","","",""
"","all_done","524","652614","0.0-319.0-0.0","null","run_exp/static/audio/clip_23_all_done.m4a","null","","","","","<div class='center'><p>You are finished with all three parts of the experiment! You can press the space bar to end the game now. </p></div>","","",""
"","html-keyboard-response","525","652964","0.0-319.0-1.0","348.0999999642372","<div class='center'><p>You are finished with all three parts of the experiment! You can press the space bar to end the game now. </p><div><p><b>[Press the space bar to continue]</b></p></div>","32","","","","","","","",""
