"success","trial_type","trial_index","time_elapsed","internal_node_id","interactions","blur_events","focus_events","fullscreenenter_events","fullscreenexit_events","rt","stimulus","key_press","subject_id","participant_id","age","gender","prompt","phase","condition","lure_bin"
"true","fullscreen","0","4178","0.0-0.0","""event"",""trial"",""time""
""fullscreenenter"",""0"",""3335""
","
","
","""event"",""trial"",""time""
""fullscreenenter"",""0"",""3335""
","
","","","","","","","","","","",""
"","pavlovia","1","4183","0.0-1.0","""event"",""trial"",""time""
""fullscreenenter"",""0"",""3335""
","
","
","""event"",""trial"",""time""
""fullscreenenter"",""0"",""3335""
","
","","","","","","","","","","",""
"","welcome","2","39067","0.0-2.0","""event"",""trial"",""time""
""fullscreenenter"",""0"",""3335""
","
","
","""event"",""trial"",""time""
""fullscreenenter"",""0"",""3335""
","
","null","run_exp/static/audio/clip_1_welcome.m4a","null","677","659","13","Male","<div class='center'><p>Welcome to the third part of the study! First, you'll be shown pictures of items one at a time. For each picture, you have to decide if the item is typically found indoors or outdoors.</p><p>If you think it's usually found indoors, then press <b>v</b> key on your keyboard. If you think it's usually found outdoors, then press the <b>n</b> key.There will be reminders on the screen to help you remember which keys to press. </p><p>If you're not sure whether the item is an indoor item or an outdoor item, go ahead and take a guess but try your best not to skip that choice. </p></div>","","",""
"","html-keyboard-response","3","40560","0.0-3.0","""event"",""trial"",""time""
""fullscreenenter"",""0"",""3335""
","
","
","""event"",""trial"",""time""
""fullscreenenter"",""0"",""3335""
","
","1489.0999999940395","<div class='center'><p>Welcome to the third part of the study! First, you'll be shown pictures of items one at a time. For each picture, you have to decide if the item is typically found indoors or outdoors.</p><p>If you think it's usually found indoors, then press <b>v</b> key on your keyboard. If you think it's usually found outdoors, then press the <b>n</b> key.There will be reminders on the screen to help you remember which keys to press. </p><p>If you're not sure whether the item is an indoor item or an outdoor item, go ahead and take a guess but try your best not to skip that choice. </p><div><p><b>[Press the space bar to continue]</b></p></div>","32","","","","","","","",""
"","image","4","42565","0.0-4.0","""event"",""trial"",""time""
""fullscreenenter"",""0"",""3335""
","
","
","""event"",""trial"",""time""
""fullscreenenter"",""0"",""3335""
","
","null","run_exp/static/images/Set 6_rs/126a.jpg","null","","","","","","learn","SR",""
"","show_choice","5","44567","0.0-5.0","""event"",""trial"",""time""
""fullscreenenter"",""0"",""3335""
","
","
","""event"",""trial"",""time""
""fullscreenenter"",""0"",""3335""
","
","null","run_exp/static/images/blank.png","null","","","","","","learn","SR",""
"","html-keyboard-response","6","45070","0.0-6.0","""event"",""trial"",""time""
""fullscreenenter"",""0"",""3335""
","
","
","""event"",""trial"",""time""
""fullscreenenter"",""0"",""3335""
","
","null","<p></p>","null","","","","","","","",""
"","image","7","47077","0.0-7.0","""event"",""trial"",""time""
""fullscreenenter"",""0"",""3335""
","
","
","""event"",""trial"",""time""
""fullscreenenter"",""0"",""3335""
","
","null","run_exp/static/images/Set 6_rs/111a.jpg","null","","","","","","learn","SL",""
"","show_choice","8","49079","0.0-8.0","""event"",""trial"",""time""
""fullscreenenter"",""0"",""3335""
","
","
","""event"",""trial"",""time""
""fullscreenenter"",""0"",""3335""
","
","null","run_exp/static/images/blank.png","null","","","","","","learn","SL",""
"","html-keyboard-response","9","49581","0.0-9.0","""event"",""trial"",""time""
""fullscreenenter"",""0"",""3335""
","
","
","""event"",""trial"",""time""
""fullscreenenter"",""0"",""3335""
","
","null","<p></p>","null","","","","","","","",""
"","image","10","50883","0.0-10.0","""event"",""trial"",""time""
""fullscreenenter"",""0"",""3335""
","
","
","""event"",""trial"",""time""
""fullscreenenter"",""0"",""3335""
","
","1300.800000011921","run_exp/static/images/Set 6_rs/178a.jpg","78","","","","","","learn","SR",""
"","show_choice","11","51585","0.0-11.0","""event"",""trial"",""time""
""fullscreenenter"",""0"",""3335""
","
","
","""event"",""trial"",""time""
""fullscreenenter"",""0"",""3335""
","
","null","run_exp/static/images/Set 6_rs/178a.jpg","null","","","","","","learn","SR",""
"","html-keyboard-response","12","52086","0.0-12.0","""event"",""trial"",""time""
""fullscreenenter"",""0"",""3335""
","
","
","""event"",""trial"",""time""
""fullscreenenter"",""0"",""3335""
","
","null","<p></p>","null","","","","","","","",""
"","image","13","53172","0.0-13.0","""event"",""trial"",""time""
""fullscreenenter"",""0"",""3335""
","
","
","""event"",""trial"",""time""
""fullscreenenter"",""0"",""3335""
","
","1084.0999999940395","run_exp/static/images/Set 6_rs/134a.jpg","86","","","","","","learn","SR",""
"","show_choice","14","54091","0.0-14.0","""event"",""trial"",""time""
""fullscreenenter"",""0"",""3335""
","
","
","""event"",""trial"",""time""
""fullscreenenter"",""0"",""3335""
","
","null","run_exp/static/images/Set 6_rs/134a.jpg","null","","","","","","learn","SR",""
"","html-keyboard-response","15","54592","0.0-15.0","""event"",""trial"",""time""
""fullscreenenter"",""0"",""3335""
","
","
","""event"",""trial"",""time""
""fullscreenenter"",""0"",""3335""
","
","null","<p></p>","null","","","","","","","",""
"","image","16","55425","0.0-16.0","""event"",""trial"",""time""
""fullscreenenter"",""0"",""3335""
","
","
","""event"",""trial"",""time""
""fullscreenenter"",""0"",""3335""
","
","831.2000000029802","run_exp/static/images/Set 6_rs/071a.jpg","78","","","","","","learn","SL",""
"","show_choice","17","56597","0.0-17.0","""event"",""trial"",""time""
""fullscreenenter"",""0"",""3335""
","
","
","""event"",""trial"",""time""
""fullscreenenter"",""0"",""3335""
","
","null","run_exp/static/images/Set 6_rs/071a.jpg","null","","","","","","learn","SL",""
"","html-keyboard-response","18","57102","0.0-18.0","""event"",""trial"",""time""
""fullscreenenter"",""0"",""3335""
","
","
","""event"",""trial"",""time""
""fullscreenenter"",""0"",""3335""
","
","null","<p></p>","null","","","","","","","",""
"","image","19","59047","0.0-19.0","""event"",""trial"",""time""
""fullscreenenter"",""0"",""3335""
","
","
","""event"",""trial"",""time""
""fullscreenenter"",""0"",""3335""
","
","1943.300000011921","run_exp/static/images/Set 6_rs/131a.jpg","86","","","","","","learn","SR",""
"","show_choice","20","59105","0.0-20.0","""event"",""trial"",""time""
""fullscreenenter"",""0"",""3335""
","
","
","""event"",""trial"",""time""
""fullscreenenter"",""0"",""3335""
","
","null","run_exp/static/images/Set 6_rs/131a.jpg","null","","","","","","learn","SR",""
"","html-keyboard-response","21","59610","0.0-21.0","""event"",""trial"",""time""
""fullscreenenter"",""0"",""3335""
","
","
","""event"",""trial"",""time""
""fullscreenenter"",""0"",""3335""
","
","null","<p></p>","null","","","","","","","",""
"","image","22","60763","0.0-22.0","""event"",""trial"",""time""
""fullscreenenter"",""0"",""3335""
","
","
","""event"",""trial"",""time""
""fullscreenenter"",""0"",""3335""
","
","1151.6000000089407","run_exp/static/images/Set 6_rs/152a.jpg","78","","","","","","learn","SR",""
"","show_choice","23","61613","0.0-23.0","""event"",""trial"",""time""
""fullscreenenter"",""0"",""3335""
","
","
","""event"",""trial"",""time""
""fullscreenenter"",""0"",""3335""
","
","null","run_exp/static/images/Set 6_rs/152a.jpg","null","","","","","","learn","SR",""
"","html-keyboard-response","24","62115","0.0-24.0","""event"",""trial"",""time""
""fullscreenenter"",""0"",""3335""
","
","
","""event"",""trial"",""time""
""fullscreenenter"",""0"",""3335""
","
","null","<p></p>","null","","","","","","","",""
"","image","25","63322","0.0-25.0","""event"",""trial"",""time""
""fullscreenenter"",""0"",""3335""
","
","
","""event"",""trial"",""time""
""fullscreenenter"",""0"",""3335""
","
","1205.2000000029802","run_exp/static/images/Set 6_rs/057a.jpg","86","","","","","","learn","SL",""
"","show_choice","26","64117","0.0-26.0","""event"",""trial"",""time""
""fullscreenenter"",""0"",""3335""
","
","
","""event"",""trial"",""time""
""fullscreenenter"",""0"",""3335""
","
","null","run_exp/static/images/Set 6_rs/057a.jpg","null","","","","","","learn","SL",""
"","html-keyboard-response","27","64619","0.0-27.0","""event"",""trial"",""time""
""fullscreenenter"",""0"",""3335""
","
","
","""event"",""trial"",""time""
""fullscreenenter"",""0"",""3335""
","
","null","<p></p>","null","","","","","","","",""
"","image","28","66332","0.0-28.0","""event"",""trial"",""time""
""fullscreenenter"",""0"",""3335""
","
","
","""event"",""trial"",""time""
""fullscreenenter"",""0"",""3335""
","
","1711.7000000029802","run_exp/static/images/Set 6_rs/191a.jpg","78","","","","","","learn","SL",""
"","show_choice","29","66623","0.0-29.0","""event"",""trial"",""time""
""fullscreenenter"",""0"",""3335""
","
","
","""event"",""trial"",""time""
""fullscreenenter"",""0"",""3335""
","
","null","run_exp/static/images/Set 6_rs/191a.jpg","null","","","","","","learn","SL",""
"","html-keyboard-response","30","67124","0.0-30.0","""event"",""trial"",""time""
""fullscreenenter"",""0"",""3335""
","
","
","""event"",""trial"",""time""
""fullscreenenter"",""0"",""3335""
","
","null","<p></p>","null","","","","","","","",""
"","image","31","68409","0.0-31.0","""event"",""trial"",""time""
""fullscreenenter"",""0"",""3335""
","
","
","""event"",""trial"",""time""
""fullscreenenter"",""0"",""3335""
","
","1283.300000011921","run_exp/static/images/Set 6_rs/012a.jpg","86","","","","","","learn","SR",""
"","show_choice","32","69127","0.0-32.0","""event"",""trial"",""time""
""fullscreenenter"",""0"",""3335""
","
","
","""event"",""trial"",""time""
""fullscreenenter"",""0"",""3335""
","
","null","run_exp/static/images/Set 6_rs/012a.jpg","null","","","","","","learn","SR",""
"","html-keyboard-response","33","69629","0.0-33.0","""event"",""trial"",""time""
""fullscreenenter"",""0"",""3335""
","
","
","""event"",""trial"",""time""
""fullscreenenter"",""0"",""3335""
","
","null","<p></p>","null","","","","","","","",""
"","image","34","71620","0.0-34.0","""event"",""trial"",""time""
""fullscreenenter"",""0"",""3335""
","
","
","""event"",""trial"",""time""
""fullscreenenter"",""0"",""3335""
","
","1989.5999999940395","run_exp/static/images/Set 6_rs/063a.jpg","86","","","","","","learn","SR",""
"","show_choice","35","71632","0.0-35.0","""event"",""trial"",""time""
""fullscreenenter"",""0"",""3335""
","
","
","""event"",""trial"",""time""
""fullscreenenter"",""0"",""3335""
","
","null","run_exp/static/images/Set 6_rs/063a.jpg","null","","","","","","learn","SR",""
"","html-keyboard-response","36","72133","0.0-36.0","""event"",""trial"",""time""
""fullscreenenter"",""0"",""3335""
","
","
","""event"",""trial"",""time""
""fullscreenenter"",""0"",""3335""
","
","null","<p></p>","null","","","","","","","",""
"","image","37","73681","0.0-37.0","""event"",""trial"",""time""
""fullscreenenter"",""0"",""3335""
","
","
","""event"",""trial"",""time""
""fullscreenenter"",""0"",""3335""
","
","1545.9000000059605","run_exp/static/images/Set 6_rs/076a.jpg","78","","","","","","learn","SR",""
"","show_choice","38","74136","0.0-38.0","""event"",""trial"",""time""
""fullscreenenter"",""0"",""3335""
","
","
","""event"",""trial"",""time""
""fullscreenenter"",""0"",""3335""
","
","null","run_exp/static/images/Set 6_rs/076a.jpg","null","","","","","","learn","SR",""
"","html-keyboard-response","39","74637","0.0-39.0","""event"",""trial"",""time""
""fullscreenenter"",""0"",""3335""
","
","
","""event"",""trial"",""time""
""fullscreenenter"",""0"",""3335""
","
","null","<p></p>","null","","","","","","","",""
"","image","40","75986","0.0-40.0","""event"",""trial"",""time""
""fullscreenenter"",""0"",""3335""
","
","
","""event"",""trial"",""time""
""fullscreenenter"",""0"",""3335""
","
","1347.0999999940395","run_exp/static/images/Set 6_rs/141a.jpg","78","","","","","","learn","SR",""
"","show_choice","41","76640","0.0-41.0","""event"",""trial"",""time""
""fullscreenenter"",""0"",""3335""
","
","
","""event"",""trial"",""time""
""fullscreenenter"",""0"",""3335""
","
","null","run_exp/static/images/Set 6_rs/141a.jpg","null","","","","","","learn","SR",""
"","html-keyboard-response","42","77142","0.0-42.0","""event"",""trial"",""time""
""fullscreenenter"",""0"",""3335""
","
","
","""event"",""trial"",""time""
""fullscreenenter"",""0"",""3335""
","
","null","<p></p>","null","","","","","","","",""
"","image","43","78623","0.0-43.0","""event"",""trial"",""time""
""fullscreenenter"",""0"",""3335""
","
","
","""event"",""trial"",""time""
""fullscreenenter"",""0"",""3335""
","
","1479.699999988079","run_exp/static/images/Set 6_rs/168a.jpg","86","","","","","","learn","SL",""
"","show_choice","44","79145","0.0-44.0","""event"",""trial"",""time""
""fullscreenenter"",""0"",""3335""
","
","
","""event"",""trial"",""time""
""fullscreenenter"",""0"",""3335""
","
","null","run_exp/static/images/Set 6_rs/168a.jpg","null","","","","","","learn","SL",""
"","html-keyboard-response","45","79650","0.0-45.0","""event"",""trial"",""time""
""fullscreenenter"",""0"",""3335""
","
","
","""event"",""trial"",""time""
""fullscreenenter"",""0"",""3335""
","
","null","<p></p>","null","","","","","","","",""
"","image","46","80898","0.0-46.0","""event"",""trial"",""time""
""fullscreenenter"",""0"",""3335""
","
","
","""event"",""trial"",""time""
""fullscreenenter"",""0"",""3335""
","
","1246","run_exp/static/images/Set 6_rs/036a.jpg","86","","","","","","learn","SL",""
"","show_choice","47","81654","0.0-47.0","""event"",""trial"",""time""
""fullscreenenter"",""0"",""3335""
","
","
","""event"",""trial"",""time""
""fullscreenenter"",""0"",""3335""
","
","null","run_exp/static/images/Set 6_rs/036a.jpg","null","","","","","","learn","SL",""
"","html-keyboard-response","48","82156","0.0-48.0","""event"",""trial"",""time""
""fullscreenenter"",""0"",""3335""
","
","
","""event"",""trial"",""time""
""fullscreenenter"",""0"",""3335""
","
","null","<p></p>","null","","","","","","","",""
"","image","49","83621","0.0-49.0","""event"",""trial"",""time""
""fullscreenenter"",""0"",""3335""
","
","
","""event"",""trial"",""time""
""fullscreenenter"",""0"",""3335""
","
","1463.2999999970198","run_exp/static/images/Set 6_rs/061a.jpg","78","","","","","","learn","SR",""
"","show_choice","50","84158","0.0-50.0","""event"",""trial"",""time""
""fullscreenenter"",""0"",""3335""
","
","
","""event"",""trial"",""time""
""fullscreenenter"",""0"",""3335""
","
","null","run_exp/static/images/Set 6_rs/061a.jpg","null","","","","","","learn","SR",""
"","html-keyboard-response","51","84660","0.0-51.0","""event"",""trial"",""time""
""fullscreenenter"",""0"",""3335""
","
","
","""event"",""trial"",""time""
""fullscreenenter"",""0"",""3335""
","
","null","<p></p>","null","","","","","","","",""
"","image","52","85558","0.0-52.0","""event"",""trial"",""time""
""fullscreenenter"",""0"",""3335""
","
","
","""event"",""trial"",""time""
""fullscreenenter"",""0"",""3335""
","
","895.5999999940395","run_exp/static/images/Set 6_rs/079a.jpg","86","","","","","","learn","SL",""
"","show_choice","53","86665","0.0-53.0","""event"",""trial"",""time""
""fullscreenenter"",""0"",""3335""
","
","
","""event"",""trial"",""time""
""fullscreenenter"",""0"",""3335""
","
","null","run_exp/static/images/Set 6_rs/079a.jpg","null","","","","","","learn","SL",""
"","html-keyboard-response","54","87166","0.0-54.0","""event"",""trial"",""time""
""fullscreenenter"",""0"",""3335""
","
","
","""event"",""trial"",""time""
""fullscreenenter"",""0"",""3335""
","
","null","<p></p>","null","","","","","","","",""
"","image","55","87942","0.0-55.0","""event"",""trial"",""time""
""fullscreenenter"",""0"",""3335""
","
","
","""event"",""trial"",""time""
""fullscreenenter"",""0"",""3335""
","
","773.8999999910593","run_exp/static/images/Set 6_rs/181a.jpg","78","","","","","","learn","SL",""
"","show_choice","56","89169","0.0-56.0","""event"",""trial"",""time""
""fullscreenenter"",""0"",""3335""
","
","
","""event"",""trial"",""time""
""fullscreenenter"",""0"",""3335""
","
","null","run_exp/static/images/Set 6_rs/181a.jpg","null","","","","","","learn","SL",""
"","html-keyboard-response","57","89671","0.0-57.0","""event"",""trial"",""time""
""fullscreenenter"",""0"",""3335""
","
","
","""event"",""trial"",""time""
""fullscreenenter"",""0"",""3335""
","
","null","<p></p>","null","","","","","","","",""
"","image","58","90938","0.0-58.0","""event"",""trial"",""time""
""fullscreenenter"",""0"",""3335""
","
","
","""event"",""trial"",""time""
""fullscreenenter"",""0"",""3335""
","
","1265.7000000029802","run_exp/static/images/Set 6_rs/132a.jpg","78","","","","","","learn","SR",""
"","show_choice","59","91675","0.0-59.0","""event"",""trial"",""time""
""fullscreenenter"",""0"",""3335""
","
","
","""event"",""trial"",""time""
""fullscreenenter"",""0"",""3335""
","
","null","run_exp/static/images/Set 6_rs/132a.jpg","null","","","","","","learn","SR",""
"","html-keyboard-response","60","92176","0.0-60.0","""event"",""trial"",""time""
""fullscreenenter"",""0"",""3335""
","
","
","""event"",""trial"",""time""
""fullscreenenter"",""0"",""3335""
","
","null","<p></p>","null","","","","","","","",""
"","image","61","93703","0.0-61.0","""event"",""trial"",""time""
""fullscreenenter"",""0"",""3335""
","
","
","""event"",""trial"",""time""
""fullscreenenter"",""0"",""3335""
","
","1524","run_exp/static/images/Set 6_rs/017a.jpg","78","","","","","","learn","SL",""
"","show_choice","62","94181","0.0-62.0","""event"",""trial"",""time""
""fullscreenenter"",""0"",""3335""
","
","
","""event"",""trial"",""time""
""fullscreenenter"",""0"",""3335""
","
","null","run_exp/static/images/Set 6_rs/017a.jpg","null","","","","","","learn","SL",""
"","html-keyboard-response","63","94683","0.0-63.0","""event"",""trial"",""time""
""fullscreenenter"",""0"",""3335""
","
","
","""event"",""trial"",""time""
""fullscreenenter"",""0"",""3335""
","
","null","<p></p>","null","","","","","","","",""
"","image","64","95862","0.0-64.0","""event"",""trial"",""time""
""fullscreenenter"",""0"",""3335""
","
","
","""event"",""trial"",""time""
""fullscreenenter"",""0"",""3335""
","
","1177.3999999910593","run_exp/static/images/Set 6_rs/062a.jpg","86","","","","","","learn","SL",""
"","show_choice","65","96686","0.0-65.0","""event"",""trial"",""time""
""fullscreenenter"",""0"",""3335""
","
","
","""event"",""trial"",""time""
""fullscreenenter"",""0"",""3335""
","
","null","run_exp/static/images/Set 6_rs/062a.jpg","null","","","","","","learn","SL",""
"","html-keyboard-response","66","97187","0.0-66.0","""event"",""trial"",""time""
""fullscreenenter"",""0"",""3335""
","
","
","""event"",""trial"",""time""
""fullscreenenter"",""0"",""3335""
","
","null","<p></p>","null","","","","","","","",""
"","image","67","98751","0.0-67.0","""event"",""trial"",""time""
""fullscreenenter"",""0"",""3335""
","
","
","""event"",""trial"",""time""
""fullscreenenter"",""0"",""3335""
","
","1563.2000000029802","run_exp/static/images/Set 6_rs/006a.jpg","86","","","","","","learn","SL",""
"","show_choice","68","99192","0.0-68.0","""event"",""trial"",""time""
""fullscreenenter"",""0"",""3335""
","
","
","""event"",""trial"",""time""
""fullscreenenter"",""0"",""3335""
","
","null","run_exp/static/images/Set 6_rs/006a.jpg","null","","","","","","learn","SL",""
"","html-keyboard-response","69","99693","0.0-69.0","""event"",""trial"",""time""
""fullscreenenter"",""0"",""3335""
","
","
","""event"",""trial"",""time""
""fullscreenenter"",""0"",""3335""
","
","null","<p></p>","null","","","","","","","",""
"","image","70","101079","0.0-70.0","""event"",""trial"",""time""
""fullscreenenter"",""0"",""3335""
","
","
","""event"",""trial"",""time""
""fullscreenenter"",""0"",""3335""
","
","1385","run_exp/static/images/Set 6_rs/045a.jpg","86","","","","","","learn","SR",""
"","show_choice","71","101696","0.0-71.0","""event"",""trial"",""time""
""fullscreenenter"",""0"",""3335""
","
","
","""event"",""trial"",""time""
""fullscreenenter"",""0"",""3335""
","
","null","run_exp/static/images/Set 6_rs/045a.jpg","null","","","","","","learn","SR",""
"","html-keyboard-response","72","102200","0.0-72.0","""event"",""trial"",""time""
""fullscreenenter"",""0"",""3335""
","
","
","""event"",""trial"",""time""
""fullscreenenter"",""0"",""3335""
","
","null","<p></p>","null","","","","","","","",""
"","image","73","103915","0.0-73.0","""event"",""trial"",""time""
""fullscreenenter"",""0"",""3335""
","
","
","""event"",""trial"",""time""
""fullscreenenter"",""0"",""3335""
","
","1713.4000000059605","run_exp/static/images/Set 6_rs/166a.jpg","86","","","","","","learn","SR",""
"","show_choice","74","104206","0.0-74.0","""event"",""trial"",""time""
""fullscreenenter"",""0"",""3335""
","
","
","""event"",""trial"",""time""
""fullscreenenter"",""0"",""3335""
","
","null","run_exp/static/images/Set 6_rs/166a.jpg","null","","","","","","learn","SR",""
"","html-keyboard-response","75","104708","0.0-75.0","""event"",""trial"",""time""
""fullscreenenter"",""0"",""3335""
","
","
","""event"",""trial"",""time""
""fullscreenenter"",""0"",""3335""
","
","null","<p></p>","null","","","","","","","",""
"","image","76","105825","0.0-76.0","""event"",""trial"",""time""
""fullscreenenter"",""0"",""3335""
","
","
","""event"",""trial"",""time""
""fullscreenenter"",""0"",""3335""
","
","1115.5999999940395","run_exp/static/images/Set 6_rs/073a.jpg","86","","","","","","learn","SL",""
"","show_choice","77","106710","0.0-77.0","""event"",""trial"",""time""
""fullscreenenter"",""0"",""3335""
","
","
","""event"",""trial"",""time""
""fullscreenenter"",""0"",""3335""
","
","null","run_exp/static/images/Set 6_rs/073a.jpg","null","","","","","","learn","SL",""
"","html-keyboard-response","78","107213","0.0-78.0","""event"",""trial"",""time""
""fullscreenenter"",""0"",""3335""
","
","
","""event"",""trial"",""time""
""fullscreenenter"",""0"",""3335""
","
","null","<p></p>","null","","","","","","","",""
"","image","79","108668","0.0-79.0","""event"",""trial"",""time""
""fullscreenenter"",""0"",""3335""
","
","
","""event"",""trial"",""time""
""fullscreenenter"",""0"",""3335""
","
","1452.9000000059605","run_exp/static/images/Set 6_rs/050a.jpg","86","","","","","","learn","SL",""
"","show_choice","80","109217","0.0-80.0","""event"",""trial"",""time""
""fullscreenenter"",""0"",""3335""
","
","
","""event"",""trial"",""time""
""fullscreenenter"",""0"",""3335""
","
","null","run_exp/static/images/Set 6_rs/050a.jpg","null","","","","","","learn","SL",""
"","html-keyboard-response","81","109718","0.0-81.0","""event"",""trial"",""time""
""fullscreenenter"",""0"",""3335""
","
","
","""event"",""trial"",""time""
""fullscreenenter"",""0"",""3335""
","
","null","<p></p>","null","","","","","","","",""
"","image","82","111150","0.0-82.0","""event"",""trial"",""time""
""fullscreenenter"",""0"",""3335""
","
","
","""event"",""trial"",""time""
""fullscreenenter"",""0"",""3335""
","
","1430.800000011921","run_exp/static/images/Set 6_rs/008a.jpg","86","","","","","","learn","SL",""
"","show_choice","83","111721","0.0-83.0","""event"",""trial"",""time""
""fullscreenenter"",""0"",""3335""
","
","
","""event"",""trial"",""time""
""fullscreenenter"",""0"",""3335""
","
","null","run_exp/static/images/Set 6_rs/008a.jpg","null","","","","","","learn","SL",""
"","html-keyboard-response","84","112223","0.0-84.0","""event"",""trial"",""time""
""fullscreenenter"",""0"",""3335""
","
","
","""event"",""trial"",""time""
""fullscreenenter"",""0"",""3335""
","
","null","<p></p>","null","","","","","","","",""
"","image","85","113585","0.0-85.0","""event"",""trial"",""time""
""fullscreenenter"",""0"",""3335""
","
","
","""event"",""trial"",""time""
""fullscreenenter"",""0"",""3335""
","
","1361","run_exp/static/images/Set 6_rs/095a.jpg","86","","","","","","learn","SL",""
"","show_choice","86","114226","0.0-86.0","""event"",""trial"",""time""
""fullscreenenter"",""0"",""3335""
","
","
","""event"",""trial"",""time""
""fullscreenenter"",""0"",""3335""
","
","null","run_exp/static/images/Set 6_rs/095a.jpg","null","","","","","","learn","SL",""
"","html-keyboard-response","87","114728","0.0-87.0","""event"",""trial"",""time""
""fullscreenenter"",""0"",""3335""
","
","
","""event"",""trial"",""time""
""fullscreenenter"",""0"",""3335""
","
","null","<p></p>","null","","","","","","","",""
"","image","88","116323","0.0-88.0","""event"",""trial"",""time""
""fullscreenenter"",""0"",""3335""
","
","
","""event"",""trial"",""time""
""fullscreenenter"",""0"",""3335""
","
","1593.5999999940395","run_exp/static/images/Set 6_rs/007a.jpg","86","","","","","","learn","SR",""
"","show_choice","89","116731","0.0-89.0","""event"",""trial"",""time""
""fullscreenenter"",""0"",""3335""
","
","
","""event"",""trial"",""time""
""fullscreenenter"",""0"",""3335""
","
","null","run_exp/static/images/Set 6_rs/007a.jpg","null","","","","","","learn","SR",""
"","html-keyboard-response","90","117232","0.0-90.0","""event"",""trial"",""time""
""fullscreenenter"",""0"",""3335""
","
","
","""event"",""trial"",""time""
""fullscreenenter"",""0"",""3335""
","
","null","<p></p>","null","","","","","","","",""
"","image","91","119039","0.0-91.0","""event"",""trial"",""time""
""fullscreenenter"",""0"",""3335""
","
","
","""event"",""trial"",""time""
""fullscreenenter"",""0"",""3335""
","
","1805.9000000059605","run_exp/static/images/Set 6_rs/091a.jpg","86","","","","","","learn","SL",""
"","show_choice","92","119235","0.0-92.0","""event"",""trial"",""time""
""fullscreenenter"",""0"",""3335""
","
","
","""event"",""trial"",""time""
""fullscreenenter"",""0"",""3335""
","
","null","run_exp/static/images/Set 6_rs/091a.jpg","null","","","","","","learn","SL",""
"","html-keyboard-response","93","119736","0.0-93.0","""event"",""trial"",""time""
""fullscreenenter"",""0"",""3335""
","
","
","""event"",""trial"",""time""
""fullscreenenter"",""0"",""3335""
","
","null","<p></p>","null","","","","","","","",""
"","image","94","121737","0.0-94.0","""event"",""trial"",""time""
""fullscreenenter"",""0"",""3335""
","
","
","""event"",""trial"",""time""
""fullscreenenter"",""0"",""3335""
","
","null","run_exp/static/images/Set 6_rs/055a.jpg","null","","","","","","learn","SL",""
"","show_choice","95","123740","0.0-95.0","""event"",""trial"",""time""
""fullscreenenter"",""0"",""3335""
","
","
","""event"",""trial"",""time""
""fullscreenenter"",""0"",""3335""
","
","null","run_exp/static/images/blank.png","null","","","","","","learn","SL",""
"","html-keyboard-response","96","124241","0.0-96.0","""event"",""trial"",""time""
""fullscreenenter"",""0"",""3335""
","
","
","""event"",""trial"",""time""
""fullscreenenter"",""0"",""3335""
","
","null","<p></p>","null","","","","","","","",""
"","image","97","125569","0.0-97.0","""event"",""trial"",""time""
""fullscreenenter"",""0"",""3335""
","
","
","""event"",""trial"",""time""
""fullscreenenter"",""0"",""3335""
","
","1327.2000000029802","run_exp/static/images/Set 6_rs/075a.jpg","78","","","","","","learn","SR",""
"","show_choice","98","126244","0.0-98.0","""event"",""trial"",""time""
""fullscreenenter"",""0"",""3335""
","
","
","""event"",""trial"",""time""
""fullscreenenter"",""0"",""3335""
","
","null","run_exp/static/images/Set 6_rs/075a.jpg","null","","","","","","learn","SR",""
"","html-keyboard-response","99","126746","0.0-99.0","""event"",""trial"",""time""
""fullscreenenter"",""0"",""3335""
","
","
","""event"",""trial"",""time""
""fullscreenenter"",""0"",""3335""
","
","null","<p></p>","null","","","","","","","",""
"","image","100","128399","0.0-100.0","""event"",""trial"",""time""
""fullscreenenter"",""0"",""3335""
","
","
","""event"",""trial"",""time""
""fullscreenenter"",""0"",""3335""
","
","1651.8999999910593","run_exp/static/images/Set 6_rs/117a.jpg","86","","","","","","learn","SL",""
"","show_choice","101","128749","0.0-101.0","""event"",""trial"",""time""
""fullscreenenter"",""0"",""3335""
","
","
","""event"",""trial"",""time""
""fullscreenenter"",""0"",""3335""
","
","null","run_exp/static/images/Set 6_rs/117a.jpg","null","","","","","","learn","SL",""
"","html-keyboard-response","102","129250","0.0-102.0","""event"",""trial"",""time""
""fullscreenenter"",""0"",""3335""
","
","
","""event"",""trial"",""time""
""fullscreenenter"",""0"",""3335""
","
","null","<p></p>","null","","","","","","","",""
"","image","103","130369","0.0-103.0","""event"",""trial"",""time""
""fullscreenenter"",""0"",""3335""
","
","
","""event"",""trial"",""time""
""fullscreenenter"",""0"",""3335""
","
","1117","run_exp/static/images/Set 6_rs/066a.jpg","78","","","","","","learn","SL",""
"","show_choice","104","131254","0.0-104.0","""event"",""trial"",""time""
""fullscreenenter"",""0"",""3335""
","
","
","""event"",""trial"",""time""
""fullscreenenter"",""0"",""3335""
","
","null","run_exp/static/images/Set 6_rs/066a.jpg","null","","","","","","learn","SL",""
"","html-keyboard-response","105","131756","0.0-105.0","""event"",""trial"",""time""
""fullscreenenter"",""0"",""3335""
","
","
","""event"",""trial"",""time""
""fullscreenenter"",""0"",""3335""
","
","null","<p></p>","null","","","","","","","",""
"","image","106","132794","0.0-106.0","""event"",""trial"",""time""
""fullscreenenter"",""0"",""3335""
","
","
","""event"",""trial"",""time""
""fullscreenenter"",""0"",""3335""
","
","1037.0999999940395","run_exp/static/images/Set 6_rs/025a.jpg","78","","","","","","learn","SL",""
"","show_choice","107","133760","0.0-107.0","""event"",""trial"",""time""
""fullscreenenter"",""0"",""3335""
","
","
","""event"",""trial"",""time""
""fullscreenenter"",""0"",""3335""
","
","null","run_exp/static/images/Set 6_rs/025a.jpg","null","","","","","","learn","SL",""
"","html-keyboard-response","108","134262","0.0-108.0","""event"",""trial"",""time""
""fullscreenenter"",""0"",""3335""
","
","
","""event"",""trial"",""time""
""fullscreenenter"",""0"",""3335""
","
","null","<p></p>","null","","","","","","","",""
"","image","109","134993","0.0-109.0","""event"",""trial"",""time""
""fullscreenenter"",""0"",""3335""
","
","
","""event"",""trial"",""time""
""fullscreenenter"",""0"",""3335""
","
","729","run_exp/static/images/Set 6_rs/154a.jpg","86","","","","","","learn","SR",""
"","show_choice","110","136266","0.0-110.0","""event"",""trial"",""time""
""fullscreenenter"",""0"",""3335""
","
","
","""event"",""trial"",""time""
""fullscreenenter"",""0"",""3335""
","
","null","run_exp/static/images/Set 6_rs/154a.jpg","null","","","","","","learn","SR",""
"","html-keyboard-response","111","136767","0.0-111.0","""event"",""trial"",""time""
""fullscreenenter"",""0"",""3335""
","
","
","""event"",""trial"",""time""
""fullscreenenter"",""0"",""3335""
","
","null","<p></p>","null","","","","","","","",""
"","image","112","137956","0.0-112.0","""event"",""trial"",""time""
""fullscreenenter"",""0"",""3335""
","
","
","""event"",""trial"",""time""
""fullscreenenter"",""0"",""3335""
","
","1187.2000000029802","run_exp/static/images/Set 6_rs/122a.jpg","86","","","","","","learn","SR",""
"","show_choice","113","138770","0.0-113.0","""event"",""trial"",""time""
""fullscreenenter"",""0"",""3335""
","
","
","""event"",""trial"",""time""
""fullscreenenter"",""0"",""3335""
","
","null","run_exp/static/images/Set 6_rs/122a.jpg","null","","","","","","learn","SR",""
"","html-keyboard-response","114","139271","0.0-114.0","""event"",""trial"",""time""
""fullscreenenter"",""0"",""3335""
","
","
","""event"",""trial"",""time""
""fullscreenenter"",""0"",""3335""
","
","null","<p></p>","null","","","","","","","",""
"","image","115","140209","0.0-115.0","""event"",""trial"",""time""
""fullscreenenter"",""0"",""3335""
","
","
","""event"",""trial"",""time""
""fullscreenenter"",""0"",""3335""
","
","935.3000000119209","run_exp/static/images/Set 6_rs/074a.jpg","78","","","","","","learn","SL",""
"","show_choice","116","141275","0.0-116.0","""event"",""trial"",""time""
""fullscreenenter"",""0"",""3335""
","
","
","""event"",""trial"",""time""
""fullscreenenter"",""0"",""3335""
","
","null","run_exp/static/images/Set 6_rs/074a.jpg","null","","","","","","learn","SL",""
"","html-keyboard-response","117","141776","0.0-117.0","""event"",""trial"",""time""
""fullscreenenter"",""0"",""3335""
","
","
","""event"",""trial"",""time""
""fullscreenenter"",""0"",""3335""
","
","null","<p></p>","null","","","","","","","",""
"","image","118","142859","0.0-118.0","""event"",""trial"",""time""
""fullscreenenter"",""0"",""3335""
","
","
","""event"",""trial"",""time""
""fullscreenenter"",""0"",""3335""
","
","1080.7000000029802","run_exp/static/images/Set 6_rs/010a.jpg","86","","","","","","learn","SR",""
"","show_choice","119","143779","0.0-119.0","""event"",""trial"",""time""
""fullscreenenter"",""0"",""3335""
","
","
","""event"",""trial"",""time""
""fullscreenenter"",""0"",""3335""
","
","null","run_exp/static/images/Set 6_rs/010a.jpg","null","","","","","","learn","SR",""
"","html-keyboard-response","120","144284","0.0-120.0","""event"",""trial"",""time""
""fullscreenenter"",""0"",""3335""
","
","
","""event"",""trial"",""time""
""fullscreenenter"",""0"",""3335""
","
","null","<p></p>","null","","","","","","","",""
"","image","121","145889","0.0-121.0","""event"",""trial"",""time""
""fullscreenenter"",""0"",""3335""
","
","
","""event"",""trial"",""time""
""fullscreenenter"",""0"",""3335""
","
","1603","run_exp/static/images/Set 6_rs/187a.jpg","86","","","","","","learn","SR",""
"","show_choice","122","146290","0.0-122.0","""event"",""trial"",""time""
""fullscreenenter"",""0"",""3335""
","
","
","""event"",""trial"",""time""
""fullscreenenter"",""0"",""3335""
","
","null","run_exp/static/images/Set 6_rs/187a.jpg","null","","","","","","learn","SR",""
"","html-keyboard-response","123","146793","0.0-123.0","""event"",""trial"",""time""
""fullscreenenter"",""0"",""3335""
","
","
","""event"",""trial"",""time""
""fullscreenenter"",""0"",""3335""
","
","null","<p></p>","null","","","","","","","",""
"","image","124","148557","0.0-124.0","""event"",""trial"",""time""
""fullscreenenter"",""0"",""3335""
","
","
","""event"",""trial"",""time""
""fullscreenenter"",""0"",""3335""
","
","1762.7000000029802","run_exp/static/images/Set 6_rs/144a.jpg","86","","","","","","learn","SL",""
"","show_choice","125","148796","0.0-125.0","""event"",""trial"",""time""
""fullscreenenter"",""0"",""3335""
","
","
","""event"",""trial"",""time""
""fullscreenenter"",""0"",""3335""
","
","null","run_exp/static/images/Set 6_rs/144a.jpg","null","","","","","","learn","SL",""
"","html-keyboard-response","126","149297","0.0-126.0","""event"",""trial"",""time""
""fullscreenenter"",""0"",""3335""
","
","
","""event"",""trial"",""time""
""fullscreenenter"",""0"",""3335""
","
","null","<p></p>","null","","","","","","","",""
"","image","127","150384","0.0-127.0","""event"",""trial"",""time""
""fullscreenenter"",""0"",""3335""
","
","
","""event"",""trial"",""time""
""fullscreenenter"",""0"",""3335""
","
","1085.2000000029802","run_exp/static/images/Set 6_rs/150a.jpg","78","","","","","","learn","SR",""
"","show_choice","128","151300","0.0-128.0","""event"",""trial"",""time""
""fullscreenenter"",""0"",""3335""
","
","
","""event"",""trial"",""time""
""fullscreenenter"",""0"",""3335""
","
","null","run_exp/static/images/Set 6_rs/150a.jpg","null","","","","","","learn","SR",""
"","html-keyboard-response","129","151803","0.0-129.0","""event"",""trial"",""time""
""fullscreenenter"",""0"",""3335""
","
","
","""event"",""trial"",""time""
""fullscreenenter"",""0"",""3335""
","
","null","<p></p>","null","","","","","","","",""
"","image","130","153085","0.0-130.0","""event"",""trial"",""time""
""fullscreenenter"",""0"",""3335""
","
","
","""event"",""trial"",""time""
""fullscreenenter"",""0"",""3335""
","
","1280.800000011921","run_exp/static/images/Set 6_rs/116a.jpg","86","","","","","","learn","SL",""
"","show_choice","131","153806","0.0-131.0","""event"",""trial"",""time""
""fullscreenenter"",""0"",""3335""
","
","
","""event"",""trial"",""time""
""fullscreenenter"",""0"",""3335""
","
","null","run_exp/static/images/Set 6_rs/116a.jpg","null","","","","","","learn","SL",""
"","html-keyboard-response","132","154308","0.0-132.0","""event"",""trial"",""time""
""fullscreenenter"",""0"",""3335""
","
","
","""event"",""trial"",""time""
""fullscreenenter"",""0"",""3335""
","
","null","<p></p>","null","","","","","","","",""
"","image","133","156247","0.0-133.0","""event"",""trial"",""time""
""fullscreenenter"",""0"",""3335""
","
","
","""event"",""trial"",""time""
""fullscreenenter"",""0"",""3335""
","
","1938","run_exp/static/images/Set 6_rs/108a.jpg","78","","","","","","learn","SR",""
"","show_choice","134","156312","0.0-134.0","""event"",""trial"",""time""
""fullscreenenter"",""0"",""3335""
","
","
","""event"",""trial"",""time""
""fullscreenenter"",""0"",""3335""
","
","null","run_exp/static/images/Set 6_rs/108a.jpg","null","","","","","","learn","SR",""
"","html-keyboard-response","135","156814","0.0-135.0","""event"",""trial"",""time""
""fullscreenenter"",""0"",""3335""
","
","
","""event"",""trial"",""time""
""fullscreenenter"",""0"",""3335""
","
","null","<p></p>","null","","","","","","","",""
"","image","136","158242","0.0-136.0","""event"",""trial"",""time""
""fullscreenenter"",""0"",""3335""
","
","
","""event"",""trial"",""time""
""fullscreenenter"",""0"",""3335""
","
","1426.7999999970198","run_exp/static/images/Set 6_rs/089a.jpg","86","","","","","","learn","SL",""
"","show_choice","137","158817","0.0-137.0","""event"",""trial"",""time""
""fullscreenenter"",""0"",""3335""
","
","
","""event"",""trial"",""time""
""fullscreenenter"",""0"",""3335""
","
","null","run_exp/static/images/Set 6_rs/089a.jpg","null","","","","","","learn","SL",""
"","html-keyboard-response","138","159319","0.0-138.0","""event"",""trial"",""time""
""fullscreenenter"",""0"",""3335""
","
","
","""event"",""trial"",""time""
""fullscreenenter"",""0"",""3335""
","
","null","<p></p>","null","","","","","","","",""
"","image","139","160935","0.0-139.0","""event"",""trial"",""time""
""fullscreenenter"",""0"",""3335""
","
","
","""event"",""trial"",""time""
""fullscreenenter"",""0"",""3335""
","
","1615","run_exp/static/images/Set 6_rs/024a.jpg","86","","","","","","learn","SR",""
"","show_choice","140","161322","0.0-140.0","""event"",""trial"",""time""
""fullscreenenter"",""0"",""3335""
","
","
","""event"",""trial"",""time""
""fullscreenenter"",""0"",""3335""
","
","null","run_exp/static/images/Set 6_rs/024a.jpg","null","","","","","","learn","SR",""
"","html-keyboard-response","141","161824","0.0-141.0","""event"",""trial"",""time""
""fullscreenenter"",""0"",""3335""
","
","
","""event"",""trial"",""time""
""fullscreenenter"",""0"",""3335""
","
","null","<p></p>","null","","","","","","","",""
"","image","142","163412","0.0-142.0","""event"",""trial"",""time""
""fullscreenenter"",""0"",""3335""
","
","
","""event"",""trial"",""time""
""fullscreenenter"",""0"",""3335""
","
","1586.5","run_exp/static/images/Set 6_rs/167a.jpg","86","","","","","","learn","SL",""
"","show_choice","143","163827","0.0-143.0","""event"",""trial"",""time""
""fullscreenenter"",""0"",""3335""
","
","
","""event"",""trial"",""time""
""fullscreenenter"",""0"",""3335""
","
","null","run_exp/static/images/Set 6_rs/167a.jpg","null","","","","","","learn","SL",""
"","html-keyboard-response","144","164328","0.0-144.0","""event"",""trial"",""time""
""fullscreenenter"",""0"",""3335""
","
","
","""event"",""trial"",""time""
""fullscreenenter"",""0"",""3335""
","
","null","<p></p>","null","","","","","","","",""
"","image","145","165466","0.0-145.0","""event"",""trial"",""time""
""fullscreenenter"",""0"",""3335""
","
","
","""event"",""trial"",""time""
""fullscreenenter"",""0"",""3335""
","
","1136.0999999940395","run_exp/static/images/Set 6_rs/016a.jpg","86","","","","","","learn","SL",""
"","show_choice","146","166331","0.0-146.0","""event"",""trial"",""time""
""fullscreenenter"",""0"",""3335""
","
","
","""event"",""trial"",""time""
""fullscreenenter"",""0"",""3335""
","
","null","run_exp/static/images/Set 6_rs/016a.jpg","null","","","","","","learn","SL",""
"","html-keyboard-response","147","166832","0.0-147.0","""event"",""trial"",""time""
""fullscreenenter"",""0"",""3335""
","
","
","""event"",""trial"",""time""
""fullscreenenter"",""0"",""3335""
","
","null","<p></p>","null","","","","","","","",""
"","image","148","168447","0.0-148.0","""event"",""trial"",""time""
""fullscreenenter"",""0"",""3335""
","
","
","""event"",""trial"",""time""
""fullscreenenter"",""0"",""3335""
","
","1613.7000000029802","run_exp/static/images/Set 6_rs/121a.jpg","86","","","","","","learn","SR",""
"","show_choice","149","168838","0.0-149.0","""event"",""trial"",""time""
""fullscreenenter"",""0"",""3335""
","
","
","""event"",""trial"",""time""
""fullscreenenter"",""0"",""3335""
","
","null","run_exp/static/images/Set 6_rs/121a.jpg","null","","","","","","learn","SR",""
"","html-keyboard-response","150","169339","0.0-150.0","""event"",""trial"",""time""
""fullscreenenter"",""0"",""3335""
","
","
","""event"",""trial"",""time""
""fullscreenenter"",""0"",""3335""
","
","null","<p></p>","null","","","","","","","",""
"","image","151","170865","0.0-151.0","""event"",""trial"",""time""
""fullscreenenter"",""0"",""3335""
","
","
","""event"",""trial"",""time""
""fullscreenenter"",""0"",""3335""
","
","1524.2000000029802","run_exp/static/images/Set 6_rs/014a.jpg","78","","","","","","learn","SL",""
"","show_choice","152","171347","0.0-152.0","""event"",""trial"",""time""
""fullscreenenter"",""0"",""3335""
","
","
","""event"",""trial"",""time""
""fullscreenenter"",""0"",""3335""
","
","null","run_exp/static/images/Set 6_rs/014a.jpg","null","","","","","","learn","SL",""
"","html-keyboard-response","153","171849","0.0-153.0","""event"",""trial"",""time""
""fullscreenenter"",""0"",""3335""
","
","
","""event"",""trial"",""time""
""fullscreenenter"",""0"",""3335""
","
","null","<p></p>","null","","","","","","","",""
"","image","154","173086","0.0-154.0","""event"",""trial"",""time""
""fullscreenenter"",""0"",""3335""
","
","
","""event"",""trial"",""time""
""fullscreenenter"",""0"",""3335""
","
","1235.6000000089407","run_exp/static/images/Set 6_rs/088a.jpg","86","","","","","","learn","SR",""
"","show_choice","155","173852","0.0-155.0","""event"",""trial"",""time""
""fullscreenenter"",""0"",""3335""
","
","
","""event"",""trial"",""time""
""fullscreenenter"",""0"",""3335""
","
","null","run_exp/static/images/Set 6_rs/088a.jpg","null","","","","","","learn","SR",""
"","html-keyboard-response","156","174358","0.0-156.0","""event"",""trial"",""time""
""fullscreenenter"",""0"",""3335""
","
","
","""event"",""trial"",""time""
""fullscreenenter"",""0"",""3335""
","
","null","<p></p>","null","","","","","","","",""
"","image","157","175556","0.0-157.0","""event"",""trial"",""time""
""fullscreenenter"",""0"",""3335""
","
","
","""event"",""trial"",""time""
""fullscreenenter"",""0"",""3335""
","
","1196.800000011921","run_exp/static/images/Set 6_rs/064a.jpg","78","","","","","","learn","SR",""
"","show_choice","158","176361","0.0-158.0","""event"",""trial"",""time""
""fullscreenenter"",""0"",""3335""
","
","
","""event"",""trial"",""time""
""fullscreenenter"",""0"",""3335""
","
","null","run_exp/static/images/Set 6_rs/064a.jpg","null","","","","","","learn","SR",""
"","html-keyboard-response","159","176864","0.0-159.0","""event"",""trial"",""time""
""fullscreenenter"",""0"",""3335""
","
","
","""event"",""trial"",""time""
""fullscreenenter"",""0"",""3335""
","
","null","<p></p>","null","","","","","","","",""
"","image","160","177752","0.0-160.0","""event"",""trial"",""time""
""fullscreenenter"",""0"",""3335""
","
","
","""event"",""trial"",""time""
""fullscreenenter"",""0"",""3335""
","
","886.6000000089407","run_exp/static/images/Set 6_rs/112a.jpg","86","","","","","","learn","SR",""
"","show_choice","161","178867","0.0-161.0","""event"",""trial"",""time""
""fullscreenenter"",""0"",""3335""
","
","
","""event"",""trial"",""time""
""fullscreenenter"",""0"",""3335""
","
","null","run_exp/static/images/Set 6_rs/112a.jpg","null","","","","","","learn","SR",""
"","html-keyboard-response","162","179368","0.0-162.0","""event"",""trial"",""time""
""fullscreenenter"",""0"",""3335""
","
","
","""event"",""trial"",""time""
""fullscreenenter"",""0"",""3335""
","
","null","<p></p>","null","","","","","","","",""
"","image","163","180139","0.0-163.0","""event"",""trial"",""time""
""fullscreenenter"",""0"",""3335""
","
","
","""event"",""trial"",""time""
""fullscreenenter"",""0"",""3335""
","
","769.2999999970198","run_exp/static/images/Set 6_rs/172a.jpg","78","","","","","","learn","SR",""
"","show_choice","164","181371","0.0-164.0","""event"",""trial"",""time""
""fullscreenenter"",""0"",""3335""
","
","
","""event"",""trial"",""time""
""fullscreenenter"",""0"",""3335""
","
","null","run_exp/static/images/Set 6_rs/172a.jpg","null","","","","","","learn","SR",""
"","html-keyboard-response","165","181872","0.0-165.0","""event"",""trial"",""time""
""fullscreenenter"",""0"",""3335""
","
","
","""event"",""trial"",""time""
""fullscreenenter"",""0"",""3335""
","
","null","<p></p>","null","","","","","","","",""
"","image","166","182817","0.0-166.0","""event"",""trial"",""time""
""fullscreenenter"",""0"",""3335""
","
","
","""event"",""trial"",""time""
""fullscreenenter"",""0"",""3335""
","
","942.7000000029802","run_exp/static/images/Set 6_rs/123a.jpg","78","","","","","","learn","SL",""
"","show_choice","167","183876","0.0-167.0","""event"",""trial"",""time""
""fullscreenenter"",""0"",""3335""
","
","
","""event"",""trial"",""time""
""fullscreenenter"",""0"",""3335""
","
","null","run_exp/static/images/Set 6_rs/123a.jpg","null","","","","","","learn","SL",""
"","html-keyboard-response","168","184377","0.0-168.0","""event"",""trial"",""time""
""fullscreenenter"",""0"",""3335""
","
","
","""event"",""trial"",""time""
""fullscreenenter"",""0"",""3335""
","
","null","<p></p>","null","","","","","","","",""
"","image","169","185115","0.0-169.0","""event"",""trial"",""time""
""fullscreenenter"",""0"",""3335""
","
","
","""event"",""trial"",""time""
""fullscreenenter"",""0"",""3335""
","
","737.0999999940395","run_exp/static/images/Set 6_rs/177a.jpg","78","","","","","","learn","SR",""
"","show_choice","170","186380","0.0-170.0","""event"",""trial"",""time""
""fullscreenenter"",""0"",""3335""
","
","
","""event"",""trial"",""time""
""fullscreenenter"",""0"",""3335""
","
","null","run_exp/static/images/Set 6_rs/177a.jpg","null","","","","","","learn","SR",""
"","html-keyboard-response","171","186882","0.0-171.0","""event"",""trial"",""time""
""fullscreenenter"",""0"",""3335""
","
","
","""event"",""trial"",""time""
""fullscreenenter"",""0"",""3335""
","
","null","<p></p>","null","","","","","","","",""
"","image","172","187644","0.0-172.0","""event"",""trial"",""time""
""fullscreenenter"",""0"",""3335""
","
","
","""event"",""trial"",""time""
""fullscreenenter"",""0"",""3335""
","
","760.9000000059605","run_exp/static/images/Set 6_rs/070a.jpg","86","","","","","","learn","SR",""
"","show_choice","173","188885","0.0-173.0","""event"",""trial"",""time""
""fullscreenenter"",""0"",""3335""
","
","
","""event"",""trial"",""time""
""fullscreenenter"",""0"",""3335""
","
","null","run_exp/static/images/Set 6_rs/070a.jpg","null","","","","","","learn","SR",""
"","html-keyboard-response","174","189386","0.0-174.0","""event"",""trial"",""time""
""fullscreenenter"",""0"",""3335""
","
","
","""event"",""trial"",""time""
""fullscreenenter"",""0"",""3335""
","
","null","<p></p>","null","","","","","","","",""
"","image","175","190797","0.0-175.0","""event"",""trial"",""time""
""fullscreenenter"",""0"",""3335""
","
","
","""event"",""trial"",""time""
""fullscreenenter"",""0"",""3335""
","
","1409.8999999910593","run_exp/static/images/Set 6_rs/186a.jpg","86","","","","","","learn","SR",""
"","show_choice","176","191389","0.0-176.0","""event"",""trial"",""time""
""fullscreenenter"",""0"",""3335""
","
","
","""event"",""trial"",""time""
""fullscreenenter"",""0"",""3335""
","
","null","run_exp/static/images/Set 6_rs/186a.jpg","null","","","","","","learn","SR",""
"","html-keyboard-response","177","191891","0.0-177.0","""event"",""trial"",""time""
""fullscreenenter"",""0"",""3335""
","
","
","""event"",""trial"",""time""
""fullscreenenter"",""0"",""3335""
","
","null","<p></p>","null","","","","","","","",""
"","image","178","193151","0.0-178.0","""event"",""trial"",""time""
""fullscreenenter"",""0"",""3335""
","
","
","""event"",""trial"",""time""
""fullscreenenter"",""0"",""3335""
","
","1258","run_exp/static/images/Set 6_rs/138a.jpg","78","","","","","","learn","SL",""
"","show_choice","179","193897","0.0-179.0","""event"",""trial"",""time""
""fullscreenenter"",""0"",""3335""
","
","
","""event"",""trial"",""time""
""fullscreenenter"",""0"",""3335""
","
","null","run_exp/static/images/Set 6_rs/138a.jpg","null","","","","","","learn","SL",""
"","html-keyboard-response","180","194399","0.0-180.0","""event"",""trial"",""time""
""fullscreenenter"",""0"",""3335""
","
","
","""event"",""trial"",""time""
""fullscreenenter"",""0"",""3335""
","
","null","<p></p>","null","","","","","","","",""
"","image","181","195438","0.0-181.0","""event"",""trial"",""time""
""fullscreenenter"",""0"",""3335""
","
","
","""event"",""trial"",""time""
""fullscreenenter"",""0"",""3335""
","
","1036.9000000059605","run_exp/static/images/Set 6_rs/169a.jpg","78","","","","","","learn","SR",""
"","show_choice","182","196402","0.0-182.0","""event"",""trial"",""time""
""fullscreenenter"",""0"",""3335""
","
","
","""event"",""trial"",""time""
""fullscreenenter"",""0"",""3335""
","
","null","run_exp/static/images/Set 6_rs/169a.jpg","null","","","","","","learn","SR",""
"","html-keyboard-response","183","196903","0.0-183.0","""event"",""trial"",""time""
""fullscreenenter"",""0"",""3335""
","
","
","""event"",""trial"",""time""
""fullscreenenter"",""0"",""3335""
","
","null","<p></p>","null","","","","","","","",""
"","image","184","197617","0.0-184.0","""event"",""trial"",""time""
""fullscreenenter"",""0"",""3335""
","
","
","""event"",""trial"",""time""
""fullscreenenter"",""0"",""3335""
","
","712.5999999940395","run_exp/static/images/Set 6_rs/085a.jpg","78","","","","","","learn","SL",""
"","show_choice","185","198906","0.0-185.0","""event"",""trial"",""time""
""fullscreenenter"",""0"",""3335""
","
","
","""event"",""trial"",""time""
""fullscreenenter"",""0"",""3335""
","
","null","run_exp/static/images/Set 6_rs/085a.jpg","null","","","","","","learn","SL",""
"","html-keyboard-response","186","199407","0.0-186.0","""event"",""trial"",""time""
""fullscreenenter"",""0"",""3335""
","
","
","""event"",""trial"",""time""
""fullscreenenter"",""0"",""3335""
","
","null","<p></p>","null","","","","","","","",""
"","image","187","201324","0.0-187.0","""event"",""trial"",""time""
""fullscreenenter"",""0"",""3335""
","
","
","""event"",""trial"",""time""
""fullscreenenter"",""0"",""3335""
","
","1915.5999999940395","run_exp/static/images/Set 6_rs/019a.jpg","86","","","","","","learn","SL",""
"","show_choice","188","201411","0.0-188.0","""event"",""trial"",""time""
""fullscreenenter"",""0"",""3335""
","
","
","""event"",""trial"",""time""
""fullscreenenter"",""0"",""3335""
","
","null","run_exp/static/images/Set 6_rs/019a.jpg","null","","","","","","learn","SL",""
"","html-keyboard-response","189","201912","0.0-189.0","""event"",""trial"",""time""
""fullscreenenter"",""0"",""3335""
","
","
","""event"",""trial"",""time""
""fullscreenenter"",""0"",""3335""
","
","null","<p></p>","null","","","","","","","",""
"","image","190","203522","0.0-190.0","""event"",""trial"",""time""
""fullscreenenter"",""0"",""3335""
","
","
","""event"",""trial"",""time""
""fullscreenenter"",""0"",""3335""
","
","1608","run_exp/static/images/Set 6_rs/129a.jpg","78","","","","","","learn","SL",""
"","show_choice","191","203917","0.0-191.0","""event"",""trial"",""time""
""fullscreenenter"",""0"",""3335""
","
","
","""event"",""trial"",""time""
""fullscreenenter"",""0"",""3335""
","
","null","run_exp/static/images/Set 6_rs/129a.jpg","null","","","","","","learn","SL",""
"","html-keyboard-response","192","204418","0.0-192.0","""event"",""trial"",""time""
""fullscreenenter"",""0"",""3335""
","
","
","""event"",""trial"",""time""
""fullscreenenter"",""0"",""3335""
","
","null","<p></p>","null","","","","","","","",""
"","image","193","206042","0.0-193.0","""event"",""trial"",""time""
""fullscreenenter"",""0"",""3335""
","
","
","""event"",""trial"",""time""
""fullscreenenter"",""0"",""3335""
","
","1622.1000000089407","run_exp/static/images/Set 6_rs/023a.jpg","86","","","","","","learn","SR",""
"","show_choice","194","206421","0.0-194.0","""event"",""trial"",""time""
""fullscreenenter"",""0"",""3335""
","
","
","""event"",""trial"",""time""
""fullscreenenter"",""0"",""3335""
","
","null","run_exp/static/images/Set 6_rs/023a.jpg","null","","","","","","learn","SR",""
"","html-keyboard-response","195","206922","0.0-195.0","""event"",""trial"",""time""
""fullscreenenter"",""0"",""3335""
","
","
","""event"",""trial"",""time""
""fullscreenenter"",""0"",""3335""
","
","null","<p></p>","null","","","","","","","",""
"","test_intro","196","243898","0.0-196.0","""event"",""trial"",""time""
""fullscreenenter"",""0"",""3335""
","
","
","""event"",""trial"",""time""
""fullscreenenter"",""0"",""3335""
","
","null","run_exp/static/audio/clip_2_memory.m4a","null","","","","","<div class='center'><p>Now, lets see how much you remember about the items you just saw.  For each item, you need to indicate if it was <b>old</b> by pressing the <b>v</b> key, <b>similar</b> by pressing the <b>b</b> key, or <b>new</b> by pressing the <b>n</b> key.</p><p>Old refers to an item that you saw before in the indoor/outdoor game that you just played, new refers to an item you have <b>not</b> seen before within the indoor/outdoor game, and similar refers to an item that is similar to an item youve seen before but is not exactly the same. </p><p>Before we begin, lets go over some brief demonstrations to make sure you understand.</p></div>","","",""
"","html-keyboard-response","197","244480","0.0-197.0","""event"",""trial"",""time""
""fullscreenenter"",""0"",""3335""
","
","
","""event"",""trial"",""time""
""fullscreenenter"",""0"",""3335""
","
","578.2999999970198","<div class='center'><p>Now, lets see how much you remember about the items you just saw.  For each item, you need to indicate if it was <b>old</b> by pressing the <b>v</b> key, <b>similar</b> by pressing the <b>b</b> key, or <b>new</b> by pressing the <b>n</b> key.</p><p>Old refers to an item that you saw before in the indoor/outdoor game that you just played, new refers to an item you have <b>not</b> seen before within the indoor/outdoor game, and similar refers to an item that is similar to an item youve seen before but is not exactly the same. </p><p>Before we begin, lets go over some brief demonstrations to make sure you understand.</p><div><p><b>[Press the space bar to continue]</b></p></div>","32","","","","","","","",""
"","items","198","251981","0.0-198.0","""event"",""trial"",""time""
""fullscreenenter"",""0"",""3335""
","
","
","""event"",""trial"",""time""
""fullscreenenter"",""0"",""3335""
","
","null","run_exp/static/audio/clip_3_items.m4a","null","","","","","","","",""
"","mop","199","256484","0.0-199.0","""event"",""trial"",""time""
""fullscreenenter"",""0"",""3335""
","
","
","""event"",""trial"",""time""
""fullscreenenter"",""0"",""3335""
","
","null","run_exp/static/audio/clip_4_mop.m4a","null","","","","","","","",""
"","baseball","200","259987","0.0-200.0","""event"",""trial"",""time""
""fullscreenenter"",""0"",""3335""
","
","
","""event"",""trial"",""time""
""fullscreenenter"",""0"",""3335""
","
","null","run_exp/static/audio/clip_5_baseball.m4a","null","","","","","","","",""
"","trumpet","201","263489","0.0-201.0","""event"",""trial"",""time""
""fullscreenenter"",""0"",""3335""
","
","
","""event"",""trial"",""time""
""fullscreenenter"",""0"",""3335""
","
","null","run_exp/static/audio/clip_6_trumpet.m4a","null","","","","","","","",""
"","gummies","202","266993","0.0-202.0","""event"",""trial"",""time""
""fullscreenenter"",""0"",""3335""
","
","
","""event"",""trial"",""time""
""fullscreenenter"",""0"",""3335""
","
","null","run_exp/static/audio/clip_7_gummies.m4a","null","","","","","","","",""
"","osn","203","271497","0.0-203.0","""event"",""trial"",""time""
""fullscreenenter"",""0"",""3335""
","
","
","""event"",""trial"",""time""
""fullscreenenter"",""0"",""3335""
","
","null","run_exp/static/audio/clip_8_osn.m4a","null","","","","","","","",""
"","old_1","204","277999","0.0-204.0","""event"",""trial"",""time""
""fullscreenenter"",""0"",""3335""
","
","
","""event"",""trial"",""time""
""fullscreenenter"",""0"",""3335""
","
","null","run_exp/static/audio/clip_9_old_trumpet.m4a","null","","","","","","","",""
"","new_1","205","285503","0.0-205.0","""event"",""trial"",""time""
""fullscreenenter"",""0"",""3335""
","
","
","""event"",""trial"",""time""
""fullscreenenter"",""0"",""3335""
","
","null","run_exp/static/audio/clip_10_new_balloon.m4a","null","","","","","","","",""
"","similar_1a","206","290006","0.0-206.0","""event"",""trial"",""time""
""fullscreenenter"",""0"",""3335""
","
","
","""event"",""trial"",""time""
""fullscreenenter"",""0"",""3335""
","
","null","run_exp/static/audio/clip_11a_similar_mop.m4a","null","","","","","","","",""
"","similar_1b","207","296510","0.0-207.0","""event"",""trial"",""time""
""fullscreenenter"",""0"",""3335""
","
","
","""event"",""trial"",""time""
""fullscreenenter"",""0"",""3335""
","
","null","run_exp/static/audio/clip_11b_similar_mop.m4a","null","","","","","","","",""
"","new_2","208","300011","0.0-208.0","""event"",""trial"",""time""
""fullscreenenter"",""0"",""3335""
","
","
","""event"",""trial"",""time""
""fullscreenenter"",""0"",""3335""
","
","null","run_exp/static/audio/clip_12_new_stoplight.m4a","null","","","","","","","",""
"","old_2","209","303516","0.0-209.0","""event"",""trial"",""time""
""fullscreenenter"",""0"",""3335""
","
","
","""event"",""trial"",""time""
""fullscreenenter"",""0"",""3335""
","
","null","run_exp/static/audio/clip_13_old_baseball.m4a","null","","","","","","","",""
"","similar_2a","210","307020","0.0-210.0","""event"",""trial"",""time""
""fullscreenenter"",""0"",""3335""
","
","
","""event"",""trial"",""time""
""fullscreenenter"",""0"",""3335""
","
","null","run_exp/static/audio/clip_14a_similar_gummies.m4a","null","","","","","","","",""
"","similar_2b","211","314523","0.0-211.0","""event"",""trial"",""time""
""fullscreenenter"",""0"",""3335""
","
","
","""event"",""trial"",""time""
""fullscreenenter"",""0"",""3335""
","
","null","run_exp/static/audio/clip_14b_similar_gummies.m4a","null","","","","","","","",""
"","practice","212","356678","0.0-212.0","""event"",""trial"",""time""
""fullscreenenter"",""0"",""3335""
","
","
","""event"",""trial"",""time""
""fullscreenenter"",""0"",""3335""
","
","null","run_exp/static/audio/clip_15_practice.m4a","null","","","","","<div class='center'><p>Lets practice a little to make sure you understand the difference between new, similar, and old. Lets say you saw these three items in the indoor/outdoor game.</p><p> Try your best to remember these images because youll soon be tested on them in a practice game. In the practice game, youll be shown images and youll have to say if they are old (one of the three images belows), similar (similar to one of the images below but not exactly the same), or new (are not one of the images below nor similar to them).</p><p>Once you press the space bar youll be shown these images again but one at time. Then youll begin the practice game.</p><p><img src='run_exp/static/images/tutorial/test/three_indoor_outdoor.png' height='300'></p></div>","","",""
"","html-keyboard-response","213","356882","0.0-213.0","""event"",""trial"",""time""
""fullscreenenter"",""0"",""3335""
","
","
","""event"",""trial"",""time""
""fullscreenenter"",""0"",""3335""
","
","153.1000000089407","<div class='center'><p>Lets practice a little to make sure you understand the difference between new, similar, and old. Lets say you saw these three items in the indoor/outdoor game.</p><p> Try your best to remember these images because youll soon be tested on them in a practice game. In the practice game, youll be shown images and youll have to say if they are old (one of the three images belows), similar (similar to one of the images below but not exactly the same), or new (are not one of the images below nor similar to them).</p><p>Once you press the space bar youll be shown these images again but one at time. Then youll begin the practice game.</p><p><img src='run_exp/static/images/tutorial/test/three_indoor_outdoor.png' height='300'></p><div><p><b>[Press the space bar to continue]</b></p></div>","32","","","","","","","",""
"","planet","214","358884","0.0-214.0","""event"",""trial"",""time""
""fullscreenenter"",""0"",""3335""
","
","
","""event"",""trial"",""time""
""fullscreenenter"",""0"",""3335""
","
","null","run_exp/static/images/tutorial/test/008a.jpg","null","","","","","","","",""
"","boot","215","360886","0.0-215.0","""event"",""trial"",""time""
""fullscreenenter"",""0"",""3335""
","
","
","""event"",""trial"",""time""
""fullscreenenter"",""0"",""3335""
","
","null","run_exp/static/images/tutorial/test/011a.jpg","null","","","","","","","",""
"","lemon","216","362888","0.0-216.0","""event"",""trial"",""time""
""fullscreenenter"",""0"",""3335""
","
","
","""event"",""trial"",""time""
""fullscreenenter"",""0"",""3335""
","
","null","run_exp/static/images/tutorial/test/018a.jpg","null","","","","","","","",""
"","practice_q1","217","365915","0.0-217.0","""event"",""trial"",""time""
""fullscreenenter"",""0"",""3335""
","
","
","""event"",""trial"",""time""
""fullscreenenter"",""0"",""3335""
","
","3023.4000000059605","run_exp/static/audio/clip_16_practice_question.m4a","78","","","","","","","",""
"","correct","218","367822","0.0-218.0-0.0","""event"",""trial"",""time""
""fullscreenenter"",""0"",""3335""
","
","
","""event"",""trial"",""time""
""fullscreenenter"",""0"",""3335""
","
","null","run_exp/static/audio/clip_17_correct.m4a","null","","","","","<div class='center'><p>That's correct!</p></div>","","",""
"","html-keyboard-response","219","368772","0.0-218.0-1.0","""event"",""trial"",""time""
""fullscreenenter"",""0"",""3335""
","
","
","""event"",""trial"",""time""
""fullscreenenter"",""0"",""3335""
","
","948.4000000059605","<div class='center'><p>That's correct!</p><div><p><b>[Press the space bar to continue]</b></p></div>","32","","","","","","","",""
"","practice_q2","220","370103","0.0-218.0-2.0","""event"",""trial"",""time""
""fullscreenenter"",""0"",""3335""
","
","
","""event"",""trial"",""time""
""fullscreenenter"",""0"",""3335""
","
","1329.4000000059605","run_exp/static/audio/clip_16_practice_question.m4a","86","","","","","","","",""
"","correct","221","371978","0.0-219.0-0.0","""event"",""trial"",""time""
""fullscreenenter"",""0"",""3335""
","
","
","""event"",""trial"",""time""
""fullscreenenter"",""0"",""3335""
","
","null","run_exp/static/audio/clip_17_correct.m4a","null","","","","","<div class='center'><p>That's correct!</p></div>","","",""
"","html-keyboard-response","222","372928","0.0-219.0-1.0","""event"",""trial"",""time""
""fullscreenenter"",""0"",""3335""
","
","
","""event"",""trial"",""time""
""fullscreenenter"",""0"",""3335""
","
","949.2000000029802","<div class='center'><p>That's correct!</p><div><p><b>[Press the space bar to continue]</b></p></div>","32","","","","","","","",""
"","practice_q3","223","374415","0.0-219.0-2.0","""event"",""trial"",""time""
""fullscreenenter"",""0"",""3335""
","
","
","""event"",""trial"",""time""
""fullscreenenter"",""0"",""3335""
","
","1484.5999999940395","run_exp/static/audio/clip_16_practice_question.m4a","66","","","","","","","",""
"","correct","224","376529","0.0-220.0-0.0","""event"",""trial"",""time""
""fullscreenenter"",""0"",""3335""
","
","
","""event"",""trial"",""time""
""fullscreenenter"",""0"",""3335""
","
","null","run_exp/static/audio/clip_17_correct.m4a","null","","","","","<div class='center'><p>That's correct!</p></div>","","",""
"","html-keyboard-response","225","377001","0.0-220.0-1.0","""event"",""trial"",""time""
""fullscreenenter"",""0"",""3335""
","
","
","""event"",""trial"",""time""
""fullscreenenter"",""0"",""3335""
","
","470.1000000089407","<div class='center'><p>That's correct!</p><div><p><b>[Press the space bar to continue]</b></p></div>","32","","","","","","","",""
"","begin_text","226","395477","0.0-221.0-0.0","""event"",""trial"",""time""
""fullscreenenter"",""0"",""3335""
","
","
","""event"",""trial"",""time""
""fullscreenenter"",""0"",""3335""
","
","null","run_exp/static/audio/clip_22_begin_test.m4a","null","","","","","<div class='center'><p>On to the real game where well test your memory of items from the indoor/outdoor game. For each item, you need to indicate if the item is <b>old</b> by pressing the <b>v</b> key, <b>similar</b> by pressing the <b>b</b> key, or <b>new</b> by pressing the <b>n</b> key. </p></div>","","",""
"","html-keyboard-response","227","395591","0.0-221.0-1.0","""event"",""trial"",""time""
""fullscreenenter"",""0"",""3335""
","
","
","""event"",""trial"",""time""
""fullscreenenter"",""0"",""3335""
","
","110.5","<div class='center'><p>On to the real game where well test your memory of items from the indoor/outdoor game. For each item, you need to indicate if the item is <b>old</b> by pressing the <b>v</b> key, <b>similar</b> by pressing the <b>b</b> key, or <b>new</b> by pressing the <b>n</b> key. </p><div><p><b>[Press the space bar to continue]</b></p></div>","32","","","","","","","",""
"","image","228","398235","0.0-222.0-0.0","""event"",""trial"",""time""
""fullscreenenter"",""0"",""3335""
","
","
","""event"",""trial"",""time""
""fullscreenenter"",""0"",""3335""
","
","2641.7000000029802","run_exp/static/images/Set 6_rs/086a.jpg","78","","","","","","test","TF","1"
"","show_choice","229","398736","0.0-222.0-1.0","""event"",""trial"",""time""
""fullscreenenter"",""0"",""3335""
","
","
","""event"",""trial"",""time""
""fullscreenenter"",""0"",""3335""
","
","null","run_exp/static/images/Set 6_rs/086a.jpg","null","","","","","","test","TF",""
"","html-keyboard-response","230","399241","0.0-222.0-2.0","""event"",""trial"",""time""
""fullscreenenter"",""0"",""3335""
","
","
","""event"",""trial"",""time""
""fullscreenenter"",""0"",""3335""
","
","null","<p></p>","null","","","","","","","",""
"","image","231","400411","0.0-223.0-0.0","""event"",""trial"",""time""
""fullscreenenter"",""0"",""3335""
","
","
","""event"",""trial"",""time""
""fullscreenenter"",""0"",""3335""
","
","1168.5999999940395","run_exp/static/images/Set 6_rs/109a.jpg","78","","","","","","test","TF","5"
"","show_choice","232","400913","0.0-223.0-1.0","""event"",""trial"",""time""
""fullscreenenter"",""0"",""3335""
","
","
","""event"",""trial"",""time""
""fullscreenenter"",""0"",""3335""
","
","null","run_exp/static/images/Set 6_rs/109a.jpg","null","","","","","","test","TF",""
"","html-keyboard-response","233","401415","0.0-223.0-2.0","""event"",""trial"",""time""
""fullscreenenter"",""0"",""3335""
","
","
","""event"",""trial"",""time""
""fullscreenenter"",""0"",""3335""
","
","null","<p></p>","null","","","","","","","",""
"","image","234","402981","0.0-224.0-0.0","""event"",""trial"",""time""
""fullscreenenter"",""0"",""3335""
","
","
","""event"",""trial"",""time""
""fullscreenenter"",""0"",""3335""
","
","1565.1000000089407","run_exp/static/images/Set 6_rs/076a.jpg","86","","","","","","test","TR","4"
"","show_choice","235","403484","0.0-224.0-1.0","""event"",""trial"",""time""
""fullscreenenter"",""0"",""3335""
","
","
","""event"",""trial"",""time""
""fullscreenenter"",""0"",""3335""
","
","null","run_exp/static/images/Set 6_rs/076a.jpg","null","","","","","","test","TR",""
"","html-keyboard-response","236","403985","0.0-224.0-2.0","""event"",""trial"",""time""
""fullscreenenter"",""0"",""3335""
","
","
","""event"",""trial"",""time""
""fullscreenenter"",""0"",""3335""
","
","null","<p></p>","null","","","","","","","",""
"","image","237","405011","0.0-225.0-0.0","""event"",""trial"",""time""
""fullscreenenter"",""0"",""3335""
","
","
","""event"",""trial"",""time""
""fullscreenenter"",""0"",""3335""
","
","1023.9000000059605","run_exp/static/images/Set 6_rs/006b.jpg","86","","","","","","test","TL","2"
"","show_choice","238","405514","0.0-225.0-1.0","""event"",""trial"",""time""
""fullscreenenter"",""0"",""3335""
","
","
","""event"",""trial"",""time""
""fullscreenenter"",""0"",""3335""
","
","null","run_exp/static/images/Set 6_rs/006b.jpg","null","","","","","","test","TL",""
"","html-keyboard-response","239","406015","0.0-225.0-2.0","""event"",""trial"",""time""
""fullscreenenter"",""0"",""3335""
","
","
","""event"",""trial"",""time""
""fullscreenenter"",""0"",""3335""
","
","null","<p></p>","null","","","","","","","",""
"","image","240","406917","0.0-226.0-0.0","""event"",""trial"",""time""
""fullscreenenter"",""0"",""3335""
","
","
","""event"",""trial"",""time""
""fullscreenenter"",""0"",""3335""
","
","900","run_exp/static/images/Set 6_rs/129b.jpg","86","","","","","","test","TL","1"
"","show_choice","241","407419","0.0-226.0-1.0","""event"",""trial"",""time""
""fullscreenenter"",""0"",""3335""
","
","
","""event"",""trial"",""time""
""fullscreenenter"",""0"",""3335""
","
","null","run_exp/static/images/Set 6_rs/129b.jpg","null","","","","","","test","TL",""
"","html-keyboard-response","242","407921","0.0-226.0-2.0","""event"",""trial"",""time""
""fullscreenenter"",""0"",""3335""
","
","
","""event"",""trial"",""time""
""fullscreenenter"",""0"",""3335""
","
","null","<p></p>","null","","","","","","","",""
"","image","243","409558","0.0-227.0-0.0","""event"",""trial"",""time""
""fullscreenenter"",""0"",""3335""
","
","
","""event"",""trial"",""time""
""fullscreenenter"",""0"",""3335""
","
","1635.7999999970198","run_exp/static/images/Set 6_rs/171a.jpg","66","","","","","","test","TF","1"
"","show_choice","244","410060","0.0-227.0-1.0","""event"",""trial"",""time""
""fullscreenenter"",""0"",""3335""
","
","
","""event"",""trial"",""time""
""fullscreenenter"",""0"",""3335""
","
","null","run_exp/static/images/Set 6_rs/171a.jpg","null","","","","","","test","TF",""
"","html-keyboard-response","245","410561","0.0-227.0-2.0","""event"",""trial"",""time""
""fullscreenenter"",""0"",""3335""
","
","
","""event"",""trial"",""time""
""fullscreenenter"",""0"",""3335""
","
","null","<p></p>","null","","","","","","","",""
"","image","246","412221","0.0-228.0-0.0","""event"",""trial"",""time""
""fullscreenenter"",""0"",""3335""
","
","
","""event"",""trial"",""time""
""fullscreenenter"",""0"",""3335""
","
","1658.3999999910593","run_exp/static/images/Set 6_rs/008b.jpg","66","","","","","","test","TL","2"
"","show_choice","247","412722","0.0-228.0-1.0","""event"",""trial"",""time""
""fullscreenenter"",""0"",""3335""
","
","
","""event"",""trial"",""time""
""fullscreenenter"",""0"",""3335""
","
","null","run_exp/static/images/Set 6_rs/008b.jpg","null","","","","","","test","TL",""
"","html-keyboard-response","248","413224","0.0-228.0-2.0","""event"",""trial"",""time""
""fullscreenenter"",""0"",""3335""
","
","
","""event"",""trial"",""time""
""fullscreenenter"",""0"",""3335""
","
","null","<p></p>","null","","","","","","","",""
"","image","249","414829","0.0-229.0-0.0","""event"",""trial"",""time""
""fullscreenenter"",""0"",""3335""
","
","
","""event"",""trial"",""time""
""fullscreenenter"",""0"",""3335""
","
","1603.3999999910593","run_exp/static/images/Set 6_rs/088a.jpg","86","","","","","","test","TR","2"
"","show_choice","250","415330","0.0-229.0-1.0","""event"",""trial"",""time""
""fullscreenenter"",""0"",""3335""
","
","
","""event"",""trial"",""time""
""fullscreenenter"",""0"",""3335""
","
","null","run_exp/static/images/Set 6_rs/088a.jpg","null","","","","","","test","TR",""
"","html-keyboard-response","251","415832","0.0-229.0-2.0","""event"",""trial"",""time""
""fullscreenenter"",""0"",""3335""
","
","
","""event"",""trial"",""time""
""fullscreenenter"",""0"",""3335""
","
","null","<p></p>","null","","","","","","","",""
"","image","252","416992","0.0-230.0-0.0","""event"",""trial"",""time""
""fullscreenenter"",""0"",""3335""
","
","
","""event"",""trial"",""time""
""fullscreenenter"",""0"",""3335""
","
","1157.7999999970198","run_exp/static/images/Set 6_rs/085b.jpg","66","","","","","","test","TL","1"
"","show_choice","253","417497","0.0-230.0-1.0","""event"",""trial"",""time""
""fullscreenenter"",""0"",""3335""
","
","
","""event"",""trial"",""time""
""fullscreenenter"",""0"",""3335""
","
","null","run_exp/static/images/Set 6_rs/085b.jpg","null","","","","","","test","TL",""
"","html-keyboard-response","254","417999","0.0-230.0-2.0","""event"",""trial"",""time""
""fullscreenenter"",""0"",""3335""
","
","
","""event"",""trial"",""time""
""fullscreenenter"",""0"",""3335""
","
","null","<p></p>","null","","","","","","","",""
"","image","255","418860","0.0-231.0-0.0","""event"",""trial"",""time""
""fullscreenenter"",""0"",""3335""
","
","
","""event"",""trial"",""time""
""fullscreenenter"",""0"",""3335""
","
","859.3999999910593","run_exp/static/images/Set 6_rs/136a.jpg","78","","","","","","test","TF","4"
"","show_choice","256","419364","0.0-231.0-1.0","""event"",""trial"",""time""
""fullscreenenter"",""0"",""3335""
","
","
","""event"",""trial"",""time""
""fullscreenenter"",""0"",""3335""
","
","null","run_exp/static/images/Set 6_rs/136a.jpg","null","","","","","","test","TF",""
"","html-keyboard-response","257","419869","0.0-231.0-2.0","""event"",""trial"",""time""
""fullscreenenter"",""0"",""3335""
","
","
","""event"",""trial"",""time""
""fullscreenenter"",""0"",""3335""
","
","null","<p></p>","null","","","","","","","",""
"","image","258","420775","0.0-232.0-0.0","""event"",""trial"",""time""
""fullscreenenter"",""0"",""3335""
","
","
","""event"",""trial"",""time""
""fullscreenenter"",""0"",""3335""
","
","904.7999999970198","run_exp/static/images/Set 6_rs/070a.jpg","86","","","","","","test","TR","2"
"","show_choice","259","421277","0.0-232.0-1.0","""event"",""trial"",""time""
""fullscreenenter"",""0"",""3335""
","
","
","""event"",""trial"",""time""
""fullscreenenter"",""0"",""3335""
","
","null","run_exp/static/images/Set 6_rs/070a.jpg","null","","","","","","test","TR",""
"","html-keyboard-response","260","421779","0.0-232.0-2.0","""event"",""trial"",""time""
""fullscreenenter"",""0"",""3335""
","
","
","""event"",""trial"",""time""
""fullscreenenter"",""0"",""3335""
","
","null","<p></p>","null","","","","","","","",""
"","image","261","422962","0.0-233.0-0.0","""event"",""trial"",""time""
""fullscreenenter"",""0"",""3335""
","
","
","""event"",""trial"",""time""
""fullscreenenter"",""0"",""3335""
","
","1181.199999988079","run_exp/static/images/Set 6_rs/100a.jpg","78","","","","","","test","TF","2"
"","show_choice","262","423464","0.0-233.0-1.0","""event"",""trial"",""time""
""fullscreenenter"",""0"",""3335""
","
","
","""event"",""trial"",""time""
""fullscreenenter"",""0"",""3335""
","
","null","run_exp/static/images/Set 6_rs/100a.jpg","null","","","","","","test","TF",""
"","html-keyboard-response","263","423966","0.0-233.0-2.0","""event"",""trial"",""time""
""fullscreenenter"",""0"",""3335""
","
","
","""event"",""trial"",""time""
""fullscreenenter"",""0"",""3335""
","
","null","<p></p>","null","","","","","","","",""
"","image","264","425095","0.0-234.0-0.0","""event"",""trial"",""time""
""fullscreenenter"",""0"",""3335""
","
","
","""event"",""trial"",""time""
""fullscreenenter"",""0"",""3335""
","
","1126.9000000059605","run_exp/static/images/Set 6_rs/168b.jpg","78","","","","","","test","TL","3"
"","show_choice","265","425597","0.0-234.0-1.0","""event"",""trial"",""time""
""fullscreenenter"",""0"",""3335""
","
","
","""event"",""trial"",""time""
""fullscreenenter"",""0"",""3335""
","
","null","run_exp/static/images/Set 6_rs/168b.jpg","null","","","","","","test","TL",""
"","html-keyboard-response","266","426098","0.0-234.0-2.0","""event"",""trial"",""time""
""fullscreenenter"",""0"",""3335""
","
","
","""event"",""trial"",""time""
""fullscreenenter"",""0"",""3335""
","
","null","<p></p>","null","","","","","","","",""
"","image","267","427199","0.0-235.0-0.0","""event"",""trial"",""time""
""fullscreenenter"",""0"",""3335""
","
","
","""event"",""trial"",""time""
""fullscreenenter"",""0"",""3335""
","
","1099.5","run_exp/static/images/Set 6_rs/144b.jpg","86","","","","","","test","TL","4"
"","show_choice","268","427703","0.0-235.0-1.0","""event"",""trial"",""time""
""fullscreenenter"",""0"",""3335""
","
","
","""event"",""trial"",""time""
""fullscreenenter"",""0"",""3335""
","
","null","run_exp/static/images/Set 6_rs/144b.jpg","null","","","","","","test","TL",""
"","html-keyboard-response","269","428207","0.0-235.0-2.0","""event"",""trial"",""time""
""fullscreenenter"",""0"",""3335""
","
","
","""event"",""trial"",""time""
""fullscreenenter"",""0"",""3335""
","
","null","<p></p>","null","","","","","","","",""
"","image","270","429346","0.0-236.0-0.0","""event"",""trial"",""time""
""fullscreenenter"",""0"",""3335""
","
","
","""event"",""trial"",""time""
""fullscreenenter"",""0"",""3335""
","
","1137.2999999970198","run_exp/static/images/Set 6_rs/055b.jpg","86","","","","","","test","TL","4"
"","show_choice","271","429848","0.0-236.0-1.0","""event"",""trial"",""time""
""fullscreenenter"",""0"",""3335""
","
","
","""event"",""trial"",""time""
""fullscreenenter"",""0"",""3335""
","
","null","run_exp/static/images/Set 6_rs/055b.jpg","null","","","","","","test","TL",""
"","html-keyboard-response","272","430349","0.0-236.0-2.0","""event"",""trial"",""time""
""fullscreenenter"",""0"",""3335""
","
","
","""event"",""trial"",""time""
""fullscreenenter"",""0"",""3335""
","
","null","<p></p>","null","","","","","","","",""
"","image","273","431233","0.0-237.0-0.0","""event"",""trial"",""time""
""fullscreenenter"",""0"",""3335""
","
","
","""event"",""trial"",""time""
""fullscreenenter"",""0"",""3335""
","
","879.7000000029802","run_exp/static/images/Set 6_rs/132a.jpg","86","","","","","","test","TR","5"
"","show_choice","274","431734","0.0-237.0-1.0","""event"",""trial"",""time""
""fullscreenenter"",""0"",""3335""
","
","
","""event"",""trial"",""time""
""fullscreenenter"",""0"",""3335""
","
","null","run_exp/static/images/Set 6_rs/132a.jpg","null","","","","","","test","TR",""
"","html-keyboard-response","275","432236","0.0-237.0-2.0","""event"",""trial"",""time""
""fullscreenenter"",""0"",""3335""
","
","
","""event"",""trial"",""time""
""fullscreenenter"",""0"",""3335""
","
","null","<p></p>","null","","","","","","","",""
"","image","276","433524","0.0-238.0-0.0","""event"",""trial"",""time""
""fullscreenenter"",""0"",""3335""
","
","
","""event"",""trial"",""time""
""fullscreenenter"",""0"",""3335""
","
","1286.9000000059605","run_exp/static/images/Set 6_rs/011a.jpg","66","","","","","","test","TF","3"
"","show_choice","277","434026","0.0-238.0-1.0","""event"",""trial"",""time""
""fullscreenenter"",""0"",""3335""
","
","
","""event"",""trial"",""time""
""fullscreenenter"",""0"",""3335""
","
","null","run_exp/static/images/Set 6_rs/011a.jpg","null","","","","","","test","TF",""
"","html-keyboard-response","278","434528","0.0-238.0-2.0","""event"",""trial"",""time""
""fullscreenenter"",""0"",""3335""
","
","
","""event"",""trial"",""time""
""fullscreenenter"",""0"",""3335""
","
","null","<p></p>","null","","","","","","","",""
"","image","279","435416","0.0-239.0-0.0","""event"",""trial"",""time""
""fullscreenenter"",""0"",""3335""
","
","
","""event"",""trial"",""time""
""fullscreenenter"",""0"",""3335""
","
","886.5","run_exp/static/images/Set 6_rs/166a.jpg","86","","","","","","test","TR","1"
"","show_choice","280","435918","0.0-239.0-1.0","""event"",""trial"",""time""
""fullscreenenter"",""0"",""3335""
","
","
","""event"",""trial"",""time""
""fullscreenenter"",""0"",""3335""
","
","null","run_exp/static/images/Set 6_rs/166a.jpg","null","","","","","","test","TR",""
"","html-keyboard-response","281","436420","0.0-239.0-2.0","""event"",""trial"",""time""
""fullscreenenter"",""0"",""3335""
","
","
","""event"",""trial"",""time""
""fullscreenenter"",""0"",""3335""
","
","null","<p></p>","null","","","","","","","",""
"","image","282","437390","0.0-240.0-0.0","""event"",""trial"",""time""
""fullscreenenter"",""0"",""3335""
","
","
","""event"",""trial"",""time""
""fullscreenenter"",""0"",""3335""
","
","969.0999999940395","run_exp/static/images/Set 6_rs/077a.jpg","78","","","","","","test","TF","3"
"","show_choice","283","437894","0.0-240.0-1.0","""event"",""trial"",""time""
""fullscreenenter"",""0"",""3335""
","
","
","""event"",""trial"",""time""
""fullscreenenter"",""0"",""3335""
","
","null","run_exp/static/images/Set 6_rs/077a.jpg","null","","","","","","test","TF",""
"","html-keyboard-response","284","438395","0.0-240.0-2.0","""event"",""trial"",""time""
""fullscreenenter"",""0"",""3335""
","
","
","""event"",""trial"",""time""
""fullscreenenter"",""0"",""3335""
","
","null","<p></p>","null","","","","","","","",""
"","image","285","439351","0.0-241.0-0.0","""event"",""trial"",""time""
""fullscreenenter"",""0"",""3335""
","
","
","""event"",""trial"",""time""
""fullscreenenter"",""0"",""3335""
","
","954.0999999940395","run_exp/static/images/Set 6_rs/105a.jpg","78","","","","","","test","TF","5"
"","show_choice","286","439853","0.0-241.0-1.0","""event"",""trial"",""time""
""fullscreenenter"",""0"",""3335""
","
","
","""event"",""trial"",""time""
""fullscreenenter"",""0"",""3335""
","
","null","run_exp/static/images/Set 6_rs/105a.jpg","null","","","","","","test","TF",""
"","html-keyboard-response","287","440358","0.0-241.0-2.0","""event"",""trial"",""time""
""fullscreenenter"",""0"",""3335""
","
","
","""event"",""trial"",""time""
""fullscreenenter"",""0"",""3335""
","
","null","<p></p>","null","","","","","","","",""
"","image","288","441416","0.0-242.0-0.0","""event"",""trial"",""time""
""fullscreenenter"",""0"",""3335""
","
","
","""event"",""trial"",""time""
""fullscreenenter"",""0"",""3335""
","
","1056.4000000059605","run_exp/static/images/Set 6_rs/025b.jpg","66","","","","","","test","TL","5"
"","show_choice","289","441918","0.0-242.0-1.0","""event"",""trial"",""time""
""fullscreenenter"",""0"",""3335""
","
","
","""event"",""trial"",""time""
""fullscreenenter"",""0"",""3335""
","
","null","run_exp/static/images/Set 6_rs/025b.jpg","null","","","","","","test","TL",""
"","html-keyboard-response","290","442419","0.0-242.0-2.0","""event"",""trial"",""time""
""fullscreenenter"",""0"",""3335""
","
","
","""event"",""trial"",""time""
""fullscreenenter"",""0"",""3335""
","
","null","<p></p>","null","","","","","","","",""
"","image","291","443458","0.0-243.0-0.0","""event"",""trial"",""time""
""fullscreenenter"",""0"",""3335""
","
","
","""event"",""trial"",""time""
""fullscreenenter"",""0"",""3335""
","
","1037.2999999970198","run_exp/static/images/Set 6_rs/186a.jpg","86","","","","","","test","TR","5"
"","show_choice","292","443961","0.0-243.0-1.0","""event"",""trial"",""time""
""fullscreenenter"",""0"",""3335""
","
","
","""event"",""trial"",""time""
""fullscreenenter"",""0"",""3335""
","
","null","run_exp/static/images/Set 6_rs/186a.jpg","null","","","","","","test","TR",""
"","html-keyboard-response","293","444464","0.0-243.0-2.0","""event"",""trial"",""time""
""fullscreenenter"",""0"",""3335""
","
","
","""event"",""trial"",""time""
""fullscreenenter"",""0"",""3335""
","
","null","<p></p>","null","","","","","","","",""
"","image","294","445299","0.0-244.0-0.0","""event"",""trial"",""time""
""fullscreenenter"",""0"",""3335""
","
","
","""event"",""trial"",""time""
""fullscreenenter"",""0"",""3335""
","
","834.5999999940395","run_exp/static/images/Set 6_rs/140a.jpg","78","","","","","","test","TF","1"
"","show_choice","295","445801","0.0-244.0-1.0","""event"",""trial"",""time""
""fullscreenenter"",""0"",""3335""
","
","
","""event"",""trial"",""time""
""fullscreenenter"",""0"",""3335""
","
","null","run_exp/static/images/Set 6_rs/140a.jpg","null","","","","","","test","TF",""
"","html-keyboard-response","296","446303","0.0-244.0-2.0","""event"",""trial"",""time""
""fullscreenenter"",""0"",""3335""
","
","
","""event"",""trial"",""time""
""fullscreenenter"",""0"",""3335""
","
","null","<p></p>","null","","","","","","","",""
"","image","297","447841","0.0-245.0-0.0","""event"",""trial"",""time""
""fullscreenenter"",""0"",""3335""
","
","
","""event"",""trial"",""time""
""fullscreenenter"",""0"",""3335""
","
","1535.699999988079","run_exp/static/images/Set 6_rs/073b.jpg","66","","","","","","test","TL","3"
"","show_choice","298","448343","0.0-245.0-1.0","""event"",""trial"",""time""
""fullscreenenter"",""0"",""3335""
","
","
","""event"",""trial"",""time""
""fullscreenenter"",""0"",""3335""
","
","null","run_exp/static/images/Set 6_rs/073b.jpg","null","","","","","","test","TL",""
"","html-keyboard-response","299","448844","0.0-245.0-2.0","""event"",""trial"",""time""
""fullscreenenter"",""0"",""3335""
","
","
","""event"",""trial"",""time""
""fullscreenenter"",""0"",""3335""
","
","null","<p></p>","null","","","","","","","",""
"","image","300","449677","0.0-246.0-0.0","""event"",""trial"",""time""
""fullscreenenter"",""0"",""3335""
","
","
","""event"",""trial"",""time""
""fullscreenenter"",""0"",""3335""
","
","831.2999999970198","run_exp/static/images/Set 6_rs/024a.jpg","86","","","","","","test","TR","5"
"","show_choice","301","450179","0.0-246.0-1.0","""event"",""trial"",""time""
""fullscreenenter"",""0"",""3335""
","
","
","""event"",""trial"",""time""
""fullscreenenter"",""0"",""3335""
","
","null","run_exp/static/images/Set 6_rs/024a.jpg","null","","","","","","test","TR",""
"","html-keyboard-response","302","450682","0.0-246.0-2.0","""event"",""trial"",""time""
""fullscreenenter"",""0"",""3335""
","
","
","""event"",""trial"",""time""
""fullscreenenter"",""0"",""3335""
","
","null","<p></p>","null","","","","","","","",""
"","image","303","451717","0.0-247.0-0.0","""event"",""trial"",""time""
""fullscreenenter"",""0"",""3335""
","
","
","""event"",""trial"",""time""
""fullscreenenter"",""0"",""3335""
","
","1033.4000000059605","run_exp/static/images/Set 6_rs/074b.jpg","86","","","","","","test","TL","4"
"","show_choice","304","452218","0.0-247.0-1.0","""event"",""trial"",""time""
""fullscreenenter"",""0"",""3335""
","
","
","""event"",""trial"",""time""
""fullscreenenter"",""0"",""3335""
","
","null","run_exp/static/images/Set 6_rs/074b.jpg","null","","","","","","test","TL",""
"","html-keyboard-response","305","452720","0.0-247.0-2.0","""event"",""trial"",""time""
""fullscreenenter"",""0"",""3335""
","
","
","""event"",""trial"",""time""
""fullscreenenter"",""0"",""3335""
","
","null","<p></p>","null","","","","","","","",""
"","image","306","454193","0.0-248.0-0.0","""event"",""trial"",""time""
""fullscreenenter"",""0"",""3335""
","
","
","""event"",""trial"",""time""
""fullscreenenter"",""0"",""3335""
","
","1471.0999999940395","run_exp/static/images/Set 6_rs/177a.jpg","66","","","","","","test","TR","5"
"","show_choice","307","454697","0.0-248.0-1.0","""event"",""trial"",""time""
""fullscreenenter"",""0"",""3335""
","
","
","""event"",""trial"",""time""
""fullscreenenter"",""0"",""3335""
","
","null","run_exp/static/images/Set 6_rs/177a.jpg","null","","","","","","test","TR",""
"","html-keyboard-response","308","455200","0.0-248.0-2.0","""event"",""trial"",""time""
""fullscreenenter"",""0"",""3335""
","
","
","""event"",""trial"",""time""
""fullscreenenter"",""0"",""3335""
","
","null","<p></p>","null","","","","","","","",""
"","image","309","456589","0.0-249.0-0.0","""event"",""trial"",""time""
""fullscreenenter"",""0"",""3335""
","
","
","""event"",""trial"",""time""
""fullscreenenter"",""0"",""3335""
","
","1386.2999999970198","run_exp/static/images/Set 6_rs/122a.jpg","86","","","","","","test","TR","5"
"","show_choice","310","457091","0.0-249.0-1.0","""event"",""trial"",""time""
""fullscreenenter"",""0"",""3335""
","
","
","""event"",""trial"",""time""
""fullscreenenter"",""0"",""3335""
","
","null","run_exp/static/images/Set 6_rs/122a.jpg","null","","","","","","test","TR",""
"","html-keyboard-response","311","457593","0.0-249.0-2.0","""event"",""trial"",""time""
""fullscreenenter"",""0"",""3335""
","
","
","""event"",""trial"",""time""
""fullscreenenter"",""0"",""3335""
","
","null","<p></p>","null","","","","","","","",""
"","image","312","458927","0.0-250.0-0.0","""event"",""trial"",""time""
""fullscreenenter"",""0"",""3335""
","
","
","""event"",""trial"",""time""
""fullscreenenter"",""0"",""3335""
","
","1332.0999999940395","run_exp/static/images/Set 6_rs/063a.jpg","86","","","","","","test","TR","2"
"","show_choice","313","459431","0.0-250.0-1.0","""event"",""trial"",""time""
""fullscreenenter"",""0"",""3335""
","
","
","""event"",""trial"",""time""
""fullscreenenter"",""0"",""3335""
","
","null","run_exp/static/images/Set 6_rs/063a.jpg","null","","","","","","test","TR",""
"","html-keyboard-response","314","459934","0.0-250.0-2.0","""event"",""trial"",""time""
""fullscreenenter"",""0"",""3335""
","
","
","""event"",""trial"",""time""
""fullscreenenter"",""0"",""3335""
","
","null","<p></p>","null","","","","","","","",""
"","image","315","461657","0.0-251.0-0.0","""event"",""trial"",""time""
""fullscreenenter"",""0"",""3335""
","
","
","""event"",""trial"",""time""
""fullscreenenter"",""0"",""3335""
","
","1721.5999999940395","run_exp/static/images/Set 6_rs/167b.jpg","66","","","","","","test","TL","2"
"","show_choice","316","462160","0.0-251.0-1.0","""event"",""trial"",""time""
""fullscreenenter"",""0"",""3335""
","
","
","""event"",""trial"",""time""
""fullscreenenter"",""0"",""3335""
","
","null","run_exp/static/images/Set 6_rs/167b.jpg","null","","","","","","test","TL",""
"","html-keyboard-response","317","462661","0.0-251.0-2.0","""event"",""trial"",""time""
""fullscreenenter"",""0"",""3335""
","
","
","""event"",""trial"",""time""
""fullscreenenter"",""0"",""3335""
","
","null","<p></p>","null","","","","","","","",""
"","image","318","463755","0.0-252.0-0.0","""event"",""trial"",""time""
""fullscreenenter"",""0"",""3335""
","
","
","""event"",""trial"",""time""
""fullscreenenter"",""0"",""3335""
","
","1089.8999999910593","run_exp/static/images/Set 6_rs/181b.jpg","86","","","","","","test","TL","1"
"","show_choice","319","464260","0.0-252.0-1.0","""event"",""trial"",""time""
""fullscreenenter"",""0"",""3335""
","
","
","""event"",""trial"",""time""
""fullscreenenter"",""0"",""3335""
","
","null","run_exp/static/images/Set 6_rs/181b.jpg","null","","","","","","test","TL",""
"","html-keyboard-response","320","464762","0.0-252.0-2.0","""event"",""trial"",""time""
""fullscreenenter"",""0"",""3335""
","
","
","""event"",""trial"",""time""
""fullscreenenter"",""0"",""3335""
","
","null","<p></p>","null","","","","","","","",""
"","image","321","466037","0.0-253.0-0.0","""event"",""trial"",""time""
""fullscreenenter"",""0"",""3335""
","
","
","""event"",""trial"",""time""
""fullscreenenter"",""0"",""3335""
","
","1272.7999999970198","run_exp/static/images/Set 6_rs/131a.jpg","86","","","","","","test","TR","5"
"","show_choice","322","466539","0.0-253.0-1.0","""event"",""trial"",""time""
""fullscreenenter"",""0"",""3335""
","
","
","""event"",""trial"",""time""
""fullscreenenter"",""0"",""3335""
","
","null","run_exp/static/images/Set 6_rs/131a.jpg","null","","","","","","test","TR",""
"","html-keyboard-response","323","467041","0.0-253.0-2.0","""event"",""trial"",""time""
""fullscreenenter"",""0"",""3335""
","
","
","""event"",""trial"",""time""
""fullscreenenter"",""0"",""3335""
","
","null","<p></p>","null","","","","","","","",""
"","image","324","467906","0.0-254.0-0.0","""event"",""trial"",""time""
""fullscreenenter"",""0"",""3335""
","
","
","""event"",""trial"",""time""
""fullscreenenter"",""0"",""3335""
","
","863.2999999970198","run_exp/static/images/Set 6_rs/123b.jpg","86","","","","","","test","TL","2"
"","show_choice","325","468408","0.0-254.0-1.0","""event"",""trial"",""time""
""fullscreenenter"",""0"",""3335""
","
","
","""event"",""trial"",""time""
""fullscreenenter"",""0"",""3335""
","
","null","run_exp/static/images/Set 6_rs/123b.jpg","null","","","","","","test","TL",""
"","html-keyboard-response","326","468909","0.0-254.0-2.0","""event"",""trial"",""time""
""fullscreenenter"",""0"",""3335""
","
","
","""event"",""trial"",""time""
""fullscreenenter"",""0"",""3335""
","
","null","<p></p>","null","","","","","","","",""
"","image","327","470400","0.0-255.0-0.0","""event"",""trial"",""time""
""fullscreenenter"",""0"",""3335""
","
","
","""event"",""trial"",""time""
""fullscreenenter"",""0"",""3335""
","
","1488","run_exp/static/images/Set 6_rs/111b.jpg","66","","","","","","test","TL","3"
"","show_choice","328","470903","0.0-255.0-1.0","""event"",""trial"",""time""
""fullscreenenter"",""0"",""3335""
","
","
","""event"",""trial"",""time""
""fullscreenenter"",""0"",""3335""
","
","null","run_exp/static/images/Set 6_rs/111b.jpg","null","","","","","","test","TL",""
"","html-keyboard-response","329","471407","0.0-255.0-2.0","""event"",""trial"",""time""
""fullscreenenter"",""0"",""3335""
","
","
","""event"",""trial"",""time""
""fullscreenenter"",""0"",""3335""
","
","null","<p></p>","null","","","","","","","",""
"","image","330","472229","0.0-256.0-0.0","""event"",""trial"",""time""
""fullscreenenter"",""0"",""3335""
","
","
","""event"",""trial"",""time""
""fullscreenenter"",""0"",""3335""
","
","820","run_exp/static/images/Set 6_rs/078a.jpg","78","","","","","","test","TF","1"
"","show_choice","331","472730","0.0-256.0-1.0","""event"",""trial"",""time""
""fullscreenenter"",""0"",""3335""
","
","
","""event"",""trial"",""time""
""fullscreenenter"",""0"",""3335""
","
","null","run_exp/static/images/Set 6_rs/078a.jpg","null","","","","","","test","TF",""
"","html-keyboard-response","332","473232","0.0-256.0-2.0","""event"",""trial"",""time""
""fullscreenenter"",""0"",""3335""
","
","
","""event"",""trial"",""time""
""fullscreenenter"",""0"",""3335""
","
","null","<p></p>","null","","","","","","","",""
"","image","333","474257","0.0-257.0-0.0","""event"",""trial"",""time""
""fullscreenenter"",""0"",""3335""
","
","
","""event"",""trial"",""time""
""fullscreenenter"",""0"",""3335""
","
","1022.7999999970198","run_exp/static/images/Set 6_rs/155a.jpg","78","","","","","","test","TF","4"
"","show_choice","334","474759","0.0-257.0-1.0","""event"",""trial"",""time""
""fullscreenenter"",""0"",""3335""
","
","
","""event"",""trial"",""time""
""fullscreenenter"",""0"",""3335""
","
","null","run_exp/static/images/Set 6_rs/155a.jpg","null","","","","","","test","TF",""
"","html-keyboard-response","335","475261","0.0-257.0-2.0","""event"",""trial"",""time""
""fullscreenenter"",""0"",""3335""
","
","
","""event"",""trial"",""time""
""fullscreenenter"",""0"",""3335""
","
","null","<p></p>","null","","","","","","","",""
"","image","336","476531","0.0-258.0-0.0","""event"",""trial"",""time""
""fullscreenenter"",""0"",""3335""
","
","
","""event"",""trial"",""time""
""fullscreenenter"",""0"",""3335""
","
","1268.5999999940395","run_exp/static/images/Set 6_rs/149a.jpg","78","","","","","","test","TF","1"
"","show_choice","337","477033","0.0-258.0-1.0","""event"",""trial"",""time""
""fullscreenenter"",""0"",""3335""
","
","
","""event"",""trial"",""time""
""fullscreenenter"",""0"",""3335""
","
","null","run_exp/static/images/Set 6_rs/149a.jpg","null","","","","","","test","TF",""
"","html-keyboard-response","338","477535","0.0-258.0-2.0","""event"",""trial"",""time""
""fullscreenenter"",""0"",""3335""
","
","
","""event"",""trial"",""time""
""fullscreenenter"",""0"",""3335""
","
","null","<p></p>","null","","","","","","","",""
"","image","339","478414","0.0-259.0-0.0","""event"",""trial"",""time""
""fullscreenenter"",""0"",""3335""
","
","
","""event"",""trial"",""time""
""fullscreenenter"",""0"",""3335""
","
","877.7999999970198","run_exp/static/images/Set 6_rs/057b.jpg","86","","","","","","test","TL","1"
"","show_choice","340","478916","0.0-259.0-1.0","""event"",""trial"",""time""
""fullscreenenter"",""0"",""3335""
","
","
","""event"",""trial"",""time""
""fullscreenenter"",""0"",""3335""
","
","null","run_exp/static/images/Set 6_rs/057b.jpg","null","","","","","","test","TL",""
