"success","trial_type","trial_index","time_elapsed","internal_node_id","interactions","blur_events","focus_events","fullscreenenter_events","fullscreenexit_events","rt","stimulus","key_press","subject_id","participant_id","age","gender","prompt","phase","condition","lure_bin"
"true","fullscreen","0","5515","0.0-0.0","""event"",""trial"",""time""
""fullscreenenter"",""0"",""4528""
","
","
","""event"",""trial"",""time""
""fullscreenenter"",""0"",""4528""
","
","","","","","","","","","","",""
"","pavlovia","1","5517","0.0-1.0","""event"",""trial"",""time""
""fullscreenenter"",""0"",""4528""
","
","
","""event"",""trial"",""time""
""fullscreenenter"",""0"",""4528""
","
","","","","","","","","","","",""
"","welcome","2","40365","0.0-2.0","""event"",""trial"",""time""
""fullscreenenter"",""0"",""4528""
","
","
","""event"",""trial"",""time""
""fullscreenenter"",""0"",""4528""
","
","null","run_exp/static/audio/clip_1_welcome.m4a","null","180","251","9","Male","<div class='center'><p>Welcome to the third part of the study! First, you'll be shown pictures of items one at a time. For each picture, you have to decide if the item is typically found indoors or outdoors.</p><p>If you think it's usually found indoors, then press <b>v</b> key on your keyboard. If you think it's usually found outdoors, then press the <b>n</b> key.There will be reminders on the screen to help you remember which keys to press. </p><p>If you're not sure whether the item is an indoor item or an outdoor item, go ahead and take a guess but try your best not to skip that choice. </p></div>","","",""
"","html-keyboard-response","3","41206","0.0-3.0","""event"",""trial"",""time""
""fullscreenenter"",""0"",""4528""
","
","
","""event"",""trial"",""time""
""fullscreenenter"",""0"",""4528""
","
","838.7999999523163","<div class='center'><p>Welcome to the third part of the study! First, you'll be shown pictures of items one at a time. For each picture, you have to decide if the item is typically found indoors or outdoors.</p><p>If you think it's usually found indoors, then press <b>v</b> key on your keyboard. If you think it's usually found outdoors, then press the <b>n</b> key.There will be reminders on the screen to help you remember which keys to press. </p><p>If you're not sure whether the item is an indoor item or an outdoor item, go ahead and take a guess but try your best not to skip that choice. </p><div><p><b>[Press the space bar to continue]</b></p></div>","32","","","","","","","",""
"","image","4","43208","0.0-4.0","""event"",""trial"",""time""
""fullscreenenter"",""0"",""4528""
","
","
","""event"",""trial"",""time""
""fullscreenenter"",""0"",""4528""
","
","null","run_exp/static/images/Set 6_rs/131a.jpg","null","","","","","","learn","SR",""
"","show_choice","5","45217","0.0-5.0","""event"",""trial"",""time""
""fullscreenenter"",""0"",""4528""
","
","
","""event"",""trial"",""time""
""fullscreenenter"",""0"",""4528""
","
","null","run_exp/static/images/blank.png","null","","","","","","learn","SR",""
"","html-keyboard-response","6","45729","0.0-6.0","""event"",""trial"",""time""
""fullscreenenter"",""0"",""4528""
","
","
","""event"",""trial"",""time""
""fullscreenenter"",""0"",""4528""
","
","null","<p></p>","null","","","","","","","",""
"","image","7","46794","0.0-7.0","""event"",""trial"",""time""
""fullscreenenter"",""0"",""4528""
","
","
","""event"",""trial"",""time""
""fullscreenenter"",""0"",""4528""
","
","1063.5","run_exp/static/images/Set 6_rs/152a.jpg","86","","","","","","learn","SR",""
"","show_choice","8","47746","0.0-8.0","""event"",""trial"",""time""
""fullscreenenter"",""0"",""4528""
","
","
","""event"",""trial"",""time""
""fullscreenenter"",""0"",""4528""
","
","null","run_exp/static/images/Set 6_rs/152a.jpg","null","","","","","","learn","SR",""
"","html-keyboard-response","9","48247","0.0-9.0","""event"",""trial"",""time""
""fullscreenenter"",""0"",""4528""
","
","
","""event"",""trial"",""time""
""fullscreenenter"",""0"",""4528""
","
","null","<p></p>","null","","","","","","","",""
"","image","10","49057","0.0-10.0","""event"",""trial"",""time""
""fullscreenenter"",""0"",""4528""
","
","
","""event"",""trial"",""time""
""fullscreenenter"",""0"",""4528""
","
","808.5","run_exp/static/images/Set 6_rs/045a.jpg","86","","","","","","learn","SR",""
"","show_choice","11","50252","0.0-11.0","""event"",""trial"",""time""
""fullscreenenter"",""0"",""4528""
","
","
","""event"",""trial"",""time""
""fullscreenenter"",""0"",""4528""
","
","null","run_exp/static/images/Set 6_rs/045a.jpg","null","","","","","","learn","SR",""
"","html-keyboard-response","12","50775","0.0-12.0","""event"",""trial"",""time""
""fullscreenenter"",""0"",""4528""
","
","
","""event"",""trial"",""time""
""fullscreenenter"",""0"",""4528""
","
","null","<p></p>","null","","","","","","","",""
"","image","13","51553","0.0-13.0","""event"",""trial"",""time""
""fullscreenenter"",""0"",""4528""
","
","
","""event"",""trial"",""time""
""fullscreenenter"",""0"",""4528""
","
","776.7000000476837","run_exp/static/images/Set 6_rs/014a.jpg","78","","","","","","learn","SL",""
"","show_choice","14","52781","0.0-14.0","""event"",""trial"",""time""
""fullscreenenter"",""0"",""4528""
","
","
","""event"",""trial"",""time""
""fullscreenenter"",""0"",""4528""
","
","null","run_exp/static/images/Set 6_rs/014a.jpg","null","","","","","","learn","SL",""
"","html-keyboard-response","15","53289","0.0-15.0","""event"",""trial"",""time""
""fullscreenenter"",""0"",""4528""
","
","
","""event"",""trial"",""time""
""fullscreenenter"",""0"",""4528""
","
","null","<p></p>","null","","","","","","","",""
"","image","16","53829","0.0-16.0","""event"",""trial"",""time""
""fullscreenenter"",""0"",""4528""
","
","
","""event"",""trial"",""time""
""fullscreenenter"",""0"",""4528""
","
","539.3999999761581","run_exp/static/images/Set 6_rs/178a.jpg","86","","","","","","learn","SR",""
"","show_choice","17","55290","0.0-17.0","""event"",""trial"",""time""
""fullscreenenter"",""0"",""4528""
","
","
","""event"",""trial"",""time""
""fullscreenenter"",""0"",""4528""
","
","null","run_exp/static/images/Set 6_rs/178a.jpg","null","","","","","","learn","SR",""
"","html-keyboard-response","18","55801","0.0-18.0","""event"",""trial"",""time""
""fullscreenenter"",""0"",""4528""
","
","
","""event"",""trial"",""time""
""fullscreenenter"",""0"",""4528""
","
","null","<p></p>","null","","","","","","","",""
"","image","19","56472","0.0-19.0","""event"",""trial"",""time""
""fullscreenenter"",""0"",""4528""
","
","
","""event"",""trial"",""time""
""fullscreenenter"",""0"",""4528""
","
","669.8000000715256","run_exp/static/images/Set 6_rs/138a.jpg","78","","","","","","learn","SL",""
"","show_choice","20","57804","0.0-20.0","""event"",""trial"",""time""
""fullscreenenter"",""0"",""4528""
","
","
","""event"",""trial"",""time""
""fullscreenenter"",""0"",""4528""
","
","null","run_exp/static/images/Set 6_rs/138a.jpg","null","","","","","","learn","SL",""
"","html-keyboard-response","21","58312","0.0-21.0","""event"",""trial"",""time""
""fullscreenenter"",""0"",""4528""
","
","
","""event"",""trial"",""time""
""fullscreenenter"",""0"",""4528""
","
","null","<p></p>","null","","","","","","","",""
"","image","22","59221","0.0-22.0","""event"",""trial"",""time""
""fullscreenenter"",""0"",""4528""
","
","
","""event"",""trial"",""time""
""fullscreenenter"",""0"",""4528""
","
","908.7000000476837","run_exp/static/images/Set 6_rs/089a.jpg","86","","","","","","learn","SL",""
"","show_choice","23","60319","0.0-23.0","""event"",""trial"",""time""
""fullscreenenter"",""0"",""4528""
","
","
","""event"",""trial"",""time""
""fullscreenenter"",""0"",""4528""
","
","null","run_exp/static/images/Set 6_rs/089a.jpg","null","","","","","","learn","SL",""
"","html-keyboard-response","24","60827","0.0-24.0","""event"",""trial"",""time""
""fullscreenenter"",""0"",""4528""
","
","
","""event"",""trial"",""time""
""fullscreenenter"",""0"",""4528""
","
","null","<p></p>","null","","","","","","","",""
"","image","25","61339","0.0-25.0","""event"",""trial"",""time""
""fullscreenenter"",""0"",""4528""
","
","
","""event"",""trial"",""time""
""fullscreenenter"",""0"",""4528""
","
","511.10000002384186","run_exp/static/images/Set 6_rs/166a.jpg","78","","","","","","learn","SR",""
"","show_choice","26","62835","0.0-26.0","""event"",""trial"",""time""
""fullscreenenter"",""0"",""4528""
","
","
","""event"",""trial"",""time""
""fullscreenenter"",""0"",""4528""
","
","null","run_exp/static/images/Set 6_rs/166a.jpg","null","","","","","","learn","SR",""
"","html-keyboard-response","27","63344","0.0-27.0","""event"",""trial"",""time""
""fullscreenenter"",""0"",""4528""
","
","
","""event"",""trial"",""time""
""fullscreenenter"",""0"",""4528""
","
","null","<p></p>","null","","","","","","","",""
"","image","28","63853","0.0-28.0","""event"",""trial"",""time""
""fullscreenenter"",""0"",""4528""
","
","
","""event"",""trial"",""time""
""fullscreenenter"",""0"",""4528""
","
","507.8000000715256","run_exp/static/images/Set 6_rs/191a.jpg","86","","","","","","learn","SL",""
"","show_choice","29","65350","0.0-29.0","""event"",""trial"",""time""
""fullscreenenter"",""0"",""4528""
","
","
","""event"",""trial"",""time""
""fullscreenenter"",""0"",""4528""
","
","null","run_exp/static/images/Set 6_rs/191a.jpg","null","","","","","","learn","SL",""
"","html-keyboard-response","30","65852","0.0-30.0","""event"",""trial"",""time""
""fullscreenenter"",""0"",""4528""
","
","
","""event"",""trial"",""time""
""fullscreenenter"",""0"",""4528""
","
","null","<p></p>","null","","","","","","","",""
"","image","31","66332","0.0-31.0","""event"",""trial"",""time""
""fullscreenenter"",""0"",""4528""
","
","
","""event"",""trial"",""time""
""fullscreenenter"",""0"",""4528""
","
","478.60000002384186","run_exp/static/images/Set 6_rs/063a.jpg","86","","","","","","learn","SR",""
"","show_choice","32","67863","0.0-32.0","""event"",""trial"",""time""
""fullscreenenter"",""0"",""4528""
","
","
","""event"",""trial"",""time""
""fullscreenenter"",""0"",""4528""
","
","null","run_exp/static/images/Set 6_rs/063a.jpg","null","","","","","","learn","SR",""
"","html-keyboard-response","33","68365","0.0-33.0","""event"",""trial"",""time""
""fullscreenenter"",""0"",""4528""
","
","
","""event"",""trial"",""time""
""fullscreenenter"",""0"",""4528""
","
","null","<p></p>","null","","","","","","","",""
"","image","34","69042","0.0-34.0","""event"",""trial"",""time""
""fullscreenenter"",""0"",""4528""
","
","
","""event"",""trial"",""time""
""fullscreenenter"",""0"",""4528""
","
","676","run_exp/static/images/Set 6_rs/091a.jpg","86","","","","","","learn","SL",""
"","show_choice","35","70382","0.0-35.0","""event"",""trial"",""time""
""fullscreenenter"",""0"",""4528""
","
","
","""event"",""trial"",""time""
""fullscreenenter"",""0"",""4528""
","
","null","run_exp/static/images/Set 6_rs/091a.jpg","null","","","","","","learn","SL",""
"","html-keyboard-response","36","70894","0.0-36.0","""event"",""trial"",""time""
""fullscreenenter"",""0"",""4528""
","
","
","""event"",""trial"",""time""
""fullscreenenter"",""0"",""4528""
","
","null","<p></p>","null","","","","","","","",""
"","image","37","71461","0.0-37.0","""event"",""trial"",""time""
""fullscreenenter"",""0"",""4528""
","
","
","""event"",""trial"",""time""
""fullscreenenter"",""0"",""4528""
","
","566","run_exp/static/images/Set 6_rs/129a.jpg","78","","","","","","learn","SL",""
"","show_choice","38","72898","0.0-38.0","""event"",""trial"",""time""
""fullscreenenter"",""0"",""4528""
","
","
","""event"",""trial"",""time""
""fullscreenenter"",""0"",""4528""
","
","null","run_exp/static/images/Set 6_rs/129a.jpg","null","","","","","","learn","SL",""
"","html-keyboard-response","39","73414","0.0-39.0","""event"",""trial"",""time""
""fullscreenenter"",""0"",""4528""
","
","
","""event"",""trial"",""time""
""fullscreenenter"",""0"",""4528""
","
","null","<p></p>","null","","","","","","","",""
"","image","40","74044","0.0-40.0","""event"",""trial"",""time""
""fullscreenenter"",""0"",""4528""
","
","
","""event"",""trial"",""time""
""fullscreenenter"",""0"",""4528""
","
","628.7000000476837","run_exp/static/images/Set 6_rs/111a.jpg","86","","","","","","learn","SL",""
"","show_choice","41","75421","0.0-41.0","""event"",""trial"",""time""
""fullscreenenter"",""0"",""4528""
","
","
","""event"",""trial"",""time""
""fullscreenenter"",""0"",""4528""
","
","null","run_exp/static/images/Set 6_rs/111a.jpg","null","","","","","","learn","SL",""
"","html-keyboard-response","42","75926","0.0-42.0","""event"",""trial"",""time""
""fullscreenenter"",""0"",""4528""
","
","
","""event"",""trial"",""time""
""fullscreenenter"",""0"",""4528""
","
","null","<p></p>","null","","","","","","","",""
"","image","43","76536","0.0-43.0","""event"",""trial"",""time""
""fullscreenenter"",""0"",""4528""
","
","
","""event"",""trial"",""time""
""fullscreenenter"",""0"",""4528""
","
","608.5","run_exp/static/images/Set 6_rs/121a.jpg","86","","","","","","learn","SR",""
"","show_choice","44","77927","0.0-44.0","""event"",""trial"",""time""
""fullscreenenter"",""0"",""4528""
","
","
","""event"",""trial"",""time""
""fullscreenenter"",""0"",""4528""
","
","null","run_exp/static/images/Set 6_rs/121a.jpg","null","","","","","","learn","SR",""
"","html-keyboard-response","45","78428","0.0-45.0","""event"",""trial"",""time""
""fullscreenenter"",""0"",""4528""
","
","
","""event"",""trial"",""time""
""fullscreenenter"",""0"",""4528""
","
","null","<p></p>","null","","","","","","","",""
"","image","46","78853","0.0-46.0","""event"",""trial"",""time""
""fullscreenenter"",""0"",""4528""
","
","
","""event"",""trial"",""time""
""fullscreenenter"",""0"",""4528""
","
","424","run_exp/static/images/Set 6_rs/025a.jpg","86","","","","","","learn","SL",""
"","show_choice","47","80431","0.0-47.0","""event"",""trial"",""time""
""fullscreenenter"",""0"",""4528""
","
","
","""event"",""trial"",""time""
""fullscreenenter"",""0"",""4528""
","
","null","run_exp/static/images/Set 6_rs/025a.jpg","null","","","","","","learn","SL",""
"","html-keyboard-response","48","80931","0.0-48.0","""event"",""trial"",""time""
""fullscreenenter"",""0"",""4528""
","
","
","""event"",""trial"",""time""
""fullscreenenter"",""0"",""4528""
","
","null","<p></p>","null","","","","","","","",""
"","image","49","81689","0.0-49.0","""event"",""trial"",""time""
""fullscreenenter"",""0"",""4528""
","
","
","""event"",""trial"",""time""
""fullscreenenter"",""0"",""4528""
","
","756.6000000238419","run_exp/static/images/Set 6_rs/117a.jpg","86","","","","","","learn","SL",""
"","show_choice","50","82948","0.0-50.0","""event"",""trial"",""time""
""fullscreenenter"",""0"",""4528""
","
","
","""event"",""trial"",""time""
""fullscreenenter"",""0"",""4528""
","
","null","run_exp/static/images/Set 6_rs/117a.jpg","null","","","","","","learn","SL",""
"","html-keyboard-response","51","83465","0.0-51.0","""event"",""trial"",""time""
""fullscreenenter"",""0"",""4528""
","
","
","""event"",""trial"",""time""
""fullscreenenter"",""0"",""4528""
","
","null","<p></p>","null","","","","","","","",""
"","image","52","84401","0.0-52.0","""event"",""trial"",""time""
""fullscreenenter"",""0"",""4528""
","
","
","""event"",""trial"",""time""
""fullscreenenter"",""0"",""4528""
","
","935.2000000476837","run_exp/static/images/Set 6_rs/167a.jpg","86","","","","","","learn","SL",""
"","show_choice","53","85466","0.0-53.0","""event"",""trial"",""time""
""fullscreenenter"",""0"",""4528""
","
","
","""event"",""trial"",""time""
""fullscreenenter"",""0"",""4528""
","
","null","run_exp/static/images/Set 6_rs/167a.jpg","null","","","","","","learn","SL",""
"","html-keyboard-response","54","85967","0.0-54.0","""event"",""trial"",""time""
""fullscreenenter"",""0"",""4528""
","
","
","""event"",""trial"",""time""
""fullscreenenter"",""0"",""4528""
","
","null","<p></p>","null","","","","","","","",""
"","image","55","87969","0.0-55.0","""event"",""trial"",""time""
""fullscreenenter"",""0"",""4528""
","
","
","""event"",""trial"",""time""
""fullscreenenter"",""0"",""4528""
","
","null","run_exp/static/images/Set 6_rs/169a.jpg","null","","","","","","learn","SR",""
"","show_choice","56","89985","0.0-56.0","""event"",""trial"",""time""
""fullscreenenter"",""0"",""4528""
","
","
","""event"",""trial"",""time""
""fullscreenenter"",""0"",""4528""
","
","null","run_exp/static/images/blank.png","null","","","","","","learn","SR",""
"","html-keyboard-response","57","90486","0.0-57.0","""event"",""trial"",""time""
""fullscreenenter"",""0"",""4528""
","
","
","""event"",""trial"",""time""
""fullscreenenter"",""0"",""4528""
","
","null","<p></p>","null","","","","","","","",""
"","image","58","91085","0.0-58.0","""event"",""trial"",""time""
""fullscreenenter"",""0"",""4528""
","
","
","""event"",""trial"",""time""
""fullscreenenter"",""0"",""4528""
","
","597.8000000715256","run_exp/static/images/Set 6_rs/112a.jpg","86","","","","","","learn","SR",""
"","show_choice","59","92498","0.0-59.0","""event"",""trial"",""time""
""fullscreenenter"",""0"",""4528""
","
","
","""event"",""trial"",""time""
""fullscreenenter"",""0"",""4528""
","
","null","run_exp/static/images/Set 6_rs/112a.jpg","null","","","","","","learn","SR",""
"","html-keyboard-response","60","93007","0.0-60.0","""event"",""trial"",""time""
""fullscreenenter"",""0"",""4528""
","
","
","""event"",""trial"",""time""
""fullscreenenter"",""0"",""4528""
","
","null","<p></p>","null","","","","","","","",""
"","image","61","93902","0.0-61.0","""event"",""trial"",""time""
""fullscreenenter"",""0"",""4528""
","
","
","""event"",""trial"",""time""
""fullscreenenter"",""0"",""4528""
","
","894.7999999523163","run_exp/static/images/Set 6_rs/181a.jpg","78","","","","","","learn","SL",""
"","show_choice","62","95011","0.0-62.0","""event"",""trial"",""time""
""fullscreenenter"",""0"",""4528""
","
","
","""event"",""trial"",""time""
""fullscreenenter"",""0"",""4528""
","
","null","run_exp/static/images/Set 6_rs/181a.jpg","null","","","","","","learn","SL",""
"","html-keyboard-response","63","95512","0.0-63.0","""event"",""trial"",""time""
""fullscreenenter"",""0"",""4528""
","
","
","""event"",""trial"",""time""
""fullscreenenter"",""0"",""4528""
","
","null","<p></p>","null","","","","","","","",""
"","image","64","96238","0.0-64.0","""event"",""trial"",""time""
""fullscreenenter"",""0"",""4528""
","
","
","""event"",""trial"",""time""
""fullscreenenter"",""0"",""4528""
","
","725.2000000476837","run_exp/static/images/Set 6_rs/071a.jpg","86","","","","","","learn","SL",""
"","show_choice","65","97513","0.0-65.0","""event"",""trial"",""time""
""fullscreenenter"",""0"",""4528""
","
","
","""event"",""trial"",""time""
""fullscreenenter"",""0"",""4528""
","
","null","run_exp/static/images/Set 6_rs/071a.jpg","null","","","","","","learn","SL",""
"","html-keyboard-response","66","98014","0.0-66.0","""event"",""trial"",""time""
""fullscreenenter"",""0"",""4528""
","
","
","""event"",""trial"",""time""
""fullscreenenter"",""0"",""4528""
","
","null","<p></p>","null","","","","","","","",""
"","image","67","98750","0.0-67.0","""event"",""trial"",""time""
""fullscreenenter"",""0"",""4528""
","
","
","""event"",""trial"",""time""
""fullscreenenter"",""0"",""4528""
","
","735.6999999284744","run_exp/static/images/Set 6_rs/095a.jpg","86","","","","","","learn","SL",""
"","show_choice","68","100026","0.0-68.0","""event"",""trial"",""time""
""fullscreenenter"",""0"",""4528""
","
","
","""event"",""trial"",""time""
""fullscreenenter"",""0"",""4528""
","
","null","run_exp/static/images/Set 6_rs/095a.jpg","null","","","","","","learn","SL",""
"","html-keyboard-response","69","100529","0.0-69.0","""event"",""trial"",""time""
""fullscreenenter"",""0"",""4528""
","
","
","""event"",""trial"",""time""
""fullscreenenter"",""0"",""4528""
","
","null","<p></p>","null","","","","","","","",""
"","image","70","101172","0.0-70.0","""event"",""trial"",""time""
""fullscreenenter"",""0"",""4528""
","
","
","""event"",""trial"",""time""
""fullscreenenter"",""0"",""4528""
","
","642.1000000238419","run_exp/static/images/Set 6_rs/074a.jpg","86","","","","","","learn","SL",""
"","show_choice","71","102530","0.0-71.0","""event"",""trial"",""time""
""fullscreenenter"",""0"",""4528""
","
","
","""event"",""trial"",""time""
""fullscreenenter"",""0"",""4528""
","
","null","run_exp/static/images/Set 6_rs/074a.jpg","null","","","","","","learn","SL",""
"","html-keyboard-response","72","103036","0.0-72.0","""event"",""trial"",""time""
""fullscreenenter"",""0"",""4528""
","
","
","""event"",""trial"",""time""
""fullscreenenter"",""0"",""4528""
","
","null","<p></p>","null","","","","","","","",""
"","image","73","103842","0.0-73.0","""event"",""trial"",""time""
""fullscreenenter"",""0"",""4528""
","
","
","""event"",""trial"",""time""
""fullscreenenter"",""0"",""4528""
","
","804.9000000953674","run_exp/static/images/Set 6_rs/134a.jpg","78","","","","","","learn","SR",""
"","show_choice","74","105052","0.0-74.0","""event"",""trial"",""time""
""fullscreenenter"",""0"",""4528""
","
","
","""event"",""trial"",""time""
""fullscreenenter"",""0"",""4528""
","
","null","run_exp/static/images/Set 6_rs/134a.jpg","null","","","","","","learn","SR",""
"","html-keyboard-response","75","105557","0.0-75.0","""event"",""trial"",""time""
""fullscreenenter"",""0"",""4528""
","
","
","""event"",""trial"",""time""
""fullscreenenter"",""0"",""4528""
","
","null","<p></p>","null","","","","","","","",""
"","image","76","106631","0.0-76.0","""event"",""trial"",""time""
""fullscreenenter"",""0"",""4528""
","
","
","""event"",""trial"",""time""
""fullscreenenter"",""0"",""4528""
","
","1073.0999999046326","run_exp/static/images/Set 6_rs/085a.jpg","78","","","","","","learn","SL",""
"","show_choice","77","107563","0.0-77.0","""event"",""trial"",""time""
""fullscreenenter"",""0"",""4528""
","
","
","""event"",""trial"",""time""
""fullscreenenter"",""0"",""4528""
","
","null","run_exp/static/images/Set 6_rs/085a.jpg","null","","","","","","learn","SL",""
"","html-keyboard-response","78","108074","0.0-78.0","""event"",""trial"",""time""
""fullscreenenter"",""0"",""4528""
","
","
","""event"",""trial"",""time""
""fullscreenenter"",""0"",""4528""
","
","null","<p></p>","null","","","","","","","",""
"","image","79","109084","0.0-79.0","""event"",""trial"",""time""
""fullscreenenter"",""0"",""4528""
","
","
","""event"",""trial"",""time""
""fullscreenenter"",""0"",""4528""
","
","1008.5","run_exp/static/images/Set 6_rs/061a.jpg","86","","","","","","learn","SR",""
"","show_choice","80","110078","0.0-80.0","""event"",""trial"",""time""
""fullscreenenter"",""0"",""4528""
","
","
","""event"",""trial"",""time""
""fullscreenenter"",""0"",""4528""
","
","null","run_exp/static/images/Set 6_rs/061a.jpg","null","","","","","","learn","SR",""
"","html-keyboard-response","81","110591","0.0-81.0","""event"",""trial"",""time""
""fullscreenenter"",""0"",""4528""
","
","
","""event"",""trial"",""time""
""fullscreenenter"",""0"",""4528""
","
","null","<p></p>","null","","","","","","","",""
"","image","82","111366","0.0-82.0","""event"",""trial"",""time""
""fullscreenenter"",""0"",""4528""
","
","
","""event"",""trial"",""time""
""fullscreenenter"",""0"",""4528""
","
","773.8000000715256","run_exp/static/images/Set 6_rs/007a.jpg","86","","","","","","learn","SR",""
"","show_choice","83","112608","0.0-83.0","""event"",""trial"",""time""
""fullscreenenter"",""0"",""4528""
","
","
","""event"",""trial"",""time""
""fullscreenenter"",""0"",""4528""
","
","null","run_exp/static/images/Set 6_rs/007a.jpg","null","","","","","","learn","SR",""
"","html-keyboard-response","84","113124","0.0-84.0","""event"",""trial"",""time""
""fullscreenenter"",""0"",""4528""
","
","
","""event"",""trial"",""time""
""fullscreenenter"",""0"",""4528""
","
","null","<p></p>","null","","","","","","","",""
"","image","85","113840","0.0-85.0","""event"",""trial"",""time""
""fullscreenenter"",""0"",""4528""
","
","
","""event"",""trial"",""time""
""fullscreenenter"",""0"",""4528""
","
","714.2999999523163","run_exp/static/images/Set 6_rs/079a.jpg","78","","","","","","learn","SL",""
"","show_choice","86","115139","0.0-86.0","""event"",""trial"",""time""
""fullscreenenter"",""0"",""4528""
","
","
","""event"",""trial"",""time""
""fullscreenenter"",""0"",""4528""
","
","null","run_exp/static/images/Set 6_rs/079a.jpg","null","","","","","","learn","SL",""
"","html-keyboard-response","87","115642","0.0-87.0","""event"",""trial"",""time""
""fullscreenenter"",""0"",""4528""
","
","
","""event"",""trial"",""time""
""fullscreenenter"",""0"",""4528""
","
","null","<p></p>","null","","","","","","","",""
"","image","88","116563","0.0-88.0","""event"",""trial"",""time""
""fullscreenenter"",""0"",""4528""
","
","
","""event"",""trial"",""time""
""fullscreenenter"",""0"",""4528""
","
","919.5","run_exp/static/images/Set 6_rs/116a.jpg","78","","","","","","learn","SL",""
"","show_choice","89","117652","0.0-89.0","""event"",""trial"",""time""
""fullscreenenter"",""0"",""4528""
","
","
","""event"",""trial"",""time""
""fullscreenenter"",""0"",""4528""
","
","null","run_exp/static/images/Set 6_rs/116a.jpg","null","","","","","","learn","SL",""
"","html-keyboard-response","90","118160","0.0-90.0","""event"",""trial"",""time""
""fullscreenenter"",""0"",""4528""
","
","
","""event"",""trial"",""time""
""fullscreenenter"",""0"",""4528""
","
","null","<p></p>","null","","","","","","","",""
"","image","91","118899","0.0-91.0","""event"",""trial"",""time""
""fullscreenenter"",""0"",""4528""
","
","
","""event"",""trial"",""time""
""fullscreenenter"",""0"",""4528""
","
","738.1999999284744","run_exp/static/images/Set 6_rs/066a.jpg","86","","","","","","learn","SL",""
"","show_choice","92","120175","0.0-92.0","""event"",""trial"",""time""
""fullscreenenter"",""0"",""4528""
","
","
","""event"",""trial"",""time""
""fullscreenenter"",""0"",""4528""
","
","null","run_exp/static/images/Set 6_rs/066a.jpg","null","","","","","","learn","SL",""
"","html-keyboard-response","93","120691","0.0-93.0","""event"",""trial"",""time""
""fullscreenenter"",""0"",""4528""
","
","
","""event"",""trial"",""time""
""fullscreenenter"",""0"",""4528""
","
","null","<p></p>","null","","","","","","","",""
"","image","94","121478","0.0-94.0","""event"",""trial"",""time""
""fullscreenenter"",""0"",""4528""
","
","
","""event"",""trial"",""time""
""fullscreenenter"",""0"",""4528""
","
","785.7999999523163","run_exp/static/images/Set 6_rs/075a.jpg","86","","","","","","learn","SR",""
"","show_choice","95","122696","0.0-95.0","""event"",""trial"",""time""
""fullscreenenter"",""0"",""4528""
","
","
","""event"",""trial"",""time""
""fullscreenenter"",""0"",""4528""
","
","null","run_exp/static/images/Set 6_rs/075a.jpg","null","","","","","","learn","SR",""
"","html-keyboard-response","96","123208","0.0-96.0","""event"",""trial"",""time""
""fullscreenenter"",""0"",""4528""
","
","
","""event"",""trial"",""time""
""fullscreenenter"",""0"",""4528""
","
","null","<p></p>","null","","","","","","","",""
"","image","97","124608","0.0-97.0","""event"",""trial"",""time""
""fullscreenenter"",""0"",""4528""
","
","
","""event"",""trial"",""time""
""fullscreenenter"",""0"",""4528""
","
","1398.7000000476837","run_exp/static/images/Set 6_rs/050a.jpg","78","","","","","","learn","SL",""
"","show_choice","98","125217","0.0-98.0","""event"",""trial"",""time""
""fullscreenenter"",""0"",""4528""
","
","
","""event"",""trial"",""time""
""fullscreenenter"",""0"",""4528""
","
","null","run_exp/static/images/Set 6_rs/050a.jpg","null","","","","","","learn","SL",""
"","html-keyboard-response","99","125723","0.0-99.0","""event"",""trial"",""time""
""fullscreenenter"",""0"",""4528""
","
","
","""event"",""trial"",""time""
""fullscreenenter"",""0"",""4528""
","
","null","<p></p>","null","","","","","","","",""
"","image","100","126750","0.0-100.0","""event"",""trial"",""time""
""fullscreenenter"",""0"",""4528""
","
","
","""event"",""trial"",""time""
""fullscreenenter"",""0"",""4528""
","
","1025.8000000715256","run_exp/static/images/Set 6_rs/017a.jpg","86","","","","","","learn","SL",""
"","show_choice","101","127735","0.0-101.0","""event"",""trial"",""time""
""fullscreenenter"",""0"",""4528""
","
","
","""event"",""trial"",""time""
""fullscreenenter"",""0"",""4528""
","
","null","run_exp/static/images/Set 6_rs/017a.jpg","null","","","","","","learn","SL",""
"","html-keyboard-response","102","128241","0.0-102.0","""event"",""trial"",""time""
""fullscreenenter"",""0"",""4528""
","
","
","""event"",""trial"",""time""
""fullscreenenter"",""0"",""4528""
","
","null","<p></p>","null","","","","","","","",""
"","image","103","129216","0.0-103.0","""event"",""trial"",""time""
""fullscreenenter"",""0"",""4528""
","
","
","""event"",""trial"",""time""
""fullscreenenter"",""0"",""4528""
","
","973.5","run_exp/static/images/Set 6_rs/088a.jpg","86","","","","","","learn","SR",""
"","show_choice","104","130252","0.0-104.0","""event"",""trial"",""time""
""fullscreenenter"",""0"",""4528""
","
","
","""event"",""trial"",""time""
""fullscreenenter"",""0"",""4528""
","
","null","run_exp/static/images/Set 6_rs/088a.jpg","null","","","","","","learn","SR",""
"","html-keyboard-response","105","130758","0.0-105.0","""event"",""trial"",""time""
""fullscreenenter"",""0"",""4528""
","
","
","""event"",""trial"",""time""
""fullscreenenter"",""0"",""4528""
","
","null","<p></p>","null","","","","","","","",""
"","image","106","131989","0.0-106.0","""event"",""trial"",""time""
""fullscreenenter"",""0"",""4528""
","
","
","""event"",""trial"",""time""
""fullscreenenter"",""0"",""4528""
","
","1230.5","run_exp/static/images/Set 6_rs/168a.jpg","86","","","","","","learn","SL",""
"","show_choice","107","132769","0.0-107.0","""event"",""trial"",""time""
""fullscreenenter"",""0"",""4528""
","
","
","""event"",""trial"",""time""
""fullscreenenter"",""0"",""4528""
","
","null","run_exp/static/images/Set 6_rs/168a.jpg","null","","","","","","learn","SL",""
"","html-keyboard-response","108","133283","0.0-108.0","""event"",""trial"",""time""
""fullscreenenter"",""0"",""4528""
","
","
","""event"",""trial"",""time""
""fullscreenenter"",""0"",""4528""
","
","null","<p></p>","null","","","","","","","",""
"","image","109","134515","0.0-109.0","""event"",""trial"",""time""
""fullscreenenter"",""0"",""4528""
","
","
","""event"",""trial"",""time""
""fullscreenenter"",""0"",""4528""
","
","1231","run_exp/static/images/Set 6_rs/187a.jpg","86","","","","","","learn","SR",""
"","show_choice","110","135291","0.0-110.0","""event"",""trial"",""time""
""fullscreenenter"",""0"",""4528""
","
","
","""event"",""trial"",""time""
""fullscreenenter"",""0"",""4528""
","
","null","run_exp/static/images/Set 6_rs/187a.jpg","null","","","","","","learn","SR",""
"","html-keyboard-response","111","135793","0.0-111.0","""event"",""trial"",""time""
""fullscreenenter"",""0"",""4528""
","
","
","""event"",""trial"",""time""
""fullscreenenter"",""0"",""4528""
","
","null","<p></p>","null","","","","","","","",""
"","image","112","136614","0.0-112.0","""event"",""trial"",""time""
""fullscreenenter"",""0"",""4528""
","
","
","""event"",""trial"",""time""
""fullscreenenter"",""0"",""4528""
","
","820.3999999761581","run_exp/static/images/Set 6_rs/144a.jpg","86","","","","","","learn","SL",""
"","show_choice","113","137795","0.0-113.0","""event"",""trial"",""time""
""fullscreenenter"",""0"",""4528""
","
","
","""event"",""trial"",""time""
""fullscreenenter"",""0"",""4528""
","
","null","run_exp/static/images/Set 6_rs/144a.jpg","null","","","","","","learn","SL",""
"","html-keyboard-response","114","138304","0.0-114.0","""event"",""trial"",""time""
""fullscreenenter"",""0"",""4528""
","
","
","""event"",""trial"",""time""
""fullscreenenter"",""0"",""4528""
","
","null","<p></p>","null","","","","","","","",""
"","image","115","139036","0.0-115.0","""event"",""trial"",""time""
""fullscreenenter"",""0"",""4528""
","
","
","""event"",""trial"",""time""
""fullscreenenter"",""0"",""4528""
","
","729.6000000238419","run_exp/static/images/Set 6_rs/023a.jpg","86","","","","","","learn","SR",""
"","show_choice","116","140314","0.0-116.0","""event"",""trial"",""time""
""fullscreenenter"",""0"",""4528""
","
","
","""event"",""trial"",""time""
""fullscreenenter"",""0"",""4528""
","
","null","run_exp/static/images/Set 6_rs/023a.jpg","null","","","","","","learn","SR",""
"","html-keyboard-response","117","140823","0.0-117.0","""event"",""trial"",""time""
""fullscreenenter"",""0"",""4528""
","
","
","""event"",""trial"",""time""
""fullscreenenter"",""0"",""4528""
","
","null","<p></p>","null","","","","","","","",""
"","image","118","141913","0.0-118.0","""event"",""trial"",""time""
""fullscreenenter"",""0"",""4528""
","
","
","""event"",""trial"",""time""
""fullscreenenter"",""0"",""4528""
","
","1088.8999999761581","run_exp/static/images/Set 6_rs/012a.jpg","86","","","","","","learn","SR",""
"","show_choice","119","142831","0.0-119.0","""event"",""trial"",""time""
""fullscreenenter"",""0"",""4528""
","
","
","""event"",""trial"",""time""
""fullscreenenter"",""0"",""4528""
","
","null","run_exp/static/images/Set 6_rs/012a.jpg","null","","","","","","learn","SR",""
"","html-keyboard-response","120","143339","0.0-120.0","""event"",""trial"",""time""
""fullscreenenter"",""0"",""4528""
","
","
","""event"",""trial"",""time""
""fullscreenenter"",""0"",""4528""
","
","null","<p></p>","null","","","","","","","",""
"","image","121","144150","0.0-121.0","""event"",""trial"",""time""
""fullscreenenter"",""0"",""4528""
","
","
","""event"",""trial"",""time""
""fullscreenenter"",""0"",""4528""
","
","810.6000000238419","run_exp/static/images/Set 6_rs/062a.jpg","86","","","","","","learn","SL",""
"","show_choice","122","145347","0.0-122.0","""event"",""trial"",""time""
""fullscreenenter"",""0"",""4528""
","
","
","""event"",""trial"",""time""
""fullscreenenter"",""0"",""4528""
","
","null","run_exp/static/images/Set 6_rs/062a.jpg","null","","","","","","learn","SL",""
"","html-keyboard-response","123","145855","0.0-123.0","""event"",""trial"",""time""
""fullscreenenter"",""0"",""4528""
","
","
","""event"",""trial"",""time""
""fullscreenenter"",""0"",""4528""
","
","null","<p></p>","null","","","","","","","",""
"","image","124","146564","0.0-124.0","""event"",""trial"",""time""
""fullscreenenter"",""0"",""4528""
","
","
","""event"",""trial"",""time""
""fullscreenenter"",""0"",""4528""
","
","707.6000000238419","run_exp/static/images/Set 6_rs/008a.jpg","86","","","","","","learn","SL",""
"","show_choice","125","147868","0.0-125.0","""event"",""trial"",""time""
""fullscreenenter"",""0"",""4528""
","
","
","""event"",""trial"",""time""
""fullscreenenter"",""0"",""4528""
","
","null","run_exp/static/images/Set 6_rs/008a.jpg","null","","","","","","learn","SL",""
"","html-keyboard-response","126","148379","0.0-126.0","""event"",""trial"",""time""
""fullscreenenter"",""0"",""4528""
","
","
","""event"",""trial"",""time""
""fullscreenenter"",""0"",""4528""
","
","null","<p></p>","null","","","","","","","",""
"","image","127","149189","0.0-127.0","""event"",""trial"",""time""
""fullscreenenter"",""0"",""4528""
","
","
","""event"",""trial"",""time""
""fullscreenenter"",""0"",""4528""
","
","808.8999999761581","run_exp/static/images/Set 6_rs/006a.jpg","86","","","","","","learn","SL",""
"","show_choice","128","150394","0.0-128.0","""event"",""trial"",""time""
""fullscreenenter"",""0"",""4528""
","
","
","""event"",""trial"",""time""
""fullscreenenter"",""0"",""4528""
","
","null","run_exp/static/images/Set 6_rs/006a.jpg","null","","","","","","learn","SL",""
"","html-keyboard-response","129","150909","0.0-129.0","""event"",""trial"",""time""
""fullscreenenter"",""0"",""4528""
","
","
","""event"",""trial"",""time""
""fullscreenenter"",""0"",""4528""
","
","null","<p></p>","null","","","","","","","",""
"","image","130","151706","0.0-130.0","""event"",""trial"",""time""
""fullscreenenter"",""0"",""4528""
","
","
","""event"",""trial"",""time""
""fullscreenenter"",""0"",""4528""
","
","795.6000000238419","run_exp/static/images/Set 6_rs/024a.jpg","86","","","","","","learn","SR",""
"","show_choice","131","152926","0.0-131.0","""event"",""trial"",""time""
""fullscreenenter"",""0"",""4528""
","
","
","""event"",""trial"",""time""
""fullscreenenter"",""0"",""4528""
","
","null","run_exp/static/images/Set 6_rs/024a.jpg","null","","","","","","learn","SR",""
"","html-keyboard-response","132","153438","0.0-132.0","""event"",""trial"",""time""
""fullscreenenter"",""0"",""4528""
","
","
","""event"",""trial"",""time""
""fullscreenenter"",""0"",""4528""
","
","null","<p></p>","null","","","","","","","",""
"","image","133","154142","0.0-133.0","""event"",""trial"",""time""
""fullscreenenter"",""0"",""4528""
","
","
","""event"",""trial"",""time""
""fullscreenenter"",""0"",""4528""
","
","702.3999999761581","run_exp/static/images/Set 6_rs/010a.jpg","86","","","","","","learn","SR",""
"","show_choice","134","155443","0.0-134.0","""event"",""trial"",""time""
""fullscreenenter"",""0"",""4528""
","
","
","""event"",""trial"",""time""
""fullscreenenter"",""0"",""4528""
","
","null","run_exp/static/images/Set 6_rs/010a.jpg","null","","","","","","learn","SR",""
"","html-keyboard-response","135","155956","0.0-135.0","""event"",""trial"",""time""
""fullscreenenter"",""0"",""4528""
","
","
","""event"",""trial"",""time""
""fullscreenenter"",""0"",""4528""
","
","null","<p></p>","null","","","","","","","",""
"","image","136","156937","0.0-136.0","""event"",""trial"",""time""
""fullscreenenter"",""0"",""4528""
","
","
","""event"",""trial"",""time""
""fullscreenenter"",""0"",""4528""
","
","979.8000000715256","run_exp/static/images/Set 6_rs/126a.jpg","86","","","","","","learn","SR",""
"","show_choice","137","157971","0.0-137.0","""event"",""trial"",""time""
""fullscreenenter"",""0"",""4528""
","
","
","""event"",""trial"",""time""
""fullscreenenter"",""0"",""4528""
","
","null","run_exp/static/images/Set 6_rs/126a.jpg","null","","","","","","learn","SR",""
"","html-keyboard-response","138","158473","0.0-138.0","""event"",""trial"",""time""
""fullscreenenter"",""0"",""4528""
","
","
","""event"",""trial"",""time""
""fullscreenenter"",""0"",""4528""
","
","null","<p></p>","null","","","","","","","",""
"","image","139","159311","0.0-139.0","""event"",""trial"",""time""
""fullscreenenter"",""0"",""4528""
","
","
","""event"",""trial"",""time""
""fullscreenenter"",""0"",""4528""
","
","836.9000000953674","run_exp/static/images/Set 6_rs/036a.jpg","86","","","","","","learn","SL",""
"","show_choice","140","160489","0.0-140.0","""event"",""trial"",""time""
""fullscreenenter"",""0"",""4528""
","
","
","""event"",""trial"",""time""
""fullscreenenter"",""0"",""4528""
","
","null","run_exp/static/images/Set 6_rs/036a.jpg","null","","","","","","learn","SL",""
"","html-keyboard-response","141","161004","0.0-141.0","""event"",""trial"",""time""
""fullscreenenter"",""0"",""4528""
","
","
","""event"",""trial"",""time""
""fullscreenenter"",""0"",""4528""
","
","null","<p></p>","null","","","","","","","",""
"","image","142","161922","0.0-142.0","""event"",""trial"",""time""
""fullscreenenter"",""0"",""4528""
","
","
","""event"",""trial"",""time""
""fullscreenenter"",""0"",""4528""
","
","916.8999999761581","run_exp/static/images/Set 6_rs/154a.jpg","86","","","","","","learn","SR",""
"","show_choice","143","163017","0.0-143.0","""event"",""trial"",""time""
""fullscreenenter"",""0"",""4528""
","
","
","""event"",""trial"",""time""
""fullscreenenter"",""0"",""4528""
","
","null","run_exp/static/images/Set 6_rs/154a.jpg","null","","","","","","learn","SR",""
"","html-keyboard-response","144","163518","0.0-144.0","""event"",""trial"",""time""
""fullscreenenter"",""0"",""4528""
","
","
","""event"",""trial"",""time""
""fullscreenenter"",""0"",""4528""
","
","null","<p></p>","null","","","","","","","",""
"","image","145","164524","0.0-145.0","""event"",""trial"",""time""
""fullscreenenter"",""0"",""4528""
","
","
","""event"",""trial"",""time""
""fullscreenenter"",""0"",""4528""
","
","1005.2000000476837","run_exp/static/images/Set 6_rs/177a.jpg","86","","","","","","learn","SR",""
"","show_choice","146","165528","0.0-146.0","""event"",""trial"",""time""
""fullscreenenter"",""0"",""4528""
","
","
","""event"",""trial"",""time""
""fullscreenenter"",""0"",""4528""
","
","null","run_exp/static/images/Set 6_rs/177a.jpg","null","","","","","","learn","SR",""
"","html-keyboard-response","147","166037","0.0-147.0","""event"",""trial"",""time""
""fullscreenenter"",""0"",""4528""
","
","
","""event"",""trial"",""time""
""fullscreenenter"",""0"",""4528""
","
","null","<p></p>","null","","","","","","","",""
"","image","148","167033","0.0-148.0","""event"",""trial"",""time""
""fullscreenenter"",""0"",""4528""
","
","
","""event"",""trial"",""time""
""fullscreenenter"",""0"",""4528""
","
","994.3999999761581","run_exp/static/images/Set 6_rs/172a.jpg","78","","","","","","learn","SR",""
"","show_choice","149","168046","0.0-149.0","""event"",""trial"",""time""
""fullscreenenter"",""0"",""4528""
","
","
","""event"",""trial"",""time""
""fullscreenenter"",""0"",""4528""
","
","null","run_exp/static/images/Set 6_rs/172a.jpg","null","","","","","","learn","SR",""
"","html-keyboard-response","150","168555","0.0-150.0","""event"",""trial"",""time""
""fullscreenenter"",""0"",""4528""
","
","
","""event"",""trial"",""time""
""fullscreenenter"",""0"",""4528""
","
","null","<p></p>","null","","","","","","","",""
"","image","151","169527","0.0-151.0","""event"",""trial"",""time""
""fullscreenenter"",""0"",""4528""
","
","
","""event"",""trial"",""time""
""fullscreenenter"",""0"",""4528""
","
","971.1000000238419","run_exp/static/images/Set 6_rs/019a.jpg","86","","","","","","learn","SL",""
"","show_choice","152","170562","0.0-152.0","""event"",""trial"",""time""
""fullscreenenter"",""0"",""4528""
","
","
","""event"",""trial"",""time""
""fullscreenenter"",""0"",""4528""
","
","null","run_exp/static/images/Set 6_rs/019a.jpg","null","","","","","","learn","SL",""
"","html-keyboard-response","153","171070","0.0-153.0","""event"",""trial"",""time""
""fullscreenenter"",""0"",""4528""
","
","
","""event"",""trial"",""time""
""fullscreenenter"",""0"",""4528""
","
","null","<p></p>","null","","","","","","","",""
"","image","154","172955","0.0-154.0","""event"",""trial"",""time""
""fullscreenenter"",""0"",""4528""
","
","
","""event"",""trial"",""time""
""fullscreenenter"",""0"",""4528""
","
","1884.1999999284744","run_exp/static/images/Set 6_rs/123a.jpg","78","","","","","","learn","SL",""
"","show_choice","155","173079","0.0-155.0","""event"",""trial"",""time""
""fullscreenenter"",""0"",""4528""
","
","
","""event"",""trial"",""time""
""fullscreenenter"",""0"",""4528""
","
","null","run_exp/static/images/Set 6_rs/123a.jpg","null","","","","","","learn","SL",""
"","html-keyboard-response","156","173580","0.0-156.0","""event"",""trial"",""time""
""fullscreenenter"",""0"",""4528""
","
","
","""event"",""trial"",""time""
""fullscreenenter"",""0"",""4528""
","
","null","<p></p>","null","","","","","","","",""
"","image","157","174760","0.0-157.0","""event"",""trial"",""time""
""fullscreenenter"",""0"",""4528""
","
","
","""event"",""trial"",""time""
""fullscreenenter"",""0"",""4528""
","
","1178.5","run_exp/static/images/Set 6_rs/141a.jpg","78","","","","","","learn","SR",""
"","show_choice","158","175584","0.0-158.0","""event"",""trial"",""time""
""fullscreenenter"",""0"",""4528""
","
","
","""event"",""trial"",""time""
""fullscreenenter"",""0"",""4528""
","
","null","run_exp/static/images/Set 6_rs/141a.jpg","null","","","","","","learn","SR",""
"","html-keyboard-response","159","176090","0.0-159.0","""event"",""trial"",""time""
""fullscreenenter"",""0"",""4528""
","
","
","""event"",""trial"",""time""
""fullscreenenter"",""0"",""4528""
","
","null","<p></p>","null","","","","","","","",""
"","image","160","177016","0.0-160.0","""event"",""trial"",""time""
""fullscreenenter"",""0"",""4528""
","
","
","""event"",""trial"",""time""
""fullscreenenter"",""0"",""4528""
","
","925.2000000476837","run_exp/static/images/Set 6_rs/186a.jpg","86","","","","","","learn","SR",""
"","show_choice","161","178100","0.0-161.0","""event"",""trial"",""time""
""fullscreenenter"",""0"",""4528""
","
","
","""event"",""trial"",""time""
""fullscreenenter"",""0"",""4528""
","
","null","run_exp/static/images/Set 6_rs/186a.jpg","null","","","","","","learn","SR",""
"","html-keyboard-response","162","178605","0.0-162.0","""event"",""trial"",""time""
""fullscreenenter"",""0"",""4528""
","
","
","""event"",""trial"",""time""
""fullscreenenter"",""0"",""4528""
","
","null","<p></p>","null","","","","","","","",""
"","image","163","179412","0.0-163.0","""event"",""trial"",""time""
""fullscreenenter"",""0"",""4528""
","
","
","""event"",""trial"",""time""
""fullscreenenter"",""0"",""4528""
","
","805.5","run_exp/static/images/Set 6_rs/122a.jpg","86","","","","","","learn","SR",""
"","show_choice","164","180615","0.0-164.0","""event"",""trial"",""time""
""fullscreenenter"",""0"",""4528""
","
","
","""event"",""trial"",""time""
""fullscreenenter"",""0"",""4528""
","
","null","run_exp/static/images/Set 6_rs/122a.jpg","null","","","","","","learn","SR",""
"","html-keyboard-response","165","181121","0.0-165.0","""event"",""trial"",""time""
""fullscreenenter"",""0"",""4528""
","
","
","""event"",""trial"",""time""
""fullscreenenter"",""0"",""4528""
","
","null","<p></p>","null","","","","","","","",""
"","image","166","181899","0.0-166.0","""event"",""trial"",""time""
""fullscreenenter"",""0"",""4528""
","
","
","""event"",""trial"",""time""
""fullscreenenter"",""0"",""4528""
","
","776.8999999761581","run_exp/static/images/Set 6_rs/057a.jpg","86","","","","","","learn","SL",""
"","show_choice","167","183125","0.0-167.0","""event"",""trial"",""time""
""fullscreenenter"",""0"",""4528""
","
","
","""event"",""trial"",""time""
""fullscreenenter"",""0"",""4528""
","
","null","run_exp/static/images/Set 6_rs/057a.jpg","null","","","","","","learn","SL",""
"","html-keyboard-response","168","183626","0.0-168.0","""event"",""trial"",""time""
""fullscreenenter"",""0"",""4528""
","
","
","""event"",""trial"",""time""
""fullscreenenter"",""0"",""4528""
","
","null","<p></p>","null","","","","","","","",""
"","image","169","184376","0.0-169.0","""event"",""trial"",""time""
""fullscreenenter"",""0"",""4528""
","
","
","""event"",""trial"",""time""
""fullscreenenter"",""0"",""4528""
","
","748.9000000953674","run_exp/static/images/Set 6_rs/070a.jpg","86","","","","","","learn","SR",""
"","show_choice","170","185638","0.0-170.0","""event"",""trial"",""time""
""fullscreenenter"",""0"",""4528""
","
","
","""event"",""trial"",""time""
""fullscreenenter"",""0"",""4528""
","
","null","run_exp/static/images/Set 6_rs/070a.jpg","null","","","","","","learn","SR",""
"","html-keyboard-response","171","186153","0.0-171.0","""event"",""trial"",""time""
""fullscreenenter"",""0"",""4528""
","
","
","""event"",""trial"",""time""
""fullscreenenter"",""0"",""4528""
","
","null","<p></p>","null","","","","","","","",""
"","image","172","187000","0.0-172.0","""event"",""trial"",""time""
""fullscreenenter"",""0"",""4528""
","
","
","""event"",""trial"",""time""
""fullscreenenter"",""0"",""4528""
","
","845.5","run_exp/static/images/Set 6_rs/055a.jpg","86","","","","","","learn","SL",""
"","show_choice","173","188163","0.0-173.0","""event"",""trial"",""time""
""fullscreenenter"",""0"",""4528""
","
","
","""event"",""trial"",""time""
""fullscreenenter"",""0"",""4528""
","
","null","run_exp/static/images/Set 6_rs/055a.jpg","null","","","","","","learn","SL",""
"","html-keyboard-response","174","188675","0.0-174.0","""event"",""trial"",""time""
""fullscreenenter"",""0"",""4528""
","
","
","""event"",""trial"",""time""
""fullscreenenter"",""0"",""4528""
","
","null","<p></p>","null","","","","","","","",""
"","image","175","189299","0.0-175.0","""event"",""trial"",""time""
""fullscreenenter"",""0"",""4528""
","
","
","""event"",""trial"",""time""
""fullscreenenter"",""0"",""4528""
","
","622.2000000476837","run_exp/static/images/Set 6_rs/064a.jpg","86","","","","","","learn","SR",""
"","show_choice","176","190680","0.0-176.0","""event"",""trial"",""time""
""fullscreenenter"",""0"",""4528""
","
","
","""event"",""trial"",""time""
""fullscreenenter"",""0"",""4528""
","
","null","run_exp/static/images/Set 6_rs/064a.jpg","null","","","","","","learn","SR",""
"","html-keyboard-response","177","191186","0.0-177.0","""event"",""trial"",""time""
""fullscreenenter"",""0"",""4528""
","
","
","""event"",""trial"",""time""
""fullscreenenter"",""0"",""4528""
","
","null","<p></p>","null","","","","","","","",""
"","image","178","191975","0.0-178.0","""event"",""trial"",""time""
""fullscreenenter"",""0"",""4528""
","
","
","""event"",""trial"",""time""
""fullscreenenter"",""0"",""4528""
","
","787.7000000476837","run_exp/static/images/Set 6_rs/073a.jpg","86","","","","","","learn","SL",""
"","show_choice","179","193202","0.0-179.0","""event"",""trial"",""time""
""fullscreenenter"",""0"",""4528""
","
","
","""event"",""trial"",""time""
""fullscreenenter"",""0"",""4528""
","
","null","run_exp/static/images/Set 6_rs/073a.jpg","null","","","","","","learn","SL",""
"","html-keyboard-response","180","193715","0.0-180.0","""event"",""trial"",""time""
""fullscreenenter"",""0"",""4528""
","
","
","""event"",""trial"",""time""
""fullscreenenter"",""0"",""4528""
","
","null","<p></p>","null","","","","","","","",""
"","image","181","194807","0.0-181.0","""event"",""trial"",""time""
""fullscreenenter"",""0"",""4528""
","
","
","""event"",""trial"",""time""
""fullscreenenter"",""0"",""4528""
","
","1088.8000000715256","run_exp/static/images/Set 6_rs/016a.jpg","86","","","","","","learn","SL",""
"","show_choice","182","195726","0.0-182.0","""event"",""trial"",""time""
""fullscreenenter"",""0"",""4528""
","
","
","""event"",""trial"",""time""
""fullscreenenter"",""0"",""4528""
","
","null","run_exp/static/images/Set 6_rs/016a.jpg","null","","","","","","learn","SL",""
"","html-keyboard-response","183","196241","0.0-183.0","""event"",""trial"",""time""
""fullscreenenter"",""0"",""4528""
","
","
","""event"",""trial"",""time""
""fullscreenenter"",""0"",""4528""
","
","null","<p></p>","null","","","","","","","",""
"","image","184","197028","0.0-184.0","""event"",""trial"",""time""
""fullscreenenter"",""0"",""4528""
","
","
","""event"",""trial"",""time""
""fullscreenenter"",""0"",""4528""
","
","786.2999999523163","run_exp/static/images/Set 6_rs/132a.jpg","86","","","","","","learn","SR",""
"","show_choice","185","198254","0.0-185.0","""event"",""trial"",""time""
""fullscreenenter"",""0"",""4528""
","
","
","""event"",""trial"",""time""
""fullscreenenter"",""0"",""4528""
","
","null","run_exp/static/images/Set 6_rs/132a.jpg","null","","","","","","learn","SR",""
"","html-keyboard-response","186","198755","0.0-186.0","""event"",""trial"",""time""
""fullscreenenter"",""0"",""4528""
","
","
","""event"",""trial"",""time""
""fullscreenenter"",""0"",""4528""
","
","null","<p></p>","null","","","","","","","",""
"","image","187","199768","0.0-187.0","""event"",""trial"",""time""
""fullscreenenter"",""0"",""4528""
","
","
","""event"",""trial"",""time""
""fullscreenenter"",""0"",""4528""
","
","1011.4000000953674","run_exp/static/images/Set 6_rs/076a.jpg","86","","","","","","learn","SR",""
"","show_choice","188","200769","0.0-188.0","""event"",""trial"",""time""
""fullscreenenter"",""0"",""4528""
","
","
","""event"",""trial"",""time""
""fullscreenenter"",""0"",""4528""
","
","null","run_exp/static/images/Set 6_rs/076a.jpg","null","","","","","","learn","SR",""
"","html-keyboard-response","189","201285","0.0-189.0","""event"",""trial"",""time""
""fullscreenenter"",""0"",""4528""
","
","
","""event"",""trial"",""time""
""fullscreenenter"",""0"",""4528""
","
","null","<p></p>","null","","","","","","","",""
"","image","190","202102","0.0-190.0","""event"",""trial"",""time""
""fullscreenenter"",""0"",""4528""
","
","
","""event"",""trial"",""time""
""fullscreenenter"",""0"",""4528""
","
","816","run_exp/static/images/Set 6_rs/150a.jpg","86","","","","","","learn","SR",""
"","show_choice","191","203289","0.0-191.0","""event"",""trial"",""time""
""fullscreenenter"",""0"",""4528""
","
","
","""event"",""trial"",""time""
""fullscreenenter"",""0"",""4528""
","
","null","run_exp/static/images/Set 6_rs/150a.jpg","null","","","","","","learn","SR",""
"","html-keyboard-response","192","203797","0.0-192.0","""event"",""trial"",""time""
""fullscreenenter"",""0"",""4528""
","
","
","""event"",""trial"",""time""
""fullscreenenter"",""0"",""4528""
","
","null","<p></p>","null","","","","","","","",""
"","image","193","204690","0.0-193.0","""event"",""trial"",""time""
""fullscreenenter"",""0"",""4528""
","
","
","""event"",""trial"",""time""
""fullscreenenter"",""0"",""4528""
","
","891.5","run_exp/static/images/Set 6_rs/108a.jpg","86","","","","","","learn","SR",""
"","show_choice","194","205807","0.0-194.0","""event"",""trial"",""time""
""fullscreenenter"",""0"",""4528""
","
","
","""event"",""trial"",""time""
""fullscreenenter"",""0"",""4528""
","
","null","run_exp/static/images/Set 6_rs/108a.jpg","null","","","","","","learn","SR",""
"","html-keyboard-response","195","206318","0.0-195.0","""event"",""trial"",""time""
""fullscreenenter"",""0"",""4528""
","
","
","""event"",""trial"",""time""
""fullscreenenter"",""0"",""4528""
","
","null","<p></p>","null","","","","","","","",""
"","test_intro","196","243810","0.0-196.0","""event"",""trial"",""time""
""fullscreenenter"",""0"",""4528""
","
","
","""event"",""trial"",""time""
""fullscreenenter"",""0"",""4528""
","
","null","run_exp/static/audio/clip_2_memory.m4a","null","","","","","<div class='center'><p>Now, lets see how much you remember about the items you just saw.  For each item, you need to indicate if it was <b>old</b> by pressing the <b>v</b> key, <b>similar</b> by pressing the <b>b</b> key, or <b>new</b> by pressing the <b>n</b> key.</p><p>Old refers to an item that you saw before in the indoor/outdoor game that you just played, new refers to an item you have <b>not</b> seen before within the indoor/outdoor game, and similar refers to an item that is similar to an item youve seen before but is not exactly the same. </p><p>Before we begin, lets go over some brief demonstrations to make sure you understand.</p></div>","","",""
"","html-keyboard-response","197","244440","0.0-197.0","""event"",""trial"",""time""
""fullscreenenter"",""0"",""4528""
","
","
","""event"",""trial"",""time""
""fullscreenenter"",""0"",""4528""
","
","628.3000000715256","<div class='center'><p>Now, lets see how much you remember about the items you just saw.  For each item, you need to indicate if it was <b>old</b> by pressing the <b>v</b> key, <b>similar</b> by pressing the <b>b</b> key, or <b>new</b> by pressing the <b>n</b> key.</p><p>Old refers to an item that you saw before in the indoor/outdoor game that you just played, new refers to an item you have <b>not</b> seen before within the indoor/outdoor game, and similar refers to an item that is similar to an item youve seen before but is not exactly the same. </p><p>Before we begin, lets go over some brief demonstrations to make sure you understand.</p><div><p><b>[Press the space bar to continue]</b></p></div>","32","","","","","","","",""
"","items","198","251947","0.0-198.0","""event"",""trial"",""time""
""fullscreenenter"",""0"",""4528""
","
","
","""event"",""trial"",""time""
""fullscreenenter"",""0"",""4528""
","
","null","run_exp/static/audio/clip_3_items.m4a","null","","","","","","","",""
"","mop","199","256456","0.0-199.0","""event"",""trial"",""time""
""fullscreenenter"",""0"",""4528""
","
","
","""event"",""trial"",""time""
""fullscreenenter"",""0"",""4528""
","
","null","run_exp/static/audio/clip_4_mop.m4a","null","","","","","","","",""
"","baseball","200","259965","0.0-200.0","""event"",""trial"",""time""
""fullscreenenter"",""0"",""4528""
","
","
","""event"",""trial"",""time""
""fullscreenenter"",""0"",""4528""
","
","null","run_exp/static/audio/clip_5_baseball.m4a","null","","","","","","","",""
"","trumpet","201","263468","0.0-201.0","""event"",""trial"",""time""
""fullscreenenter"",""0"",""4528""
","
","
","""event"",""trial"",""time""
""fullscreenenter"",""0"",""4528""
","
","null","run_exp/static/audio/clip_6_trumpet.m4a","null","","","","","","","",""
"","gummies","202","266977","0.0-202.0","""event"",""trial"",""time""
""fullscreenenter"",""0"",""4528""
","
","
","""event"",""trial"",""time""
""fullscreenenter"",""0"",""4528""
","
","null","run_exp/static/audio/clip_7_gummies.m4a","null","","","","","","","",""
"","osn","203","271489","0.0-203.0","""event"",""trial"",""time""
""fullscreenenter"",""0"",""4528""
","
","
","""event"",""trial"",""time""
""fullscreenenter"",""0"",""4528""
","
","null","run_exp/static/audio/clip_8_osn.m4a","null","","","","","","","",""
"","old_1","204","277997","0.0-204.0","""event"",""trial"",""time""
""fullscreenenter"",""0"",""4528""
","
","
","""event"",""trial"",""time""
""fullscreenenter"",""0"",""4528""
","
","null","run_exp/static/audio/clip_9_old_trumpet.m4a","null","","","","","","","",""
"","new_1","205","285506","0.0-205.0","""event"",""trial"",""time""
""fullscreenenter"",""0"",""4528""
","
","
","""event"",""trial"",""time""
""fullscreenenter"",""0"",""4528""
","
","null","run_exp/static/audio/clip_10_new_balloon.m4a","null","","","","","","","",""
"","similar_1a","206","290026","0.0-206.0","""event"",""trial"",""time""
""fullscreenenter"",""0"",""4528""
","
","
","""event"",""trial"",""time""
""fullscreenenter"",""0"",""4528""
","
","null","run_exp/static/audio/clip_11a_similar_mop.m4a","null","","","","","","","",""
"","similar_1b","207","296540","0.0-207.0","""event"",""trial"",""time""
""fullscreenenter"",""0"",""4528""
","
","
","""event"",""trial"",""time""
""fullscreenenter"",""0"",""4528""
","
","null","run_exp/static/audio/clip_11b_similar_mop.m4a","null","","","","","","","",""
"","new_2","208","300049","0.0-208.0","""event"",""trial"",""time""
""fullscreenenter"",""0"",""4528""
","
","
","""event"",""trial"",""time""
""fullscreenenter"",""0"",""4528""
","
","null","run_exp/static/audio/clip_12_new_stoplight.m4a","null","","","","","","","",""
"","old_2","209","303558","0.0-209.0","""event"",""trial"",""time""
""fullscreenenter"",""0"",""4528""
","
","
","""event"",""trial"",""time""
""fullscreenenter"",""0"",""4528""
","
","null","run_exp/static/audio/clip_13_old_baseball.m4a","null","","","","","","","",""
"","similar_2a","210","307076","0.0-210.0","""event"",""trial"",""time""
""fullscreenenter"",""0"",""4528""
","
","
","""event"",""trial"",""time""
""fullscreenenter"",""0"",""4528""
","
","null","run_exp/static/audio/clip_14a_similar_gummies.m4a","null","","","","","","","",""
"","similar_2b","211","314594","0.0-211.0","""event"",""trial"",""time""
""fullscreenenter"",""0"",""4528""
","
","
","""event"",""trial"",""time""
""fullscreenenter"",""0"",""4528""
","
","null","run_exp/static/audio/clip_14b_similar_gummies.m4a","null","","","","","","","",""
"","practice","212","356707","0.0-212.0","""event"",""trial"",""time""
""fullscreenenter"",""0"",""4528""
","
","
","""event"",""trial"",""time""
""fullscreenenter"",""0"",""4528""
","
","null","run_exp/static/audio/clip_15_practice.m4a","null","","","","","<div class='center'><p>Lets practice a little to make sure you understand the difference between new, similar, and old. Lets say you saw these three items in the indoor/outdoor game.</p><p> Try your best to remember these images because youll soon be tested on them in a practice game. In the practice game, youll be shown images and youll have to say if they are old (one of the three images belows), similar (similar to one of the images below but not exactly the same), or new (are not one of the images below nor similar to them).</p><p>Once you press the space bar youll be shown these images again but one at time. Then youll begin the practice game.</p><p><img src='run_exp/static/images/tutorial/test/three_indoor_outdoor.png' height='300'></p></div>","","",""
"","html-keyboard-response","213","357124","0.0-213.0","""event"",""trial"",""time""
""fullscreenenter"",""0"",""4528""
","
","
","""event"",""trial"",""time""
""fullscreenenter"",""0"",""4528""
","
","416","<div class='center'><p>Lets practice a little to make sure you understand the difference between new, similar, and old. Lets say you saw these three items in the indoor/outdoor game.</p><p> Try your best to remember these images because youll soon be tested on them in a practice game. In the practice game, youll be shown images and youll have to say if they are old (one of the three images belows), similar (similar to one of the images below but not exactly the same), or new (are not one of the images below nor similar to them).</p><p>Once you press the space bar youll be shown these images again but one at time. Then youll begin the practice game.</p><p><img src='run_exp/static/images/tutorial/test/three_indoor_outdoor.png' height='300'></p><div><p><b>[Press the space bar to continue]</b></p></div>","32","","","","","","","",""
"","planet","214","359138","0.0-214.0","""event"",""trial"",""time""
""fullscreenenter"",""0"",""4528""
","
","
","""event"",""trial"",""time""
""fullscreenenter"",""0"",""4528""
","
","null","run_exp/static/images/tutorial/test/008a.jpg","null","","","","","","","",""
"","boot","215","361143","0.0-215.0","""event"",""trial"",""time""
""fullscreenenter"",""0"",""4528""
","
","
","""event"",""trial"",""time""
""fullscreenenter"",""0"",""4528""
","
","null","run_exp/static/images/tutorial/test/011a.jpg","null","","","","","","","",""
"","lemon","216","363148","0.0-216.0","""event"",""trial"",""time""
""fullscreenenter"",""0"",""4528""
","
","
","""event"",""trial"",""time""
""fullscreenenter"",""0"",""4528""
","
","null","run_exp/static/images/tutorial/test/018a.jpg","null","","","","","","","",""
"","practice_q1","217","373367","0.0-217.0","""event"",""trial"",""time""
""fullscreenenter"",""0"",""4528""
","
","
","""event"",""trial"",""time""
""fullscreenenter"",""0"",""4528""
","
","10221.699999928474","run_exp/static/audio/clip_16_practice_question.m4a","78","","","","","","","",""
"","correct","218","375263","0.0-218.0-0.0","""event"",""trial"",""time""
""fullscreenenter"",""0"",""4528""
","
","
","""event"",""trial"",""time""
""fullscreenenter"",""0"",""4528""
","
","null","run_exp/static/audio/clip_17_correct.m4a","null","","","","","<div class='center'><p>That's correct!</p></div>","","",""
"","html-keyboard-response","219","376593","0.0-218.0-1.0","""event"",""trial"",""time""
""fullscreenenter"",""0"",""4528""
","
","
","""event"",""trial"",""time""
""fullscreenenter"",""0"",""4528""
","
","1329.5","<div class='center'><p>That's correct!</p><div><p><b>[Press the space bar to continue]</b></p></div>","32","","","","","","","",""
"","practice_q2","220","381767","0.0-218.0-2.0","""event"",""trial"",""time""
""fullscreenenter"",""0"",""4528""
","
","
","""event"",""trial"",""time""
""fullscreenenter"",""0"",""4528""
","
","5173.299999952316","run_exp/static/audio/clip_16_practice_question.m4a","86","","","","","","","",""
"","correct","221","383668","0.0-219.0-0.0","""event"",""trial"",""time""
""fullscreenenter"",""0"",""4528""
","
","
","""event"",""trial"",""time""
""fullscreenenter"",""0"",""4528""
","
","null","run_exp/static/audio/clip_17_correct.m4a","null","","","","","<div class='center'><p>That's correct!</p></div>","","",""
"","html-keyboard-response","222","384862","0.0-219.0-1.0","""event"",""trial"",""time""
""fullscreenenter"",""0"",""4528""
","
","
","""event"",""trial"",""time""
""fullscreenenter"",""0"",""4528""
","
","1193.7999999523163","<div class='center'><p>That's correct!</p><div><p><b>[Press the space bar to continue]</b></p></div>","32","","","","","","","",""
"","practice_q3","223","389927","0.0-219.0-2.0","""event"",""trial"",""time""
""fullscreenenter"",""0"",""4528""
","
","
","""event"",""trial"",""time""
""fullscreenenter"",""0"",""4528""
","
","5062.699999928474","run_exp/static/audio/clip_16_practice_question.m4a","86","","","","","","","",""
"","incorrect_q3","224","392650","0.0-220.0-0.0","""event"",""trial"",""time""
""fullscreenenter"",""0"",""4528""
","
","
","""event"",""trial"",""time""
""fullscreenenter"",""0"",""4528""
","
","null","run_exp/static/audio/clip_20_incorrect_similar.m4a","null","","","","","<div class='center'><p>Thats incorrect. Its similar.</p><p><img src='run_exp/static/images/tutorial/test/boot_comparison.png' height='300'></p></div>","","",""
"","html-keyboard-response","225","395500","0.0-220.0-1.0","""event"",""trial"",""time""
""fullscreenenter"",""0"",""4528""
","
","
","""event"",""trial"",""time""
""fullscreenenter"",""0"",""4528""
","
","2849.399999976158","<div class='center'><p>Thats incorrect. Its similar.</p><p><img src='run_exp/static/images/tutorial/test/boot_comparison.png' height='300'></p><div><p><b>[Press the space bar to continue]</b></p></div>","32","","","","","","","",""
"","repeat","226","400223","0.0-221.0-0.0","""event"",""trial"",""time""
""fullscreenenter"",""0"",""4528""
","
","
","""event"",""trial"",""time""
""fullscreenenter"",""0"",""4528""
","
","null","run_exp/static/audio/clip_21_practice_again.m4a","null","","","","","<div class='center'><p>Oops. you missed at least one of these questions. Let's try practicing again. </p></div>","","",""
"","html-keyboard-response","227","401108","0.0-221.0-1.0","""event"",""trial"",""time""
""fullscreenenter"",""0"",""4528""
","
","
","""event"",""trial"",""time""
""fullscreenenter"",""0"",""4528""
","
","884.5","<div class='center'><p>Oops. you missed at least one of these questions. Let's try practicing again. </p><div><p><b>[Press the space bar to continue]</b></p></div>","32","","","","","","","",""
"","practice_q1","228","404015","0.0-221.0-2.0","""event"",""trial"",""time""
""fullscreenenter"",""0"",""4528""
","
","
","""event"",""trial"",""time""
""fullscreenenter"",""0"",""4528""
","
","2905.9000000953674","run_exp/static/audio/clip_16_practice_question.m4a","78","","","","","","","",""
"","correct","229","405919","0.0-222.0-0.0","""event"",""trial"",""time""
""fullscreenenter"",""0"",""4528""
","
","
","""event"",""trial"",""time""
""fullscreenenter"",""0"",""4528""
","
","null","run_exp/static/audio/clip_17_correct.m4a","null","","","","","<div class='center'><p>That's correct!</p></div>","","",""
"","html-keyboard-response","230","406775","0.0-222.0-1.0","""event"",""trial"",""time""
""fullscreenenter"",""0"",""4528""
","
","
","""event"",""trial"",""time""
""fullscreenenter"",""0"",""4528""
","
","855.1000000238419","<div class='center'><p>That's correct!</p><div><p><b>[Press the space bar to continue]</b></p></div>","32","","","","","","","",""
"","practice_q2","231","408041","0.0-222.0-2.0","""event"",""trial"",""time""
""fullscreenenter"",""0"",""4528""
","
","
","""event"",""trial"",""time""
""fullscreenenter"",""0"",""4528""
","
","1265.1999999284744","run_exp/static/audio/clip_16_practice_question.m4a","78","","","","","","","",""
"","incorrect_q2","232","411081","0.0-223.0-0.0","""event"",""trial"",""time""
""fullscreenenter"",""0"",""4528""
","
","
","""event"",""trial"",""time""
""fullscreenenter"",""0"",""4528""
","
","null","run_exp/static/audio/clip_19_incorrect_old.m4a","null","","","","","<div class='center'><p>Thats incorrect. Its old.</p></div>","","",""
"","html-keyboard-response","233","411767","0.0-223.0-1.0","""event"",""trial"",""time""
""fullscreenenter"",""0"",""4528""
","
","
","""event"",""trial"",""time""
""fullscreenenter"",""0"",""4528""
","
","685.1999999284744","<div class='center'><p>Thats incorrect. Its old.</p><div><p><b>[Press the space bar to continue]</b></p></div>","32","","","","","","","",""
"","practice_q3","234","416205","0.0-223.0-2.0","""event"",""trial"",""time""
""fullscreenenter"",""0"",""4528""
","
","
","""event"",""trial"",""time""
""fullscreenenter"",""0"",""4528""
","
","4436.700000047684","run_exp/static/audio/clip_16_practice_question.m4a","66","","","","","","","",""
"","correct","235","418100","0.0-224.0-0.0","""event"",""trial"",""time""
""fullscreenenter"",""0"",""4528""
","
","
","""event"",""trial"",""time""
""fullscreenenter"",""0"",""4528""
","
","null","run_exp/static/audio/clip_17_correct.m4a","null","","","","","<div class='center'><p>That's correct!</p></div>","","",""
"","html-keyboard-response","236","418900","0.0-224.0-1.0","""event"",""trial"",""time""
""fullscreenenter"",""0"",""4528""
","
","
","""event"",""trial"",""time""
""fullscreenenter"",""0"",""4528""
","
","799.2999999523163","<div class='center'><p>That's correct!</p><div><p><b>[Press the space bar to continue]</b></p></div>","32","","","","","","","",""
"","repeat","237","423625","0.0-225.0-0.0","""event"",""trial"",""time""
""fullscreenenter"",""0"",""4528""
","
","
","""event"",""trial"",""time""
""fullscreenenter"",""0"",""4528""
","
","null","run_exp/static/audio/clip_21_practice_again.m4a","null","","","","","<div class='center'><p>Oops. you missed at least one of these questions. Let's try practicing again. </p></div>","","",""
"","html-keyboard-response","238","424044","0.0-225.0-1.0","""event"",""trial"",""time""
""fullscreenenter"",""0"",""4528""
","
","
","""event"",""trial"",""time""
""fullscreenenter"",""0"",""4528""
","
","417.39999997615814","<div class='center'><p>Oops. you missed at least one of these questions. Let's try practicing again. </p><div><p><b>[Press the space bar to continue]</b></p></div>","32","","","","","","","",""
"","practice_q1","239","425798","0.0-225.0-2.0","""event"",""trial"",""time""
""fullscreenenter"",""0"",""4528""
","
","
","""event"",""trial"",""time""
""fullscreenenter"",""0"",""4528""
","
","1753.3999999761581","run_exp/static/audio/clip_16_practice_question.m4a","78","","","","","","","",""
"","correct","240","427679","0.0-226.0-0.0","""event"",""trial"",""time""
""fullscreenenter"",""0"",""4528""
","
","
","""event"",""trial"",""time""
""fullscreenenter"",""0"",""4528""
","
","null","run_exp/static/audio/clip_17_correct.m4a","null","","","","","<div class='center'><p>That's correct!</p></div>","","",""
"","html-keyboard-response","241","428604","0.0-226.0-1.0","""event"",""trial"",""time""
""fullscreenenter"",""0"",""4528""
","
","
","""event"",""trial"",""time""
""fullscreenenter"",""0"",""4528""
","
","923.8999999761581","<div class='center'><p>That's correct!</p><div><p><b>[Press the space bar to continue]</b></p></div>","32","","","","","","","",""
"","practice_q2","242","429932","0.0-226.0-2.0","""event"",""trial"",""time""
""fullscreenenter"",""0"",""4528""
","
","
","""event"",""trial"",""time""
""fullscreenenter"",""0"",""4528""
","
","1327.6000000238419","run_exp/static/audio/clip_16_practice_question.m4a","86","","","","","","","",""
"","correct","243","431817","0.0-227.0-0.0","""event"",""trial"",""time""
""fullscreenenter"",""0"",""4528""
","
","
","""event"",""trial"",""time""
""fullscreenenter"",""0"",""4528""
","
","null","run_exp/static/audio/clip_17_correct.m4a","null","","","","","<div class='center'><p>That's correct!</p></div>","","",""
"","html-keyboard-response","244","432107","0.0-227.0-1.0","""event"",""trial"",""time""
""fullscreenenter"",""0"",""4528""
","
","
","""event"",""trial"",""time""
""fullscreenenter"",""0"",""4528""
","
","288.6999999284744","<div class='center'><p>That's correct!</p><div><p><b>[Press the space bar to continue]</b></p></div>","32","","","","","","","",""
"","practice_q3","245","433281","0.0-227.0-2.0","""event"",""trial"",""time""
""fullscreenenter"",""0"",""4528""
","
","
","""event"",""trial"",""time""
""fullscreenenter"",""0"",""4528""
","
","1173.5","run_exp/static/audio/clip_16_practice_question.m4a","66","","","","","","","",""
"","correct","246","435277","0.0-228.0-0.0","""event"",""trial"",""time""
""fullscreenenter"",""0"",""4528""
","
","
","""event"",""trial"",""time""
""fullscreenenter"",""0"",""4528""
","
","null","run_exp/static/audio/clip_17_correct.m4a","null","","","","","<div class='center'><p>That's correct!</p></div>","","",""
"","html-keyboard-response","247","435754","0.0-228.0-1.0","""event"",""trial"",""time""
""fullscreenenter"",""0"",""4528""
","
","
","""event"",""trial"",""time""
""fullscreenenter"",""0"",""4528""
","
","475.2999999523163","<div class='center'><p>That's correct!</p><div><p><b>[Press the space bar to continue]</b></p></div>","32","","","","","","","",""
"","begin_text","248","454221","0.0-229.0-0.0","""event"",""trial"",""time""
""fullscreenenter"",""0"",""4528""
","
","
","""event"",""trial"",""time""
""fullscreenenter"",""0"",""4528""
","
","null","run_exp/static/audio/clip_22_begin_test.m4a","null","","","","","<div class='center'><p>On to the real game where well test your memory of items from the indoor/outdoor game. For each item, you need to indicate if the item is <b>old</b> by pressing the <b>v</b> key, <b>similar</b> by pressing the <b>b</b> key, or <b>new</b> by pressing the <b>n</b> key. </p></div>","","",""
"","html-keyboard-response","249","455099","0.0-229.0-1.0","""event"",""trial"",""time""
""fullscreenenter"",""0"",""4528""
","
","
","""event"",""trial"",""time""
""fullscreenenter"",""0"",""4528""
","
","876.8000000715256","<div class='center'><p>On to the real game where well test your memory of items from the indoor/outdoor game. For each item, you need to indicate if the item is <b>old</b> by pressing the <b>v</b> key, <b>similar</b> by pressing the <b>b</b> key, or <b>new</b> by pressing the <b>n</b> key. </p><div><p><b>[Press the space bar to continue]</b></p></div>","32","","","","","","","",""
"","image","250","456279","0.0-230.0-0.0","""event"",""trial"",""time""
""fullscreenenter"",""0"",""4528""
","
","
","""event"",""trial"",""time""
""fullscreenenter"",""0"",""4528""
","
","1178.3999999761581","run_exp/static/images/Set 6_rs/126a.jpg","66","","","","","","test","TR","2"
"","show_choice","251","456781","0.0-230.0-1.0","""event"",""trial"",""time""
""fullscreenenter"",""0"",""4528""
","
","
","""event"",""trial"",""time""
""fullscreenenter"",""0"",""4528""
","
","null","run_exp/static/images/Set 6_rs/126a.jpg","null","","","","","","test","TR",""
"","html-keyboard-response","252","457282","0.0-230.0-2.0","""event"",""trial"",""time""
""fullscreenenter"",""0"",""4528""
","
","
","""event"",""trial"",""time""
""fullscreenenter"",""0"",""4528""
","
","null","<p></p>","null","","","","","","","",""
"","image","253","458309","0.0-231.0-0.0","""event"",""trial"",""time""
""fullscreenenter"",""0"",""4528""
","
","
","""event"",""trial"",""time""
""fullscreenenter"",""0"",""4528""
","
","1026.2999999523163","run_exp/static/images/Set 6_rs/172a.jpg","78","","","","","","test","TR","1"
"","show_choice","254","458823","0.0-231.0-1.0","""event"",""trial"",""time""
""fullscreenenter"",""0"",""4528""
","
","
","""event"",""trial"",""time""
""fullscreenenter"",""0"",""4528""
","
","null","run_exp/static/images/Set 6_rs/172a.jpg","null","","","","","","test","TR",""
"","html-keyboard-response","255","459330","0.0-231.0-2.0","""event"",""trial"",""time""
""fullscreenenter"",""0"",""4528""
","
","
","""event"",""trial"",""time""
""fullscreenenter"",""0"",""4528""
","
","null","<p></p>","null","","","","","","","",""
"","image","256","460642","0.0-232.0-0.0","""event"",""trial"",""time""
""fullscreenenter"",""0"",""4528""
","
","
","""event"",""trial"",""time""
""fullscreenenter"",""0"",""4528""
","
","1311.2999999523163","run_exp/static/images/Set 6_rs/136a.jpg","78","","","","","","test","TF","4"
"","show_choice","257","461152","0.0-232.0-1.0","""event"",""trial"",""time""
""fullscreenenter"",""0"",""4528""
","
","
","""event"",""trial"",""time""
""fullscreenenter"",""0"",""4528""
","
","null","run_exp/static/images/Set 6_rs/136a.jpg","null","","","","","","test","TF",""
"","html-keyboard-response","258","461654","0.0-232.0-2.0","""event"",""trial"",""time""
""fullscreenenter"",""0"",""4528""
","
","
","""event"",""trial"",""time""
""fullscreenenter"",""0"",""4528""
","
","null","<p></p>","null","","","","","","","",""
"","image","259","462997","0.0-233.0-0.0","""event"",""trial"",""time""
""fullscreenenter"",""0"",""4528""
","
","
","""event"",""trial"",""time""
""fullscreenenter"",""0"",""4528""
","
","1341.5","run_exp/static/images/Set 6_rs/085b.jpg","78","","","","","","test","TL","1"
"","show_choice","260","463500","0.0-233.0-1.0","""event"",""trial"",""time""
""fullscreenenter"",""0"",""4528""
","
","
","""event"",""trial"",""time""
""fullscreenenter"",""0"",""4528""
","
","null","run_exp/static/images/Set 6_rs/085b.jpg","null","","","","","","test","TL",""
"","html-keyboard-response","261","464023","0.0-233.0-2.0","""event"",""trial"",""time""
""fullscreenenter"",""0"",""4528""
","
","
","""event"",""trial"",""time""
""fullscreenenter"",""0"",""4528""
","
","null","<p></p>","null","","","","","","","",""
"","image","262","465591","0.0-234.0-0.0","""event"",""trial"",""time""
""fullscreenenter"",""0"",""4528""
","
","
","""event"",""trial"",""time""
""fullscreenenter"",""0"",""4528""
","
","1566.6999999284744","run_exp/static/images/Set 6_rs/138b.jpg","86","","","","","","test","TL","1"
"","show_choice","263","466095","0.0-234.0-1.0","""event"",""trial"",""time""
""fullscreenenter"",""0"",""4528""
","
","
","""event"",""trial"",""time""
""fullscreenenter"",""0"",""4528""
","
","null","run_exp/static/images/Set 6_rs/138b.jpg","null","","","","","","test","TL",""
"","html-keyboard-response","264","466605","0.0-234.0-2.0","""event"",""trial"",""time""
""fullscreenenter"",""0"",""4528""
","
","
","""event"",""trial"",""time""
""fullscreenenter"",""0"",""4528""
","
","null","<p></p>","null","","","","","","","",""
"","image","265","467897","0.0-235.0-0.0","""event"",""trial"",""time""
""fullscreenenter"",""0"",""4528""
","
","
","""event"",""trial"",""time""
""fullscreenenter"",""0"",""4528""
","
","1290.8000000715256","run_exp/static/images/Set 6_rs/057b.jpg","86","","","","","","test","TL","1"
"","show_choice","266","468407","0.0-235.0-1.0","""event"",""trial"",""time""
""fullscreenenter"",""0"",""4528""
","
","
","""event"",""trial"",""time""
""fullscreenenter"",""0"",""4528""
","
","null","run_exp/static/images/Set 6_rs/057b.jpg","null","","","","","","test","TL",""
"","html-keyboard-response","267","468914","0.0-235.0-2.0","""event"",""trial"",""time""
""fullscreenenter"",""0"",""4528""
","
","
","""event"",""trial"",""time""
""fullscreenenter"",""0"",""4528""
","
","null","<p></p>","null","","","","","","","",""
"","image","268","469984","0.0-236.0-0.0","""event"",""trial"",""time""
""fullscreenenter"",""0"",""4528""
","
","
","""event"",""trial"",""time""
""fullscreenenter"",""0"",""4528""
","
","1068.5","run_exp/static/images/Set 6_rs/007a.jpg","66","","","","","","test","TR","3"
"","show_choice","269","470487","0.0-236.0-1.0","""event"",""trial"",""time""
""fullscreenenter"",""0"",""4528""
","
","
","""event"",""trial"",""time""
""fullscreenenter"",""0"",""4528""
","
","null","run_exp/static/images/Set 6_rs/007a.jpg","null","","","","","","test","TR",""
"","html-keyboard-response","270","471000","0.0-236.0-2.0","""event"",""trial"",""time""
""fullscreenenter"",""0"",""4528""
","
","
","""event"",""trial"",""time""
""fullscreenenter"",""0"",""4528""
","
","null","<p></p>","null","","","","","","","",""
"","image","271","472620","0.0-237.0-0.0","""event"",""trial"",""time""
""fullscreenenter"",""0"",""4528""
","
","
","""event"",""trial"",""time""
""fullscreenenter"",""0"",""4528""
","
","1619.5","run_exp/static/images/Set 6_rs/090a.jpg","66","","","","","","test","TF","5"
"","show_choice","272","473135","0.0-237.0-1.0","""event"",""trial"",""time""
""fullscreenenter"",""0"",""4528""
","
","
","""event"",""trial"",""time""
""fullscreenenter"",""0"",""4528""
","
","null","run_exp/static/images/Set 6_rs/090a.jpg","null","","","","","","test","TF",""
"","html-keyboard-response","273","473644","0.0-237.0-2.0","""event"",""trial"",""time""
""fullscreenenter"",""0"",""4528""
","
","
","""event"",""trial"",""time""
""fullscreenenter"",""0"",""4528""
","
","null","<p></p>","null","","","","","","","",""
"","image","274","474837","0.0-238.0-0.0","""event"",""trial"",""time""
""fullscreenenter"",""0"",""4528""
","
","
","""event"",""trial"",""time""
""fullscreenenter"",""0"",""4528""
","
","1191.2999999523163","run_exp/static/images/Set 6_rs/014b.jpg","66","","","","","","test","TL","5"
"","show_choice","275","475352","0.0-238.0-1.0","""event"",""trial"",""time""
""fullscreenenter"",""0"",""4528""
","
","
","""event"",""trial"",""time""
""fullscreenenter"",""0"",""4528""
","
","null","run_exp/static/images/Set 6_rs/014b.jpg","null","","","","","","test","TL",""
"","html-keyboard-response","276","475868","0.0-238.0-2.0","""event"",""trial"",""time""
""fullscreenenter"",""0"",""4528""
","
","
","""event"",""trial"",""time""
""fullscreenenter"",""0"",""4528""
","
","null","<p></p>","null","","","","","","","",""
"","image","277","477038","0.0-239.0-0.0","""event"",""trial"",""time""
""fullscreenenter"",""0"",""4528""
","
","
","""event"",""trial"",""time""
""fullscreenenter"",""0"",""4528""
","
","1169.1000000238419","run_exp/static/images/Set 6_rs/064a.jpg","78","","","","","","test","TR","5"
"","show_choice","278","477542","0.0-239.0-1.0","""event"",""trial"",""time""
""fullscreenenter"",""0"",""4528""
","
","
","""event"",""trial"",""time""
""fullscreenenter"",""0"",""4528""
","
","null","run_exp/static/images/Set 6_rs/064a.jpg","null","","","","","","test","TR",""
"","html-keyboard-response","279","478058","0.0-239.0-2.0","""event"",""trial"",""time""
""fullscreenenter"",""0"",""4528""
","
","
","""event"",""trial"",""time""
""fullscreenenter"",""0"",""4528""
","
","null","<p></p>","null","","","","","","","",""
"","image","280","479087","0.0-240.0-0.0","""event"",""trial"",""time""
""fullscreenenter"",""0"",""4528""
","
","
","""event"",""trial"",""time""
""fullscreenenter"",""0"",""4528""
","
","1027.6000000238419","run_exp/static/images/Set 6_rs/035a.jpg","86","","","","","","test","TF","4"
"","show_choice","281","479594","0.0-240.0-1.0","""event"",""trial"",""time""
""fullscreenenter"",""0"",""4528""
","
","
","""event"",""trial"",""time""
""fullscreenenter"",""0"",""4528""
","
","null","run_exp/static/images/Set 6_rs/035a.jpg","null","","","","","","test","TF",""
"","html-keyboard-response","282","480102","0.0-240.0-2.0","""event"",""trial"",""time""
""fullscreenenter"",""0"",""4528""
","
","
","""event"",""trial"",""time""
""fullscreenenter"",""0"",""4528""
","
","null","<p></p>","null","","","","","","","",""
"","image","283","481038","0.0-241.0-0.0","""event"",""trial"",""time""
""fullscreenenter"",""0"",""4528""
","
","
","""event"",""trial"",""time""
""fullscreenenter"",""0"",""4528""
","
","935.1000000238419","run_exp/static/images/Set 6_rs/177a.jpg","86","","","","","","test","TR","5"
"","show_choice","284","481551","0.0-241.0-1.0","""event"",""trial"",""time""
""fullscreenenter"",""0"",""4528""
","
","
","""event"",""trial"",""time""
""fullscreenenter"",""0"",""4528""
","
","null","run_exp/static/images/Set 6_rs/177a.jpg","null","","","","","","test","TR",""
"","html-keyboard-response","285","482067","0.0-241.0-2.0","""event"",""trial"",""time""
""fullscreenenter"",""0"",""4528""
","
","
","""event"",""trial"",""time""
""fullscreenenter"",""0"",""4528""
","
","null","<p></p>","null","","","","","","","",""
"","image","286","483089","0.0-242.0-0.0","""event"",""trial"",""time""
""fullscreenenter"",""0"",""4528""
","
","
","""event"",""trial"",""time""
""fullscreenenter"",""0"",""4528""
","
","1020.3999999761581","run_exp/static/images/Set 6_rs/167b.jpg","86","","","","","","test","TL","2"
"","show_choice","287","483601","0.0-242.0-1.0","""event"",""trial"",""time""
""fullscreenenter"",""0"",""4528""
","
","
","""event"",""trial"",""time""
""fullscreenenter"",""0"",""4528""
","
","null","run_exp/static/images/Set 6_rs/167b.jpg","null","","","","","","test","TL",""
"","html-keyboard-response","288","484103","0.0-242.0-2.0","""event"",""trial"",""time""
""fullscreenenter"",""0"",""4528""
","
","
","""event"",""trial"",""time""
""fullscreenenter"",""0"",""4528""
","
","null","<p></p>","null","","","","","","","",""
"","image","289","484996","0.0-243.0-0.0","""event"",""trial"",""time""
""fullscreenenter"",""0"",""4528""
","
","
","""event"",""trial"",""time""
""fullscreenenter"",""0"",""4528""
","
","892.3000000715256","run_exp/static/images/Set 6_rs/036b.jpg","86","","","","","","test","TL","4"
"","show_choice","290","485505","0.0-243.0-1.0","""event"",""trial"",""time""
""fullscreenenter"",""0"",""4528""
","
","
","""event"",""trial"",""time""
""fullscreenenter"",""0"",""4528""
","
","null","run_exp/static/images/Set 6_rs/036b.jpg","null","","","","","","test","TL",""
"","html-keyboard-response","291","486017","0.0-243.0-2.0","""event"",""trial"",""time""
""fullscreenenter"",""0"",""4528""
","
","
","""event"",""trial"",""time""
""fullscreenenter"",""0"",""4528""
","
","null","<p></p>","null","","","","","","","",""
"","image","292","487412","0.0-244.0-0.0","""event"",""trial"",""time""
""fullscreenenter"",""0"",""4528""
","
","
","""event"",""trial"",""time""
""fullscreenenter"",""0"",""4528""
","
","1393.1999999284744","run_exp/static/images/Set 6_rs/141a.jpg","86","","","","","","test","TR","2"
"","show_choice","293","487918","0.0-244.0-1.0","""event"",""trial"",""time""
""fullscreenenter"",""0"",""4528""
","
","
","""event"",""trial"",""time""
""fullscreenenter"",""0"",""4528""
","
","null","run_exp/static/images/Set 6_rs/141a.jpg","null","","","","","","test","TR",""
"","html-keyboard-response","294","488427","0.0-244.0-2.0","""event"",""trial"",""time""
""fullscreenenter"",""0"",""4528""
","
","
","""event"",""trial"",""time""
""fullscreenenter"",""0"",""4528""
","
","null","<p></p>","null","","","","","","","",""
"","image","295","489487","0.0-245.0-0.0","""event"",""trial"",""time""
""fullscreenenter"",""0"",""4528""
","
","
","""event"",""trial"",""time""
""fullscreenenter"",""0"",""4528""
","
","1058.3999999761581","run_exp/static/images/Set 6_rs/176a.jpg","86","","","","","","test","TF","4"
"","show_choice","296","490000","0.0-245.0-1.0","""event"",""trial"",""time""
""fullscreenenter"",""0"",""4528""
","
","
","""event"",""trial"",""time""
""fullscreenenter"",""0"",""4528""
","
","null","run_exp/static/images/Set 6_rs/176a.jpg","null","","","","","","test","TF",""
"","html-keyboard-response","297","490502","0.0-245.0-2.0","""event"",""trial"",""time""
""fullscreenenter"",""0"",""4528""
","
","
","""event"",""trial"",""time""
""fullscreenenter"",""0"",""4528""
","
","null","<p></p>","null","","","","","","","",""
"","image","298","491393","0.0-246.0-0.0","""event"",""trial"",""time""
""fullscreenenter"",""0"",""4528""
","
","
","""event"",""trial"",""time""
""fullscreenenter"",""0"",""4528""
","
","890","run_exp/static/images/Set 6_rs/005a.jpg","78","","","","","","test","TF","5"
"","show_choice","299","491900","0.0-246.0-1.0","""event"",""trial"",""time""
""fullscreenenter"",""0"",""4528""
","
","
","""event"",""trial"",""time""
""fullscreenenter"",""0"",""4528""
","
","null","run_exp/static/images/Set 6_rs/005a.jpg","null","","","","","","test","TF",""
"","html-keyboard-response","300","492402","0.0-246.0-2.0","""event"",""trial"",""time""
""fullscreenenter"",""0"",""4528""
","
","
","""event"",""trial"",""time""
""fullscreenenter"",""0"",""4528""
","
","null","<p></p>","null","","","","","","","",""
"","image","301","494216","0.0-247.0-0.0","""event"",""trial"",""time""
""fullscreenenter"",""0"",""4528""
","
","
","""event"",""trial"",""time""
""fullscreenenter"",""0"",""4528""
","
","1812.5","run_exp/static/images/Set 6_rs/144b.jpg","66","","","","","","test","TL","4"
"","show_choice","302","494725","0.0-247.0-1.0","""event"",""trial"",""time""
""fullscreenenter"",""0"",""4528""
","
","
","""event"",""trial"",""time""
""fullscreenenter"",""0"",""4528""
","
","null","run_exp/static/images/Set 6_rs/144b.jpg","null","","","","","","test","TL",""
"","html-keyboard-response","303","495235","0.0-247.0-2.0","""event"",""trial"",""time""
""fullscreenenter"",""0"",""4528""
","
","
","""event"",""trial"",""time""
""fullscreenenter"",""0"",""4528""
","
","null","<p></p>","null","","","","","","","",""
"","image","304","498144","0.0-248.0-0.0","""event"",""trial"",""time""
""fullscreenenter"",""0"",""4528""
","
","
","""event"",""trial"",""time""
""fullscreenenter"",""0"",""4528""
","
","2907.7999999523163","run_exp/static/images/Set 6_rs/011a.jpg","78","","","","","","test","TF","3"
"","show_choice","305","498650","0.0-248.0-1.0","""event"",""trial"",""time""
""fullscreenenter"",""0"",""4528""
","
","
","""event"",""trial"",""time""
""fullscreenenter"",""0"",""4528""
","
","null","run_exp/static/images/Set 6_rs/011a.jpg","null","","","","","","test","TF",""
"","html-keyboard-response","306","499151","0.0-248.0-2.0","""event"",""trial"",""time""
""fullscreenenter"",""0"",""4528""
","
","
","""event"",""trial"",""time""
""fullscreenenter"",""0"",""4528""
","
","null","<p></p>","null","","","","","","","",""
"","image","307","501960","0.0-249.0-0.0","""event"",""trial"",""time""
""fullscreenenter"",""0"",""4528""
","
","
","""event"",""trial"",""time""
""fullscreenenter"",""0"",""4528""
","
","2806.899999976158","run_exp/static/images/Set 6_rs/088a.jpg","86","","","","","","test","TR","2"
"","show_choice","308","502466","0.0-249.0-1.0","""event"",""trial"",""time""
""fullscreenenter"",""0"",""4528""
","
","
","""event"",""trial"",""time""
""fullscreenenter"",""0"",""4528""
","
","null","run_exp/static/images/Set 6_rs/088a.jpg","null","","","","","","test","TR",""
"","html-keyboard-response","309","502968","0.0-249.0-2.0","""event"",""trial"",""time""
""fullscreenenter"",""0"",""4528""
","
","
","""event"",""trial"",""time""
""fullscreenenter"",""0"",""4528""
","
","null","<p></p>","null","","","","","","","",""
"","image","310","504745","0.0-250.0-0.0","""event"",""trial"",""time""
""fullscreenenter"",""0"",""4528""
","
","
","""event"",""trial"",""time""
""fullscreenenter"",""0"",""4528""
","
","1775.7000000476837","run_exp/static/images/Set 6_rs/116b.jpg","66","","","","","","test","TL","2"
"","show_choice","311","505251","0.0-250.0-1.0","""event"",""trial"",""time""
""fullscreenenter"",""0"",""4528""
","
","
","""event"",""trial"",""time""
""fullscreenenter"",""0"",""4528""
","
","null","run_exp/static/images/Set 6_rs/116b.jpg","null","","","","","","test","TL",""
"","html-keyboard-response","312","505766","0.0-250.0-2.0","""event"",""trial"",""time""
""fullscreenenter"",""0"",""4528""
","
","
","""event"",""trial"",""time""
""fullscreenenter"",""0"",""4528""
","
","null","<p></p>","null","","","","","","","",""
"","image","313","507754","0.0-251.0-0.0","""event"",""trial"",""time""
""fullscreenenter"",""0"",""4528""
","
","
","""event"",""trial"",""time""
""fullscreenenter"",""0"",""4528""
","
","1986.8999999761581","run_exp/static/images/Set 6_rs/019b.jpg","66","","","","","","test","TL","2"
"","show_choice","314","508268","0.0-251.0-1.0","""event"",""trial"",""time""
""fullscreenenter"",""0"",""4528""
","
","
","""event"",""trial"",""time""
""fullscreenenter"",""0"",""4528""
","
","null","run_exp/static/images/Set 6_rs/019b.jpg","null","","","","","","test","TL",""
"","html-keyboard-response","315","508783","0.0-251.0-2.0","""event"",""trial"",""time""
""fullscreenenter"",""0"",""4528""
","
","
","""event"",""trial"",""time""
""fullscreenenter"",""0"",""4528""
","
","null","<p></p>","null","","","","","","","",""
"","image","316","509870","0.0-252.0-0.0","""event"",""trial"",""time""
""fullscreenenter"",""0"",""4528""
","
","
","""event"",""trial"",""time""
""fullscreenenter"",""0"",""4528""
","
","1085.3000000715256","run_exp/static/images/Set 6_rs/134a.jpg","66","","","","","","test","TR","3"
"","show_choice","317","510384","0.0-252.0-1.0","""event"",""trial"",""time""
""fullscreenenter"",""0"",""4528""
","
","
","""event"",""trial"",""time""
""fullscreenenter"",""0"",""4528""
","
","null","run_exp/static/images/Set 6_rs/134a.jpg","null","","","","","","test","TR",""
"","html-keyboard-response","318","510900","0.0-252.0-2.0","""event"",""trial"",""time""
""fullscreenenter"",""0"",""4528""
","
","
","""event"",""trial"",""time""
""fullscreenenter"",""0"",""4528""
","
","null","<p></p>","null","","","","","","","",""
"","image","319","513914","0.0-253.0-0.0","""event"",""trial"",""time""
""fullscreenenter"",""0"",""4528""
","
","
","""event"",""trial"",""time""
""fullscreenenter"",""0"",""4528""
","
","null","run_exp/static/images/Set 6_rs/140a.jpg","null","","","","","","test","TF","1"
"","show_choice","320","514424","0.0-253.0-1.0","""event"",""trial"",""time""
""fullscreenenter"",""0"",""4528""
","
","
","""event"",""trial"",""time""
""fullscreenenter"",""0"",""4528""
","
","null","run_exp/static/images/Set 6_rs/140a.jpg","null","","","","","","test","TF",""
"","html-keyboard-response","321","514933","0.0-253.0-2.0","""event"",""trial"",""time""
""fullscreenenter"",""0"",""4528""
","
","
","""event"",""trial"",""time""
""fullscreenenter"",""0"",""4528""
","
","null","<p></p>","null","","","","","","","",""
"","image","322","516649","0.0-254.0-0.0","""event"",""trial"",""time""
""fullscreenenter"",""0"",""4528""
","
","
","""event"",""trial"",""time""
""fullscreenenter"",""0"",""4528""
","
","1714.6999999284744","run_exp/static/images/Set 6_rs/170a.jpg","86","","","","","","test","TF","2"
"","show_choice","323","517152","0.0-254.0-1.0","""event"",""trial"",""time""
""fullscreenenter"",""0"",""4528""
","
","
","""event"",""trial"",""time""
""fullscreenenter"",""0"",""4528""
","
","null","run_exp/static/images/Set 6_rs/170a.jpg","null","","","","","","test","TF",""
"","html-keyboard-response","324","517656","0.0-254.0-2.0","""event"",""trial"",""time""
""fullscreenenter"",""0"",""4528""
","
","
","""event"",""trial"",""time""
""fullscreenenter"",""0"",""4528""
","
","null","<p></p>","null","","","","","","","",""
"","image","325","518623","0.0-255.0-0.0","""event"",""trial"",""time""
""fullscreenenter"",""0"",""4528""
","
","
","""event"",""trial"",""time""
""fullscreenenter"",""0"",""4528""
","
","965.6000000238419","run_exp/static/images/Set 6_rs/008b.jpg","78","","","","","","test","TL","2"
"","show_choice","326","519130","0.0-255.0-1.0","""event"",""trial"",""time""
""fullscreenenter"",""0"",""4528""
","
","
","""event"",""trial"",""time""
""fullscreenenter"",""0"",""4528""
","
","null","run_exp/static/images/Set 6_rs/008b.jpg","null","","","","","","test","TL",""
"","html-keyboard-response","327","519641","0.0-255.0-2.0","""event"",""trial"",""time""
""fullscreenenter"",""0"",""4528""
","
","
","""event"",""trial"",""time""
""fullscreenenter"",""0"",""4528""
","
","null","<p></p>","null","","","","","","","",""
"","image","328","521314","0.0-256.0-0.0","""event"",""trial"",""time""
""fullscreenenter"",""0"",""4528""
","
","
","""event"",""trial"",""time""
""fullscreenenter"",""0"",""4528""
","
","1671.7999999523163","run_exp/static/images/Set 6_rs/048a.jpg","86","","","","","","test","TF","4"
"","show_choice","329","521823","0.0-256.0-1.0","""event"",""trial"",""time""
""fullscreenenter"",""0"",""4528""
","
","
","""event"",""trial"",""time""
""fullscreenenter"",""0"",""4528""
","
","null","run_exp/static/images/Set 6_rs/048a.jpg","null","","","","","","test","TF",""
"","html-keyboard-response","330","522333","0.0-256.0-2.0","""event"",""trial"",""time""
""fullscreenenter"",""0"",""4528""
","
","
","""event"",""trial"",""time""
""fullscreenenter"",""0"",""4528""
","
","null","<p></p>","null","","","","","","","",""
"","image","331","523525","0.0-257.0-0.0","""event"",""trial"",""time""
""fullscreenenter"",""0"",""4528""
","
","
","""event"",""trial"",""time""
""fullscreenenter"",""0"",""4528""
","
","1191.2999999523163","run_exp/static/images/Set 6_rs/047a.jpg","78","","","","","","test","TF","3"
"","show_choice","332","524031","0.0-257.0-1.0","""event"",""trial"",""time""
""fullscreenenter"",""0"",""4528""
","
","
","""event"",""trial"",""time""
""fullscreenenter"",""0"",""4528""
","
","null","run_exp/static/images/Set 6_rs/047a.jpg","null","","","","","","test","TF",""
"","html-keyboard-response","333","524542","0.0-257.0-2.0","""event"",""trial"",""time""
""fullscreenenter"",""0"",""4528""
","
","
","""event"",""trial"",""time""
""fullscreenenter"",""0"",""4528""
","
","null","<p></p>","null","","","","","","","",""
"","image","334","525568","0.0-258.0-0.0","""event"",""trial"",""time""
""fullscreenenter"",""0"",""4528""
","
","
","""event"",""trial"",""time""
""fullscreenenter"",""0"",""4528""
","
","1025.3000000715256","run_exp/static/images/Set 6_rs/155a.jpg","78","","","","","","test","TF","4"
"","show_choice","335","526082","0.0-258.0-1.0","""event"",""trial"",""time""
""fullscreenenter"",""0"",""4528""
","
","
