"success","trial_type","trial_index","time_elapsed","internal_node_id","interactions","blur_events","focus_events","fullscreenenter_events","fullscreenexit_events","rt","stimulus","key_press","subject_id","participant_id","age","gender","prompt","phase","condition","lure_bin"
"true","fullscreen","0","6623","0.0-0.0","""event"",""trial"",""time""
""fullscreenenter"",""0"",""5665""
","
","
","""event"",""trial"",""time""
""fullscreenenter"",""0"",""5665""
","
","","","","","","","","","","",""
"","pavlovia","1","6632","0.0-1.0","""event"",""trial"",""time""
""fullscreenenter"",""0"",""5665""
","
","
","""event"",""trial"",""time""
""fullscreenenter"",""0"",""5665""
","
","","","","","","","","","","",""
"","welcome","2","41500","0.0-2.0","""event"",""trial"",""time""
""fullscreenenter"",""0"",""5665""
","
","
","""event"",""trial"",""time""
""fullscreenenter"",""0"",""5665""
","
","null","run_exp/static/audio/clip_1_welcome.m4a","null","1104","1250","18","Female","<div class='center'><p>Welcome to the third part of the study! First, you'll be shown pictures of items one at a time. For each picture, you have to decide if the item is typically found indoors or outdoors.</p><p>If you think it's usually found indoors, then press <b>v</b> key on your keyboard. If you think it's usually found outdoors, then press the <b>n</b> key.There will be reminders on the screen to help you remember which keys to press. </p><p>If you're not sure whether the item is an indoor item or an outdoor item, go ahead and take a guess but try your best not to skip that choice. </p></div>","","",""
"","html-keyboard-response","3","42705","0.0-3.0","""event"",""trial"",""time""
""fullscreenenter"",""0"",""5665""
","
","
","""event"",""trial"",""time""
""fullscreenenter"",""0"",""5665""
","
","1198","<div class='center'><p>Welcome to the third part of the study! First, you'll be shown pictures of items one at a time. For each picture, you have to decide if the item is typically found indoors or outdoors.</p><p>If you think it's usually found indoors, then press <b>v</b> key on your keyboard. If you think it's usually found outdoors, then press the <b>n</b> key.There will be reminders on the screen to help you remember which keys to press. </p><p>If you're not sure whether the item is an indoor item or an outdoor item, go ahead and take a guess but try your best not to skip that choice. </p><div><p><b>[Press the space bar to continue]</b></p></div>","32","","","","","","","",""
"","image","4","44708","0.0-4.0","""event"",""trial"",""time""
""fullscreenenter"",""0"",""5665""
","
","
","""event"",""trial"",""time""
""fullscreenenter"",""0"",""5665""
","
","null","run_exp/static/images/Set 6_rs/150a.jpg","null","","","","","","learn","SR",""
"","show_choice","5","46712","0.0-5.0","""event"",""trial"",""time""
""fullscreenenter"",""0"",""5665""
","
","
","""event"",""trial"",""time""
""fullscreenenter"",""0"",""5665""
","
","null","run_exp/static/images/blank.png","null","","","","","","learn","SR",""
"","html-keyboard-response","6","47215","0.0-6.0","""event"",""trial"",""time""
""fullscreenenter"",""0"",""5665""
","
","
","""event"",""trial"",""time""
""fullscreenenter"",""0"",""5665""
","
","null","<p></p>","null","","","","","","","",""
"","image","7","48603","0.0-7.0","""event"",""trial"",""time""
""fullscreenenter"",""0"",""5665""
","
","
","""event"",""trial"",""time""
""fullscreenenter"",""0"",""5665""
","
","1384.7000000000116","run_exp/static/images/Set 6_rs/008a.jpg","86","","","","","","learn","SL",""
"","show_choice","8","49221","0.0-8.0","""event"",""trial"",""time""
""fullscreenenter"",""0"",""5665""
","
","
","""event"",""trial"",""time""
""fullscreenenter"",""0"",""5665""
","
","null","run_exp/static/images/Set 6_rs/008a.jpg","null","","","","","","learn","SL",""
"","html-keyboard-response","9","49723","0.0-9.0","""event"",""trial"",""time""
""fullscreenenter"",""0"",""5665""
","
","
","""event"",""trial"",""time""
""fullscreenenter"",""0"",""5665""
","
","null","<p></p>","null","","","","","","","",""
"","image","10","50918","0.0-10.0","""event"",""trial"",""time""
""fullscreenenter"",""0"",""5665""
","
","
","""event"",""trial"",""time""
""fullscreenenter"",""0"",""5665""
","
","1192.7000000000116","run_exp/static/images/Set 6_rs/066a.jpg","86","","","","","","learn","SL",""
"","show_choice","11","51728","0.0-11.0","""event"",""trial"",""time""
""fullscreenenter"",""0"",""5665""
","
","
","""event"",""trial"",""time""
""fullscreenenter"",""0"",""5665""
","
","null","run_exp/static/images/Set 6_rs/066a.jpg","null","","","","","","learn","SL",""
"","html-keyboard-response","12","52230","0.0-12.0","""event"",""trial"",""time""
""fullscreenenter"",""0"",""5665""
","
","
","""event"",""trial"",""time""
""fullscreenenter"",""0"",""5665""
","
","null","<p></p>","null","","","","","","","",""
"","image","13","52973","0.0-13.0","""event"",""trial"",""time""
""fullscreenenter"",""0"",""5665""
","
","
","""event"",""trial"",""time""
""fullscreenenter"",""0"",""5665""
","
","739.3000000000466","run_exp/static/images/Set 6_rs/057a.jpg","86","","","","","","learn","SL",""
"","show_choice","14","54236","0.0-14.0","""event"",""trial"",""time""
""fullscreenenter"",""0"",""5665""
","
","
","""event"",""trial"",""time""
""fullscreenenter"",""0"",""5665""
","
","null","run_exp/static/images/Set 6_rs/057a.jpg","null","","","","","","learn","SL",""
"","html-keyboard-response","15","54737","0.0-15.0","""event"",""trial"",""time""
""fullscreenenter"",""0"",""5665""
","
","
","""event"",""trial"",""time""
""fullscreenenter"",""0"",""5665""
","
","null","<p></p>","null","","","","","","","",""
"","image","16","55301","0.0-16.0","""event"",""trial"",""time""
""fullscreenenter"",""0"",""5665""
","
","
","""event"",""trial"",""time""
""fullscreenenter"",""0"",""5665""
","
","560.5","run_exp/static/images/Set 6_rs/050a.jpg","86","","","","","","learn","SL",""
"","show_choice","17","56743","0.0-17.0","""event"",""trial"",""time""
""fullscreenenter"",""0"",""5665""
","
","
","""event"",""trial"",""time""
""fullscreenenter"",""0"",""5665""
","
","null","run_exp/static/images/Set 6_rs/050a.jpg","null","","","","","","learn","SL",""
"","html-keyboard-response","18","57245","0.0-18.0","""event"",""trial"",""time""
""fullscreenenter"",""0"",""5665""
","
","
","""event"",""trial"",""time""
""fullscreenenter"",""0"",""5665""
","
","null","<p></p>","null","","","","","","","",""
"","image","19","58354","0.0-19.0","""event"",""trial"",""time""
""fullscreenenter"",""0"",""5665""
","
","
","""event"",""trial"",""time""
""fullscreenenter"",""0"",""5665""
","
","1106.2999999999884","run_exp/static/images/Set 6_rs/131a.jpg","86","","","","","","learn","SR",""
"","show_choice","20","59249","0.0-20.0","""event"",""trial"",""time""
""fullscreenenter"",""0"",""5665""
","
","
","""event"",""trial"",""time""
""fullscreenenter"",""0"",""5665""
","
","null","run_exp/static/images/Set 6_rs/131a.jpg","null","","","","","","learn","SR",""
"","html-keyboard-response","21","59751","0.0-21.0","""event"",""trial"",""time""
""fullscreenenter"",""0"",""5665""
","
","
","""event"",""trial"",""time""
""fullscreenenter"",""0"",""5665""
","
","null","<p></p>","null","","","","","","","",""
"","image","22","60595","0.0-22.0","""event"",""trial"",""time""
""fullscreenenter"",""0"",""5665""
","
","
","""event"",""trial"",""time""
""fullscreenenter"",""0"",""5665""
","
","840.5","run_exp/static/images/Set 6_rs/178a.jpg","78","","","","","","learn","SR",""
"","show_choice","23","61757","0.0-23.0","""event"",""trial"",""time""
""fullscreenenter"",""0"",""5665""
","
","
","""event"",""trial"",""time""
""fullscreenenter"",""0"",""5665""
","
","null","run_exp/static/images/Set 6_rs/178a.jpg","null","","","","","","learn","SR",""
"","html-keyboard-response","24","62258","0.0-24.0","""event"",""trial"",""time""
""fullscreenenter"",""0"",""5665""
","
","
","""event"",""trial"",""time""
""fullscreenenter"",""0"",""5665""
","
","null","<p></p>","null","","","","","","","",""
"","image","25","63303","0.0-25.0","""event"",""trial"",""time""
""fullscreenenter"",""0"",""5665""
","
","
","""event"",""trial"",""time""
""fullscreenenter"",""0"",""5665""
","
","1041.5","run_exp/static/images/Set 6_rs/075a.jpg","86","","","","","","learn","SR",""
"","show_choice","26","64263","0.0-26.0","""event"",""trial"",""time""
""fullscreenenter"",""0"",""5665""
","
","
","""event"",""trial"",""time""
""fullscreenenter"",""0"",""5665""
","
","null","run_exp/static/images/Set 6_rs/075a.jpg","null","","","","","","learn","SR",""
"","html-keyboard-response","27","64765","0.0-27.0","""event"",""trial"",""time""
""fullscreenenter"",""0"",""5665""
","
","
","""event"",""trial"",""time""
""fullscreenenter"",""0"",""5665""
","
","null","<p></p>","null","","","","","","","",""
"","image","28","65888","0.0-28.0","""event"",""trial"",""time""
""fullscreenenter"",""0"",""5665""
","
","
","""event"",""trial"",""time""
""fullscreenenter"",""0"",""5665""
","
","1119.5","run_exp/static/images/Set 6_rs/089a.jpg","86","","","","","","learn","SL",""
"","show_choice","29","66770","0.0-29.0","""event"",""trial"",""time""
""fullscreenenter"",""0"",""5665""
","
","
","""event"",""trial"",""time""
""fullscreenenter"",""0"",""5665""
","
","null","run_exp/static/images/Set 6_rs/089a.jpg","null","","","","","","learn","SL",""
"","html-keyboard-response","30","67272","0.0-30.0","""event"",""trial"",""time""
""fullscreenenter"",""0"",""5665""
","
","
","""event"",""trial"",""time""
""fullscreenenter"",""0"",""5665""
","
","null","<p></p>","null","","","","","","","",""
"","image","31","67973","0.0-31.0","""event"",""trial"",""time""
""fullscreenenter"",""0"",""5665""
","
","
","""event"",""trial"",""time""
""fullscreenenter"",""0"",""5665""
","
","697.7999999999884","run_exp/static/images/Set 6_rs/062a.jpg","86","","","","","","learn","SL",""
"","show_choice","32","69277","0.0-32.0","""event"",""trial"",""time""
""fullscreenenter"",""0"",""5665""
","
","
","""event"",""trial"",""time""
""fullscreenenter"",""0"",""5665""
","
","null","run_exp/static/images/Set 6_rs/062a.jpg","null","","","","","","learn","SL",""
"","html-keyboard-response","33","69779","0.0-33.0","""event"",""trial"",""time""
""fullscreenenter"",""0"",""5665""
","
","
","""event"",""trial"",""time""
""fullscreenenter"",""0"",""5665""
","
","null","<p></p>","null","","","","","","","",""
"","image","34","70824","0.0-34.0","""event"",""trial"",""time""
""fullscreenenter"",""0"",""5665""
","
","
","""event"",""trial"",""time""
""fullscreenenter"",""0"",""5665""
","
","1042.2000000000116","run_exp/static/images/Set 6_rs/117a.jpg","78","","","","","","learn","SL",""
"","show_choice","35","71785","0.0-35.0","""event"",""trial"",""time""
""fullscreenenter"",""0"",""5665""
","
","
","""event"",""trial"",""time""
""fullscreenenter"",""0"",""5665""
","
","null","run_exp/static/images/Set 6_rs/117a.jpg","null","","","","","","learn","SL",""
"","html-keyboard-response","36","72287","0.0-36.0","""event"",""trial"",""time""
""fullscreenenter"",""0"",""5665""
","
","
","""event"",""trial"",""time""
""fullscreenenter"",""0"",""5665""
","
","null","<p></p>","null","","","","","","","",""
"","image","37","73164","0.0-37.0","""event"",""trial"",""time""
""fullscreenenter"",""0"",""5665""
","
","
","""event"",""trial"",""time""
""fullscreenenter"",""0"",""5665""
","
","874.7000000000116","run_exp/static/images/Set 6_rs/088a.jpg","86","","","","","","learn","SR",""
"","show_choice","38","74291","0.0-38.0","""event"",""trial"",""time""
""fullscreenenter"",""0"",""5665""
","
","
","""event"",""trial"",""time""
""fullscreenenter"",""0"",""5665""
","
","null","run_exp/static/images/Set 6_rs/088a.jpg","null","","","","","","learn","SR",""
"","html-keyboard-response","39","74793","0.0-39.0","""event"",""trial"",""time""
""fullscreenenter"",""0"",""5665""
","
","
","""event"",""trial"",""time""
""fullscreenenter"",""0"",""5665""
","
","null","<p></p>","null","","","","","","","",""
"","image","40","75457","0.0-40.0","""event"",""trial"",""time""
""fullscreenenter"",""0"",""5665""
","
","
","""event"",""trial"",""time""
""fullscreenenter"",""0"",""5665""
","
","661.9000000000233","run_exp/static/images/Set 6_rs/181a.jpg","78","","","","","","learn","SL",""
"","show_choice","41","76797","0.0-41.0","""event"",""trial"",""time""
""fullscreenenter"",""0"",""5665""
","
","
","""event"",""trial"",""time""
""fullscreenenter"",""0"",""5665""
","
","null","run_exp/static/images/Set 6_rs/181a.jpg","null","","","","","","learn","SL",""
"","html-keyboard-response","42","77299","0.0-42.0","""event"",""trial"",""time""
""fullscreenenter"",""0"",""5665""
","
","
","""event"",""trial"",""time""
""fullscreenenter"",""0"",""5665""
","
","null","<p></p>","null","","","","","","","",""
"","image","43","77895","0.0-43.0","""event"",""trial"",""time""
""fullscreenenter"",""0"",""5665""
","
","
","""event"",""trial"",""time""
""fullscreenenter"",""0"",""5665""
","
","593.5","run_exp/static/images/Set 6_rs/187a.jpg","86","","","","","","learn","SR",""
"","show_choice","44","79304","0.0-44.0","""event"",""trial"",""time""
""fullscreenenter"",""0"",""5665""
","
","
","""event"",""trial"",""time""
""fullscreenenter"",""0"",""5665""
","
","null","run_exp/static/images/Set 6_rs/187a.jpg","null","","","","","","learn","SR",""
"","html-keyboard-response","45","79806","0.0-45.0","""event"",""trial"",""time""
""fullscreenenter"",""0"",""5665""
","
","
","""event"",""trial"",""time""
""fullscreenenter"",""0"",""5665""
","
","null","<p></p>","null","","","","","","","",""
"","image","46","80910","0.0-46.0","""event"",""trial"",""time""
""fullscreenenter"",""0"",""5665""
","
","
","""event"",""trial"",""time""
""fullscreenenter"",""0"",""5665""
","
","1101.2999999999884","run_exp/static/images/Set 6_rs/016a.jpg","86","","","","","","learn","SL",""
"","show_choice","47","81810","0.0-47.0","""event"",""trial"",""time""
""fullscreenenter"",""0"",""5665""
","
","
","""event"",""trial"",""time""
""fullscreenenter"",""0"",""5665""
","
","null","run_exp/static/images/Set 6_rs/016a.jpg","null","","","","","","learn","SL",""
"","html-keyboard-response","48","82312","0.0-48.0","""event"",""trial"",""time""
""fullscreenenter"",""0"",""5665""
","
","
","""event"",""trial"",""time""
""fullscreenenter"",""0"",""5665""
","
","null","<p></p>","null","","","","","","","",""
"","image","49","83392","0.0-49.0","""event"",""trial"",""time""
""fullscreenenter"",""0"",""5665""
","
","
","""event"",""trial"",""time""
""fullscreenenter"",""0"",""5665""
","
","1077","run_exp/static/images/Set 6_rs/012a.jpg","86","","","","","","learn","SR",""
"","show_choice","50","84317","0.0-50.0","""event"",""trial"",""time""
""fullscreenenter"",""0"",""5665""
","
","
","""event"",""trial"",""time""
""fullscreenenter"",""0"",""5665""
","
","null","run_exp/static/images/Set 6_rs/012a.jpg","null","","","","","","learn","SR",""
"","html-keyboard-response","51","84819","0.0-51.0","""event"",""trial"",""time""
""fullscreenenter"",""0"",""5665""
","
","
","""event"",""trial"",""time""
""fullscreenenter"",""0"",""5665""
","
","null","<p></p>","null","","","","","","","",""
"","image","52","85608","0.0-52.0","""event"",""trial"",""time""
""fullscreenenter"",""0"",""5665""
","
","
","""event"",""trial"",""time""
""fullscreenenter"",""0"",""5665""
","
","786.8999999999651","run_exp/static/images/Set 6_rs/045a.jpg","86","","","","","","learn","SR",""
"","show_choice","53","86824","0.0-53.0","""event"",""trial"",""time""
""fullscreenenter"",""0"",""5665""
","
","
","""event"",""trial"",""time""
""fullscreenenter"",""0"",""5665""
","
","null","run_exp/static/images/Set 6_rs/045a.jpg","null","","","","","","learn","SR",""
"","html-keyboard-response","54","87326","0.0-54.0","""event"",""trial"",""time""
""fullscreenenter"",""0"",""5665""
","
","
","""event"",""trial"",""time""
""fullscreenenter"",""0"",""5665""
","
","null","<p></p>","null","","","","","","","",""
"","image","55","87953","0.0-55.0","""event"",""trial"",""time""
""fullscreenenter"",""0"",""5665""
","
","
","""event"",""trial"",""time""
""fullscreenenter"",""0"",""5665""
","
","624.7999999999884","run_exp/static/images/Set 6_rs/055a.jpg","86","","","","","","learn","SL",""
"","show_choice","56","89330","0.0-56.0","""event"",""trial"",""time""
""fullscreenenter"",""0"",""5665""
","
","
","""event"",""trial"",""time""
""fullscreenenter"",""0"",""5665""
","
","null","run_exp/static/images/Set 6_rs/055a.jpg","null","","","","","","learn","SL",""
"","html-keyboard-response","57","89832","0.0-57.0","""event"",""trial"",""time""
""fullscreenenter"",""0"",""5665""
","
","
","""event"",""trial"",""time""
""fullscreenenter"",""0"",""5665""
","
","null","<p></p>","null","","","","","","","",""
"","image","58","90807","0.0-58.0","""event"",""trial"",""time""
""fullscreenenter"",""0"",""5665""
","
","
","""event"",""trial"",""time""
""fullscreenenter"",""0"",""5665""
","
","972","run_exp/static/images/Set 6_rs/017a.jpg","86","","","","","","learn","SL",""
"","show_choice","59","91837","0.0-59.0","""event"",""trial"",""time""
""fullscreenenter"",""0"",""5665""
","
","
","""event"",""trial"",""time""
""fullscreenenter"",""0"",""5665""
","
","null","run_exp/static/images/Set 6_rs/017a.jpg","null","","","","","","learn","SL",""
"","html-keyboard-response","60","92339","0.0-60.0","""event"",""trial"",""time""
""fullscreenenter"",""0"",""5665""
","
","
","""event"",""trial"",""time""
""fullscreenenter"",""0"",""5665""
","
","null","<p></p>","null","","","","","","","",""
"","image","61","93030","0.0-61.0","""event"",""trial"",""time""
""fullscreenenter"",""0"",""5665""
","
","
","""event"",""trial"",""time""
""fullscreenenter"",""0"",""5665""
","
","688.5","run_exp/static/images/Set 6_rs/025a.jpg","78","","","","","","learn","SL",""
"","show_choice","62","94344","0.0-62.0","""event"",""trial"",""time""
""fullscreenenter"",""0"",""5665""
","
","
","""event"",""trial"",""time""
""fullscreenenter"",""0"",""5665""
","
","null","run_exp/static/images/Set 6_rs/025a.jpg","null","","","","","","learn","SL",""
"","html-keyboard-response","63","94848","0.0-63.0","""event"",""trial"",""time""
""fullscreenenter"",""0"",""5665""
","
","
","""event"",""trial"",""time""
""fullscreenenter"",""0"",""5665""
","
","null","<p></p>","null","","","","","","","",""
"","image","64","95674","0.0-64.0","""event"",""trial"",""time""
""fullscreenenter"",""0"",""5665""
","
","
","""event"",""trial"",""time""
""fullscreenenter"",""0"",""5665""
","
","824.5","run_exp/static/images/Set 6_rs/172a.jpg","78","","","","","","learn","SR",""
"","show_choice","65","96852","0.0-65.0","""event"",""trial"",""time""
""fullscreenenter"",""0"",""5665""
","
","
","""event"",""trial"",""time""
""fullscreenenter"",""0"",""5665""
","
","null","run_exp/static/images/Set 6_rs/172a.jpg","null","","","","","","learn","SR",""
"","html-keyboard-response","66","97354","0.0-66.0","""event"",""trial"",""time""
""fullscreenenter"",""0"",""5665""
","
","
","""event"",""trial"",""time""
""fullscreenenter"",""0"",""5665""
","
","null","<p></p>","null","","","","","","","",""
"","image","67","98110","0.0-67.0","""event"",""trial"",""time""
""fullscreenenter"",""0"",""5665""
","
","
","""event"",""trial"",""time""
""fullscreenenter"",""0"",""5665""
","
","753.4000000000233","run_exp/static/images/Set 6_rs/166a.jpg","86","","","","","","learn","SR",""
"","show_choice","68","99358","0.0-68.0","""event"",""trial"",""time""
""fullscreenenter"",""0"",""5665""
","
","
","""event"",""trial"",""time""
""fullscreenenter"",""0"",""5665""
","
","null","run_exp/static/images/Set 6_rs/166a.jpg","null","","","","","","learn","SR",""
"","html-keyboard-response","69","99860","0.0-69.0","""event"",""trial"",""time""
""fullscreenenter"",""0"",""5665""
","
","
","""event"",""trial"",""time""
""fullscreenenter"",""0"",""5665""
","
","null","<p></p>","null","","","","","","","",""
"","image","70","100445","0.0-70.0","""event"",""trial"",""time""
""fullscreenenter"",""0"",""5665""
","
","
","""event"",""trial"",""time""
""fullscreenenter"",""0"",""5665""
","
","582.0999999999767","run_exp/static/images/Set 6_rs/023a.jpg","86","","","","","","learn","SR",""
"","show_choice","71","101864","0.0-71.0","""event"",""trial"",""time""
""fullscreenenter"",""0"",""5665""
","
","
","""event"",""trial"",""time""
""fullscreenenter"",""0"",""5665""
","
","null","run_exp/static/images/Set 6_rs/023a.jpg","null","","","","","","learn","SR",""
"","html-keyboard-response","72","102366","0.0-72.0","""event"",""trial"",""time""
""fullscreenenter"",""0"",""5665""
","
","
","""event"",""trial"",""time""
""fullscreenenter"",""0"",""5665""
","
","null","<p></p>","null","","","","","","","",""
"","image","73","103043","0.0-73.0","""event"",""trial"",""time""
""fullscreenenter"",""0"",""5665""
","
","
","""event"",""trial"",""time""
""fullscreenenter"",""0"",""5665""
","
","674.7000000000116","run_exp/static/images/Set 6_rs/168a.jpg","86","","","","","","learn","SL",""
"","show_choice","74","104371","0.0-74.0","""event"",""trial"",""time""
""fullscreenenter"",""0"",""5665""
","
","
","""event"",""trial"",""time""
""fullscreenenter"",""0"",""5665""
","
","null","run_exp/static/images/Set 6_rs/168a.jpg","null","","","","","","learn","SL",""
"","html-keyboard-response","75","104872","0.0-75.0","""event"",""trial"",""time""
""fullscreenenter"",""0"",""5665""
","
","
","""event"",""trial"",""time""
""fullscreenenter"",""0"",""5665""
","
","null","<p></p>","null","","","","","","","",""
"","image","76","105587","0.0-76.0","""event"",""trial"",""time""
""fullscreenenter"",""0"",""5665""
","
","
","""event"",""trial"",""time""
""fullscreenenter"",""0"",""5665""
","
","711.8999999999651","run_exp/static/images/Set 6_rs/019a.jpg","86","","","","","","learn","SL",""
"","show_choice","77","106877","0.0-77.0","""event"",""trial"",""time""
""fullscreenenter"",""0"",""5665""
","
","
","""event"",""trial"",""time""
""fullscreenenter"",""0"",""5665""
","
","null","run_exp/static/images/Set 6_rs/019a.jpg","null","","","","","","learn","SL",""
"","html-keyboard-response","78","107379","0.0-78.0","""event"",""trial"",""time""
""fullscreenenter"",""0"",""5665""
","
","
","""event"",""trial"",""time""
""fullscreenenter"",""0"",""5665""
","
","null","<p></p>","null","","","","","","","",""
"","image","79","107840","0.0-79.0","""event"",""trial"",""time""
""fullscreenenter"",""0"",""5665""
","
","
","""event"",""trial"",""time""
""fullscreenenter"",""0"",""5665""
","
","458.5","run_exp/static/images/Set 6_rs/112a.jpg","86","","","","","","learn","SR",""
"","show_choice","80","109384","0.0-80.0","""event"",""trial"",""time""
""fullscreenenter"",""0"",""5665""
","
","
","""event"",""trial"",""time""
""fullscreenenter"",""0"",""5665""
","
","null","run_exp/static/images/Set 6_rs/112a.jpg","null","","","","","","learn","SR",""
"","html-keyboard-response","81","109886","0.0-81.0","""event"",""trial"",""time""
""fullscreenenter"",""0"",""5665""
","
","
","""event"",""trial"",""time""
""fullscreenenter"",""0"",""5665""
","
","null","<p></p>","null","","","","","","","",""
"","image","82","110450","0.0-82.0","""event"",""trial"",""time""
""fullscreenenter"",""0"",""5665""
","
","
","""event"",""trial"",""time""
""fullscreenenter"",""0"",""5665""
","
","561.4000000000233","run_exp/static/images/Set 6_rs/064a.jpg","86","","","","","","learn","SR",""
"","show_choice","83","111890","0.0-83.0","""event"",""trial"",""time""
""fullscreenenter"",""0"",""5665""
","
","
","""event"",""trial"",""time""
""fullscreenenter"",""0"",""5665""
","
","null","run_exp/static/images/Set 6_rs/064a.jpg","null","","","","","","learn","SR",""
"","html-keyboard-response","84","112392","0.0-84.0","""event"",""trial"",""time""
""fullscreenenter"",""0"",""5665""
","
","
","""event"",""trial"",""time""
""fullscreenenter"",""0"",""5665""
","
","null","<p></p>","null","","","","","","","",""
"","image","85","113248","0.0-85.0","""event"",""trial"",""time""
""fullscreenenter"",""0"",""5665""
","
","
","""event"",""trial"",""time""
""fullscreenenter"",""0"",""5665""
","
","853.5","run_exp/static/images/Set 6_rs/108a.jpg","78","","","","","","learn","SR",""
"","show_choice","86","114396","0.0-86.0","""event"",""trial"",""time""
""fullscreenenter"",""0"",""5665""
","
","
","""event"",""trial"",""time""
""fullscreenenter"",""0"",""5665""
","
","null","run_exp/static/images/Set 6_rs/108a.jpg","null","","","","","","learn","SR",""
"","html-keyboard-response","87","114898","0.0-87.0","""event"",""trial"",""time""
""fullscreenenter"",""0"",""5665""
","
","
","""event"",""trial"",""time""
""fullscreenenter"",""0"",""5665""
","
","null","<p></p>","null","","","","","","","",""
"","image","88","115947","0.0-88.0","""event"",""trial"",""time""
""fullscreenenter"",""0"",""5665""
","
","
","""event"",""trial"",""time""
""fullscreenenter"",""0"",""5665""
","
","1046.899999999965","run_exp/static/images/Set 6_rs/116a.jpg","86","","","","","","learn","SL",""
"","show_choice","89","116903","0.0-89.0","""event"",""trial"",""time""
""fullscreenenter"",""0"",""5665""
","
","
","""event"",""trial"",""time""
""fullscreenenter"",""0"",""5665""
","
","null","run_exp/static/images/Set 6_rs/116a.jpg","null","","","","","","learn","SL",""
"","html-keyboard-response","90","117407","0.0-90.0","""event"",""trial"",""time""
""fullscreenenter"",""0"",""5665""
","
","
","""event"",""trial"",""time""
""fullscreenenter"",""0"",""5665""
","
","null","<p></p>","null","","","","","","","",""
"","image","91","118905","0.0-91.0","""event"",""trial"",""time""
""fullscreenenter"",""0"",""5665""
","
","
","""event"",""trial"",""time""
""fullscreenenter"",""0"",""5665""
","
","1496.4000000000233","run_exp/static/images/Set 6_rs/006a.jpg","78","","","","","","learn","SL",""
"","show_choice","92","119411","0.0-92.0","""event"",""trial"",""time""
""fullscreenenter"",""0"",""5665""
","
","
","""event"",""trial"",""time""
""fullscreenenter"",""0"",""5665""
","
","null","run_exp/static/images/Set 6_rs/006a.jpg","null","","","","","","learn","SL",""
"","html-keyboard-response","93","119913","0.0-93.0","""event"",""trial"",""time""
""fullscreenenter"",""0"",""5665""
","
","
","""event"",""trial"",""time""
""fullscreenenter"",""0"",""5665""
","
","null","<p></p>","null","","","","","","","",""
"","image","94","121096","0.0-94.0","""event"",""trial"",""time""
""fullscreenenter"",""0"",""5665""
","
","
","""event"",""trial"",""time""
""fullscreenenter"",""0"",""5665""
","
","1179.7999999999884","run_exp/static/images/Set 6_rs/121a.jpg","86","","","","","","learn","SR",""
"","show_choice","95","121918","0.0-95.0","""event"",""trial"",""time""
""fullscreenenter"",""0"",""5665""
","
","
","""event"",""trial"",""time""
""fullscreenenter"",""0"",""5665""
","
","null","run_exp/static/images/Set 6_rs/121a.jpg","null","","","","","","learn","SR",""
"","html-keyboard-response","96","122419","0.0-96.0","""event"",""trial"",""time""
""fullscreenenter"",""0"",""5665""
","
","
","""event"",""trial"",""time""
""fullscreenenter"",""0"",""5665""
","
","null","<p></p>","null","","","","","","","",""
"","image","97","123423","0.0-97.0","""event"",""trial"",""time""
""fullscreenenter"",""0"",""5665""
","
","
","""event"",""trial"",""time""
""fullscreenenter"",""0"",""5665""
","
","1001.2999999999884","run_exp/static/images/Set 6_rs/061a.jpg","78","","","","","","learn","SR",""
"","show_choice","98","124424","0.0-98.0","""event"",""trial"",""time""
""fullscreenenter"",""0"",""5665""
","
","
","""event"",""trial"",""time""
""fullscreenenter"",""0"",""5665""
","
","null","run_exp/static/images/Set 6_rs/061a.jpg","null","","","","","","learn","SR",""
"","html-keyboard-response","99","124925","0.0-99.0","""event"",""trial"",""time""
""fullscreenenter"",""0"",""5665""
","
","
","""event"",""trial"",""time""
""fullscreenenter"",""0"",""5665""
","
","null","<p></p>","null","","","","","","","",""
"","image","100","125686","0.0-100.0","""event"",""trial"",""time""
""fullscreenenter"",""0"",""5665""
","
","
","""event"",""trial"",""time""
""fullscreenenter"",""0"",""5665""
","
","757.7999999999884","run_exp/static/images/Set 6_rs/177a.jpg","78","","","","","","learn","SR",""
"","show_choice","101","126931","0.0-101.0","""event"",""trial"",""time""
""fullscreenenter"",""0"",""5665""
","
","
","""event"",""trial"",""time""
""fullscreenenter"",""0"",""5665""
","
","null","run_exp/static/images/Set 6_rs/177a.jpg","null","","","","","","learn","SR",""
"","html-keyboard-response","102","127433","0.0-102.0","""event"",""trial"",""time""
""fullscreenenter"",""0"",""5665""
","
","
","""event"",""trial"",""time""
""fullscreenenter"",""0"",""5665""
","
","null","<p></p>","null","","","","","","","",""
"","image","103","128524","0.0-103.0","""event"",""trial"",""time""
""fullscreenenter"",""0"",""5665""
","
","
","""event"",""trial"",""time""
""fullscreenenter"",""0"",""5665""
","
","1089.5","run_exp/static/images/Set 6_rs/024a.jpg","86","","","","","","learn","SR",""
"","show_choice","104","129437","0.0-104.0","""event"",""trial"",""time""
""fullscreenenter"",""0"",""5665""
","
","
","""event"",""trial"",""time""
""fullscreenenter"",""0"",""5665""
","
","null","run_exp/static/images/Set 6_rs/024a.jpg","null","","","","","","learn","SR",""
"","html-keyboard-response","105","129939","0.0-105.0","""event"",""trial"",""time""
""fullscreenenter"",""0"",""5665""
","
","
","""event"",""trial"",""time""
""fullscreenenter"",""0"",""5665""
","
","null","<p></p>","null","","","","","","","",""
"","image","106","131472","0.0-106.0","""event"",""trial"",""time""
""fullscreenenter"",""0"",""5665""
","
","
","""event"",""trial"",""time""
""fullscreenenter"",""0"",""5665""
","
","1530","run_exp/static/images/Set 6_rs/010a.jpg","86","","","","","","learn","SR",""
"","show_choice","107","131944","0.0-107.0","""event"",""trial"",""time""
""fullscreenenter"",""0"",""5665""
","
","
","""event"",""trial"",""time""
""fullscreenenter"",""0"",""5665""
","
","null","run_exp/static/images/Set 6_rs/010a.jpg","null","","","","","","learn","SR",""
"","html-keyboard-response","108","132446","0.0-108.0","""event"",""trial"",""time""
""fullscreenenter"",""0"",""5665""
","
","
","""event"",""trial"",""time""
""fullscreenenter"",""0"",""5665""
","
","null","<p></p>","null","","","","","","","",""
"","image","109","133775","0.0-109.0","""event"",""trial"",""time""
""fullscreenenter"",""0"",""5665""
","
","
","""event"",""trial"",""time""
""fullscreenenter"",""0"",""5665""
","
","1326.1999999999534","run_exp/static/images/Set 6_rs/126a.jpg","78","","","","","","learn","SR",""
"","show_choice","110","134450","0.0-110.0","""event"",""trial"",""time""
""fullscreenenter"",""0"",""5665""
","
","
","""event"",""trial"",""time""
""fullscreenenter"",""0"",""5665""
","
","null","run_exp/static/images/Set 6_rs/126a.jpg","null","","","","","","learn","SR",""
"","html-keyboard-response","111","134952","0.0-111.0","""event"",""trial"",""time""
""fullscreenenter"",""0"",""5665""
","
","
","""event"",""trial"",""time""
""fullscreenenter"",""0"",""5665""
","
","null","<p></p>","null","","","","","","","",""
"","image","112","135716","0.0-112.0","""event"",""trial"",""time""
""fullscreenenter"",""0"",""5665""
","
","
","""event"",""trial"",""time""
""fullscreenenter"",""0"",""5665""
","
","762","run_exp/static/images/Set 6_rs/014a.jpg","86","","","","","","learn","SL",""
"","show_choice","113","136957","0.0-113.0","""event"",""trial"",""time""
""fullscreenenter"",""0"",""5665""
","
","
","""event"",""trial"",""time""
""fullscreenenter"",""0"",""5665""
","
","null","run_exp/static/images/Set 6_rs/014a.jpg","null","","","","","","learn","SL",""
"","html-keyboard-response","114","137458","0.0-114.0","""event"",""trial"",""time""
""fullscreenenter"",""0"",""5665""
","
","
","""event"",""trial"",""time""
""fullscreenenter"",""0"",""5665""
","
","null","<p></p>","null","","","","","","","",""
"","image","115","138558","0.0-115.0","""event"",""trial"",""time""
""fullscreenenter"",""0"",""5665""
","
","
","""event"",""trial"",""time""
""fullscreenenter"",""0"",""5665""
","
","1097.2000000000116","run_exp/static/images/Set 6_rs/071a.jpg","86","","","","","","learn","SL",""
"","show_choice","116","139463","0.0-116.0","""event"",""trial"",""time""
""fullscreenenter"",""0"",""5665""
","
","
","""event"",""trial"",""time""
""fullscreenenter"",""0"",""5665""
","
","null","run_exp/static/images/Set 6_rs/071a.jpg","null","","","","","","learn","SL",""
"","html-keyboard-response","117","139964","0.0-117.0","""event"",""trial"",""time""
""fullscreenenter"",""0"",""5665""
","
","
","""event"",""trial"",""time""
""fullscreenenter"",""0"",""5665""
","
","null","<p></p>","null","","","","","","","",""
"","image","118","141114","0.0-118.0","""event"",""trial"",""time""
""fullscreenenter"",""0"",""5665""
","
","
","""event"",""trial"",""time""
""fullscreenenter"",""0"",""5665""
","
","1147.2999999999884","run_exp/static/images/Set 6_rs/132a.jpg","86","","","","","","learn","SR",""
"","show_choice","119","141969","0.0-119.0","""event"",""trial"",""time""
""fullscreenenter"",""0"",""5665""
","
","
","""event"",""trial"",""time""
""fullscreenenter"",""0"",""5665""
","
","null","run_exp/static/images/Set 6_rs/132a.jpg","null","","","","","","learn","SR",""
"","html-keyboard-response","120","142471","0.0-120.0","""event"",""trial"",""time""
""fullscreenenter"",""0"",""5665""
","
","
","""event"",""trial"",""time""
""fullscreenenter"",""0"",""5665""
","
","null","<p></p>","null","","","","","","","",""
"","image","121","143494","0.0-121.0","""event"",""trial"",""time""
""fullscreenenter"",""0"",""5665""
","
","
","""event"",""trial"",""time""
""fullscreenenter"",""0"",""5665""
","
","1019.5999999999767","run_exp/static/images/Set 6_rs/154a.jpg","78","","","","","","learn","SR",""
"","show_choice","122","144476","0.0-122.0","""event"",""trial"",""time""
""fullscreenenter"",""0"",""5665""
","
","
","""event"",""trial"",""time""
""fullscreenenter"",""0"",""5665""
","
","null","run_exp/static/images/Set 6_rs/154a.jpg","null","","","","","","learn","SR",""
"","html-keyboard-response","123","144978","0.0-123.0","""event"",""trial"",""time""
""fullscreenenter"",""0"",""5665""
","
","
","""event"",""trial"",""time""
""fullscreenenter"",""0"",""5665""
","
","null","<p></p>","null","","","","","","","",""
"","image","124","145737","0.0-124.0","""event"",""trial"",""time""
""fullscreenenter"",""0"",""5665""
","
","
","""event"",""trial"",""time""
""fullscreenenter"",""0"",""5665""
","
","756.8999999999651","run_exp/static/images/Set 6_rs/138a.jpg","78","","","","","","learn","SL",""
"","show_choice","125","146983","0.0-125.0","""event"",""trial"",""time""
""fullscreenenter"",""0"",""5665""
","
","
","""event"",""trial"",""time""
""fullscreenenter"",""0"",""5665""
","
","null","run_exp/static/images/Set 6_rs/138a.jpg","null","","","","","","learn","SL",""
"","html-keyboard-response","126","147484","0.0-126.0","""event"",""trial"",""time""
""fullscreenenter"",""0"",""5665""
","
","
","""event"",""trial"",""time""
""fullscreenenter"",""0"",""5665""
","
","null","<p></p>","null","","","","","","","",""
"","image","127","148872","0.0-127.0","""event"",""trial"",""time""
""fullscreenenter"",""0"",""5665""
","
","
","""event"",""trial"",""time""
""fullscreenenter"",""0"",""5665""
","
","1385","run_exp/static/images/Set 6_rs/074a.jpg","78","","","","","","learn","SL",""
"","show_choice","128","149490","0.0-128.0","""event"",""trial"",""time""
""fullscreenenter"",""0"",""5665""
","
","
","""event"",""trial"",""time""
""fullscreenenter"",""0"",""5665""
","
","null","run_exp/static/images/Set 6_rs/074a.jpg","null","","","","","","learn","SL",""
"","html-keyboard-response","129","149991","0.0-129.0","""event"",""trial"",""time""
""fullscreenenter"",""0"",""5665""
","
","
","""event"",""trial"",""time""
""fullscreenenter"",""0"",""5665""
","
","null","<p></p>","null","","","","","","","",""
"","image","130","150890","0.0-130.0","""event"",""trial"",""time""
""fullscreenenter"",""0"",""5665""
","
","
","""event"",""trial"",""time""
""fullscreenenter"",""0"",""5665""
","
","896.3999999999651","run_exp/static/images/Set 6_rs/152a.jpg","86","","","","","","learn","SR",""
"","show_choice","131","151996","0.0-131.0","""event"",""trial"",""time""
""fullscreenenter"",""0"",""5665""
","
","
","""event"",""trial"",""time""
""fullscreenenter"",""0"",""5665""
","
","null","run_exp/static/images/Set 6_rs/152a.jpg","null","","","","","","learn","SR",""
"","html-keyboard-response","132","152498","0.0-132.0","""event"",""trial"",""time""
""fullscreenenter"",""0"",""5665""
","
","
","""event"",""trial"",""time""
""fullscreenenter"",""0"",""5665""
","
","null","<p></p>","null","","","","","","","",""
"","image","133","153920","0.0-133.0","""event"",""trial"",""time""
""fullscreenenter"",""0"",""5665""
","
","
","""event"",""trial"",""time""
""fullscreenenter"",""0"",""5665""
","
","1419.100000000035","run_exp/static/images/Set 6_rs/186a.jpg","86","","","","","","learn","SR",""
"","show_choice","134","154503","0.0-134.0","""event"",""trial"",""time""
""fullscreenenter"",""0"",""5665""
","
","
","""event"",""trial"",""time""
""fullscreenenter"",""0"",""5665""
","
","null","run_exp/static/images/Set 6_rs/186a.jpg","null","","","","","","learn","SR",""
"","html-keyboard-response","135","155005","0.0-135.0","""event"",""trial"",""time""
""fullscreenenter"",""0"",""5665""
","
","
","""event"",""trial"",""time""
""fullscreenenter"",""0"",""5665""
","
","null","<p></p>","null","","","","","","","",""
"","image","136","156012","0.0-136.0","""event"",""trial"",""time""
""fullscreenenter"",""0"",""5665""
","
","
","""event"",""trial"",""time""
""fullscreenenter"",""0"",""5665""
","
","1001.8999999999651","run_exp/static/images/Set 6_rs/063a.jpg","86","","","","","","learn","SR",""
"","show_choice","137","157012","0.0-137.0","""event"",""trial"",""time""
""fullscreenenter"",""0"",""5665""
","
","
","""event"",""trial"",""time""
""fullscreenenter"",""0"",""5665""
","
","null","run_exp/static/images/Set 6_rs/063a.jpg","null","","","","","","learn","SR",""
"","html-keyboard-response","138","157514","0.0-138.0","""event"",""trial"",""time""
""fullscreenenter"",""0"",""5665""
","
","
","""event"",""trial"",""time""
""fullscreenenter"",""0"",""5665""
","
","null","<p></p>","null","","","","","","","",""
"","image","139","158736","0.0-139.0","""event"",""trial"",""time""
""fullscreenenter"",""0"",""5665""
","
","
","""event"",""trial"",""time""
""fullscreenenter"",""0"",""5665""
","
","1219.9000000000233","run_exp/static/images/Set 6_rs/167a.jpg","86","","","","","","learn","SL",""
"","show_choice","140","159518","0.0-140.0","""event"",""trial"",""time""
""fullscreenenter"",""0"",""5665""
","
","
","""event"",""trial"",""time""
""fullscreenenter"",""0"",""5665""
","
","null","run_exp/static/images/Set 6_rs/167a.jpg","null","","","","","","learn","SL",""
"","html-keyboard-response","141","160020","0.0-141.0","""event"",""trial"",""time""
""fullscreenenter"",""0"",""5665""
","
","
","""event"",""trial"",""time""
""fullscreenenter"",""0"",""5665""
","
","null","<p></p>","null","","","","","","","",""
"","image","142","161384","0.0-142.0","""event"",""trial"",""time""
""fullscreenenter"",""0"",""5665""
","
","
","""event"",""trial"",""time""
""fullscreenenter"",""0"",""5665""
","
","1361.399999999965","run_exp/static/images/Set 6_rs/111a.jpg","86","","","","","","learn","SL",""
"","show_choice","143","162024","0.0-143.0","""event"",""trial"",""time""
""fullscreenenter"",""0"",""5665""
","
","
","""event"",""trial"",""time""
""fullscreenenter"",""0"",""5665""
","
","null","run_exp/static/images/Set 6_rs/111a.jpg","null","","","","","","learn","SL",""
"","html-keyboard-response","144","162526","0.0-144.0","""event"",""trial"",""time""
""fullscreenenter"",""0"",""5665""
","
","
","""event"",""trial"",""time""
""fullscreenenter"",""0"",""5665""
","
","null","<p></p>","null","","","","","","","",""
"","image","145","163559","0.0-145.0","""event"",""trial"",""time""
""fullscreenenter"",""0"",""5665""
","
","
","""event"",""trial"",""time""
""fullscreenenter"",""0"",""5665""
","
","1030.2000000000116","run_exp/static/images/Set 6_rs/095a.jpg","86","","","","","","learn","SL",""
"","show_choice","146","164531","0.0-146.0","""event"",""trial"",""time""
""fullscreenenter"",""0"",""5665""
","
","
","""event"",""trial"",""time""
""fullscreenenter"",""0"",""5665""
","
","null","run_exp/static/images/Set 6_rs/095a.jpg","null","","","","","","learn","SL",""
"","html-keyboard-response","147","165032","0.0-147.0","""event"",""trial"",""time""
""fullscreenenter"",""0"",""5665""
","
","
","""event"",""trial"",""time""
""fullscreenenter"",""0"",""5665""
","
","null","<p></p>","null","","","","","","","",""
"","image","148","166650","0.0-148.0","""event"",""trial"",""time""
""fullscreenenter"",""0"",""5665""
","
","
","""event"",""trial"",""time""
""fullscreenenter"",""0"",""5665""
","
","1615.5999999999767","run_exp/static/images/Set 6_rs/122a.jpg","86","","","","","","learn","SR",""
"","show_choice","149","167037","0.0-149.0","""event"",""trial"",""time""
""fullscreenenter"",""0"",""5665""
","
","
","""event"",""trial"",""time""
""fullscreenenter"",""0"",""5665""
","
","null","run_exp/static/images/Set 6_rs/122a.jpg","null","","","","","","learn","SR",""
"","html-keyboard-response","150","167539","0.0-150.0","""event"",""trial"",""time""
""fullscreenenter"",""0"",""5665""
","
","
","""event"",""trial"",""time""
""fullscreenenter"",""0"",""5665""
","
","null","<p></p>","null","","","","","","","",""
"","image","151","168761","0.0-151.0","""event"",""trial"",""time""
""fullscreenenter"",""0"",""5665""
","
","
","""event"",""trial"",""time""
""fullscreenenter"",""0"",""5665""
","
","1219.600000000035","run_exp/static/images/Set 6_rs/134a.jpg","86","","","","","","learn","SR",""
"","show_choice","152","169544","0.0-152.0","""event"",""trial"",""time""
""fullscreenenter"",""0"",""5665""
","
","
","""event"",""trial"",""time""
""fullscreenenter"",""0"",""5665""
","
","null","run_exp/static/images/Set 6_rs/134a.jpg","null","","","","","","learn","SR",""
"","html-keyboard-response","153","170045","0.0-153.0","""event"",""trial"",""time""
""fullscreenenter"",""0"",""5665""
","
","
","""event"",""trial"",""time""
""fullscreenenter"",""0"",""5665""
","
","null","<p></p>","null","","","","","","","",""
"","image","154","171334","0.0-154.0","""event"",""trial"",""time""
""fullscreenenter"",""0"",""5665""
","
","
","""event"",""trial"",""time""
""fullscreenenter"",""0"",""5665""
","
","1285.2000000000116","run_exp/static/images/Set 6_rs/129a.jpg","86","","","","","","learn","SL",""
"","show_choice","155","172050","0.0-155.0","""event"",""trial"",""time""
""fullscreenenter"",""0"",""5665""
","
","
","""event"",""trial"",""time""
""fullscreenenter"",""0"",""5665""
","
","null","run_exp/static/images/Set 6_rs/129a.jpg","null","","","","","","learn","SL",""
"","html-keyboard-response","156","172552","0.0-156.0","""event"",""trial"",""time""
""fullscreenenter"",""0"",""5665""
","
","
","""event"",""trial"",""time""
""fullscreenenter"",""0"",""5665""
","
","null","<p></p>","null","","","","","","","",""
"","image","157","174392","0.0-157.0","""event"",""trial"",""time""
""fullscreenenter"",""0"",""5665""
","
","
","""event"",""trial"",""time""
""fullscreenenter"",""0"",""5665""
","
","1836.7999999999884","run_exp/static/images/Set 6_rs/036a.jpg","86","","","","","","learn","SL",""
"","show_choice","158","174557","0.0-158.0","""event"",""trial"",""time""
""fullscreenenter"",""0"",""5665""
","
","
","""event"",""trial"",""time""
""fullscreenenter"",""0"",""5665""
","
","null","run_exp/static/images/Set 6_rs/036a.jpg","null","","","","","","learn","SL",""
"","html-keyboard-response","159","175059","0.0-159.0","""event"",""trial"",""time""
""fullscreenenter"",""0"",""5665""
","
","
","""event"",""trial"",""time""
""fullscreenenter"",""0"",""5665""
","
","null","<p></p>","null","","","","","","","",""
"","image","160","176130","0.0-160.0","""event"",""trial"",""time""
""fullscreenenter"",""0"",""5665""
","
","
","""event"",""trial"",""time""
""fullscreenenter"",""0"",""5665""
","
","1068.600000000035","run_exp/static/images/Set 6_rs/070a.jpg","86","","","","","","learn","SR",""
"","show_choice","161","177064","0.0-161.0","""event"",""trial"",""time""
""fullscreenenter"",""0"",""5665""
","
","
","""event"",""trial"",""time""
""fullscreenenter"",""0"",""5665""
","
","null","run_exp/static/images/Set 6_rs/070a.jpg","null","","","","","","learn","SR",""
"","html-keyboard-response","162","177566","0.0-162.0","""event"",""trial"",""time""
""fullscreenenter"",""0"",""5665""
","
","
","""event"",""trial"",""time""
""fullscreenenter"",""0"",""5665""
","
","null","<p></p>","null","","","","","","","",""
"","image","163","178571","0.0-163.0","""event"",""trial"",""time""
""fullscreenenter"",""0"",""5665""
","
","
","""event"",""trial"",""time""
""fullscreenenter"",""0"",""5665""
","
","1001.9000000000233","run_exp/static/images/Set 6_rs/169a.jpg","78","","","","","","learn","SR",""
"","show_choice","164","179571","0.0-164.0","""event"",""trial"",""time""
""fullscreenenter"",""0"",""5665""
","
","
","""event"",""trial"",""time""
""fullscreenenter"",""0"",""5665""
","
","null","run_exp/static/images/Set 6_rs/169a.jpg","null","","","","","","learn","SR",""
"","html-keyboard-response","165","180072","0.0-165.0","""event"",""trial"",""time""
""fullscreenenter"",""0"",""5665""
","
","
","""event"",""trial"",""time""
""fullscreenenter"",""0"",""5665""
","
","null","<p></p>","null","","","","","","","",""
"","image","166","181040","0.0-166.0","""event"",""trial"",""time""
""fullscreenenter"",""0"",""5665""
","
","
","""event"",""trial"",""time""
""fullscreenenter"",""0"",""5665""
","
","965.2000000000116","run_exp/static/images/Set 6_rs/076a.jpg","78","","","","","","learn","SR",""
"","show_choice","167","182075","0.0-167.0","""event"",""trial"",""time""
""fullscreenenter"",""0"",""5665""
","
","
","""event"",""trial"",""time""
""fullscreenenter"",""0"",""5665""
","
","null","run_exp/static/images/Set 6_rs/076a.jpg","null","","","","","","learn","SR",""
"","html-keyboard-response","168","182577","0.0-168.0","""event"",""trial"",""time""
""fullscreenenter"",""0"",""5665""
","
","
","""event"",""trial"",""time""
""fullscreenenter"",""0"",""5665""
","
","null","<p></p>","null","","","","","","","",""
"","image","169","183362","0.0-169.0","""event"",""trial"",""time""
""fullscreenenter"",""0"",""5665""
","
","
","""event"",""trial"",""time""
""fullscreenenter"",""0"",""5665""
","
","782","run_exp/static/images/Set 6_rs/073a.jpg","86","","","","","","learn","SL",""
"","show_choice","170","184582","0.0-170.0","""event"",""trial"",""time""
""fullscreenenter"",""0"",""5665""
","
","
","""event"",""trial"",""time""
""fullscreenenter"",""0"",""5665""
","
","null","run_exp/static/images/Set 6_rs/073a.jpg","null","","","","","","learn","SL",""
"","html-keyboard-response","171","185084","0.0-171.0","""event"",""trial"",""time""
""fullscreenenter"",""0"",""5665""
","
","
","""event"",""trial"",""time""
""fullscreenenter"",""0"",""5665""
","
","null","<p></p>","null","","","","","","","",""
"","image","172","186034","0.0-172.0","""event"",""trial"",""time""
""fullscreenenter"",""0"",""5665""
","
","
","""event"",""trial"",""time""
""fullscreenenter"",""0"",""5665""
","
","947.5","run_exp/static/images/Set 6_rs/085a.jpg","78","","","","","","learn","SL",""
"","show_choice","173","187089","0.0-173.0","""event"",""trial"",""time""
""fullscreenenter"",""0"",""5665""
","
","
","""event"",""trial"",""time""
""fullscreenenter"",""0"",""5665""
","
","null","run_exp/static/images/Set 6_rs/085a.jpg","null","","","","","","learn","SL",""
"","html-keyboard-response","174","187591","0.0-174.0","""event"",""trial"",""time""
""fullscreenenter"",""0"",""5665""
","
","
","""event"",""trial"",""time""
""fullscreenenter"",""0"",""5665""
","
","null","<p></p>","null","","","","","","","",""
"","image","175","188596","0.0-175.0","""event"",""trial"",""time""
""fullscreenenter"",""0"",""5665""
","
","
","""event"",""trial"",""time""
""fullscreenenter"",""0"",""5665""
","
","1002.6000000000349","run_exp/static/images/Set 6_rs/079a.jpg","86","","","","","","learn","SL",""
"","show_choice","176","189596","0.0-176.0","""event"",""trial"",""time""
""fullscreenenter"",""0"",""5665""
","
","
","""event"",""trial"",""time""
""fullscreenenter"",""0"",""5665""
","
","null","run_exp/static/images/Set 6_rs/079a.jpg","null","","","","","","learn","SL",""
"","html-keyboard-response","177","190098","0.0-177.0","""event"",""trial"",""time""
""fullscreenenter"",""0"",""5665""
","
","
","""event"",""trial"",""time""
""fullscreenenter"",""0"",""5665""
","
","null","<p></p>","null","","","","","","","",""
"","image","178","190933","0.0-178.0","""event"",""trial"",""time""
""fullscreenenter"",""0"",""5665""
","
","
","""event"",""trial"",""time""
""fullscreenenter"",""0"",""5665""
","
","832.5999999999767","run_exp/static/images/Set 6_rs/007a.jpg","86","","","","","","learn","SR",""
"","show_choice","179","192102","0.0-179.0","""event"",""trial"",""time""
""fullscreenenter"",""0"",""5665""
","
","
","""event"",""trial"",""time""
""fullscreenenter"",""0"",""5665""
","
","null","run_exp/static/images/Set 6_rs/007a.jpg","null","","","","","","learn","SR",""
"","html-keyboard-response","180","192604","0.0-180.0","""event"",""trial"",""time""
""fullscreenenter"",""0"",""5665""
","
","
","""event"",""trial"",""time""
""fullscreenenter"",""0"",""5665""
","
","null","<p></p>","null","","","","","","","",""
"","image","181","194074","0.0-181.0","""event"",""trial"",""time""
""fullscreenenter"",""0"",""5665""
","
","
","""event"",""trial"",""time""
""fullscreenenter"",""0"",""5665""
","
","1466.7999999999884","run_exp/static/images/Set 6_rs/141a.jpg","78","","","","","","learn","SR",""
"","show_choice","182","194610","0.0-182.0","""event"",""trial"",""time""
""fullscreenenter"",""0"",""5665""
","
","
","""event"",""trial"",""time""
""fullscreenenter"",""0"",""5665""
","
","null","run_exp/static/images/Set 6_rs/141a.jpg","null","","","","","","learn","SR",""
"","html-keyboard-response","183","195111","0.0-183.0","""event"",""trial"",""time""
""fullscreenenter"",""0"",""5665""
","
","
","""event"",""trial"",""time""
""fullscreenenter"",""0"",""5665""
","
","null","<p></p>","null","","","","","","","",""
"","image","184","196623","0.0-184.0","""event"",""trial"",""time""
""fullscreenenter"",""0"",""5665""
","
","
","""event"",""trial"",""time""
""fullscreenenter"",""0"",""5665""
","
","1509.0999999999767","run_exp/static/images/Set 6_rs/191a.jpg","78","","","","","","learn","SL",""
"","show_choice","185","197116","0.0-185.0","""event"",""trial"",""time""
""fullscreenenter"",""0"",""5665""
","
","
","""event"",""trial"",""time""
""fullscreenenter"",""0"",""5665""
","
","null","run_exp/static/images/Set 6_rs/191a.jpg","null","","","","","","learn","SL",""
"","html-keyboard-response","186","197618","0.0-186.0","""event"",""trial"",""time""
""fullscreenenter"",""0"",""5665""
","
","
","""event"",""trial"",""time""
""fullscreenenter"",""0"",""5665""
","
","null","<p></p>","null","","","","","","","",""
"","image","187","198671","0.0-187.0","""event"",""trial"",""time""
""fullscreenenter"",""0"",""5665""
","
","
","""event"",""trial"",""time""
""fullscreenenter"",""0"",""5665""
","
","1051","run_exp/static/images/Set 6_rs/091a.jpg","78","","","","","","learn","SL",""
"","show_choice","188","199623","0.0-188.0","""event"",""trial"",""time""
""fullscreenenter"",""0"",""5665""
","
","
","""event"",""trial"",""time""
""fullscreenenter"",""0"",""5665""
","
","null","run_exp/static/images/Set 6_rs/091a.jpg","null","","","","","","learn","SL",""
"","html-keyboard-response","189","200125","0.0-189.0","""event"",""trial"",""time""
""fullscreenenter"",""0"",""5665""
","
","
","""event"",""trial"",""time""
""fullscreenenter"",""0"",""5665""
","
","null","<p></p>","null","","","","","","","",""
"","image","190","201445","0.0-190.0","""event"",""trial"",""time""
""fullscreenenter"",""0"",""5665""
","
","
","""event"",""trial"",""time""
""fullscreenenter"",""0"",""5665""
","
","1317.2999999999884","run_exp/static/images/Set 6_rs/144a.jpg","86","","","","","","learn","SL",""
"","show_choice","191","202130","0.0-191.0","""event"",""trial"",""time""
""fullscreenenter"",""0"",""5665""
","
","
","""event"",""trial"",""time""
""fullscreenenter"",""0"",""5665""
","
","null","run_exp/static/images/Set 6_rs/144a.jpg","null","","","","","","learn","SL",""
"","html-keyboard-response","192","202632","0.0-192.0","""event"",""trial"",""time""
""fullscreenenter"",""0"",""5665""
","
","
","""event"",""trial"",""time""
""fullscreenenter"",""0"",""5665""
","
","null","<p></p>","null","","","","","","","",""
"","image","193","204635","0.0-193.0","""event"",""trial"",""time""
""fullscreenenter"",""0"",""5665""
","
","
","""event"",""trial"",""time""
""fullscreenenter"",""0"",""5665""
","
","null","run_exp/static/images/Set 6_rs/123a.jpg","null","","","","","","learn","SL",""
"","show_choice","194","206637","0.0-194.0","""event"",""trial"",""time""
""fullscreenenter"",""0"",""5665""
","
","
","""event"",""trial"",""time""
""fullscreenenter"",""0"",""5665""
","
","null","run_exp/static/images/blank.png","null","","","","","","learn","SL",""
"","html-keyboard-response","195","207141","0.0-195.0","""event"",""trial"",""time""
""fullscreenenter"",""0"",""5665""
","
","
","""event"",""trial"",""time""
""fullscreenenter"",""0"",""5665""
","
","null","<p></p>","null","","","","","","","",""
"","test_intro","196","243970","0.0-196.0","""event"",""trial"",""time""
""fullscreenenter"",""0"",""5665""
","
","
","""event"",""trial"",""time""
""fullscreenenter"",""0"",""5665""
","
","null","run_exp/static/audio/clip_2_memory.m4a","null","","","","","<div class='center'><p>Now, lets see how much you remember about the items you just saw.  For each item, you need to indicate if it was <b>old</b> by pressing the <b>v</b> key, <b>similar</b> by pressing the <b>b</b> key, or <b>new</b> by pressing the <b>n</b> key.</p><p>Old refers to an item that you saw before in the indoor/outdoor game that you just played, new refers to an item you have <b>not</b> seen before within the indoor/outdoor game, and similar refers to an item that is similar to an item youve seen before but is not exactly the same. </p><p>Before we begin, lets go over some brief demonstrations to make sure you understand.</p></div>","","",""
"","html-keyboard-response","197","266694","0.0-197.0","""event"",""trial"",""time""
""fullscreenenter"",""0"",""5665""
","
","
","""event"",""trial"",""time""
""fullscreenenter"",""0"",""5665""
","
","22721.099999999977","<div class='center'><p>Now, lets see how much you remember about the items you just saw.  For each item, you need to indicate if it was <b>old</b> by pressing the <b>v</b> key, <b>similar</b> by pressing the <b>b</b> key, or <b>new</b> by pressing the <b>n</b> key.</p><p>Old refers to an item that you saw before in the indoor/outdoor game that you just played, new refers to an item you have <b>not</b> seen before within the indoor/outdoor game, and similar refers to an item that is similar to an item youve seen before but is not exactly the same. </p><p>Before we begin, lets go over some brief demonstrations to make sure you understand.</p><div><p><b>[Press the space bar to continue]</b></p></div>","32","","","","","","","",""
"","items","198","274198","0.0-198.0","""event"",""trial"",""time""
""fullscreenenter"",""0"",""5665""
","
","
","""event"",""trial"",""time""
""fullscreenenter"",""0"",""5665""
","
","null","run_exp/static/audio/clip_3_items.m4a","null","","","","","","","",""
"","mop","199","278702","0.0-199.0","""event"",""trial"",""time""
""fullscreenenter"",""0"",""5665""
","
","
","""event"",""trial"",""time""
""fullscreenenter"",""0"",""5665""
","
","null","run_exp/static/audio/clip_4_mop.m4a","null","","","","","","","",""
"","baseball","200","282206","0.0-200.0","""event"",""trial"",""time""
""fullscreenenter"",""0"",""5665""
","
","
","""event"",""trial"",""time""
""fullscreenenter"",""0"",""5665""
","
","null","run_exp/static/audio/clip_5_baseball.m4a","null","","","","","","","",""
"","trumpet","201","285710","0.0-201.0","""event"",""trial"",""time""
""fullscreenenter"",""0"",""5665""
","
","
","""event"",""trial"",""time""
""fullscreenenter"",""0"",""5665""
","
","null","run_exp/static/audio/clip_6_trumpet.m4a","null","","","","","","","",""
"","gummies","202","289214","0.0-202.0","""event"",""trial"",""time""
""fullscreenenter"",""0"",""5665""
","
","
","""event"",""trial"",""time""
""fullscreenenter"",""0"",""5665""
","
","null","run_exp/static/audio/clip_7_gummies.m4a","null","","","","","","","",""
"","osn","203","293717","0.0-203.0","""event"",""trial"",""time""
""fullscreenenter"",""0"",""5665""
","
","
","""event"",""trial"",""time""
""fullscreenenter"",""0"",""5665""
","
","null","run_exp/static/audio/clip_8_osn.m4a","null","","","","","","","",""
"","old_1","204","300221","0.0-204.0","""event"",""trial"",""time""
""fullscreenenter"",""0"",""5665""
","
","
","""event"",""trial"",""time""
""fullscreenenter"",""0"",""5665""
","
","null","run_exp/static/audio/clip_9_old_trumpet.m4a","null","","","","","","","",""
"","new_1","205","307725","0.0-205.0","""event"",""trial"",""time""
""fullscreenenter"",""0"",""5665""
","
","
","""event"",""trial"",""time""
""fullscreenenter"",""0"",""5665""
","
","null","run_exp/static/audio/clip_10_new_balloon.m4a","null","","","","","","","",""
"","similar_1a","206","312230","0.0-206.0","""event"",""trial"",""time""
""fullscreenenter"",""0"",""5665""
","
","
","""event"",""trial"",""time""
""fullscreenenter"",""0"",""5665""
","
","null","run_exp/static/audio/clip_11a_similar_mop.m4a","null","","","","","","","",""
"","similar_1b","207","318742","0.0-207.0","""event"",""trial"",""time""
""fullscreenenter"",""0"",""5665""
","
","
","""event"",""trial"",""time""
""fullscreenenter"",""0"",""5665""
","
","null","run_exp/static/audio/clip_11b_similar_mop.m4a","null","","","","","","","",""
"","new_2","208","322246","0.0-208.0","""event"",""trial"",""time""
""fullscreenenter"",""0"",""5665""
","
","
","""event"",""trial"",""time""
""fullscreenenter"",""0"",""5665""
","
","null","run_exp/static/audio/clip_12_new_stoplight.m4a","null","","","","","","","",""
"","old_2","209","325750","0.0-209.0","""event"",""trial"",""time""
""fullscreenenter"",""0"",""5665""
","
","
","""event"",""trial"",""time""
""fullscreenenter"",""0"",""5665""
","
","null","run_exp/static/audio/clip_13_old_baseball.m4a","null","","","","","","","",""
"","similar_2a","210","329254","0.0-210.0","""event"",""trial"",""time""
""fullscreenenter"",""0"",""5665""
","
","
","""event"",""trial"",""time""
""fullscreenenter"",""0"",""5665""
","
","null","run_exp/static/audio/clip_14a_similar_gummies.m4a","null","","","","","","","",""
"","similar_2b","211","336758","0.0-211.0","""event"",""trial"",""time""
""fullscreenenter"",""0"",""5665""
","
","
","""event"",""trial"",""time""
""fullscreenenter"",""0"",""5665""
","
","null","run_exp/static/audio/clip_14b_similar_gummies.m4a","null","","","","","","","",""
"","practice","212","378992","0.0-212.0","""event"",""trial"",""time""
""fullscreenenter"",""0"",""5665""
","
","
","""event"",""trial"",""time""
""fullscreenenter"",""0"",""5665""
","
","null","run_exp/static/audio/clip_15_practice.m4a","null","","","","","<div class='center'><p>Lets practice a little to make sure you understand the difference between new, similar, and old. Lets say you saw these three items in the indoor/outdoor game.</p><p> Try your best to remember these images because youll soon be tested on them in a practice game. In the practice game, youll be shown images and youll have to say if they are old (one of the three images belows), similar (similar to one of the images below but not exactly the same), or new (are not one of the images below nor similar to them).</p><p>Once you press the space bar youll be shown these images again but one at time. Then youll begin the practice game.</p><p><img src='run_exp/static/images/tutorial/test/three_indoor_outdoor.png' height='300'></p></div>","","",""
"","html-keyboard-response","213","380811","0.0-213.0","""event"",""trial"",""time""
""fullscreenenter"",""0"",""5665""
","
","
","""event"",""trial"",""time""
""fullscreenenter"",""0"",""5665""
","
","1814.2000000000698","<div class='center'><p>Lets practice a little to make sure you understand the difference between new, similar, and old. Lets say you saw these three items in the indoor/outdoor game.</p><p> Try your best to remember these images because youll soon be tested on them in a practice game. In the practice game, youll be shown images and youll have to say if they are old (one of the three images belows), similar (similar to one of the images below but not exactly the same), or new (are not one of the images below nor similar to them).</p><p>Once you press the space bar youll be shown these images again but one at time. Then youll begin the practice game.</p><p><img src='run_exp/static/images/tutorial/test/three_indoor_outdoor.png' height='300'></p><div><p><b>[Press the space bar to continue]</b></p></div>","32","","","","","","","",""
"","planet","214","382814","0.0-214.0","""event"",""trial"",""time""
""fullscreenenter"",""0"",""5665""
","
","
","""event"",""trial"",""time""
""fullscreenenter"",""0"",""5665""
","
","null","run_exp/static/images/tutorial/test/008a.jpg","null","","","","","","","",""
"","boot","215","384817","0.0-215.0","""event"",""trial"",""time""
""fullscreenenter"",""0"",""5665""
","
","
","""event"",""trial"",""time""
""fullscreenenter"",""0"",""5665""
","
","null","run_exp/static/images/tutorial/test/011a.jpg","null","","","","","","","",""
"","lemon","216","386819","0.0-216.0","""event"",""trial"",""time""
""fullscreenenter"",""0"",""5665""
","
","
","""event"",""trial"",""time""
""fullscreenenter"",""0"",""5665""
","
","null","run_exp/static/images/tutorial/test/018a.jpg","null","","","","","","","",""
"","practice_q1","217","392047","0.0-217.0","""event"",""trial"",""time""
""fullscreenenter"",""0"",""5665""
","
","
","""event"",""trial"",""time""
""fullscreenenter"",""0"",""5665""
","
","5222.800000000047","run_exp/static/audio/clip_16_practice_question.m4a","78","","","","","","","",""
"","correct","218","394104","0.0-218.0-0.0","""event"",""trial"",""time""
""fullscreenenter"",""0"",""5665""
","
","
","""event"",""trial"",""time""
""fullscreenenter"",""0"",""5665""
","
","null","run_exp/static/audio/clip_17_correct.m4a","null","","","","","<div class='center'><p>That's correct!</p></div>","","",""
"","html-keyboard-response","219","394795","0.0-218.0-1.0","""event"",""trial"",""time""
""fullscreenenter"",""0"",""5665""
","
","
","""event"",""trial"",""time""
""fullscreenenter"",""0"",""5665""
","
","687.2000000000698","<div class='center'><p>That's correct!</p><div><p><b>[Press the space bar to continue]</b></p></div>","32","","","","","","","",""
"","practice_q2","220","395780","0.0-218.0-2.0","""event"",""trial"",""time""
""fullscreenenter"",""0"",""5665""
","
","
","""event"",""trial"",""time""
""fullscreenenter"",""0"",""5665""
","
","980.7000000000698","run_exp/static/audio/clip_16_practice_question.m4a","86","","","","","","","",""
"","correct","221","397775","0.0-219.0-0.0","""event"",""trial"",""time""
""fullscreenenter"",""0"",""5665""
","
","
","""event"",""trial"",""time""
""fullscreenenter"",""0"",""5665""
","
","null","run_exp/static/audio/clip_17_correct.m4a","null","","","","","<div class='center'><p>That's correct!</p></div>","","",""
"","html-keyboard-response","222","398473","0.0-219.0-1.0","""event"",""trial"",""time""
""fullscreenenter"",""0"",""5665""
","
","
","""event"",""trial"",""time""
""fullscreenenter"",""0"",""5665""
","
","694.7000000000698","<div class='center'><p>That's correct!</p><div><p><b>[Press the space bar to continue]</b></p></div>","32","","","","","","","",""
"","practice_q3","223","399948","0.0-219.0-2.0","""event"",""trial"",""time""
""fullscreenenter"",""0"",""5665""
","
","
","""event"",""trial"",""time""
""fullscreenenter"",""0"",""5665""
","
","1468.1000000000931","run_exp/static/audio/clip_16_practice_question.m4a","66","","","","","","","",""
"","correct","224","402215","0.0-220.0-0.0","""event"",""trial"",""time""
""fullscreenenter"",""0"",""5665""
","
","
","""event"",""trial"",""time""
""fullscreenenter"",""0"",""5665""
","
","null","run_exp/static/audio/clip_17_correct.m4a","null","","","","","<div class='center'><p>That's correct!</p></div>","","",""
"","html-keyboard-response","225","402814","0.0-220.0-1.0","""event"",""trial"",""time""
""fullscreenenter"",""0"",""5665""
","
","
","""event"",""trial"",""time""
""fullscreenenter"",""0"",""5665""
","
","596.5","<div class='center'><p>That's correct!</p><div><p><b>[Press the space bar to continue]</b></p></div>","32","","","","","","","",""
"","begin_text","226","421425","0.0-221.0-0.0","""event"",""trial"",""time""
""fullscreenenter"",""0"",""5665""
","
","
","""event"",""trial"",""time""
""fullscreenenter"",""0"",""5665""
","
","null","run_exp/static/audio/clip_22_begin_test.m4a","null","","","","","<div class='center'><p>On to the real game where well test your memory of items from the indoor/outdoor game. For each item, you need to indicate if the item is <b>old</b> by pressing the <b>v</b> key, <b>similar</b> by pressing the <b>b</b> key, or <b>new</b> by pressing the <b>n</b> key. </p></div>","","",""
"","html-keyboard-response","227","422079","0.0-221.0-1.0","""event"",""trial"",""time""
""fullscreenenter"",""0"",""5665""
","
","
","""event"",""trial"",""time""
""fullscreenenter"",""0"",""5665""
","
","650.8000000000466","<div class='center'><p>On to the real game where well test your memory of items from the indoor/outdoor game. For each item, you need to indicate if the item is <b>old</b> by pressing the <b>v</b> key, <b>similar</b> by pressing the <b>b</b> key, or <b>new</b> by pressing the <b>n</b> key. </p><div><p><b>[Press the space bar to continue]</b></p></div>","32","","","","","","","",""
"","image","228","423383","0.0-222.0-0.0","""event"",""trial"",""time""
""fullscreenenter"",""0"",""5665""
","
","
","""event"",""trial"",""time""
""fullscreenenter"",""0"",""5665""
","
","1301.5999999999767","run_exp/static/images/Set 6_rs/149a.jpg","66","","","","","","test","TF","1"
"","show_choice","229","423888","0.0-222.0-1.0","""event"",""trial"",""time""
""fullscreenenter"",""0"",""5665""
","
","
","""event"",""trial"",""time""
""fullscreenenter"",""0"",""5665""
","
","null","run_exp/static/images/Set 6_rs/149a.jpg","null","","","","","","test","TF",""
"","html-keyboard-response","230","424390","0.0-222.0-2.0","""event"",""trial"",""time""
""fullscreenenter"",""0"",""5665""
","
","
","""event"",""trial"",""time""
""fullscreenenter"",""0"",""5665""
","
","null","<p></p>","null","","","","","","","",""
"","image","231","425295","0.0-223.0-0.0","""event"",""trial"",""time""
""fullscreenenter"",""0"",""5665""
","
","
","""event"",""trial"",""time""
""fullscreenenter"",""0"",""5665""
","
","902.1000000000931","run_exp/static/images/Set 6_rs/152a.jpg","86","","","","","","test","TR","2"
"","show_choice","232","425798","0.0-223.0-1.0","""event"",""trial"",""time""
""fullscreenenter"",""0"",""5665""
","
","
","""event"",""trial"",""time""
""fullscreenenter"",""0"",""5665""
","
","null","run_exp/static/images/Set 6_rs/152a.jpg","null","","","","","","test","TR",""
"","html-keyboard-response","233","426301","0.0-223.0-2.0","""event"",""trial"",""time""
""fullscreenenter"",""0"",""5665""
","
","
","""event"",""trial"",""time""
""fullscreenenter"",""0"",""5665""
","
","null","<p></p>","null","","","","","","","",""
"","image","234","427100","0.0-224.0-0.0","""event"",""trial"",""time""
""fullscreenenter"",""0"",""5665""
","
","
","""event"",""trial"",""time""
""fullscreenenter"",""0"",""5665""
","
","796.0999999999767","run_exp/static/images/Set 6_rs/023a.jpg","86","","","","","","test","TR","3"
"","show_choice","235","427603","0.0-224.0-1.0","""event"",""trial"",""time""
""fullscreenenter"",""0"",""5665""
","
","
","""event"",""trial"",""time""
""fullscreenenter"",""0"",""5665""
","
","null","run_exp/static/images/Set 6_rs/023a.jpg","null","","","","","","test","TR",""
"","html-keyboard-response","236","428105","0.0-224.0-2.0","""event"",""trial"",""time""
""fullscreenenter"",""0"",""5665""
","
","
","""event"",""trial"",""time""
""fullscreenenter"",""0"",""5665""
","
","null","<p></p>","null","","","","","","","",""
"","image","237","429356","0.0-225.0-0.0","""event"",""trial"",""time""
""fullscreenenter"",""0"",""5665""
","
","
","""event"",""trial"",""time""
""fullscreenenter"",""0"",""5665""
","
","1247.5999999999767","run_exp/static/images/Set 6_rs/010a.jpg","66","","","","","","test","TR","5"
"","show_choice","238","429860","0.0-225.0-1.0","""event"",""trial"",""time""
""fullscreenenter"",""0"",""5665""
","
","
","""event"",""trial"",""time""
""fullscreenenter"",""0"",""5665""
","
","null","run_exp/static/images/Set 6_rs/010a.jpg","null","","","","","","test","TR",""
"","html-keyboard-response","239","430362","0.0-225.0-2.0","""event"",""trial"",""time""
""fullscreenenter"",""0"",""5665""
","
","
","""event"",""trial"",""time""
""fullscreenenter"",""0"",""5665""
","
","null","<p></p>","null","","","","","","","",""
"","image","240","431487","0.0-226.0-0.0","""event"",""trial"",""time""
""fullscreenenter"",""0"",""5665""
","
","
","""event"",""trial"",""time""
""fullscreenenter"",""0"",""5665""
","
","1122.0999999999767","run_exp/static/images/Set 6_rs/144b.jpg","66","","","","","","test","TL","4"
"","show_choice","241","431990","0.0-226.0-1.0","""event"",""trial"",""time""
""fullscreenenter"",""0"",""5665""
","
","
","""event"",""trial"",""time""
""fullscreenenter"",""0"",""5665""
","
","null","run_exp/static/images/Set 6_rs/144b.jpg","null","","","","","","test","TL",""
"","html-keyboard-response","242","432492","0.0-226.0-2.0","""event"",""trial"",""time""
""fullscreenenter"",""0"",""5665""
","
","
","""event"",""trial"",""time""
""fullscreenenter"",""0"",""5665""
","
","null","<p></p>","null","","","","","","","",""
"","image","243","433429","0.0-227.0-0.0","""event"",""trial"",""time""
""fullscreenenter"",""0"",""5665""
","
","
","""event"",""trial"",""time""
""fullscreenenter"",""0"",""5665""
","
","933.0999999999767","run_exp/static/images/Set 6_rs/181b.jpg","86","","","","","","test","TL","1"
"","show_choice","244","433931","0.0-227.0-1.0","""event"",""trial"",""time""
""fullscreenenter"",""0"",""5665""
","
","
","""event"",""trial"",""time""
""fullscreenenter"",""0"",""5665""
","
","null","run_exp/static/images/Set 6_rs/181b.jpg","null","","","","","","test","TL",""
"","html-keyboard-response","245","434433","0.0-227.0-2.0","""event"",""trial"",""time""
""fullscreenenter"",""0"",""5665""
","
","
","""event"",""trial"",""time""
""fullscreenenter"",""0"",""5665""
","
","null","<p></p>","null","","","","","","","",""
"","image","246","435409","0.0-228.0-0.0","""event"",""trial"",""time""
""fullscreenenter"",""0"",""5665""
","
","
","""event"",""trial"",""time""
""fullscreenenter"",""0"",""5665""
","
","972.3000000000466","run_exp/static/images/Set 6_rs/133a.jpg","78","","","","","","test","TF","4"
"","show_choice","247","435911","0.0-228.0-1.0","""event"",""trial"",""time""
""fullscreenenter"",""0"",""5665""
","
","
","""event"",""trial"",""time""
""fullscreenenter"",""0"",""5665""
","
","null","run_exp/static/images/Set 6_rs/133a.jpg","null","","","","","","test","TF",""
"","html-keyboard-response","248","436414","0.0-228.0-2.0","""event"",""trial"",""time""
""fullscreenenter"",""0"",""5665""
","
","
","""event"",""trial"",""time""
""fullscreenenter"",""0"",""5665""
","
","null","<p></p>","null","","","","","","","",""
"","image","249","437414","0.0-229.0-0.0","""event"",""trial"",""time""
""fullscreenenter"",""0"",""5665""
","
","
","""event"",""trial"",""time""
""fullscreenenter"",""0"",""5665""
","
","997.5","run_exp/static/images/Set 6_rs/025b.jpg","66","","","","","","test","TL","5"
"","show_choice","250","437917","0.0-229.0-1.0","""event"",""trial"",""time""
""fullscreenenter"",""0"",""5665""
","
","
","""event"",""trial"",""time""
""fullscreenenter"",""0"",""5665""
","
","null","run_exp/static/images/Set 6_rs/025b.jpg","null","","","","","","test","TL",""
"","html-keyboard-response","251","438419","0.0-229.0-2.0","""event"",""trial"",""time""
""fullscreenenter"",""0"",""5665""
","
","
","""event"",""trial"",""time""
""fullscreenenter"",""0"",""5665""
","
","null","<p></p>","null","","","","","","","",""
"","image","252","439603","0.0-230.0-0.0","""event"",""trial"",""time""
""fullscreenenter"",""0"",""5665""
","
","
","""event"",""trial"",""time""
""fullscreenenter"",""0"",""5665""
","
","1180.5999999999767","run_exp/static/images/Set 6_rs/028a.jpg","78","","","","","","test","TF","1"
"","show_choice","253","440106","0.0-230.0-1.0","""event"",""trial"",""time""
""fullscreenenter"",""0"",""5665""
","
","
","""event"",""trial"",""time""
""fullscreenenter"",""0"",""5665""
","
","null","run_exp/static/images/Set 6_rs/028a.jpg","null","","","","","","test","TF",""
"","html-keyboard-response","254","440608","0.0-230.0-2.0","""event"",""trial"",""time""
""fullscreenenter"",""0"",""5665""
","
","
","""event"",""trial"",""time""
""fullscreenenter"",""0"",""5665""
","
","null","<p></p>","null","","","","","","","",""
"","image","255","441326","0.0-231.0-0.0","""event"",""trial"",""time""
""fullscreenenter"",""0"",""5665""
","
","
","""event"",""trial"",""time""
""fullscreenenter"",""0"",""5665""
","
","714.9000000000233","run_exp/static/images/Set 6_rs/062b.jpg","86","","","","","","test","TL","1"
"","show_choice","256","441829","0.0-231.0-1.0","""event"",""trial"",""time""
""fullscreenenter"",""0"",""5665""
","
","
","""event"",""trial"",""time""
""fullscreenenter"",""0"",""5665""
","
","null","run_exp/static/images/Set 6_rs/062b.jpg","null","","","","","","test","TL",""
"","html-keyboard-response","257","442331","0.0-231.0-2.0","""event"",""trial"",""time""
""fullscreenenter"",""0"",""5665""
","
","
","""event"",""trial"",""time""
""fullscreenenter"",""0"",""5665""
","
","null","<p></p>","null","","","","","","","",""
"","image","258","443250","0.0-232.0-0.0","""event"",""trial"",""time""
""fullscreenenter"",""0"",""5665""
","
","
","""event"",""trial"",""time""
""fullscreenenter"",""0"",""5665""
","
","916","run_exp/static/images/Set 6_rs/008b.jpg","86","","","","","","test","TL","2"
"","show_choice","259","443753","0.0-232.0-1.0","""event"",""trial"",""time""
""fullscreenenter"",""0"",""5665""
","
","
","""event"",""trial"",""time""
""fullscreenenter"",""0"",""5665""
","
","null","run_exp/static/images/Set 6_rs/008b.jpg","null","","","","","","test","TL",""
"","html-keyboard-response","260","444256","0.0-232.0-2.0","""event"",""trial"",""time""
""fullscreenenter"",""0"",""5665""
","
","
","""event"",""trial"",""time""
""fullscreenenter"",""0"",""5665""
","
","null","<p></p>","null","","","","","","","",""
"","image","261","445008","0.0-233.0-0.0","""event"",""trial"",""time""
""fullscreenenter"",""0"",""5665""
","
","
","""event"",""trial"",""time""
""fullscreenenter"",""0"",""5665""
","
","749.2999999999302","run_exp/static/images/Set 6_rs/150a.jpg","86","","","","","","test","TR","1"
"","show_choice","262","445512","0.0-233.0-1.0","""event"",""trial"",""time""
""fullscreenenter"",""0"",""5665""
","
","
","""event"",""trial"",""time""
""fullscreenenter"",""0"",""5665""
","
","null","run_exp/static/images/Set 6_rs/150a.jpg","null","","","","","","test","TR",""
"","html-keyboard-response","263","446014","0.0-233.0-2.0","""event"",""trial"",""time""
""fullscreenenter"",""0"",""5665""
","
","
","""event"",""trial"",""time""
""fullscreenenter"",""0"",""5665""
","
","null","<p></p>","null","","","","","","","",""
"","image","264","446744","0.0-234.0-0.0","""event"",""trial"",""time""
""fullscreenenter"",""0"",""5665""
","
","
","""event"",""trial"",""time""
""fullscreenenter"",""0"",""5665""
","
","727.0999999999767","run_exp/static/images/Set 6_rs/121a.jpg","86","","","","","","test","TR","4"
"","show_choice","265","447247","0.0-234.0-1.0","""event"",""trial"",""time""
""fullscreenenter"",""0"",""5665""
","
","
","""event"",""trial"",""time""
""fullscreenenter"",""0"",""5665""
","
","null","run_exp/static/images/Set 6_rs/121a.jpg","null","","","","","","test","TR",""
"","html-keyboard-response","266","447749","0.0-234.0-2.0","""event"",""trial"",""time""
""fullscreenenter"",""0"",""5665""
","
","
","""event"",""trial"",""time""
""fullscreenenter"",""0"",""5665""
","
","null","<p></p>","null","","","","","","","",""
"","image","267","449032","0.0-235.0-0.0","""event"",""trial"",""time""
""fullscreenenter"",""0"",""5665""
","
","
","""event"",""trial"",""time""
""fullscreenenter"",""0"",""5665""
","
","1280","run_exp/static/images/Set 6_rs/154a.jpg","86","","","","","","test","TR","3"
"","show_choice","268","449535","0.0-235.0-1.0","""event"",""trial"",""time""
""fullscreenenter"",""0"",""5665""
","
","
","""event"",""trial"",""time""
""fullscreenenter"",""0"",""5665""
","
","null","run_exp/static/images/Set 6_rs/154a.jpg","null","","","","","","test","TR",""
"","html-keyboard-response","269","450037","0.0-235.0-2.0","""event"",""trial"",""time""
""fullscreenenter"",""0"",""5665""
","
","
","""event"",""trial"",""time""
""fullscreenenter"",""0"",""5665""
","
","null","<p></p>","null","","","","","","","",""
"","image","270","450858","0.0-236.0-0.0","""event"",""trial"",""time""
""fullscreenenter"",""0"",""5665""
","
","
","""event"",""trial"",""time""
""fullscreenenter"",""0"",""5665""
","
","818.0999999999767","run_exp/static/images/Set 6_rs/132a.jpg","86","","","","","","test","TR","5"
"","show_choice","271","451361","0.0-236.0-1.0","""event"",""trial"",""time""
""fullscreenenter"",""0"",""5665""
","
","
","""event"",""trial"",""time""
""fullscreenenter"",""0"",""5665""
","
","null","run_exp/static/images/Set 6_rs/132a.jpg","null","","","","","","test","TR",""
"","html-keyboard-response","272","451863","0.0-236.0-2.0","""event"",""trial"",""time""
""fullscreenenter"",""0"",""5665""
","
","
","""event"",""trial"",""time""
""fullscreenenter"",""0"",""5665""
","
","null","<p></p>","null","","","","","","","",""
"","image","273","453269","0.0-237.0-0.0","""event"",""trial"",""time""
""fullscreenenter"",""0"",""5665""
","
","
","""event"",""trial"",""time""
""fullscreenenter"",""0"",""5665""
","
","1402.3999999999069","run_exp/static/images/Set 6_rs/109a.jpg","66","","","","","","test","TF","5"
"","show_choice","274","453772","0.0-237.0-1.0","""event"",""trial"",""time""
""fullscreenenter"",""0"",""5665""
","
","
","""event"",""trial"",""time""
""fullscreenenter"",""0"",""5665""
","
","null","run_exp/static/images/Set 6_rs/109a.jpg","null","","","","","","test","TF",""
"","html-keyboard-response","275","454274","0.0-237.0-2.0","""event"",""trial"",""time""
""fullscreenenter"",""0"",""5665""
","
","
","""event"",""trial"",""time""
""fullscreenenter"",""0"",""5665""
","
","null","<p></p>","null","","","","","","","",""
"","image","276","455495","0.0-238.0-0.0","""event"",""trial"",""time""
""fullscreenenter"",""0"",""5665""
","
","
","""event"",""trial"",""time""
""fullscreenenter"",""0"",""5665""
","
","1217.5","run_exp/static/images/Set 6_rs/176a.jpg","78","","","","","","test","TF","4"
"","show_choice","277","455997","0.0-238.0-1.0","""event"",""trial"",""time""
""fullscreenenter"",""0"",""5665""
","
","
","""event"",""trial"",""time""
""fullscreenenter"",""0"",""5665""
","
","null","run_exp/static/images/Set 6_rs/176a.jpg","null","","","","","","test","TF",""
"","html-keyboard-response","278","456499","0.0-238.0-2.0","""event"",""trial"",""time""
""fullscreenenter"",""0"",""5665""
","
","
","""event"",""trial"",""time""
""fullscreenenter"",""0"",""5665""
","
","null","<p></p>","null","","","","","","","",""
"","image","279","457582","0.0-239.0-0.0","""event"",""trial"",""time""
""fullscreenenter"",""0"",""5665""
","
","
","""event"",""trial"",""time""
""fullscreenenter"",""0"",""5665""
","
","1079.7000000000698","run_exp/static/images/Set 6_rs/071b.jpg","66","","","","","","test","TL","4"
"","show_choice","280","458086","0.0-239.0-1.0","""event"",""trial"",""time""
""fullscreenenter"",""0"",""5665""
","
","
","""event"",""trial"",""time""
""fullscreenenter"",""0"",""5665""
","
","null","run_exp/static/images/Set 6_rs/071b.jpg","null","","","","","","test","TL",""
"","html-keyboard-response","281","458588","0.0-239.0-2.0","""event"",""trial"",""time""
""fullscreenenter"",""0"",""5665""
","
","
","""event"",""trial"",""time""
""fullscreenenter"",""0"",""5665""
","
","null","<p></p>","null","","","","","","","",""
"","image","282","459866","0.0-240.0-0.0","""event"",""trial"",""time""
""fullscreenenter"",""0"",""5665""
","
","
","""event"",""trial"",""time""
""fullscreenenter"",""0"",""5665""
","
","1274.4000000000233","run_exp/static/images/Set 6_rs/035a.jpg","66","","","","","","test","TF","4"
"","show_choice","283","460369","0.0-240.0-1.0","""event"",""trial"",""time""
""fullscreenenter"",""0"",""5665""
","
","
","""event"",""trial"",""time""
""fullscreenenter"",""0"",""5665""
","
","null","run_exp/static/images/Set 6_rs/035a.jpg","null","","","","","","test","TF",""
"","html-keyboard-response","284","460871","0.0-240.0-2.0","""event"",""trial"",""time""
""fullscreenenter"",""0"",""5665""
","
","
","""event"",""trial"",""time""
""fullscreenenter"",""0"",""5665""
","
","null","<p></p>","null","","","","","","","",""
"","image","285","462103","0.0-241.0-0.0","""event"",""trial"",""time""
""fullscreenenter"",""0"",""5665""
","
","
","""event"",""trial"",""time""
""fullscreenenter"",""0"",""5665""
","
","1229.2999999999302","run_exp/static/images/Set 6_rs/074b.jpg","66","","","","","","test","TL","4"
"","show_choice","286","462606","0.0-241.0-1.0","""event"",""trial"",""time""
""fullscreenenter"",""0"",""5665""
","
","
","""event"",""trial"",""time""
""fullscreenenter"",""0"",""5665""
","
","null","run_exp/static/images/Set 6_rs/074b.jpg","null","","","","","","test","TL",""
"","html-keyboard-response","287","463108","0.0-241.0-2.0","""event"",""trial"",""time""
""fullscreenenter"",""0"",""5665""
","
","
","""event"",""trial"",""time""
""fullscreenenter"",""0"",""5665""
","
","null","<p></p>","null","","","","","","","",""
"","image","288","464176","0.0-242.0-0.0","""event"",""trial"",""time""
""fullscreenenter"",""0"",""5665""
","
","
","""event"",""trial"",""time""
""fullscreenenter"",""0"",""5665""
","
","1065.1999999999534","run_exp/static/images/Set 6_rs/091b.jpg","66","","","","","","test","TL","3"
"","show_choice","289","464679","0.0-242.0-1.0","""event"",""trial"",""time""
""fullscreenenter"",""0"",""5665""
","
","
","""event"",""trial"",""time""
""fullscreenenter"",""0"",""5665""
","
","null","run_exp/static/images/Set 6_rs/091b.jpg","null","","","","","","test","TL",""
"","html-keyboard-response","290","465182","0.0-242.0-2.0","""event"",""trial"",""time""
""fullscreenenter"",""0"",""5665""
","
","
","""event"",""trial"",""time""
""fullscreenenter"",""0"",""5665""
","
","null","<p></p>","null","","","","","","","",""
"","image","291","466020","0.0-243.0-0.0","""event"",""trial"",""time""
""fullscreenenter"",""0"",""5665""
","
","
","""event"",""trial"",""time""
""fullscreenenter"",""0"",""5665""
","
","835.1999999999534","run_exp/static/images/Set 6_rs/131a.jpg","86","","","","","","test","TR","5"
"","show_choice","292","466523","0.0-243.0-1.0","""event"",""trial"",""time""
""fullscreenenter"",""0"",""5665""
","
","
","""event"",""trial"",""time""
""fullscreenenter"",""0"",""5665""
","
","null","run_exp/static/images/Set 6_rs/131a.jpg","null","","","","","","test","TR",""
"","html-keyboard-response","293","467025","0.0-243.0-2.0","""event"",""trial"",""time""
""fullscreenenter"",""0"",""5665""
","
","
","""event"",""trial"",""time""
""fullscreenenter"",""0"",""5665""
","
","null","<p></p>","null","","","","","","","",""
"","image","294","467956","0.0-244.0-0.0","""event"",""trial"",""time""
""fullscreenenter"",""0"",""5665""
","
","
","""event"",""trial"",""time""
""fullscreenenter"",""0"",""5665""
","
","927.5999999999767","run_exp/static/images/Set 6_rs/048a.jpg","78","","","","","","test","TF","4"
"","show_choice","295","468459","0.0-244.0-1.0","""event"",""trial"",""time""
""fullscreenenter"",""0"",""5665""
","
","
","""event"",""trial"",""time""
""fullscreenenter"",""0"",""5665""
","
","null","run_exp/static/images/Set 6_rs/048a.jpg","null","","","","","","test","TF",""
"","html-keyboard-response","296","468961","0.0-244.0-2.0","""event"",""trial"",""time""
""fullscreenenter"",""0"",""5665""
","
","
","""event"",""trial"",""time""
""fullscreenenter"",""0"",""5665""
","
","null","<p></p>","null","","","","","","","",""
"","image","297","469933","0.0-245.0-0.0","""event"",""trial"",""time""
""fullscreenenter"",""0"",""5665""
","
","
","""event"",""trial"",""time""
""fullscreenenter"",""0"",""5665""
","
","968.7999999999302","run_exp/static/images/Set 6_rs/021a.jpg","78","","","","","","test","TF","2"
"","show_choice","298","470436","0.0-245.0-1.0","""event"",""trial"",""time""
""fullscreenenter"",""0"",""5665""
","
","
","""event"",""trial"",""time""
""fullscreenenter"",""0"",""5665""
","
","null","run_exp/static/images/Set 6_rs/021a.jpg","null","","","","","","test","TF",""
"","html-keyboard-response","299","470938","0.0-245.0-2.0","""event"",""trial"",""time""
""fullscreenenter"",""0"",""5665""
","
","
","""event"",""trial"",""time""
""fullscreenenter"",""0"",""5665""
","
","null","<p></p>","null","","","","","","","",""
"","image","300","471944","0.0-246.0-0.0","""event"",""trial"",""time""
""fullscreenenter"",""0"",""5665""
","
","
","""event"",""trial"",""time""
""fullscreenenter"",""0"",""5665""
","
","1002.8000000000466","run_exp/static/images/Set 6_rs/047a.jpg","78","","","","","","test","TF","3"
"","show_choice","301","472447","0.0-246.0-1.0","""event"",""trial"",""time""
""fullscreenenter"",""0"",""5665""
","
","
","""event"",""trial"",""time""
""fullscreenenter"",""0"",""5665""
","
","null","run_exp/static/images/Set 6_rs/047a.jpg","null","","","","","","test","TF",""
"","html-keyboard-response","302","472949","0.0-246.0-2.0","""event"",""trial"",""time""
""fullscreenenter"",""0"",""5665""
","
","
","""event"",""trial"",""time""
""fullscreenenter"",""0"",""5665""
","
","null","<p></p>","null","","","","","","","",""
"","image","303","474340","0.0-247.0-0.0","""event"",""trial"",""time""
""fullscreenenter"",""0"",""5665""
","
","
","""event"",""trial"",""time""
""fullscreenenter"",""0"",""5665""
","
","1387.6000000000931","run_exp/static/images/Set 6_rs/171a.jpg","78","","","","","","test","TF","1"
"","show_choice","304","474844","0.0-247.0-1.0","""event"",""trial"",""time""
""fullscreenenter"",""0"",""5665""
","
","
","""event"",""trial"",""time""
""fullscreenenter"",""0"",""5665""
","
","null","run_exp/static/images/Set 6_rs/171a.jpg","null","","","","","","test","TF",""
"","html-keyboard-response","305","475346","0.0-247.0-2.0","""event"",""trial"",""time""
""fullscreenenter"",""0"",""5665""
","
","
","""event"",""trial"",""time""
""fullscreenenter"",""0"",""5665""
","
","null","<p></p>","null","","","","","","","",""
"","image","306","476319","0.0-248.0-0.0","""event"",""trial"",""time""
""fullscreenenter"",""0"",""5665""
","
","
","""event"",""trial"",""time""
""fullscreenenter"",""0"",""5665""
","
","970.3000000000466","run_exp/static/images/Set 6_rs/126a.jpg","86","","","","","","test","TR","2"
"","show_choice","307","476823","0.0-248.0-1.0","""event"",""trial"",""time""
""fullscreenenter"",""0"",""5665""
","
","
","""event"",""trial"",""time""
""fullscreenenter"",""0"",""5665""
","
","null","run_exp/static/images/Set 6_rs/126a.jpg","null","","","","","","test","TR",""
"","html-keyboard-response","308","477326","0.0-248.0-2.0","""event"",""trial"",""time""
""fullscreenenter"",""0"",""5665""
","
","
","""event"",""trial"",""time""
""fullscreenenter"",""0"",""5665""
","
","null","<p></p>","null","","","","","","","",""
"","image","309","478760","0.0-249.0-0.0","""event"",""trial"",""time""
""fullscreenenter"",""0"",""5665""
","
","
","""event"",""trial"",""time""
""fullscreenenter"",""0"",""5665""
","
","1429.2999999999302","run_exp/static/images/Set 6_rs/141a.jpg","86","","","","","","test","TR","2"
"","show_choice","310","479263","0.0-249.0-1.0","""event"",""trial"",""time""
""fullscreenenter"",""0"",""5665""
","
","
","""event"",""trial"",""time""
""fullscreenenter"",""0"",""5665""
","
","null","run_exp/static/images/Set 6_rs/141a.jpg","null","","","","","","test","TR",""
"","html-keyboard-response","311","479765","0.0-249.0-2.0","""event"",""trial"",""time""
""fullscreenenter"",""0"",""5665""
","
","
","""event"",""trial"",""time""
""fullscreenenter"",""0"",""5665""
","
","null","<p></p>","null","","","","","","","",""
"","image","312","480771","0.0-250.0-0.0","""event"",""trial"",""time""
""fullscreenenter"",""0"",""5665""
","
","
","""event"",""trial"",""time""
""fullscreenenter"",""0"",""5665""
","
","1002.5999999999767","run_exp/static/images/Set 6_rs/015a.jpg","78","","","","","","test","TF","4"
"","show_choice","313","481274","0.0-250.0-1.0","""event"",""trial"",""time""
""fullscreenenter"",""0"",""5665""
","
","
","""event"",""trial"",""time""
""fullscreenenter"",""0"",""5665""
","
","null","run_exp/static/images/Set 6_rs/015a.jpg","null","","","","","","test","TF",""
"","html-keyboard-response","314","481777","0.0-250.0-2.0","""event"",""trial"",""time""
""fullscreenenter"",""0"",""5665""
","
","
","""event"",""trial"",""time""
""fullscreenenter"",""0"",""5665""
","
","null","<p></p>","null","","","","","","","",""
"","image","315","482727","0.0-251.0-0.0","""event"",""trial"",""time""
""fullscreenenter"",""0"",""5665""
","
","
","""event"",""trial"",""time""
""fullscreenenter"",""0"",""5665""
","
","946.5","run_exp/static/images/Set 6_rs/001a.jpg","78","","","","","","test","TF","1"
"","show_choice","316","483230","0.0-251.0-1.0","""event"",""trial"",""time""
""fullscreenenter"",""0"",""5665""
","
","
","""event"",""trial"",""time""
""fullscreenenter"",""0"",""5665""
","
","null","run_exp/static/images/Set 6_rs/001a.jpg","null","","","","","","test","TF",""
"","html-keyboard-response","317","483733","0.0-251.0-2.0","""event"",""trial"",""time""
""fullscreenenter"",""0"",""5665""
","
","
","""event"",""trial"",""time""
""fullscreenenter"",""0"",""5665""
","
","null","<p></p>","null","","","","","","","",""
"","image","318","485724","0.0-252.0-0.0","""event"",""trial"",""time""
""fullscreenenter"",""0"",""5665""
","
","
","""event"",""trial"",""time""
""fullscreenenter"",""0"",""5665""
","
","1988.3000000000466","run_exp/static/images/Set 6_rs/191b.jpg","66","","","","","","test","TL","2"
"","show_choice","319","486227","0.0-252.0-1.0","""event"",""trial"",""time""
""fullscreenenter"",""0"",""5665""
","
","
","""event"",""trial"",""time""
""fullscreenenter"",""0"",""5665""
","
","null","run_exp/static/images/Set 6_rs/191b.jpg","null","","","","","","test","TL",""
"","html-keyboard-response","320","486729","0.0-252.0-2.0","""event"",""trial"",""time""
""fullscreenenter"",""0"",""5665""
","
","
","""event"",""trial"",""time""
""fullscreenenter"",""0"",""5665""
","
","null","<p></p>","null","","","","","","","",""
"","image","321","487602","0.0-253.0-0.0","""event"",""trial"",""time""
""fullscreenenter"",""0"",""5665""
","
","
","""event"",""trial"",""time""
""fullscreenenter"",""0"",""5665""
","
","869.6000000000931","run_exp/static/images/Set 6_rs/169a.jpg","86","","","","","","test","TR","4"
"","show_choice","322","488106","0.0-253.0-1.0","""event"",""trial"",""time""
""fullscreenenter"",""0"",""5665""
","
","
","""event"",""trial"",""time""
""fullscreenenter"",""0"",""5665""
","
","null","run_exp/static/images/Set 6_rs/169a.jpg","null","","","","","","test","TR",""
"","html-keyboard-response","323","488608","0.0-253.0-2.0","""event"",""trial"",""time""
""fullscreenenter"",""0"",""5665""
","
","
","""event"",""trial"",""time""
""fullscreenenter"",""0"",""5665""
","
","null","<p></p>","null","","","","","","","",""
"","image","324","489673","0.0-254.0-0.0","""event"",""trial"",""time""
""fullscreenenter"",""0"",""5665""
","
","
","""event"",""trial"",""time""
""fullscreenenter"",""0"",""5665""
","
","1061.4000000000233","run_exp/static/images/Set 6_rs/055b.jpg","66","","","","","","test","TL","4"
"","show_choice","325","490176","0.0-254.0-1.0","""event"",""trial"",""time""
""fullscreenenter"",""0"",""5665""
","
","
","""event"",""trial"",""time""
""fullscreenenter"",""0"",""5665""
","
","null","run_exp/static/images/Set 6_rs/055b.jpg","null","","","","","","test","TL",""
"","html-keyboard-response","326","490678","0.0-254.0-2.0","""event"",""trial"",""time""
""fullscreenenter"",""0"",""5665""
","
","
","""event"",""trial"",""time""
""fullscreenenter"",""0"",""5665""
","
","null","<p></p>","null","","","","","","","",""
"","image","327","491716","0.0-255.0-0.0","""event"",""trial"",""time""
""fullscreenenter"",""0"",""5665""
","
","
","""event"",""trial"",""time""
""fullscreenenter"",""0"",""5665""
","
","1034.3000000000466","run_exp/static/images/Set 6_rs/022a.jpg","78","","","","","","test","TF","4"
"","show_choice","328","492219","0.0-255.0-1.0","""event"",""trial"",""time""
""fullscreenenter"",""0"",""5665""
","
","
","""event"",""trial"",""time""
""fullscreenenter"",""0"",""5665""
","
","null","run_exp/static/images/Set 6_rs/022a.jpg","null","","","","","","test","TF",""
"","html-keyboard-response","329","492721","0.0-255.0-2.0","""event"",""trial"",""time""
""fullscreenenter"",""0"",""5665""
","
","
","""event"",""trial"",""time""
""fullscreenenter"",""0"",""5665""
","
","null","<p></p>","null","","","","","","","",""
"","image","330","493572","0.0-256.0-0.0","""event"",""trial"",""time""
""fullscreenenter"",""0"",""5665""
","
","
","""event"",""trial"",""time""
""fullscreenenter"",""0"",""5665""
","
","847.5999999999767","run_exp/static/images/Set 6_rs/006b.jpg","86","","","","","","test","TL","2"
"","show_choice","331","494075","0.0-256.0-1.0","""event"",""trial"",""time""
""fullscreenenter"",""0"",""5665""
","
","
","""event"",""trial"",""time""
""fullscreenenter"",""0"",""5665""
","
","null","run_exp/static/images/Set 6_rs/006b.jpg","null","","","","","","test","TL",""
"","html-keyboard-response","332","494577","0.0-256.0-2.0","""event"",""trial"",""time""
""fullscreenenter"",""0"",""5665""
","
","
","""event"",""trial"",""time""
""fullscreenenter"",""0"",""5665""
","
","null","<p></p>","null","","","","","","","",""
"","image","333","495556","0.0-257.0-0.0","""event"",""trial"",""time""
""fullscreenenter"",""0"",""5665""
","
","
","""event"",""trial"",""time""
""fullscreenenter"",""0"",""5665""
","
","975.0999999999767","run_exp/static/images/Set 6_rs/097a.jpg","78","","","","","","test","TF","5"
"","show_choice","334","496058","0.0-257.0-1.0","""event"",""trial"",""time""
""fullscreenenter"",""0"",""5665""
","
","
","""event"",""trial"",""time""
""fullscreenenter"",""0"",""5665""
","
","null","run_exp/static/images/Set 6_rs/097a.jpg","null","","","","","","test","TF",""
"","html-keyboard-response","335","496561","0.0-257.0-2.0","""event"",""trial"",""time""
""fullscreenenter"",""0"",""5665""
","
","
","""event"",""trial"",""time""
""fullscreenenter"",""0"",""5665""
","
","null","<p></p>","null","","","","","","","",""
"","image","336","497705","0.0-258.0-0.0","""event"",""trial"",""time""
""fullscreenenter"",""0"",""5665""
","
","
","""event"",""trial"",""time""
""fullscreenenter"",""0"",""5665""
","
","1141.0999999999767","run_exp/static/images/Set 6_rs/086a.jpg","78","","","","","","test","TF","1"
"","show_choice","337","498208","0.0-258.0-1.0","""event"",""trial"",""time""
""fullscreenenter"",""0"",""5665""
","
","
","""event"",""trial"",""time""
""fullscreenenter"",""0"",""5665""
","
","null","run_exp/static/images/Set 6_rs/086a.jpg","null","","","","","","test","TF",""
"","html-keyboard-response","338","498710","0.0-258.0-2.0","""event"",""trial"",""time""
""fullscreenenter"",""0"",""5665""
","
","
","""event"",""trial"",""time""
""fullscreenenter"",""0"",""5665""
","
","null","<p></p>","null","","","","","","","",""
"","image","339","499849","0.0-259.0-0.0","""event"",""trial"",""time""
""fullscreenenter"",""0"",""5665""
","
","
","""event"",""trial"",""time""
""fullscreenenter"",""0"",""5665""
","
","1135.3000000000466","run_exp/static/images/Set 6_rs/066b.jpg","66","","","","","","test","TL","5"
"","show_choice","340","500352","0.0-259.0-1.0","""event"",""trial"",""time""
""fullscreenenter"",""0"",""5665""
","
","
","""event"",""trial"",""time""
""fullscreenenter"",""0"",""5665""
","
","null","run_exp/static/images/Set 6_rs/066b.jpg","null","","","","","","test","TL",""
"","html-keyboard-response","341","500854","0.0-259.0-2.0","""event"",""trial"",""time""
