"success","trial_type","trial_index","time_elapsed","internal_node_id","interactions","blur_events","focus_events","fullscreenenter_events","fullscreenexit_events","rt","stimulus","key_press","subject_id","participant_id","age","gender","prompt","phase","condition","lure_bin"
"true","fullscreen","0","3930","0.0-0.0","""event"",""trial"",""time""
""fullscreenenter"",""0"",""2941""
","
","
","""event"",""trial"",""time""
""fullscreenenter"",""0"",""2941""
","
","","","","","","","","","","",""
"","pavlovia","1","3933","0.0-1.0","""event"",""trial"",""time""
""fullscreenenter"",""0"",""2941""
","
","
","""event"",""trial"",""time""
""fullscreenenter"",""0"",""2941""
","
","","","","","","","","","","",""
"","welcome","2","38725","0.0-2.0","""event"",""trial"",""time""
""fullscreenenter"",""0"",""2941""
","
","
","""event"",""trial"",""time""
""fullscreenenter"",""0"",""2941""
","
","null","run_exp/static/audio/clip_1_welcome.m4a","null","1564","1692","19","Male","<div class='center'><p>Welcome to the third part of the study! First, you'll be shown pictures of items one at a time. For each picture, you have to decide if the item is typically found indoors or outdoors.</p><p>If you think it's usually found indoors, then press <b>v</b> key on your keyboard. If you think it's usually found outdoors, then press the <b>n</b> key.There will be reminders on the screen to help you remember which keys to press. </p><p>If you're not sure whether the item is an indoor item or an outdoor item, go ahead and take a guess but try your best not to skip that choice. </p></div>","","",""
"","html-keyboard-response","3","39489","0.0-3.0","""event"",""trial"",""time""
""fullscreenenter"",""0"",""2941""
","
","
","""event"",""trial"",""time""
""fullscreenenter"",""0"",""2941""
","
","763.2000000476837","<div class='center'><p>Welcome to the third part of the study! First, you'll be shown pictures of items one at a time. For each picture, you have to decide if the item is typically found indoors or outdoors.</p><p>If you think it's usually found indoors, then press <b>v</b> key on your keyboard. If you think it's usually found outdoors, then press the <b>n</b> key.There will be reminders on the screen to help you remember which keys to press. </p><p>If you're not sure whether the item is an indoor item or an outdoor item, go ahead and take a guess but try your best not to skip that choice. </p><div><p><b>[Press the space bar to continue]</b></p></div>","32","","","","","","","",""
"","image","4","41503","0.0-4.0","""event"",""trial"",""time""
""fullscreenenter"",""0"",""2941""
","
","
","""event"",""trial"",""time""
""fullscreenenter"",""0"",""2941""
","
","null","run_exp/static/images/Set 6_rs/168a.jpg","null","","","","","","learn","SL",""
"","show_choice","5","43517","0.0-5.0","""event"",""trial"",""time""
""fullscreenenter"",""0"",""2941""
","
","
","""event"",""trial"",""time""
""fullscreenenter"",""0"",""2941""
","
","null","run_exp/static/images/blank.png","null","","","","","","learn","SL",""
"","html-keyboard-response","6","44025","0.0-6.0","""event"",""trial"",""time""
""fullscreenenter"",""0"",""2941""
","
","
","""event"",""trial"",""time""
""fullscreenenter"",""0"",""2941""
","
","null","<p></p>","null","","","","","","","",""
"","image","7","44730","0.0-7.0","""event"",""trial"",""time""
""fullscreenenter"",""0"",""2941""
","
","
","""event"",""trial"",""time""
""fullscreenenter"",""0"",""2941""
","
","704","run_exp/static/images/Set 6_rs/016a.jpg","86","","","","","","learn","SL",""
"","show_choice","8","46041","0.0-8.0","""event"",""trial"",""time""
""fullscreenenter"",""0"",""2941""
","
","
","""event"",""trial"",""time""
""fullscreenenter"",""0"",""2941""
","
","null","run_exp/static/images/Set 6_rs/016a.jpg","null","","","","","","learn","SL",""
"","html-keyboard-response","9","46555","0.0-9.0","""event"",""trial"",""time""
""fullscreenenter"",""0"",""2941""
","
","
","""event"",""trial"",""time""
""fullscreenenter"",""0"",""2941""
","
","null","<p></p>","null","","","","","","","",""
"","image","10","47330","0.0-10.0","""event"",""trial"",""time""
""fullscreenenter"",""0"",""2941""
","
","
","""event"",""trial"",""time""
""fullscreenenter"",""0"",""2941""
","
","774.2999999523163","run_exp/static/images/Set 6_rs/088a.jpg","86","","","","","","learn","SR",""
"","show_choice","11","48561","0.0-11.0","""event"",""trial"",""time""
""fullscreenenter"",""0"",""2941""
","
","
","""event"",""trial"",""time""
""fullscreenenter"",""0"",""2941""
","
","null","run_exp/static/images/Set 6_rs/088a.jpg","null","","","","","","learn","SR",""
"","html-keyboard-response","12","49075","0.0-12.0","""event"",""trial"",""time""
""fullscreenenter"",""0"",""2941""
","
","
","""event"",""trial"",""time""
""fullscreenenter"",""0"",""2941""
","
","null","<p></p>","null","","","","","","","",""
"","image","13","50028","0.0-13.0","""event"",""trial"",""time""
""fullscreenenter"",""0"",""2941""
","
","
","""event"",""trial"",""time""
""fullscreenenter"",""0"",""2941""
","
","952.0999999046326","run_exp/static/images/Set 6_rs/166a.jpg","86","","","","","","learn","SR",""
"","show_choice","14","51092","0.0-14.0","""event"",""trial"",""time""
""fullscreenenter"",""0"",""2941""
","
","
","""event"",""trial"",""time""
""fullscreenenter"",""0"",""2941""
","
","null","run_exp/static/images/Set 6_rs/166a.jpg","null","","","","","","learn","SR",""
"","html-keyboard-response","15","51600","0.0-15.0","""event"",""trial"",""time""
""fullscreenenter"",""0"",""2941""
","
","
","""event"",""trial"",""time""
""fullscreenenter"",""0"",""2941""
","
","null","<p></p>","null","","","","","","","",""
"","image","16","52674","0.0-16.0","""event"",""trial"",""time""
""fullscreenenter"",""0"",""2941""
","
","
","""event"",""trial"",""time""
""fullscreenenter"",""0"",""2941""
","
","1073.9000000953674","run_exp/static/images/Set 6_rs/116a.jpg","86","","","","","","learn","SL",""
"","show_choice","17","53614","0.0-17.0","""event"",""trial"",""time""
""fullscreenenter"",""0"",""2941""
","
","
","""event"",""trial"",""time""
""fullscreenenter"",""0"",""2941""
","
","null","run_exp/static/images/Set 6_rs/116a.jpg","null","","","","","","learn","SL",""
"","html-keyboard-response","18","54120","0.0-18.0","""event"",""trial"",""time""
""fullscreenenter"",""0"",""2941""
","
","
","""event"",""trial"",""time""
""fullscreenenter"",""0"",""2941""
","
","null","<p></p>","null","","","","","","","",""
"","image","19","55227","0.0-19.0","""event"",""trial"",""time""
""fullscreenenter"",""0"",""2941""
","
","
","""event"",""trial"",""time""
""fullscreenenter"",""0"",""2941""
","
","1106.0999999046326","run_exp/static/images/Set 6_rs/152a.jpg","78","","","","","","learn","SR",""
"","show_choice","20","56126","0.0-20.0","""event"",""trial"",""time""
""fullscreenenter"",""0"",""2941""
","
","
","""event"",""trial"",""time""
""fullscreenenter"",""0"",""2941""
","
","null","run_exp/static/images/Set 6_rs/152a.jpg","null","","","","","","learn","SR",""
"","html-keyboard-response","21","56638","0.0-21.0","""event"",""trial"",""time""
""fullscreenenter"",""0"",""2941""
","
","
","""event"",""trial"",""time""
""fullscreenenter"",""0"",""2941""
","
","null","<p></p>","null","","","","","","","",""
"","image","22","57780","0.0-22.0","""event"",""trial"",""time""
""fullscreenenter"",""0"",""2941""
","
","
","""event"",""trial"",""time""
""fullscreenenter"",""0"",""2941""
","
","1140.7999999523163","run_exp/static/images/Set 6_rs/036a.jpg","86","","","","","","learn","SL",""
"","show_choice","23","58648","0.0-23.0","""event"",""trial"",""time""
""fullscreenenter"",""0"",""2941""
","
","
","""event"",""trial"",""time""
""fullscreenenter"",""0"",""2941""
","
","null","run_exp/static/images/Set 6_rs/036a.jpg","null","","","","","","learn","SL",""
"","html-keyboard-response","24","59154","0.0-24.0","""event"",""trial"",""time""
""fullscreenenter"",""0"",""2941""
","
","
","""event"",""trial"",""time""
""fullscreenenter"",""0"",""2941""
","
","null","<p></p>","null","","","","","","","",""
"","image","25","60236","0.0-25.0","""event"",""trial"",""time""
""fullscreenenter"",""0"",""2941""
","
","
","""event"",""trial"",""time""
""fullscreenenter"",""0"",""2941""
","
","1081.0999999046326","run_exp/static/images/Set 6_rs/117a.jpg","86","","","","","","learn","SL",""
"","show_choice","26","61157","0.0-26.0","""event"",""trial"",""time""
""fullscreenenter"",""0"",""2941""
","
","
","""event"",""trial"",""time""
""fullscreenenter"",""0"",""2941""
","
","null","run_exp/static/images/Set 6_rs/117a.jpg","null","","","","","","learn","SL",""
"","html-keyboard-response","27","61665","0.0-27.0","""event"",""trial"",""time""
""fullscreenenter"",""0"",""2941""
","
","
","""event"",""trial"",""time""
""fullscreenenter"",""0"",""2941""
","
","null","<p></p>","null","","","","","","","",""
"","image","28","63036","0.0-28.0","""event"",""trial"",""time""
""fullscreenenter"",""0"",""2941""
","
","
","""event"",""trial"",""time""
""fullscreenenter"",""0"",""2941""
","
","1370.5999999046326","run_exp/static/images/Set 6_rs/178a.jpg","78","","","","","","learn","SR",""
"","show_choice","29","63671","0.0-29.0","""event"",""trial"",""time""
""fullscreenenter"",""0"",""2941""
","
","
","""event"",""trial"",""time""
""fullscreenenter"",""0"",""2941""
","
","null","run_exp/static/images/Set 6_rs/178a.jpg","null","","","","","","learn","SR",""
"","html-keyboard-response","30","64172","0.0-30.0","""event"",""trial"",""time""
""fullscreenenter"",""0"",""2941""
","
","
","""event"",""trial"",""time""
""fullscreenenter"",""0"",""2941""
","
","null","<p></p>","null","","","","","","","",""
"","image","31","65308","0.0-31.0","""event"",""trial"",""time""
""fullscreenenter"",""0"",""2941""
","
","
","""event"",""trial"",""time""
""fullscreenenter"",""0"",""2941""
","
","1135.4000000953674","run_exp/static/images/Set 6_rs/154a.jpg","86","","","","","","learn","SR",""
"","show_choice","32","66188","0.0-32.0","""event"",""trial"",""time""
""fullscreenenter"",""0"",""2941""
","
","
","""event"",""trial"",""time""
""fullscreenenter"",""0"",""2941""
","
","null","run_exp/static/images/Set 6_rs/154a.jpg","null","","","","","","learn","SR",""
"","html-keyboard-response","33","66692","0.0-33.0","""event"",""trial"",""time""
""fullscreenenter"",""0"",""2941""
","
","
","""event"",""trial"",""time""
""fullscreenenter"",""0"",""2941""
","
","null","<p></p>","null","","","","","","","",""
"","image","34","67524","0.0-34.0","""event"",""trial"",""time""
""fullscreenenter"",""0"",""2941""
","
","
","""event"",""trial"",""time""
""fullscreenenter"",""0"",""2941""
","
","830.8999998569489","run_exp/static/images/Set 6_rs/019a.jpg","86","","","","","","learn","SL",""
"","show_choice","35","68699","0.0-35.0","""event"",""trial"",""time""
""fullscreenenter"",""0"",""2941""
","
","
","""event"",""trial"",""time""
""fullscreenenter"",""0"",""2941""
","
","null","run_exp/static/images/Set 6_rs/019a.jpg","null","","","","","","learn","SL",""
"","html-keyboard-response","36","69206","0.0-36.0","""event"",""trial"",""time""
""fullscreenenter"",""0"",""2941""
","
","
","""event"",""trial"",""time""
""fullscreenenter"",""0"",""2941""
","
","null","<p></p>","null","","","","","","","",""
"","image","37","70020","0.0-37.0","""event"",""trial"",""time""
""fullscreenenter"",""0"",""2941""
","
","
","""event"",""trial"",""time""
""fullscreenenter"",""0"",""2941""
","
","813.5","run_exp/static/images/Set 6_rs/186a.jpg","86","","","","","","learn","SR",""
"","show_choice","38","71218","0.0-38.0","""event"",""trial"",""time""
""fullscreenenter"",""0"",""2941""
","
","
","""event"",""trial"",""time""
""fullscreenenter"",""0"",""2941""
","
","null","run_exp/static/images/Set 6_rs/186a.jpg","null","","","","","","learn","SR",""
"","html-keyboard-response","39","71728","0.0-39.0","""event"",""trial"",""time""
""fullscreenenter"",""0"",""2941""
","
","
","""event"",""trial"",""time""
""fullscreenenter"",""0"",""2941""
","
","null","<p></p>","null","","","","","","","",""
"","image","40","72516","0.0-40.0","""event"",""trial"",""time""
""fullscreenenter"",""0"",""2941""
","
","
","""event"",""trial"",""time""
""fullscreenenter"",""0"",""2941""
","
","787.5","run_exp/static/images/Set 6_rs/073a.jpg","86","","","","","","learn","SL",""
"","show_choice","41","73742","0.0-41.0","""event"",""trial"",""time""
""fullscreenenter"",""0"",""2941""
","
","
","""event"",""trial"",""time""
""fullscreenenter"",""0"",""2941""
","
","null","run_exp/static/images/Set 6_rs/073a.jpg","null","","","","","","learn","SL",""
"","html-keyboard-response","42","74250","0.0-42.0","""event"",""trial"",""time""
""fullscreenenter"",""0"",""2941""
","
","
","""event"",""trial"",""time""
""fullscreenenter"",""0"",""2941""
","
","null","<p></p>","null","","","","","","","",""
"","image","43","75468","0.0-43.0","""event"",""trial"",""time""
""fullscreenenter"",""0"",""2941""
","
","
","""event"",""trial"",""time""
""fullscreenenter"",""0"",""2941""
","
","1217.5999999046326","run_exp/static/images/Set 6_rs/167a.jpg","86","","","","","","learn","SL",""
"","show_choice","44","76263","0.0-44.0","""event"",""trial"",""time""
""fullscreenenter"",""0"",""2941""
","
","
","""event"",""trial"",""time""
""fullscreenenter"",""0"",""2941""
","
","null","run_exp/static/images/Set 6_rs/167a.jpg","null","","","","","","learn","SL",""
"","html-keyboard-response","45","76771","0.0-45.0","""event"",""trial"",""time""
""fullscreenenter"",""0"",""2941""
","
","
","""event"",""trial"",""time""
""fullscreenenter"",""0"",""2941""
","
","null","<p></p>","null","","","","","","","",""
"","image","46","77549","0.0-46.0","""event"",""trial"",""time""
""fullscreenenter"",""0"",""2941""
","
","
","""event"",""trial"",""time""
""fullscreenenter"",""0"",""2941""
","
","777.2999999523163","run_exp/static/images/Set 6_rs/055a.jpg","86","","","","","","learn","SL",""
"","show_choice","47","78774","0.0-47.0","""event"",""trial"",""time""
""fullscreenenter"",""0"",""2941""
","
","
","""event"",""trial"",""time""
""fullscreenenter"",""0"",""2941""
","
","null","run_exp/static/images/Set 6_rs/055a.jpg","null","","","","","","learn","SL",""
"","html-keyboard-response","48","79282","0.0-48.0","""event"",""trial"",""time""
""fullscreenenter"",""0"",""2941""
","
","
","""event"",""trial"",""time""
""fullscreenenter"",""0"",""2941""
","
","null","<p></p>","null","","","","","","","",""
"","image","49","80381","0.0-49.0","""event"",""trial"",""time""
""fullscreenenter"",""0"",""2941""
","
","
","""event"",""trial"",""time""
""fullscreenenter"",""0"",""2941""
","
","1098.8000001907349","run_exp/static/images/Set 6_rs/075a.jpg","86","","","","","","learn","SR",""
"","show_choice","50","81298","0.0-50.0","""event"",""trial"",""time""
""fullscreenenter"",""0"",""2941""
","
","
","""event"",""trial"",""time""
""fullscreenenter"",""0"",""2941""
","
","null","run_exp/static/images/Set 6_rs/075a.jpg","null","","","","","","learn","SR",""
"","html-keyboard-response","51","81807","0.0-51.0","""event"",""trial"",""time""
""fullscreenenter"",""0"",""2941""
","
","
","""event"",""trial"",""time""
""fullscreenenter"",""0"",""2941""
","
","null","<p></p>","null","","","","","","","",""
"","image","52","82822","0.0-52.0","""event"",""trial"",""time""
""fullscreenenter"",""0"",""2941""
","
","
","""event"",""trial"",""time""
""fullscreenenter"",""0"",""2941""
","
","1014.5","run_exp/static/images/Set 6_rs/066a.jpg","86","","","","","","learn","SL",""
"","show_choice","53","83811","0.0-53.0","""event"",""trial"",""time""
""fullscreenenter"",""0"",""2941""
","
","
","""event"",""trial"",""time""
""fullscreenenter"",""0"",""2941""
","
","null","run_exp/static/images/Set 6_rs/066a.jpg","null","","","","","","learn","SL",""
"","html-keyboard-response","54","84319","0.0-54.0","""event"",""trial"",""time""
""fullscreenenter"",""0"",""2941""
","
","
","""event"",""trial"",""time""
""fullscreenenter"",""0"",""2941""
","
","null","<p></p>","null","","","","","","","",""
"","image","55","85392","0.0-55.0","""event"",""trial"",""time""
""fullscreenenter"",""0"",""2941""
","
","
","""event"",""trial"",""time""
""fullscreenenter"",""0"",""2941""
","
","1072.2000000476837","run_exp/static/images/Set 6_rs/144a.jpg","86","","","","","","learn","SL",""
"","show_choice","56","86334","0.0-56.0","""event"",""trial"",""time""
""fullscreenenter"",""0"",""2941""
","
","
","""event"",""trial"",""time""
""fullscreenenter"",""0"",""2941""
","
","null","run_exp/static/images/Set 6_rs/144a.jpg","null","","","","","","learn","SL",""
"","html-keyboard-response","57","86842","0.0-57.0","""event"",""trial"",""time""
""fullscreenenter"",""0"",""2941""
","
","
","""event"",""trial"",""time""
""fullscreenenter"",""0"",""2941""
","
","null","<p></p>","null","","","","","","","",""
"","image","58","87950","0.0-58.0","""event"",""trial"",""time""
""fullscreenenter"",""0"",""2941""
","
","
","""event"",""trial"",""time""
""fullscreenenter"",""0"",""2941""
","
","1108","run_exp/static/images/Set 6_rs/061a.jpg","78","","","","","","learn","SR",""
"","show_choice","59","88845","0.0-59.0","""event"",""trial"",""time""
""fullscreenenter"",""0"",""2941""
","
","
","""event"",""trial"",""time""
""fullscreenenter"",""0"",""2941""
","
","null","run_exp/static/images/Set 6_rs/061a.jpg","null","","","","","","learn","SR",""
"","html-keyboard-response","60","89352","0.0-60.0","""event"",""trial"",""time""
""fullscreenenter"",""0"",""2941""
","
","
","""event"",""trial"",""time""
""fullscreenenter"",""0"",""2941""
","
","null","<p></p>","null","","","","","","","",""
"","image","61","90008","0.0-61.0","""event"",""trial"",""time""
""fullscreenenter"",""0"",""2941""
","
","
","""event"",""trial"",""time""
""fullscreenenter"",""0"",""2941""
","
","655.8999998569489","run_exp/static/images/Set 6_rs/007a.jpg","86","","","","","","learn","SR",""
"","show_choice","62","91358","0.0-62.0","""event"",""trial"",""time""
""fullscreenenter"",""0"",""2941""
","
","
","""event"",""trial"",""time""
""fullscreenenter"",""0"",""2941""
","
","null","run_exp/static/images/Set 6_rs/007a.jpg","null","","","","","","learn","SR",""
"","html-keyboard-response","63","91871","0.0-63.0","""event"",""trial"",""time""
""fullscreenenter"",""0"",""2941""
","
","
","""event"",""trial"",""time""
""fullscreenenter"",""0"",""2941""
","
","null","<p></p>","null","","","","","","","",""
"","image","64","93135","0.0-64.0","""event"",""trial"",""time""
""fullscreenenter"",""0"",""2941""
","
","
","""event"",""trial"",""time""
""fullscreenenter"",""0"",""2941""
","
","1263.9000000953674","run_exp/static/images/Set 6_rs/012a.jpg","86","","","","","","learn","SR",""
"","show_choice","65","93886","0.0-65.0","""event"",""trial"",""time""
""fullscreenenter"",""0"",""2941""
","
","
","""event"",""trial"",""time""
""fullscreenenter"",""0"",""2941""
","
","null","run_exp/static/images/Set 6_rs/012a.jpg","null","","","","","","learn","SR",""
"","html-keyboard-response","66","94395","0.0-66.0","""event"",""trial"",""time""
""fullscreenenter"",""0"",""2941""
","
","
","""event"",""trial"",""time""
""fullscreenenter"",""0"",""2941""
","
","null","<p></p>","null","","","","","","","",""
"","image","67","95439","0.0-67.0","""event"",""trial"",""time""
""fullscreenenter"",""0"",""2941""
","
","
","""event"",""trial"",""time""
""fullscreenenter"",""0"",""2941""
","
","1043.4000000953674","run_exp/static/images/Set 6_rs/074a.jpg","78","","","","","","learn","SL",""
"","show_choice","68","96408","0.0-68.0","""event"",""trial"",""time""
""fullscreenenter"",""0"",""2941""
","
","
","""event"",""trial"",""time""
""fullscreenenter"",""0"",""2941""
","
","null","run_exp/static/images/Set 6_rs/074a.jpg","null","","","","","","learn","SL",""
"","html-keyboard-response","69","96918","0.0-69.0","""event"",""trial"",""time""
""fullscreenenter"",""0"",""2941""
","
","
","""event"",""trial"",""time""
""fullscreenenter"",""0"",""2941""
","
","null","<p></p>","null","","","","","","","",""
"","image","70","97976","0.0-70.0","""event"",""trial"",""time""
""fullscreenenter"",""0"",""2941""
","
","
","""event"",""trial"",""time""
""fullscreenenter"",""0"",""2941""
","
","1057.5999999046326","run_exp/static/images/Set 6_rs/008a.jpg","78","","","","","","learn","SL",""
"","show_choice","71","98920","0.0-71.0","""event"",""trial"",""time""
""fullscreenenter"",""0"",""2941""
","
","
","""event"",""trial"",""time""
""fullscreenenter"",""0"",""2941""
","
","null","run_exp/static/images/Set 6_rs/008a.jpg","null","","","","","","learn","SL",""
"","html-keyboard-response","72","99426","0.0-72.0","""event"",""trial"",""time""
""fullscreenenter"",""0"",""2941""
","
","
","""event"",""trial"",""time""
""fullscreenenter"",""0"",""2941""
","
","null","<p></p>","null","","","","","","","",""
"","image","73","100231","0.0-73.0","""event"",""trial"",""time""
""fullscreenenter"",""0"",""2941""
","
","
","""event"",""trial"",""time""
""fullscreenenter"",""0"",""2941""
","
","804.7000000476837","run_exp/static/images/Set 6_rs/112a.jpg","86","","","","","","learn","SR",""
"","show_choice","74","101436","0.0-74.0","""event"",""trial"",""time""
""fullscreenenter"",""0"",""2941""
","
","
","""event"",""trial"",""time""
""fullscreenenter"",""0"",""2941""
","
","null","run_exp/static/images/Set 6_rs/112a.jpg","null","","","","","","learn","SR",""
"","html-keyboard-response","75","101943","0.0-75.0","""event"",""trial"",""time""
""fullscreenenter"",""0"",""2941""
","
","
","""event"",""trial"",""time""
""fullscreenenter"",""0"",""2941""
","
","null","<p></p>","null","","","","","","","",""
"","image","76","102665","0.0-76.0","""event"",""trial"",""time""
""fullscreenenter"",""0"",""2941""
","
","
","""event"",""trial"",""time""
""fullscreenenter"",""0"",""2941""
","
","721.6999998092651","run_exp/static/images/Set 6_rs/023a.jpg","86","","","","","","learn","SR",""
"","show_choice","77","103947","0.0-77.0","""event"",""trial"",""time""
""fullscreenenter"",""0"",""2941""
","
","
","""event"",""trial"",""time""
""fullscreenenter"",""0"",""2941""
","
","null","run_exp/static/images/Set 6_rs/023a.jpg","null","","","","","","learn","SR",""
"","html-keyboard-response","78","104452","0.0-78.0","""event"",""trial"",""time""
""fullscreenenter"",""0"",""2941""
","
","
","""event"",""trial"",""time""
""fullscreenenter"",""0"",""2941""
","
","null","<p></p>","null","","","","","","","",""
"","image","79","105560","0.0-79.0","""event"",""trial"",""time""
""fullscreenenter"",""0"",""2941""
","
","
","""event"",""trial"",""time""
""fullscreenenter"",""0"",""2941""
","
","1108.1000001430511","run_exp/static/images/Set 6_rs/181a.jpg","78","","","","","","learn","SL",""
"","show_choice","80","106467","0.0-80.0","""event"",""trial"",""time""
""fullscreenenter"",""0"",""2941""
","
","
","""event"",""trial"",""time""
""fullscreenenter"",""0"",""2941""
","
","null","run_exp/static/images/Set 6_rs/181a.jpg","null","","","","","","learn","SL",""
"","html-keyboard-response","81","106974","0.0-81.0","""event"",""trial"",""time""
""fullscreenenter"",""0"",""2941""
","
","
","""event"",""trial"",""time""
""fullscreenenter"",""0"",""2941""
","
","null","<p></p>","null","","","","","","","",""
"","image","82","108184","0.0-82.0","""event"",""trial"",""time""
""fullscreenenter"",""0"",""2941""
","
","
","""event"",""trial"",""time""
""fullscreenenter"",""0"",""2941""
","
","1209.8999998569489","run_exp/static/images/Set 6_rs/134a.jpg","86","","","","","","learn","SR",""
"","show_choice","83","108975","0.0-83.0","""event"",""trial"",""time""
""fullscreenenter"",""0"",""2941""
","
","
","""event"",""trial"",""time""
""fullscreenenter"",""0"",""2941""
","
","null","run_exp/static/images/Set 6_rs/134a.jpg","null","","","","","","learn","SR",""
"","html-keyboard-response","84","109479","0.0-84.0","""event"",""trial"",""time""
""fullscreenenter"",""0"",""2941""
","
","
","""event"",""trial"",""time""
""fullscreenenter"",""0"",""2941""
","
","null","<p></p>","null","","","","","","","",""
"","image","85","110568","0.0-85.0","""event"",""trial"",""time""
""fullscreenenter"",""0"",""2941""
","
","
","""event"",""trial"",""time""
""fullscreenenter"",""0"",""2941""
","
","1089","run_exp/static/images/Set 6_rs/025a.jpg","78","","","","","","learn","SL",""
"","show_choice","86","111492","0.0-86.0","""event"",""trial"",""time""
""fullscreenenter"",""0"",""2941""
","
","
","""event"",""trial"",""time""
""fullscreenenter"",""0"",""2941""
","
","null","run_exp/static/images/Set 6_rs/025a.jpg","null","","","","","","learn","SL",""
"","html-keyboard-response","87","111993","0.0-87.0","""event"",""trial"",""time""
""fullscreenenter"",""0"",""2941""
","
","
","""event"",""trial"",""time""
""fullscreenenter"",""0"",""2941""
","
","null","<p></p>","null","","","","","","","",""
"","image","88","113009","0.0-88.0","""event"",""trial"",""time""
""fullscreenenter"",""0"",""2941""
","
","
","""event"",""trial"",""time""
""fullscreenenter"",""0"",""2941""
","
","1015.4000000953674","run_exp/static/images/Set 6_rs/095a.jpg","86","","","","","","learn","SL",""
"","show_choice","89","113994","0.0-89.0","""event"",""trial"",""time""
""fullscreenenter"",""0"",""2941""
","
","
","""event"",""trial"",""time""
""fullscreenenter"",""0"",""2941""
","
","null","run_exp/static/images/Set 6_rs/095a.jpg","null","","","","","","learn","SL",""
"","html-keyboard-response","90","114498","0.0-90.0","""event"",""trial"",""time""
""fullscreenenter"",""0"",""2941""
","
","
","""event"",""trial"",""time""
""fullscreenenter"",""0"",""2941""
","
","null","<p></p>","null","","","","","","","",""
"","image","91","115578","0.0-91.0","""event"",""trial"",""time""
""fullscreenenter"",""0"",""2941""
","
","
","""event"",""trial"",""time""
""fullscreenenter"",""0"",""2941""
","
","1079.7000000476837","run_exp/static/images/Set 6_rs/063a.jpg","86","","","","","","learn","SR",""
"","show_choice","92","116508","0.0-92.0","""event"",""trial"",""time""
""fullscreenenter"",""0"",""2941""
","
","
","""event"",""trial"",""time""
""fullscreenenter"",""0"",""2941""
","
","null","run_exp/static/images/Set 6_rs/063a.jpg","null","","","","","","learn","SR",""
"","html-keyboard-response","93","117014","0.0-93.0","""event"",""trial"",""time""
""fullscreenenter"",""0"",""2941""
","
","
","""event"",""trial"",""time""
""fullscreenenter"",""0"",""2941""
","
","null","<p></p>","null","","","","","","","",""
"","image","94","118249","0.0-94.0","""event"",""trial"",""time""
""fullscreenenter"",""0"",""2941""
","
","
","""event"",""trial"",""time""
""fullscreenenter"",""0"",""2941""
","
","1234.5999999046326","run_exp/static/images/Set 6_rs/024a.jpg","86","","","","","","learn","SR",""
"","show_choice","95","119020","0.0-95.0","""event"",""trial"",""time""
""fullscreenenter"",""0"",""2941""
","
","
","""event"",""trial"",""time""
""fullscreenenter"",""0"",""2941""
","
","null","run_exp/static/images/Set 6_rs/024a.jpg","null","","","","","","learn","SR",""
"","html-keyboard-response","96","119528","0.0-96.0","""event"",""trial"",""time""
""fullscreenenter"",""0"",""2941""
","
","
","""event"",""trial"",""time""
""fullscreenenter"",""0"",""2941""
","
","null","<p></p>","null","","","","","","","",""
"","image","97","120465","0.0-97.0","""event"",""trial"",""time""
""fullscreenenter"",""0"",""2941""
","
","
","""event"",""trial"",""time""
""fullscreenenter"",""0"",""2941""
","
","936.3999998569489","run_exp/static/images/Set 6_rs/071a.jpg","78","","","","","","learn","SL",""
"","show_choice","98","121540","0.0-98.0","""event"",""trial"",""time""
""fullscreenenter"",""0"",""2941""
","
","
","""event"",""trial"",""time""
""fullscreenenter"",""0"",""2941""
","
","null","run_exp/static/images/Set 6_rs/071a.jpg","null","","","","","","learn","SL",""
"","html-keyboard-response","99","122052","0.0-99.0","""event"",""trial"",""time""
""fullscreenenter"",""0"",""2941""
","
","
","""event"",""trial"",""time""
""fullscreenenter"",""0"",""2941""
","
","null","<p></p>","null","","","","","","","",""
"","image","100","122730","0.0-100.0","""event"",""trial"",""time""
""fullscreenenter"",""0"",""2941""
","
","
","""event"",""trial"",""time""
""fullscreenenter"",""0"",""2941""
","
","676.9000000953674","run_exp/static/images/Set 6_rs/079a.jpg","86","","","","","","learn","SL",""
"","show_choice","101","124057","0.0-101.0","""event"",""trial"",""time""
""fullscreenenter"",""0"",""2941""
","
","
","""event"",""trial"",""time""
""fullscreenenter"",""0"",""2941""
","
","null","run_exp/static/images/Set 6_rs/079a.jpg","null","","","","","","learn","SL",""
"","html-keyboard-response","102","124567","0.0-102.0","""event"",""trial"",""time""
""fullscreenenter"",""0"",""2941""
","
","
","""event"",""trial"",""time""
""fullscreenenter"",""0"",""2941""
","
","null","<p></p>","null","","","","","","","",""
"","image","103","125530","0.0-103.0","""event"",""trial"",""time""
""fullscreenenter"",""0"",""2941""
","
","
","""event"",""trial"",""time""
""fullscreenenter"",""0"",""2941""
","
","962.0999999046326","run_exp/static/images/Set 6_rs/122a.jpg","86","","","","","","learn","SR",""
"","show_choice","104","126576","0.0-104.0","""event"",""trial"",""time""
""fullscreenenter"",""0"",""2941""
","
","
","""event"",""trial"",""time""
""fullscreenenter"",""0"",""2941""
","
","null","run_exp/static/images/Set 6_rs/122a.jpg","null","","","","","","learn","SR",""
"","html-keyboard-response","105","127080","0.0-105.0","""event"",""trial"",""time""
""fullscreenenter"",""0"",""2941""
","
","
","""event"",""trial"",""time""
""fullscreenenter"",""0"",""2941""
","
","null","<p></p>","null","","","","","","","",""
"","image","106","127914","0.0-106.0","""event"",""trial"",""time""
""fullscreenenter"",""0"",""2941""
","
","
","""event"",""trial"",""time""
""fullscreenenter"",""0"",""2941""
","
","833.3999998569489","run_exp/static/images/Set 6_rs/010a.jpg","86","","","","","","learn","SR",""
"","show_choice","107","129093","0.0-107.0","""event"",""trial"",""time""
""fullscreenenter"",""0"",""2941""
","
","
","""event"",""trial"",""time""
""fullscreenenter"",""0"",""2941""
","
","null","run_exp/static/images/Set 6_rs/010a.jpg","null","","","","","","learn","SR",""
"","html-keyboard-response","108","129601","0.0-108.0","""event"",""trial"",""time""
""fullscreenenter"",""0"",""2941""
","
","
","""event"",""trial"",""time""
""fullscreenenter"",""0"",""2941""
","
","null","<p></p>","null","","","","","","","",""
"","image","109","130883","0.0-109.0","""event"",""trial"",""time""
""fullscreenenter"",""0"",""2941""
","
","
","""event"",""trial"",""time""
""fullscreenenter"",""0"",""2941""
","
","1281.1000001430511","run_exp/static/images/Set 6_rs/108a.jpg","78","","","","","","learn","SR",""
"","show_choice","110","131602","0.0-110.0","""event"",""trial"",""time""
""fullscreenenter"",""0"",""2941""
","
","
","""event"",""trial"",""time""
""fullscreenenter"",""0"",""2941""
","
","null","run_exp/static/images/Set 6_rs/108a.jpg","null","","","","","","learn","SR",""
"","html-keyboard-response","111","132111","0.0-111.0","""event"",""trial"",""time""
""fullscreenenter"",""0"",""2941""
","
","
","""event"",""trial"",""time""
""fullscreenenter"",""0"",""2941""
","
","null","<p></p>","null","","","","","","","",""
"","image","112","133435","0.0-112.0","""event"",""trial"",""time""
""fullscreenenter"",""0"",""2941""
","
","
","""event"",""trial"",""time""
""fullscreenenter"",""0"",""2941""
","
","1323.3999998569489","run_exp/static/images/Set 6_rs/141a.jpg","78","","","","","","learn","SR",""
"","show_choice","113","134121","0.0-113.0","""event"",""trial"",""time""
""fullscreenenter"",""0"",""2941""
","
","
","""event"",""trial"",""time""
""fullscreenenter"",""0"",""2941""
","
","null","run_exp/static/images/Set 6_rs/141a.jpg","null","","","","","","learn","SR",""
"","html-keyboard-response","114","134630","0.0-114.0","""event"",""trial"",""time""
""fullscreenenter"",""0"",""2941""
","
","
","""event"",""trial"",""time""
""fullscreenenter"",""0"",""2941""
","
","null","<p></p>","null","","","","","","","",""
"","image","115","135587","0.0-115.0","""event"",""trial"",""time""
""fullscreenenter"",""0"",""2941""
","
","
","""event"",""trial"",""time""
""fullscreenenter"",""0"",""2941""
","
","956.7999999523163","run_exp/static/images/Set 6_rs/076a.jpg","78","","","","","","learn","SR",""
"","show_choice","116","136634","0.0-116.0","""event"",""trial"",""time""
""fullscreenenter"",""0"",""2941""
","
","
","""event"",""trial"",""time""
""fullscreenenter"",""0"",""2941""
","
","null","run_exp/static/images/Set 6_rs/076a.jpg","null","","","","","","learn","SR",""
"","html-keyboard-response","117","137143","0.0-117.0","""event"",""trial"",""time""
""fullscreenenter"",""0"",""2941""
","
","
","""event"",""trial"",""time""
""fullscreenenter"",""0"",""2941""
","
","null","<p></p>","null","","","","","","","",""
"","image","118","138403","0.0-118.0","""event"",""trial"",""time""
""fullscreenenter"",""0"",""2941""
","
","
","""event"",""trial"",""time""
""fullscreenenter"",""0"",""2941""
","
","1260.2000000476837","run_exp/static/images/Set 6_rs/129a.jpg","86","","","","","","learn","SL",""
"","show_choice","119","139149","0.0-119.0","""event"",""trial"",""time""
""fullscreenenter"",""0"",""2941""
","
","
","""event"",""trial"",""time""
""fullscreenenter"",""0"",""2941""
","
","null","run_exp/static/images/Set 6_rs/129a.jpg","null","","","","","","learn","SL",""
"","html-keyboard-response","120","139657","0.0-120.0","""event"",""trial"",""time""
""fullscreenenter"",""0"",""2941""
","
","
","""event"",""trial"",""time""
""fullscreenenter"",""0"",""2941""
","
","null","<p></p>","null","","","","","","","",""
"","image","121","140596","0.0-121.0","""event"",""trial"",""time""
""fullscreenenter"",""0"",""2941""
","
","
","""event"",""trial"",""time""
""fullscreenenter"",""0"",""2941""
","
","938.7999999523163","run_exp/static/images/Set 6_rs/138a.jpg","78","","","","","","learn","SL",""
"","show_choice","122","141669","0.0-122.0","""event"",""trial"",""time""
""fullscreenenter"",""0"",""2941""
","
","
","""event"",""trial"",""time""
""fullscreenenter"",""0"",""2941""
","
","null","run_exp/static/images/Set 6_rs/138a.jpg","null","","","","","","learn","SL",""
"","html-keyboard-response","123","142175","0.0-123.0","""event"",""trial"",""time""
""fullscreenenter"",""0"",""2941""
","
","
","""event"",""trial"",""time""
""fullscreenenter"",""0"",""2941""
","
","null","<p></p>","null","","","","","","","",""
"","image","124","143628","0.0-124.0","""event"",""trial"",""time""
""fullscreenenter"",""0"",""2941""
","
","
","""event"",""trial"",""time""
""fullscreenenter"",""0"",""2941""
","
","1452.1999998092651","run_exp/static/images/Set 6_rs/006a.jpg","86","","","","","","learn","SL",""
"","show_choice","125","144179","0.0-125.0","""event"",""trial"",""time""
""fullscreenenter"",""0"",""2941""
","
","
","""event"",""trial"",""time""
""fullscreenenter"",""0"",""2941""
","
","null","run_exp/static/images/Set 6_rs/006a.jpg","null","","","","","","learn","SL",""
"","html-keyboard-response","126","144684","0.0-126.0","""event"",""trial"",""time""
""fullscreenenter"",""0"",""2941""
","
","
","""event"",""trial"",""time""
""fullscreenenter"",""0"",""2941""
","
","null","<p></p>","null","","","","","","","",""
"","image","127","145926","0.0-127.0","""event"",""trial"",""time""
""fullscreenenter"",""0"",""2941""
","
","
","""event"",""trial"",""time""
""fullscreenenter"",""0"",""2941""
","
","1241","run_exp/static/images/Set 6_rs/064a.jpg","78","","","","","","learn","SR",""
"","show_choice","128","146691","0.0-128.0","""event"",""trial"",""time""
""fullscreenenter"",""0"",""2941""
","
","
","""event"",""trial"",""time""
""fullscreenenter"",""0"",""2941""
","
","null","run_exp/static/images/Set 6_rs/064a.jpg","null","","","","","","learn","SR",""
"","html-keyboard-response","129","147201","0.0-129.0","""event"",""trial"",""time""
""fullscreenenter"",""0"",""2941""
","
","
","""event"",""trial"",""time""
""fullscreenenter"",""0"",""2941""
","
","null","<p></p>","null","","","","","","","",""
"","image","130","148325","0.0-130.0","""event"",""trial"",""time""
""fullscreenenter"",""0"",""2941""
","
","
","""event"",""trial"",""time""
""fullscreenenter"",""0"",""2941""
","
","1124","run_exp/static/images/Set 6_rs/017a.jpg","78","","","","","","learn","SL",""
"","show_choice","131","149205","0.0-131.0","""event"",""trial"",""time""
""fullscreenenter"",""0"",""2941""
","
","
","""event"",""trial"",""time""
""fullscreenenter"",""0"",""2941""
","
","null","run_exp/static/images/Set 6_rs/017a.jpg","null","","","","","","learn","SL",""
"","html-keyboard-response","132","149714","0.0-132.0","""event"",""trial"",""time""
""fullscreenenter"",""0"",""2941""
","
","
","""event"",""trial"",""time""
""fullscreenenter"",""0"",""2941""
","
","null","<p></p>","null","","","","","","","",""
"","image","133","150653","0.0-133.0","""event"",""trial"",""time""
""fullscreenenter"",""0"",""2941""
","
","
","""event"",""trial"",""time""
""fullscreenenter"",""0"",""2941""
","
","938.2000000476837","run_exp/static/images/Set 6_rs/050a.jpg","86","","","","","","learn","SL",""
"","show_choice","134","151717","0.0-134.0","""event"",""trial"",""time""
""fullscreenenter"",""0"",""2941""
","
","
","""event"",""trial"",""time""
""fullscreenenter"",""0"",""2941""
","
","null","run_exp/static/images/Set 6_rs/050a.jpg","null","","","","","","learn","SL",""
"","html-keyboard-response","135","152219","0.0-135.0","""event"",""trial"",""time""
""fullscreenenter"",""0"",""2941""
","
","
","""event"",""trial"",""time""
""fullscreenenter"",""0"",""2941""
","
","null","<p></p>","null","","","","","","","",""
"","image","136","153374","0.0-136.0","""event"",""trial"",""time""
""fullscreenenter"",""0"",""2941""
","
","
","""event"",""trial"",""time""
""fullscreenenter"",""0"",""2941""
","
","1154.2999999523163","run_exp/static/images/Set 6_rs/089a.jpg","86","","","","","","learn","SL",""
"","show_choice","137","154223","0.0-137.0","""event"",""trial"",""time""
""fullscreenenter"",""0"",""2941""
","
","
","""event"",""trial"",""time""
""fullscreenenter"",""0"",""2941""
","
","null","run_exp/static/images/Set 6_rs/089a.jpg","null","","","","","","learn","SL",""
"","html-keyboard-response","138","154733","0.0-138.0","""event"",""trial"",""time""
""fullscreenenter"",""0"",""2941""
","
","
","""event"",""trial"",""time""
""fullscreenenter"",""0"",""2941""
","
","null","<p></p>","null","","","","","","","",""
"","image","139","156405","0.0-139.0","""event"",""trial"",""time""
""fullscreenenter"",""0"",""2941""
","
","
","""event"",""trial"",""time""
""fullscreenenter"",""0"",""2941""
","
","1671","run_exp/static/images/Set 6_rs/085a.jpg","86","","","","","","learn","SL",""
"","show_choice","140","156742","0.0-140.0","""event"",""trial"",""time""
""fullscreenenter"",""0"",""2941""
","
","
","""event"",""trial"",""time""
""fullscreenenter"",""0"",""2941""
","
","null","run_exp/static/images/Set 6_rs/085a.jpg","null","","","","","","learn","SL",""
"","html-keyboard-response","141","157254","0.0-141.0","""event"",""trial"",""time""
""fullscreenenter"",""0"",""2941""
","
","
","""event"",""trial"",""time""
""fullscreenenter"",""0"",""2941""
","
","null","<p></p>","null","","","","","","","",""
"","image","142","159165","0.0-142.0","""event"",""trial"",""time""
""fullscreenenter"",""0"",""2941""
","
","
","""event"",""trial"",""time""
""fullscreenenter"",""0"",""2941""
","
","1911","run_exp/static/images/Set 6_rs/091a.jpg","78","","","","","","learn","SL",""
"","show_choice","143","159266","0.0-143.0","""event"",""trial"",""time""
""fullscreenenter"",""0"",""2941""
","
","
","""event"",""trial"",""time""
""fullscreenenter"",""0"",""2941""
","
","null","run_exp/static/images/Set 6_rs/091a.jpg","null","","","","","","learn","SL",""
"","html-keyboard-response","144","159774","0.0-144.0","""event"",""trial"",""time""
""fullscreenenter"",""0"",""2941""
","
","
","""event"",""trial"",""time""
""fullscreenenter"",""0"",""2941""
","
","null","<p></p>","null","","","","","","","",""
"","image","145","160918","0.0-145.0","""event"",""trial"",""time""
""fullscreenenter"",""0"",""2941""
","
","
","""event"",""trial"",""time""
""fullscreenenter"",""0"",""2941""
","
","1143.2999999523163","run_exp/static/images/Set 6_rs/126a.jpg","86","","","","","","learn","SR",""
"","show_choice","146","161776","0.0-146.0","""event"",""trial"",""time""
""fullscreenenter"",""0"",""2941""
","
","
","""event"",""trial"",""time""
""fullscreenenter"",""0"",""2941""
","
","null","run_exp/static/images/Set 6_rs/126a.jpg","null","","","","","","learn","SR",""
"","html-keyboard-response","147","162286","0.0-147.0","""event"",""trial"",""time""
""fullscreenenter"",""0"",""2941""
","
","
","""event"",""trial"",""time""
""fullscreenenter"",""0"",""2941""
","
","null","<p></p>","null","","","","","","","",""
"","image","148","163902","0.0-148.0","""event"",""trial"",""time""
""fullscreenenter"",""0"",""2941""
","
","
","""event"",""trial"",""time""
""fullscreenenter"",""0"",""2941""
","
","1614.7000000476837","run_exp/static/images/Set 6_rs/191a.jpg","78","","","","","","learn","SL",""
"","show_choice","149","164295","0.0-149.0","""event"",""trial"",""time""
""fullscreenenter"",""0"",""2941""
","
","
","""event"",""trial"",""time""
""fullscreenenter"",""0"",""2941""
","
","null","run_exp/static/images/Set 6_rs/191a.jpg","null","","","","","","learn","SL",""
"","html-keyboard-response","150","164805","0.0-150.0","""event"",""trial"",""time""
""fullscreenenter"",""0"",""2941""
","
","
","""event"",""trial"",""time""
""fullscreenenter"",""0"",""2941""
","
","null","<p></p>","null","","","","","","","",""
"","image","151","165622","0.0-151.0","""event"",""trial"",""time""
""fullscreenenter"",""0"",""2941""
","
","
","""event"",""trial"",""time""
""fullscreenenter"",""0"",""2941""
","
","816.2999999523163","run_exp/static/images/Set 6_rs/132a.jpg","78","","","","","","learn","SR",""
"","show_choice","152","166821","0.0-152.0","""event"",""trial"",""time""
""fullscreenenter"",""0"",""2941""
","
","
","""event"",""trial"",""time""
""fullscreenenter"",""0"",""2941""
","
","null","run_exp/static/images/Set 6_rs/132a.jpg","null","","","","","","learn","SR",""
"","html-keyboard-response","153","167326","0.0-153.0","""event"",""trial"",""time""
""fullscreenenter"",""0"",""2941""
","
","
","""event"",""trial"",""time""
""fullscreenenter"",""0"",""2941""
","
","null","<p></p>","null","","","","","","","",""
"","image","154","168302","0.0-154.0","""event"",""trial"",""time""
""fullscreenenter"",""0"",""2941""
","
","
","""event"",""trial"",""time""
""fullscreenenter"",""0"",""2941""
","
","975.2999999523163","run_exp/static/images/Set 6_rs/131a.jpg","86","","","","","","learn","SR",""
"","show_choice","155","169334","0.0-155.0","""event"",""trial"",""time""
""fullscreenenter"",""0"",""2941""
","
","
","""event"",""trial"",""time""
""fullscreenenter"",""0"",""2941""
","
","null","run_exp/static/images/Set 6_rs/131a.jpg","null","","","","","","learn","SR",""
"","html-keyboard-response","156","169837","0.0-156.0","""event"",""trial"",""time""
""fullscreenenter"",""0"",""2941""
","
","
","""event"",""trial"",""time""
""fullscreenenter"",""0"",""2941""
","
","null","<p></p>","null","","","","","","","",""
"","image","157","170736","0.0-157.0","""event"",""trial"",""time""
""fullscreenenter"",""0"",""2941""
","
","
","""event"",""trial"",""time""
""fullscreenenter"",""0"",""2941""
","
","899.2000000476837","run_exp/static/images/Set 6_rs/045a.jpg","86","","","","","","learn","SR",""
"","show_choice","158","171837","0.0-158.0","""event"",""trial"",""time""
""fullscreenenter"",""0"",""2941""
","
","
","""event"",""trial"",""time""
""fullscreenenter"",""0"",""2941""
","
","null","run_exp/static/images/Set 6_rs/045a.jpg","null","","","","","","learn","SR",""
"","html-keyboard-response","159","172349","0.0-159.0","""event"",""trial"",""time""
""fullscreenenter"",""0"",""2941""
","
","
","""event"",""trial"",""time""
""fullscreenenter"",""0"",""2941""
","
","null","<p></p>","null","","","","","","","",""
"","image","160","173344","0.0-160.0","""event"",""trial"",""time""
""fullscreenenter"",""0"",""2941""
","
","
","""event"",""trial"",""time""
""fullscreenenter"",""0"",""2941""
","
","994","run_exp/static/images/Set 6_rs/111a.jpg","86","","","","","","learn","SL",""
"","show_choice","161","174353","0.0-161.0","""event"",""trial"",""time""
""fullscreenenter"",""0"",""2941""
","
","
","""event"",""trial"",""time""
""fullscreenenter"",""0"",""2941""
","
","null","run_exp/static/images/Set 6_rs/111a.jpg","null","","","","","","learn","SL",""
"","html-keyboard-response","162","174863","0.0-162.0","""event"",""trial"",""time""
""fullscreenenter"",""0"",""2941""
","
","
","""event"",""trial"",""time""
""fullscreenenter"",""0"",""2941""
","
","null","<p></p>","null","","","","","","","",""
"","image","163","176065","0.0-163.0","""event"",""trial"",""time""
""fullscreenenter"",""0"",""2941""
","
","
","""event"",""trial"",""time""
""fullscreenenter"",""0"",""2941""
","
","1201.7000000476837","run_exp/static/images/Set 6_rs/070a.jpg","86","","","","","","learn","SR",""
"","show_choice","164","176879","0.0-164.0","""event"",""trial"",""time""
""fullscreenenter"",""0"",""2941""
","
","
","""event"",""trial"",""time""
""fullscreenenter"",""0"",""2941""
","
","null","run_exp/static/images/Set 6_rs/070a.jpg","null","","","","","","learn","SR",""
"","html-keyboard-response","165","177385","0.0-165.0","""event"",""trial"",""time""
""fullscreenenter"",""0"",""2941""
","
","
","""event"",""trial"",""time""
""fullscreenenter"",""0"",""2941""
","
","null","<p></p>","null","","","","","","","",""
"","image","166","178543","0.0-166.0","""event"",""trial"",""time""
""fullscreenenter"",""0"",""2941""
","
","
","""event"",""trial"",""time""
""fullscreenenter"",""0"",""2941""
","
","1157.4000000953674","run_exp/static/images/Set 6_rs/187a.jpg","86","","","","","","learn","SR",""
"","show_choice","167","179398","0.0-167.0","""event"",""trial"",""time""
""fullscreenenter"",""0"",""2941""
","
","
","""event"",""trial"",""time""
""fullscreenenter"",""0"",""2941""
","
","null","run_exp/static/images/Set 6_rs/187a.jpg","null","","","","","","learn","SR",""
"","html-keyboard-response","168","179908","0.0-168.0","""event"",""trial"",""time""
""fullscreenenter"",""0"",""2941""
","
","
","""event"",""trial"",""time""
""fullscreenenter"",""0"",""2941""
","
","null","<p></p>","null","","","","","","","",""
"","image","169","181191","0.0-169.0","""event"",""trial"",""time""
""fullscreenenter"",""0"",""2941""
","
","
","""event"",""trial"",""time""
""fullscreenenter"",""0"",""2941""
","
","1283.1000001430511","run_exp/static/images/Set 6_rs/057a.jpg","86","","","","","","learn","SL",""
"","show_choice","170","181918","0.0-170.0","""event"",""trial"",""time""
""fullscreenenter"",""0"",""2941""
","
","
","""event"",""trial"",""time""
""fullscreenenter"",""0"",""2941""
","
","null","run_exp/static/images/Set 6_rs/057a.jpg","null","","","","","","learn","SL",""
"","html-keyboard-response","171","182426","0.0-171.0","""event"",""trial"",""time""
""fullscreenenter"",""0"",""2941""
","
","
","""event"",""trial"",""time""
""fullscreenenter"",""0"",""2941""
","
","null","<p></p>","null","","","","","","","",""
"","image","172","183800","0.0-172.0","""event"",""trial"",""time""
""fullscreenenter"",""0"",""2941""
","
","
","""event"",""trial"",""time""
""fullscreenenter"",""0"",""2941""
","
","1373.5","run_exp/static/images/Set 6_rs/062a.jpg","86","","","","","","learn","SL",""
"","show_choice","173","184437","0.0-173.0","""event"",""trial"",""time""
""fullscreenenter"",""0"",""2941""
","
","
","""event"",""trial"",""time""
""fullscreenenter"",""0"",""2941""
","
","null","run_exp/static/images/Set 6_rs/062a.jpg","null","","","","","","learn","SL",""
"","html-keyboard-response","174","184947","0.0-174.0","""event"",""trial"",""time""
""fullscreenenter"",""0"",""2941""
","
","
","""event"",""trial"",""time""
""fullscreenenter"",""0"",""2941""
","
","null","<p></p>","null","","","","","","","",""
"","image","175","185617","0.0-175.0","""event"",""trial"",""time""
""fullscreenenter"",""0"",""2941""
","
","
","""event"",""trial"",""time""
""fullscreenenter"",""0"",""2941""
","
","669","run_exp/static/images/Set 6_rs/172a.jpg","78","","","","","","learn","SR",""
"","show_choice","176","186956","0.0-176.0","""event"",""trial"",""time""
""fullscreenenter"",""0"",""2941""
","
","
","""event"",""trial"",""time""
""fullscreenenter"",""0"",""2941""
","
","null","run_exp/static/images/Set 6_rs/172a.jpg","null","","","","","","learn","SR",""
"","html-keyboard-response","177","187464","0.0-177.0","""event"",""trial"",""time""
""fullscreenenter"",""0"",""2941""
","
","
","""event"",""trial"",""time""
""fullscreenenter"",""0"",""2941""
","
","null","<p></p>","null","","","","","","","",""
"","image","178","188338","0.0-178.0","""event"",""trial"",""time""
""fullscreenenter"",""0"",""2941""
","
","
","""event"",""trial"",""time""
""fullscreenenter"",""0"",""2941""
","
","873.5999999046326","run_exp/static/images/Set 6_rs/123a.jpg","78","","","","","","learn","SL",""
"","show_choice","179","189470","0.0-179.0","""event"",""trial"",""time""
""fullscreenenter"",""0"",""2941""
","
","
","""event"",""trial"",""time""
""fullscreenenter"",""0"",""2941""
","
","null","run_exp/static/images/Set 6_rs/123a.jpg","null","","","","","","learn","SL",""
"","html-keyboard-response","180","189978","0.0-180.0","""event"",""trial"",""time""
""fullscreenenter"",""0"",""2941""
","
","
","""event"",""trial"",""time""
""fullscreenenter"",""0"",""2941""
","
","null","<p></p>","null","","","","","","","",""
"","image","181","191008","0.0-181.0","""event"",""trial"",""time""
""fullscreenenter"",""0"",""2941""
","
","
","""event"",""trial"",""time""
""fullscreenenter"",""0"",""2941""
","
","1029.2999999523163","run_exp/static/images/Set 6_rs/014a.jpg","86","","","","","","learn","SL",""
"","show_choice","182","191987","0.0-182.0","""event"",""trial"",""time""
""fullscreenenter"",""0"",""2941""
","
","
","""event"",""trial"",""time""
""fullscreenenter"",""0"",""2941""
","
","null","run_exp/static/images/Set 6_rs/014a.jpg","null","","","","","","learn","SL",""
"","html-keyboard-response","183","192499","0.0-183.0","""event"",""trial"",""time""
""fullscreenenter"",""0"",""2941""
","
","
","""event"",""trial"",""time""
""fullscreenenter"",""0"",""2941""
","
","null","<p></p>","null","","","","","","","",""
"","image","184","193601","0.0-184.0","""event"",""trial"",""time""
""fullscreenenter"",""0"",""2941""
","
","
","""event"",""trial"",""time""
""fullscreenenter"",""0"",""2941""
","
","1101","run_exp/static/images/Set 6_rs/150a.jpg","86","","","","","","learn","SR",""
"","show_choice","185","194514","0.0-185.0","""event"",""trial"",""time""
""fullscreenenter"",""0"",""2941""
","
","
","""event"",""trial"",""time""
""fullscreenenter"",""0"",""2941""
","
","null","run_exp/static/images/Set 6_rs/150a.jpg","null","","","","","","learn","SR",""
"","html-keyboard-response","186","195022","0.0-186.0","""event"",""trial"",""time""
""fullscreenenter"",""0"",""2941""
","
","
","""event"",""trial"",""time""
""fullscreenenter"",""0"",""2941""
","
","null","<p></p>","null","","","","","","","",""
"","image","187","196081","0.0-187.0","""event"",""trial"",""time""
""fullscreenenter"",""0"",""2941""
","
","
","""event"",""trial"",""time""
""fullscreenenter"",""0"",""2941""
","
","1058.7000000476837","run_exp/static/images/Set 6_rs/169a.jpg","78","","","","","","learn","SR",""
"","show_choice","188","197032","0.0-188.0","""event"",""trial"",""time""
""fullscreenenter"",""0"",""2941""
","
","
","""event"",""trial"",""time""
""fullscreenenter"",""0"",""2941""
","
","null","run_exp/static/images/Set 6_rs/169a.jpg","null","","","","","","learn","SR",""
"","html-keyboard-response","189","197544","0.0-189.0","""event"",""trial"",""time""
""fullscreenenter"",""0"",""2941""
","
","
","""event"",""trial"",""time""
""fullscreenenter"",""0"",""2941""
","
","null","<p></p>","null","","","","","","","",""
"","image","190","199432","0.0-190.0","""event"",""trial"",""time""
""fullscreenenter"",""0"",""2941""
","
","
","""event"",""trial"",""time""
""fullscreenenter"",""0"",""2941""
","
","1888.4000000953674","run_exp/static/images/Set 6_rs/177a.jpg","78","","","","","","learn","SR",""
"","show_choice","191","199552","0.0-191.0","""event"",""trial"",""time""
""fullscreenenter"",""0"",""2941""
","
","
","""event"",""trial"",""time""
""fullscreenenter"",""0"",""2941""
","
","null","run_exp/static/images/Set 6_rs/177a.jpg","null","","","","","","learn","SR",""
"","html-keyboard-response","192","200064","0.0-192.0","""event"",""trial"",""time""
""fullscreenenter"",""0"",""2941""
","
","
","""event"",""trial"",""time""
""fullscreenenter"",""0"",""2941""
","
","null","<p></p>","null","","","","","","","",""
"","image","193","201281","0.0-193.0","""event"",""trial"",""time""
""fullscreenenter"",""0"",""2941""
","
","
","""event"",""trial"",""time""
""fullscreenenter"",""0"",""2941""
","
","1216.2999999523163","run_exp/static/images/Set 6_rs/121a.jpg","86","","","","","","learn","SR",""
"","show_choice","194","202066","0.0-194.0","""event"",""trial"",""time""
""fullscreenenter"",""0"",""2941""
","
","
","""event"",""trial"",""time""
""fullscreenenter"",""0"",""2941""
","
","null","run_exp/static/images/Set 6_rs/121a.jpg","null","","","","","","learn","SR",""
"","html-keyboard-response","195","202576","0.0-195.0","""event"",""trial"",""time""
""fullscreenenter"",""0"",""2941""
","
","
","""event"",""trial"",""time""
""fullscreenenter"",""0"",""2941""
","
","null","<p></p>","null","","","","","","","",""
"","test_intro","196","239395","0.0-196.0","""event"",""trial"",""time""
""fullscreenenter"",""0"",""2941""
","
","
","""event"",""trial"",""time""
""fullscreenenter"",""0"",""2941""
","
","null","run_exp/static/audio/clip_2_memory.m4a","null","","","","","<div class='center'><p>Now, lets see how much you remember about the items you just saw.  For each item, you need to indicate if it was <b>old</b> by pressing the <b>v</b> key, <b>similar</b> by pressing the <b>b</b> key, or <b>new</b> by pressing the <b>n</b> key.</p><p>Old refers to an item that you saw before in the indoor/outdoor game that you just played, new refers to an item you have <b>not</b> seen before within the indoor/outdoor game, and similar refers to an item that is similar to an item youve seen before but is not exactly the same. </p><p>Before we begin, lets go over some brief demonstrations to make sure you understand.</p></div>","","",""
"","html-keyboard-response","197","248294","0.0-197.0","""event"",""trial"",""time""
""fullscreenenter"",""0"",""2941""
","
","
","""event"",""trial"",""time""
""fullscreenenter"",""0"",""2941""
","
","8897.599999904633","<div class='center'><p>Now, lets see how much you remember about the items you just saw.  For each item, you need to indicate if it was <b>old</b> by pressing the <b>v</b> key, <b>similar</b> by pressing the <b>b</b> key, or <b>new</b> by pressing the <b>n</b> key.</p><p>Old refers to an item that you saw before in the indoor/outdoor game that you just played, new refers to an item you have <b>not</b> seen before within the indoor/outdoor game, and similar refers to an item that is similar to an item youve seen before but is not exactly the same. </p><p>Before we begin, lets go over some brief demonstrations to make sure you understand.</p><div><p><b>[Press the space bar to continue]</b></p></div>","32","","","","","","","",""
"","items","198","255802","0.0-198.0","""event"",""trial"",""time""
""fullscreenenter"",""0"",""2941""
","
","
","""event"",""trial"",""time""
""fullscreenenter"",""0"",""2941""
","
","null","run_exp/static/audio/clip_3_items.m4a","null","","","","","","","",""
"","mop","199","260317","0.0-199.0","""event"",""trial"",""time""
""fullscreenenter"",""0"",""2941""
","
","
","""event"",""trial"",""time""
""fullscreenenter"",""0"",""2941""
","
","null","run_exp/static/audio/clip_4_mop.m4a","null","","","","","","","",""
"","baseball","200","263834","0.0-200.0","""event"",""trial"",""time""
""fullscreenenter"",""0"",""2941""
","
","
","""event"",""trial"",""time""
""fullscreenenter"",""0"",""2941""
","
","null","run_exp/static/audio/clip_5_baseball.m4a","null","","","","","","","",""
"","trumpet","201","267345","0.0-201.0","""event"",""trial"",""time""
""fullscreenenter"",""0"",""2941""
","
","
","""event"",""trial"",""time""
""fullscreenenter"",""0"",""2941""
","
","null","run_exp/static/audio/clip_6_trumpet.m4a","null","","","","","","","",""
"","gummies","202","270854","0.0-202.0","""event"",""trial"",""time""
""fullscreenenter"",""0"",""2941""
","
","
","""event"",""trial"",""time""
""fullscreenenter"",""0"",""2941""
","
","null","run_exp/static/audio/clip_7_gummies.m4a","null","","","","","","","",""
"","osn","203","275355","0.0-203.0","""event"",""trial"",""time""
""fullscreenenter"",""0"",""2941""
","
","
","""event"",""trial"",""time""
""fullscreenenter"",""0"",""2941""
","
","null","run_exp/static/audio/clip_8_osn.m4a","null","","","","","","","",""
"","old_1","204","281871","0.0-204.0","""event"",""trial"",""time""
""fullscreenenter"",""0"",""2941""
","
","
","""event"",""trial"",""time""
""fullscreenenter"",""0"",""2941""
","
","null","run_exp/static/audio/clip_9_old_trumpet.m4a","null","","","","","","","",""
"","new_1","205","289374","0.0-205.0","""event"",""trial"",""time""
""fullscreenenter"",""0"",""2941""
","
","
","""event"",""trial"",""time""
""fullscreenenter"",""0"",""2941""
","
","null","run_exp/static/audio/clip_10_new_balloon.m4a","null","","","","","","","",""
"","similar_1a","206","293878","0.0-206.0","""event"",""trial"",""time""
""fullscreenenter"",""0"",""2941""
","
","
","""event"",""trial"",""time""
""fullscreenenter"",""0"",""2941""
","
","null","run_exp/static/audio/clip_11a_similar_mop.m4a","null","","","","","","","",""
"","similar_1b","207","300381","0.0-207.0","""event"",""trial"",""time""
""fullscreenenter"",""0"",""2941""
","
","
","""event"",""trial"",""time""
""fullscreenenter"",""0"",""2941""
","
","null","run_exp/static/audio/clip_11b_similar_mop.m4a","null","","","","","","","",""
"","new_2","208","303892","0.0-208.0","""event"",""trial"",""time""
""fullscreenenter"",""0"",""2941""
","
","
","""event"",""trial"",""time""
""fullscreenenter"",""0"",""2941""
","
","null","run_exp/static/audio/clip_12_new_stoplight.m4a","null","","","","","","","",""
"","old_2","209","307393","0.0-209.0","""event"",""trial"",""time""
""fullscreenenter"",""0"",""2941""
","
","
","""event"",""trial"",""time""
""fullscreenenter"",""0"",""2941""
","
","null","run_exp/static/audio/clip_13_old_baseball.m4a","null","","","","","","","",""
"","similar_2a","210","310898","0.0-210.0","""event"",""trial"",""time""
""fullscreenenter"",""0"",""2941""
","
","
","""event"",""trial"",""time""
""fullscreenenter"",""0"",""2941""
","
","null","run_exp/static/audio/clip_14a_similar_gummies.m4a","null","","","","","","","",""
"","similar_2b","211","318399","0.0-211.0","""event"",""trial"",""time""
""fullscreenenter"",""0"",""2941""
","
","
","""event"",""trial"",""time""
""fullscreenenter"",""0"",""2941""
","
","null","run_exp/static/audio/clip_14b_similar_gummies.m4a","null","","","","","","","",""
"","practice","212","360535","0.0-212.0","""event"",""trial"",""time""
""fullscreenenter"",""0"",""2941""
","
","
","""event"",""trial"",""time""
""fullscreenenter"",""0"",""2941""
","
","null","run_exp/static/audio/clip_15_practice.m4a","null","","","","","<div class='center'><p>Lets practice a little to make sure you understand the difference between new, similar, and old. Lets say you saw these three items in the indoor/outdoor game.</p><p> Try your best to remember these images because youll soon be tested on them in a practice game. In the practice game, youll be shown images and youll have to say if they are old (one of the three images belows), similar (similar to one of the images below but not exactly the same), or new (are not one of the images below nor similar to them).</p><p>Once you press the space bar youll be shown these images again but one at time. Then youll begin the practice game.</p><p><img src='run_exp/static/images/tutorial/test/three_indoor_outdoor.png' height='300'></p></div>","","",""
"","html-keyboard-response","213","361555","0.0-213.0","""event"",""trial"",""time""
""fullscreenenter"",""0"",""2941""
","
","
","""event"",""trial"",""time""
""fullscreenenter"",""0"",""2941""
","
","1018.5","<div class='center'><p>Lets practice a little to make sure you understand the difference between new, similar, and old. Lets say you saw these three items in the indoor/outdoor game.</p><p> Try your best to remember these images because youll soon be tested on them in a practice game. In the practice game, youll be shown images and youll have to say if they are old (one of the three images belows), similar (similar to one of the images below but not exactly the same), or new (are not one of the images below nor similar to them).</p><p>Once you press the space bar youll be shown these images again but one at time. Then youll begin the practice game.</p><p><img src='run_exp/static/images/tutorial/test/three_indoor_outdoor.png' height='300'></p><div><p><b>[Press the space bar to continue]</b></p></div>","32","","","","","","","",""
"","planet","214","363555","0.0-214.0","""event"",""trial"",""time""
""fullscreenenter"",""0"",""2941""
","
","
","""event"",""trial"",""time""
""fullscreenenter"",""0"",""2941""
","
","null","run_exp/static/images/tutorial/test/008a.jpg","null","","","","","","","",""
"","boot","215","365559","0.0-215.0","""event"",""trial"",""time""
""fullscreenenter"",""0"",""2941""
","
","
","""event"",""trial"",""time""
""fullscreenenter"",""0"",""2941""
","
","null","run_exp/static/images/tutorial/test/011a.jpg","null","","","","","","","",""
"","lemon","216","367573","0.0-216.0","""event"",""trial"",""time""
""fullscreenenter"",""0"",""2941""
","
","
","""event"",""trial"",""time""
""fullscreenenter"",""0"",""2941""
","
","null","run_exp/static/images/tutorial/test/018a.jpg","null","","","","","","","",""
"","practice_q1","217","369689","0.0-217.0","""event"",""trial"",""time""
""fullscreenenter"",""0"",""2941""
","
","
","""event"",""trial"",""time""
""fullscreenenter"",""0"",""2941""
","
","2115.2999999523163","run_exp/static/audio/clip_16_practice_question.m4a","78","","","","","","","",""
"","correct","218","371615","0.0-218.0-0.0","""event"",""trial"",""time""
""fullscreenenter"",""0"",""2941""
","
","
","""event"",""trial"",""time""
""fullscreenenter"",""0"",""2941""
","
","null","run_exp/static/audio/clip_17_correct.m4a","null","","","","","<div class='center'><p>That's correct!</p></div>","","",""
"","html-keyboard-response","219","372322","0.0-218.0-1.0","""event"",""trial"",""time""
""fullscreenenter"",""0"",""2941""
","
","
","""event"",""trial"",""time""
""fullscreenenter"",""0"",""2941""
","
","705.7999999523163","<div class='center'><p>That's correct!</p><div><p><b>[Press the space bar to continue]</b></p></div>","32","","","","","","","",""
"","practice_q2","220","373658","0.0-218.0-2.0","""event"",""trial"",""time""
""fullscreenenter"",""0"",""2941""
","
","
","""event"",""trial"",""time""
""fullscreenenter"",""0"",""2941""
","
","1335.3999998569489","run_exp/static/audio/clip_16_practice_question.m4a","86","","","","","","","",""
"","correct","221","375575","0.0-219.0-0.0","""event"",""trial"",""time""
""fullscreenenter"",""0"",""2941""
","
","
","""event"",""trial"",""time""
""fullscreenenter"",""0"",""2941""
","
","null","run_exp/static/audio/clip_17_correct.m4a","null","","","","","<div class='center'><p>That's correct!</p></div>","","",""
"","html-keyboard-response","222","376050","0.0-219.0-1.0","""event"",""trial"",""time""
""fullscreenenter"",""0"",""2941""
","
","
","""event"",""trial"",""time""
""fullscreenenter"",""0"",""2941""
","
","474.2000000476837","<div class='center'><p>That's correct!</p><div><p><b>[Press the space bar to continue]</b></p></div>","32","","","","","","","",""
"","practice_q3","223","377290","0.0-219.0-2.0","""event"",""trial"",""time""
""fullscreenenter"",""0"",""2941""
","
","
","""event"",""trial"",""time""
""fullscreenenter"",""0"",""2941""
","
","1239.5","run_exp/static/audio/clip_16_practice_question.m4a","66","","","","","","","",""
"","correct","224","379275","0.0-220.0-0.0","""event"",""trial"",""time""
""fullscreenenter"",""0"",""2941""
","
","
","""event"",""trial"",""time""
""fullscreenenter"",""0"",""2941""
","
","null","run_exp/static/audio/clip_17_correct.m4a","null","","","","","<div class='center'><p>That's correct!</p></div>","","",""
"","html-keyboard-response","225","379715","0.0-220.0-1.0","""event"",""trial"",""time""
""fullscreenenter"",""0"",""2941""
","
","
","""event"",""trial"",""time""
""fullscreenenter"",""0"",""2941""
","
","438.90000009536743","<div class='center'><p>That's correct!</p><div><p><b>[Press the space bar to continue]</b></p></div>","32","","","","","","","",""
"","begin_text","226","398216","0.0-221.0-0.0","""event"",""trial"",""time""
""fullscreenenter"",""0"",""2941""
","
","
","""event"",""trial"",""time""
""fullscreenenter"",""0"",""2941""
","
","null","run_exp/static/audio/clip_22_begin_test.m4a","null","","","","","<div class='center'><p>On to the real game where well test your memory of items from the indoor/outdoor game. For each item, you need to indicate if the item is <b>old</b> by pressing the <b>v</b> key, <b>similar</b> by pressing the <b>b</b> key, or <b>new</b> by pressing the <b>n</b> key. </p></div>","","",""
"","html-keyboard-response","227","400589","0.0-221.0-1.0","""event"",""trial"",""time""
""fullscreenenter"",""0"",""2941""
","
","
","""event"",""trial"",""time""
""fullscreenenter"",""0"",""2941""
","
","2372.600000143051","<div class='center'><p>On to the real game where well test your memory of items from the indoor/outdoor game. For each item, you need to indicate if the item is <b>old</b> by pressing the <b>v</b> key, <b>similar</b> by pressing the <b>b</b> key, or <b>new</b> by pressing the <b>n</b> key. </p><div><p><b>[Press the space bar to continue]</b></p></div>","32","","","","","","","",""
"","image","228","402357","0.0-222.0-0.0","""event"",""trial"",""time""
""fullscreenenter"",""0"",""2941""
","
","
","""event"",""trial"",""time""
""fullscreenenter"",""0"",""2941""
","
","1767.3999998569489","run_exp/static/images/Set 6_rs/091b.jpg","66","","","","","","test","TL","3"
"","show_choice","229","402868","0.0-222.0-1.0","""event"",""trial"",""time""
""fullscreenenter"",""0"",""2941""
","
","
","""event"",""trial"",""time""
""fullscreenenter"",""0"",""2941""
","
","null","run_exp/static/images/Set 6_rs/091b.jpg","null","","","","","","test","TL",""
"","html-keyboard-response","230","403374","0.0-222.0-2.0","""event"",""trial"",""time""
""fullscreenenter"",""0"",""2941""
","
","
","""event"",""trial"",""time""
""fullscreenenter"",""0"",""2941""
","
","null","<p></p>","null","","","","","","","",""
"","image","231","405078","0.0-223.0-0.0","""event"",""trial"",""time""
""fullscreenenter"",""0"",""2941""
","
","
","""event"",""trial"",""time""
""fullscreenenter"",""0"",""2941""
","
","1703.4000000953674","run_exp/static/images/Set 6_rs/112a.jpg","78","","","","","","test","TR","5"
"","show_choice","232","405588","0.0-223.0-1.0","""event"",""trial"",""time""
""fullscreenenter"",""0"",""2941""
","
","
","""event"",""trial"",""time""
""fullscreenenter"",""0"",""2941""
","
","null","run_exp/static/images/Set 6_rs/112a.jpg","null","","","","","","test","TR",""
"","html-keyboard-response","233","406096","0.0-223.0-2.0","""event"",""trial"",""time""
""fullscreenenter"",""0"",""2941""
","
","
","""event"",""trial"",""time""
""fullscreenenter"",""0"",""2941""
","
","null","<p></p>","null","","","","","","","",""
"","image","234","407190","0.0-224.0-0.0","""event"",""trial"",""time""
""fullscreenenter"",""0"",""2941""
","
","
","""event"",""trial"",""time""
""fullscreenenter"",""0"",""2941""
","
","1092.9000000953674","run_exp/static/images/Set 6_rs/006b.jpg","86","","","","","","test","TL","2"
"","show_choice","235","407699","0.0-224.0-1.0","""event"",""trial"",""time""
""fullscreenenter"",""0"",""2941""
","
","
","""event"",""trial"",""time""
""fullscreenenter"",""0"",""2941""
","
","null","run_exp/static/images/Set 6_rs/006b.jpg","null","","","","","","test","TL",""
"","html-keyboard-response","236","408205","0.0-224.0-2.0","""event"",""trial"",""time""
""fullscreenenter"",""0"",""2941""
","
","
","""event"",""trial"",""time""
""fullscreenenter"",""0"",""2941""
","
","null","<p></p>","null","","","","","","","",""
"","image","237","409758","0.0-225.0-0.0","""event"",""trial"",""time""
""fullscreenenter"",""0"",""2941""
","
","
","""event"",""trial"",""time""
""fullscreenenter"",""0"",""2941""
","
","1552.5","run_exp/static/images/Set 6_rs/057b.jpg","86","","","","","","test","TL","1"
"","show_choice","238","410263","0.0-225.0-1.0","""event"",""trial"",""time""
""fullscreenenter"",""0"",""2941""
","
","
","""event"",""trial"",""time""
""fullscreenenter"",""0"",""2941""
","
","null","run_exp/static/images/Set 6_rs/057b.jpg","null","","","","","","test","TL",""
"","html-keyboard-response","239","410770","0.0-225.0-2.0","""event"",""trial"",""time""
""fullscreenenter"",""0"",""2941""
","
","
","""event"",""trial"",""time""
""fullscreenenter"",""0"",""2941""
","
","null","<p></p>","null","","","","","","","",""
"","image","240","412270","0.0-226.0-0.0","""event"",""trial"",""time""
""fullscreenenter"",""0"",""2941""
","
","
","""event"",""trial"",""time""
""fullscreenenter"",""0"",""2941""
","
","1499.2000000476837","run_exp/static/images/Set 6_rs/116b.jpg","66","","","","","","test","TL","2"
"","show_choice","241","412774","0.0-226.0-1.0","""event"",""trial"",""time""
""fullscreenenter"",""0"",""2941""
","
","
","""event"",""trial"",""time""
""fullscreenenter"",""0"",""2941""
","
","null","run_exp/static/images/Set 6_rs/116b.jpg","null","","","","","","test","TL",""
"","html-keyboard-response","242","413283","0.0-226.0-2.0","""event"",""trial"",""time""
""fullscreenenter"",""0"",""2941""
","
","
","""event"",""trial"",""time""
""fullscreenenter"",""0"",""2941""
","
","null","<p></p>","null","","","","","","","",""
"","image","243","415087","0.0-227.0-0.0","""event"",""trial"",""time""
""fullscreenenter"",""0"",""2941""
","
","
","""event"",""trial"",""time""
""fullscreenenter"",""0"",""2941""
","
","1803.0999999046326","run_exp/static/images/Set 6_rs/048a.jpg","78","","","","","","test","TF","4"
"","show_choice","244","415592","0.0-227.0-1.0","""event"",""trial"",""time""
""fullscreenenter"",""0"",""2941""
","
","
","""event"",""trial"",""time""
""fullscreenenter"",""0"",""2941""
","
","null","run_exp/static/images/Set 6_rs/048a.jpg","null","","","","","","test","TF",""
"","html-keyboard-response","245","416095","0.0-227.0-2.0","""event"",""trial"",""time""
""fullscreenenter"",""0"",""2941""
","
","
","""event"",""trial"",""time""
""fullscreenenter"",""0"",""2941""
","
","null","<p></p>","null","","","","","","","",""
"","image","246","418455","0.0-228.0-0.0","""event"",""trial"",""time""
""fullscreenenter"",""0"",""2941""
","
","
","""event"",""trial"",""time""
""fullscreenenter"",""0"",""2941""
","
","2359.0999999046326","run_exp/static/images/Set 6_rs/077a.jpg","66","","","","","","test","TF","3"
"","show_choice","247","418966","0.0-228.0-1.0","""event"",""trial"",""time""
""fullscreenenter"",""0"",""2941""
","
","
","""event"",""trial"",""time""
""fullscreenenter"",""0"",""2941""
","
","null","run_exp/static/images/Set 6_rs/077a.jpg","null","","","","","","test","TF",""
"","html-keyboard-response","248","419474","0.0-228.0-2.0","""event"",""trial"",""time""
""fullscreenenter"",""0"",""2941""
","
","
","""event"",""trial"",""time""
""fullscreenenter"",""0"",""2941""
","
","null","<p></p>","null","","","","","","","",""
"","image","249","420943","0.0-229.0-0.0","""event"",""trial"",""time""
""fullscreenenter"",""0"",""2941""
","
","
","""event"",""trial"",""time""
""fullscreenenter"",""0"",""2941""
","
","1468","run_exp/static/images/Set 6_rs/061a.jpg","86","","","","","","test","TR","5"
"","show_choice","250","421449","0.0-229.0-1.0","""event"",""trial"",""time""
""fullscreenenter"",""0"",""2941""
","
","
","""event"",""trial"",""time""
""fullscreenenter"",""0"",""2941""
","
","null","run_exp/static/images/Set 6_rs/061a.jpg","null","","","","","","test","TR",""
"","html-keyboard-response","251","421961","0.0-229.0-2.0","""event"",""trial"",""time""
""fullscreenenter"",""0"",""2941""
","
","
","""event"",""trial"",""time""
""fullscreenenter"",""0"",""2941""
","
","null","<p></p>","null","","","","","","","",""
"","image","252","424479","0.0-230.0-0.0","""event"",""trial"",""time""
""fullscreenenter"",""0"",""2941""
","
","
","""event"",""trial"",""time""
""fullscreenenter"",""0"",""2941""
","
","2517.699999809265","run_exp/static/images/Set 6_rs/045a.jpg","78","","","","","","test","TR","2"
"","show_choice","253","424992","0.0-230.0-1.0","""event"",""trial"",""time""
""fullscreenenter"",""0"",""2941""
","
","
","""event"",""trial"",""time""
""fullscreenenter"",""0"",""2941""
","
","null","run_exp/static/images/Set 6_rs/045a.jpg","null","","","","","","test","TR",""
"","html-keyboard-response","254","425500","0.0-230.0-2.0","""event"",""trial"",""time""
""fullscreenenter"",""0"",""2941""
","
","
","""event"",""trial"",""time""
""fullscreenenter"",""0"",""2941""
","
","null","<p></p>","null","","","","","","","",""
"","image","255","427784","0.0-231.0-0.0","""event"",""trial"",""time""
""fullscreenenter"",""0"",""2941""
","
","
","""event"",""trial"",""time""
""fullscreenenter"",""0"",""2941""
","
","2283.399999856949","run_exp/static/images/Set 6_rs/176a.jpg","86","","","","","","test","TF","4"
"","show_choice","256","428291","0.0-231.0-1.0","""event"",""trial"",""time""
""fullscreenenter"",""0"",""2941""
","
","
","""event"",""trial"",""time""
""fullscreenenter"",""0"",""2941""
","
","null","run_exp/static/images/Set 6_rs/176a.jpg","null","","","","","","test","TF",""
"","html-keyboard-response","257","428798","0.0-231.0-2.0","""event"",""trial"",""time""
""fullscreenenter"",""0"",""2941""
","
","
","""event"",""trial"",""time""
""fullscreenenter"",""0"",""2941""
","
","null","<p></p>","null","","","","","","","",""
"","image","258","430521","0.0-232.0-0.0","""event"",""trial"",""time""
""fullscreenenter"",""0"",""2941""
","
","
","""event"",""trial"",""time""
""fullscreenenter"",""0"",""2941""
","
","1722.7000000476837","run_exp/static/images/Set 6_rs/171a.jpg","86","","","","","","test","TF","1"
"","show_choice","259","431035","0.0-232.0-1.0","""event"",""trial"",""time""
""fullscreenenter"",""0"",""2941""
","
","
","""event"",""trial"",""time""
""fullscreenenter"",""0"",""2941""
","
","null","run_exp/static/images/Set 6_rs/171a.jpg","null","","","","","","test","TF",""
"","html-keyboard-response","260","431544","0.0-232.0-2.0","""event"",""trial"",""time""
""fullscreenenter"",""0"",""2941""
","
","
","""event"",""trial"",""time""
""fullscreenenter"",""0"",""2941""
","
","null","<p></p>","null","","","","","","","",""
"","image","261","433577","0.0-233.0-0.0","""event"",""trial"",""time""
""fullscreenenter"",""0"",""2941""
","
","
","""event"",""trial"",""time""
""fullscreenenter"",""0"",""2941""
","
","2032.4000000953674","run_exp/static/images/Set 6_rs/055b.jpg","66","","","","","","test","TL","4"
"","show_choice","262","434083","0.0-233.0-1.0","""event"",""trial"",""time""
""fullscreenenter"",""0"",""2941""
","
","
","""event"",""trial"",""time""
""fullscreenenter"",""0"",""2941""
","
","null","run_exp/static/images/Set 6_rs/055b.jpg","null","","","","","","test","TL",""
"","html-keyboard-response","263","434592","0.0-233.0-2.0","""event"",""trial"",""time""
""fullscreenenter"",""0"",""2941""
","
","
","""event"",""trial"",""time""
""fullscreenenter"",""0"",""2941""
","
","null","<p></p>","null","","","","","","","",""
"","image","264","435825","0.0-234.0-0.0","""event"",""trial"",""time""
""fullscreenenter"",""0"",""2941""
","
","
","""event"",""trial"",""time""
""fullscreenenter"",""0"",""2941""
","
","1232.8999998569489","run_exp/static/images/Set 6_rs/121a.jpg","78","","","","","","test","TR","4"
"","show_choice","265","436332","0.0-234.0-1.0","""event"",""trial"",""time""
""fullscreenenter"",""0"",""2941""
","
","
","""event"",""trial"",""time""
""fullscreenenter"",""0"",""2941""
","
","null","run_exp/static/images/Set 6_rs/121a.jpg","null","","","","","","test","TR",""
"","html-keyboard-response","266","436844","0.0-234.0-2.0","""event"",""trial"",""time""
""fullscreenenter"",""0"",""2941""
","
","
","""event"",""trial"",""time""
""fullscreenenter"",""0"",""2941""
","
","null","<p></p>","null","","","","","","","",""
"","image","267","439265","0.0-235.0-0.0","""event"",""trial"",""time""
""fullscreenenter"",""0"",""2941""
","
","
","""event"",""trial"",""time""
""fullscreenenter"",""0"",""2941""
","
","2420.2999999523163","run_exp/static/images/Set 6_rs/100a.jpg","86","","","","","","test","TF","2"
"","show_choice","268","439776","0.0-235.0-1.0","""event"",""trial"",""time""
""fullscreenenter"",""0"",""2941""
","
","
","""event"",""trial"",""time""
""fullscreenenter"",""0"",""2941""
","
","null","run_exp/static/images/Set 6_rs/100a.jpg","null","","","","","","test","TF",""
"","html-keyboard-response","269","440286","0.0-235.0-2.0","""event"",""trial"",""time""
""fullscreenenter"",""0"",""2941""
","
","
","""event"",""trial"",""time""
""fullscreenenter"",""0"",""2941""
","
","null","<p></p>","null","","","","","","","",""
"","image","270","443292","0.0-236.0-0.0","""event"",""trial"",""time""
""fullscreenenter"",""0"",""2941""
","
","
","""event"",""trial"",""time""
""fullscreenenter"",""0"",""2941""
","
","null","run_exp/static/images/Set 6_rs/011a.jpg","null","","","","","","test","TF","3"
"","show_choice","271","443797","0.0-236.0-1.0","""event"",""trial"",""time""
""fullscreenenter"",""0"",""2941""
","
","
","""event"",""trial"",""time""
""fullscreenenter"",""0"",""2941""
","
","null","run_exp/static/images/Set 6_rs/011a.jpg","null","","","","","","test","TF",""
"","html-keyboard-response","272","444302","0.0-236.0-2.0","""event"",""trial"",""time""
""fullscreenenter"",""0"",""2941""
","
","
","""event"",""trial"",""time""
""fullscreenenter"",""0"",""2941""
","
","null","<p></p>","null","","","","","","","",""
"","image","273","446337","0.0-237.0-0.0","""event"",""trial"",""time""
""fullscreenenter"",""0"",""2941""
","
","
","""event"",""trial"",""time""
""fullscreenenter"",""0"",""2941""
","
","2034.7999999523163","run_exp/static/images/Set 6_rs/132a.jpg","78","","","","","","test","TR","5"
"","show_choice","274","446852","0.0-237.0-1.0","""event"",""trial"",""time""
""fullscreenenter"",""0"",""2941""
","
","
","""event"",""trial"",""time""
""fullscreenenter"",""0"",""2941""
","
","null","run_exp/static/images/Set 6_rs/132a.jpg","null","","","","","","test","TR",""
"","html-keyboard-response","275","447362","0.0-237.0-2.0","""event"",""trial"",""time""
""fullscreenenter"",""0"",""2941""
","
","
","""event"",""trial"",""time""
""fullscreenenter"",""0"",""2941""
","
","null","<p></p>","null","","","","","","","",""
"","image","276","449244","0.0-238.0-0.0","""event"",""trial"",""time""
""fullscreenenter"",""0"",""2941""
","
","
","""event"",""trial"",""time""
""fullscreenenter"",""0"",""2941""
","
","1881.0999999046326","run_exp/static/images/Set 6_rs/155a.jpg","86","","","","","","test","TF","4"
"","show_choice","277","449758","0.0-238.0-1.0","""event"",""trial"",""time""
""fullscreenenter"",""0"",""2941""
","
","
","""event"",""trial"",""time""
""fullscreenenter"",""0"",""2941""
","
","null","run_exp/static/images/Set 6_rs/155a.jpg","null","","","","","","test","TF",""
"","html-keyboard-response","278","450268","0.0-238.0-2.0","""event"",""trial"",""time""
""fullscreenenter"",""0"",""2941""
","
","
","""event"",""trial"",""time""
""fullscreenenter"",""0"",""2941""
","
","null","<p></p>","null","","","","","","","",""
"","image","279","451490","0.0-239.0-0.0","""event"",""trial"",""time""
""fullscreenenter"",""0"",""2941""
","
","
","""event"",""trial"",""time""
""fullscreenenter"",""0"",""2941""
","
","1220.8999998569489","run_exp/static/images/Set 6_rs/117b.jpg","66","","","","","","test","TL","5"
"","show_choice","280","451992","0.0-239.0-1.0","""event"",""trial"",""time""
""fullscreenenter"",""0"",""2941""
","
","
","""event"",""trial"",""time""
""fullscreenenter"",""0"",""2941""
","
","null","run_exp/static/images/Set 6_rs/117b.jpg","null","","","","","","test","TL",""
"","html-keyboard-response","281","452499","0.0-239.0-2.0","""event"",""trial"",""time""
""fullscreenenter"",""0"",""2941""
","
","
","""event"",""trial"",""time""
""fullscreenenter"",""0"",""2941""
","
","null","<p></p>","null","","","","","","","",""
"","image","282","453620","0.0-240.0-0.0","""event"",""trial"",""time""
""fullscreenenter"",""0"",""2941""
","
","
","""event"",""trial"",""time""
""fullscreenenter"",""0"",""2941""
","
","1119.9000000953674","run_exp/static/images/Set 6_rs/095b.jpg","66","","","","","","test","TL","5"
"","show_choice","283","454129","0.0-240.0-1.0","""event"",""trial"",""time""
""fullscreenenter"",""0"",""2941""
","
","
","""event"",""trial"",""time""
""fullscreenenter"",""0"",""2941""
","
","null","run_exp/static/images/Set 6_rs/095b.jpg","null","","","","","","test","TL",""
"","html-keyboard-response","284","454632","0.0-240.0-2.0","""event"",""trial"",""time""
""fullscreenenter"",""0"",""2941""
","
","
","""event"",""trial"",""time""
""fullscreenenter"",""0"",""2941""
","
","null","<p></p>","null","","","","","","","",""
"","image","285","456058","0.0-241.0-0.0","""event"",""trial"",""time""
""fullscreenenter"",""0"",""2941""
","
","
","""event"",""trial"",""time""
""fullscreenenter"",""0"",""2941""
","
","1425.0999999046326","run_exp/static/images/Set 6_rs/065a.jpg","78","","","","","","test","TF","3"
"","show_choice","286","456575","0.0-241.0-1.0","""event"",""trial"",""time""
""fullscreenenter"",""0"",""2941""
","
","
","""event"",""trial"",""time""
""fullscreenenter"",""0"",""2941""
","
","null","run_exp/static/images/Set 6_rs/065a.jpg","null","","","","","","test","TF",""
"","html-keyboard-response","287","457085","0.0-241.0-2.0","""event"",""trial"",""time""
""fullscreenenter"",""0"",""2941""
","
","
","""event"",""trial"",""time""
""fullscreenenter"",""0"",""2941""
","
","null","<p></p>","null","","","","","","","",""
"","image","288","458787","0.0-242.0-0.0","""event"",""trial"",""time""
""fullscreenenter"",""0"",""2941""
","
","
","""event"",""trial"",""time""
""fullscreenenter"",""0"",""2941""
","
","1701.0999999046326","run_exp/static/images/Set 6_rs/108a.jpg","86","","","","","","test","TR","5"
"","show_choice","289","459294","0.0-242.0-1.0","""event"",""trial"",""time""
""fullscreenenter"",""0"",""2941""
","
","
","""event"",""trial"",""time""
""fullscreenenter"",""0"",""2941""
","
","null","run_exp/static/images/Set 6_rs/108a.jpg","null","","","","","","test","TR",""
"","html-keyboard-response","290","459802","0.0-242.0-2.0","""event"",""trial"",""time""
""fullscreenenter"",""0"",""2941""
","
","
","""event"",""trial"",""time""
""fullscreenenter"",""0"",""2941""
","
","null","<p></p>","null","","","","","","","",""
"","image","291","460915","0.0-243.0-0.0","""event"",""trial"",""time""
""fullscreenenter"",""0"",""2941""
","
","
","""event"",""trial"",""time""
""fullscreenenter"",""0"",""2941""
","
","1111.7999999523163","run_exp/static/images/Set 6_rs/144b.jpg","66","","","","","","test","TL","4"
"","show_choice","292","461430","0.0-243.0-1.0","""event"",""trial"",""time""
""fullscreenenter"",""0"",""2941""
","
","
","""event"",""trial"",""time""
""fullscreenenter"",""0"",""2941""
","
","null","run_exp/static/images/Set 6_rs/144b.jpg","null","","","","","","test","TL",""
"","html-keyboard-response","293","461938","0.0-243.0-2.0","""event"",""trial"",""time""
""fullscreenenter"",""0"",""2941""
","
","
","""event"",""trial"",""time""
""fullscreenenter"",""0"",""2941""
","
","null","<p></p>","null","","","","","","","",""
"","image","294","463747","0.0-244.0-0.0","""event"",""trial"",""time""
""fullscreenenter"",""0"",""2941""
","
","
","""event"",""trial"",""time""
""fullscreenenter"",""0"",""2941""
","
","1808.0999999046326","run_exp/static/images/Set 6_rs/005a.jpg","78","","","","","","test","TF","5"
"","show_choice","295","464249","0.0-244.0-1.0","""event"",""trial"",""time""
""fullscreenenter"",""0"",""2941""
","
","
","""event"",""trial"",""time""
""fullscreenenter"",""0"",""2941""
","
","null","run_exp/static/images/Set 6_rs/005a.jpg","null","","","","","","test","TF",""
"","html-keyboard-response","296","464757","0.0-244.0-2.0","""event"",""trial"",""time""
""fullscreenenter"",""0"",""2941""
","
","
","""event"",""trial"",""time""
""fullscreenenter"",""0"",""2941""
","
","null","<p></p>","null","","","","","","","",""
"","image","297","465979","0.0-245.0-0.0","""event"",""trial"",""time""
""fullscreenenter"",""0"",""2941""
","
","
","""event"",""trial"",""time""
""fullscreenenter"",""0"",""2941""
","
","1221.7999999523163","run_exp/static/images/Set 6_rs/170a.jpg","78","","","","","","test","TF","2"
"","show_choice","298","466488","0.0-245.0-1.0","""event"",""trial"",""time""
""fullscreenenter"",""0"",""2941""
","
","
","""event"",""trial"",""time""
""fullscreenenter"",""0"",""2941""
","
","null","run_exp/static/images/Set 6_rs/170a.jpg","null","","","","","","test","TF",""
"","html-keyboard-response","299","466998","0.0-245.0-2.0","""event"",""trial"",""time""
""fullscreenenter"",""0"",""2941""
","
","
","""event"",""trial"",""time""
""fullscreenenter"",""0"",""2941""
","
","null","<p></p>","null","","","","","","","",""
"","image","300","468035","0.0-246.0-0.0","""event"",""trial"",""time""
""fullscreenenter"",""0"",""2941""
","
","
","""event"",""trial"",""time""
""fullscreenenter"",""0"",""2941""
","
","1036.5999999046326","run_exp/static/images/Set 6_rs/070a.jpg","66","","","","","","test","TR","2"
"","show_choice","301","468542","0.0-246.0-1.0","""event"",""trial"",""time""
""fullscreenenter"",""0"",""2941""
","
","
","""event"",""trial"",""time""
""fullscreenenter"",""0"",""2941""
","
","null","run_exp/static/images/Set 6_rs/070a.jpg","null","","","","","","test","TR",""
"","html-keyboard-response","302","469053","0.0-246.0-2.0","""event"",""trial"",""time""
""fullscreenenter"",""0"",""2941""
","
","
","""event"",""trial"",""time""
""fullscreenenter"",""0"",""2941""
","
","null","<p></p>","null","","","","","","","",""
"","image","303","471124","0.0-247.0-0.0","""event"",""trial"",""time""
""fullscreenenter"",""0"",""2941""
","
","
","""event"",""trial"",""time""
""fullscreenenter"",""0"",""2941""
","
","2070.5","run_exp/static/images/Set 6_rs/086a.jpg","78","","","","","","test","TF","1"
"","show_choice","304","471631","0.0-247.0-1.0","""event"",""trial"",""time""
""fullscreenenter"",""0"",""2941""
","
","
","""event"",""trial"",""time""
""fullscreenenter"",""0"",""2941""
","
","null","run_exp/static/images/Set 6_rs/086a.jpg","null","","","","","","test","TF",""
"","html-keyboard-response","305","472139","0.0-247.0-2.0","""event"",""trial"",""time""
""fullscreenenter"",""0"",""2941""
","
","
","""event"",""trial"",""time""
""fullscreenenter"",""0"",""2941""
","
","null","<p></p>","null","","","","","","","",""
"","image","306","472989","0.0-248.0-0.0","""event"",""trial"",""time""
""fullscreenenter"",""0"",""2941""
","
","
","""event"",""trial"",""time""
""fullscreenenter"",""0"",""2941""
","
","849.1000001430511","run_exp/static/images/Set 6_rs/105a.jpg","78","","","","","","test","TF","5"
"","show_choice","307","473505","0.0-248.0-1.0","""event"",""trial"",""time""
""fullscreenenter"",""0"",""2941""
","
","
","""event"",""trial"",""time""
""fullscreenenter"",""0"",""2941""
","
","null","run_exp/static/images/Set 6_rs/105a.jpg","null","","","","","","test","TF",""
"","html-keyboard-response","308","474017","0.0-248.0-2.0","""event"",""trial"",""time""
""fullscreenenter"",""0"",""2941""
","
","
","""event"",""trial"",""time""
""fullscreenenter"",""0"",""2941""
","
","null","<p></p>","null","","","","","","","",""
"","image","309","475732","0.0-249.0-0.0","""event"",""trial"",""time""
""fullscreenenter"",""0"",""2941""
","
","
","""event"",""trial"",""time""
""fullscreenenter"",""0"",""2941""
","
","1714.7999999523163","run_exp/static/images/Set 6_rs/166a.jpg","86","","","","","","test","TR","1"
"","show_choice","310","476237","0.0-249.0-1.0","""event"",""trial"",""time""
""fullscreenenter"",""0"",""2941""
","
","
","""event"",""trial"",""time""
""fullscreenenter"",""0"",""2941""
","
","null","run_exp/static/images/Set 6_rs/166a.jpg","null","","","","","","test","TR",""
"","html-keyboard-response","311","476745","0.0-249.0-2.0","""event"",""trial"",""time""
""fullscreenenter"",""0"",""2941""
","
","
","""event"",""trial"",""time""
""fullscreenenter"",""0"",""2941""
","
","null","<p></p>","null","","","","","","","",""
"","image","312","478812","0.0-250.0-0.0","""event"",""trial"",""time""
""fullscreenenter"",""0"",""2941""
","
","
","""event"",""trial"",""time""
""fullscreenenter"",""0"",""2941""
","
","2066.800000190735","run_exp/static/images/Set 6_rs/109a.jpg","78","","","","","","test","TF","5"
"","show_choice","313","479326","0.0-250.0-1.0","""event"",""trial"",""time""
""fullscreenenter"",""0"",""2941""
","
","
","""event"",""trial"",""time""
""fullscreenenter"",""0"",""2941""
","
","null","run_exp/static/images/Set 6_rs/109a.jpg","null","","","","","","test","TF",""
"","html-keyboard-response","314","479838","0.0-250.0-2.0","""event"",""trial"",""time""
""fullscreenenter"",""0"",""2941""
","
","
","""event"",""trial"",""time""
""fullscreenenter"",""0"",""2941""
","
","null","<p></p>","null","","","","","","","",""
"","image","315","481133","0.0-251.0-0.0","""event"",""trial"",""time""
""fullscreenenter"",""0"",""2941""
","
","
","""event"",""trial"",""time""
""fullscreenenter"",""0"",""2941""
","
","1294.2999999523163","run_exp/static/images/Set 6_rs/178a.jpg","78","","","","","","test","TR","3"
"","show_choice","316","481636","0.0-251.0-1.0","""event"",""trial"",""time""
""fullscreenenter"",""0"",""2941""
","
","
","""event"",""trial"",""time""
""fullscreenenter"",""0"",""2941""
","
","null","run_exp/static/images/Set 6_rs/178a.jpg","null","","","","","","test","TR",""
"","html-keyboard-response","317","482146","0.0-251.0-2.0","""event"",""trial"",""time""
""fullscreenenter"",""0"",""2941""
","
","
","""event"",""trial"",""time""
""fullscreenenter"",""0"",""2941""
","
","null","<p></p>","null","","","","","","","",""
"","image","318","484477","0.0-252.0-0.0","""event"",""trial"",""time""
""fullscreenenter"",""0"",""2941""
","
","
","""event"",""trial"",""time""
""fullscreenenter"",""0"",""2941""
","
","2330.2000000476837","run_exp/static/images/Set 6_rs/118a.jpg","78","","","","","","test","TF","5"
"","show_choice","319","484993","0.0-252.0-1.0","""event"",""trial"",""time""
""fullscreenenter"",""0"",""2941""
","
","
","""event"",""trial"",""time""
""fullscreenenter"",""0"",""2941""
","
","null","run_exp/static/images/Set 6_rs/118a.jpg","null","","","","","","test","TF",""
"","html-keyboard-response","320","485496","0.0-252.0-2.0","""event"",""trial"",""time""
""fullscreenenter"",""0"",""2941""
","
","
","""event"",""trial"",""time""
""fullscreenenter"",""0"",""2941""
","
","null","<p></p>","null","","","","","","","",""
"","image","321","486781","0.0-253.0-0.0","""event"",""trial"",""time""
""fullscreenenter"",""0"",""2941""
","
","
","""event"",""trial"",""time""
""fullscreenenter"",""0"",""2941""
","
","1284.8000001907349","run_exp/static/images/Set 6_rs/017b.jpg","66","","","","","","test","TL","3"
"","show_choice","322","487288","0.0-253.0-1.0","""event"",""trial"",""time""
""fullscreenenter"",""0"",""2941""
","
","
","""event"",""trial"",""time""
""fullscreenenter"",""0"",""2941""
","
","null","run_exp/static/images/Set 6_rs/017b.jpg","null","","","","","","test","TL",""
"","html-keyboard-response","323","487796","0.0-253.0-2.0","""event"",""trial"",""time""
""fullscreenenter"",""0"",""2941""
","
","
","""event"",""trial"",""time""
""fullscreenenter"",""0"",""2941""
","
","null","<p></p>","null","","","","","","","",""
"","image","324","489750","0.0-254.0-0.0","""event"",""trial"",""time""
""fullscreenenter"",""0"",""2941""
","
","
","""event"",""trial"",""time""
""fullscreenenter"",""0"",""2941""
","
","1952.7000000476837","run_exp/static/images/Set 6_rs/134a.jpg","86","","","","","","test","TR","3"
"","show_choice","325","490253","0.0-254.0-1.0","""event"",""trial"",""time""
""fullscreenenter"",""0"",""2941""
","
","
","""event"",""trial"",""time""
""fullscreenenter"",""0"",""2941""
","
","null","run_exp/static/images/Set 6_rs/134a.jpg","null","","","","","","test","TR",""
"","html-keyboard-response","326","490759","0.0-254.0-2.0","""event"",""trial"",""time""
""fullscreenenter"",""0"",""2941""
","
","
","""event"",""trial"",""time""
""fullscreenenter"",""0"",""2941""
","
","null","<p></p>","null","","","","","","","",""
"","image","327","493764","0.0-255.0-0.0","""event"",""trial"",""time""
""fullscreenenter"",""0"",""2941""
","
","
","""event"",""trial"",""time""
""fullscreenenter"",""0"",""2941""
","
","null","run_exp/static/images/Set 6_rs/015a.jpg","null","","","","","","test","TF","4"
"","show_choice","328","494274","0.0-255.0-1.0","""event"",""trial"",""time""
""fullscreenenter"",""0"",""2941""
","
","
","""event"",""trial"",""time""
""fullscreenenter"",""0"",""2941""
","
","null","run_exp/static/images/Set 6_rs/015a.jpg","null","","","","","","test","TF",""
"","html-keyboard-response","329","494784","0.0-255.0-2.0","""event"",""trial"",""time""
""fullscreenenter"",""0"",""2941""
","
","
","""event"",""trial"",""time""
""fullscreenenter"",""0"",""2941""
","
","null","<p></p>","null","","","","","","","",""
"","image","330","496215","0.0-256.0-0.0","""event"",""trial"",""time""
""fullscreenenter"",""0"",""2941""
","
","
","""event"",""trial"",""time""
""fullscreenenter"",""0"",""2941""
","
","1430.2999999523163","run_exp/static/images/Set 6_rs/111b.jpg","78","","","","","","test","TL","3"
"","show_choice","331","496728","0.0-256.0-1.0","""event"",""trial"",""time""
""fullscreenenter"",""0"",""2941""
","
","
","""event"",""trial"",""time""
""fullscreenenter"",""0"",""2941""
","
","null","run_exp/static/images/Set 6_rs/111b.jpg","null","","","","","","test","TL",""
"","html-keyboard-response","332","497235","0.0-256.0-2.0","""event"",""trial"",""time""
""fullscreenenter"",""0"",""2941""
","
","
","""event"",""trial"",""time""
""fullscreenenter"",""0"",""2941""
","
","null","<p></p>","null","","","","","","","",""
"","image","333","499167","0.0-257.0-0.0","""event"",""trial"",""time""
""fullscreenenter"",""0"",""2941""
","
","
","""event"",""trial"",""time""
""fullscreenenter"",""0"",""2941""
","
","1931.2999999523163","run_exp/static/images/Set 6_rs/172a.jpg","78","","","","","","test","TR","1"
"","show_choice","334","499681","0.0-257.0-1.0","""event"",""trial"",""time""
""fullscreenenter"",""0"",""2941""
","
","
","""event"",""trial"",""time""
""fullscreenenter"",""0"",""2941""
","
","null","run_exp/static/images/Set 6_rs/172a.jpg","null","","","","","","test","TR",""
"","html-keyboard-response","335","500192","0.0-257.0-2.0","""event"",""trial"",""time""
""fullscreenenter"",""0"",""2941""
","
","
","""event"",""trial"",""time""
""fullscreenenter"",""0"",""2941""
","
","null","<p></p>","null","","","","","","","",""
"","image","336","501751","0.0-258.0-0.0","""event"",""trial"",""time""
""fullscreenenter"",""0"",""2941""
","
","
","""event"",""trial"",""time""
""fullscreenenter"",""0"",""2941""
","
","1557.5","run_exp/static/images/Set 6_rs/141a.jpg","66","","","","","","test","TR","2"
"","show_choice","337","502263","0.0-258.0-1.0","""event"",""trial"",""time""
""fullscreenenter"",""0"",""2941""
","
","
","""event"",""trial"",""time""
""fullscreenenter"",""0"",""2941""
","
","null","run_exp/static/images/Set 6_rs/141a.jpg","null","","","","","","test","TR",""
"","html-keyboard-response","338","502775","0.0-258.0-2.0","""event"",""trial"",""time""
""fullscreenenter"",""0"",""2941""
","
","
","""event"",""trial"",""time""
""fullscreenenter"",""0"",""2941""
","
","null","<p></p>","null","","","","","","","",""
"","image","339","504095","0.0-259.0-0.0","""event"",""trial"",""time""
""fullscreenenter"",""0"",""2941""
","
","
","""event"",""trial"",""time""
""fullscreenenter"",""0"",""2941""
","
","1320.3000001907349","run_exp/static/images/Set 6_rs/122a.jpg","78","","","","","","test","TR","5"
"","show_choice","340","504605","0.0-259.0-1.0","""event"",""trial"",""time""
""fullscreenenter"",""0"",""2941""
","
","
","""event"",""trial"",""time""
""fullscreenenter"",""0"",""2941""
","
","null","run_exp/static/images/Set 6_rs/122a.jpg","null","","","","","","test","TR",""
