"success","trial_type","trial_index","time_elapsed","internal_node_id","interactions","blur_events","focus_events","fullscreenenter_events","fullscreenexit_events","rt","stimulus","key_press","subject_id","participant_id","age","gender","prompt","phase","condition","lure_bin"
"true","fullscreen","0","3396","0.0-0.0","""event"",""trial"",""time""
""fullscreenenter"",""0"",""2412""
","
","
","""event"",""trial"",""time""
""fullscreenenter"",""0"",""2412""
","
","","","","","","","","","","",""
"","pavlovia","1","3402","0.0-1.0","""event"",""trial"",""time""
""fullscreenenter"",""0"",""2412""
""fullscreenexit"",""2"",""4342""
""blur"",""2"",""20470""
""focus"",""2"",""21984""
""blur"",""2"",""38081""
","""event"",""trial"",""time""
""blur"",""2"",""20470""
""blur"",""2"",""38081""
","""event"",""trial"",""time""
""focus"",""2"",""21984""
","""event"",""trial"",""time""
""fullscreenenter"",""0"",""2412""
","""event"",""trial"",""time""
""fullscreenexit"",""2"",""4342""
","","","","","","","","","","",""
"","welcome","2","38192","0.0-2.0","""event"",""trial"",""time""
""fullscreenenter"",""0"",""2412""
""fullscreenexit"",""2"",""4342""
""blur"",""2"",""20470""
""focus"",""2"",""21984""
""blur"",""2"",""38081""
""focus"",""3"",""40344""
","""event"",""trial"",""time""
""blur"",""2"",""20470""
""blur"",""2"",""38081""
","""event"",""trial"",""time""
""focus"",""2"",""21984""
""focus"",""3"",""40344""
","""event"",""trial"",""time""
""fullscreenenter"",""0"",""2412""
","""event"",""trial"",""time""
""fullscreenexit"",""2"",""4342""
","null","run_exp/static/audio/clip_1_welcome.m4a","null","493","337","25","Male","<div class='center'><p>Welcome to the third part of the study! First, you'll be shown pictures of items one at a time. For each picture, you have to decide if the item is typically found indoors or outdoors.</p><p>If you think it's usually found indoors, then press <b>v</b> key on your keyboard. If you think it's usually found outdoors, then press the <b>n</b> key.There will be reminders on the screen to help you remember which keys to press. </p><p>If you're not sure whether the item is an indoor item or an outdoor item, go ahead and take a guess but try your best not to skip that choice. </p></div>","","",""
"","html-keyboard-response","3","41564","0.0-3.0","""event"",""trial"",""time""
""fullscreenenter"",""0"",""2412""
""fullscreenexit"",""2"",""4342""
""blur"",""2"",""20470""
""focus"",""2"",""21984""
""blur"",""2"",""38081""
""focus"",""3"",""40344""
","""event"",""trial"",""time""
""blur"",""2"",""20470""
""blur"",""2"",""38081""
","""event"",""trial"",""time""
""focus"",""2"",""21984""
""focus"",""3"",""40344""
","""event"",""trial"",""time""
""fullscreenenter"",""0"",""2412""
","""event"",""trial"",""time""
""fullscreenexit"",""2"",""4342""
","3367.5","<div class='center'><p>Welcome to the third part of the study! First, you'll be shown pictures of items one at a time. For each picture, you have to decide if the item is typically found indoors or outdoors.</p><p>If you think it's usually found indoors, then press <b>v</b> key on your keyboard. If you think it's usually found outdoors, then press the <b>n</b> key.There will be reminders on the screen to help you remember which keys to press. </p><p>If you're not sure whether the item is an indoor item or an outdoor item, go ahead and take a guess but try your best not to skip that choice. </p><div><p><b>[Press the space bar to continue]</b></p></div>","32","","","","","","","",""
"","image","4","43573","0.0-4.0","""event"",""trial"",""time""
""fullscreenenter"",""0"",""2412""
""fullscreenexit"",""2"",""4342""
""blur"",""2"",""20470""
""focus"",""2"",""21984""
""blur"",""2"",""38081""
""focus"",""3"",""40344""
","""event"",""trial"",""time""
""blur"",""2"",""20470""
""blur"",""2"",""38081""
","""event"",""trial"",""time""
""focus"",""2"",""21984""
""focus"",""3"",""40344""
","""event"",""trial"",""time""
""fullscreenenter"",""0"",""2412""
","""event"",""trial"",""time""
""fullscreenexit"",""2"",""4342""
","2006.4000000003725","run_exp/static/images/Set 6_rs/112a.jpg","78","","","","","","learn","SR",""
"","show_choice","5","43577","0.0-5.0","""event"",""trial"",""time""
""fullscreenenter"",""0"",""2412""
""fullscreenexit"",""2"",""4342""
""blur"",""2"",""20470""
""focus"",""2"",""21984""
""blur"",""2"",""38081""
""focus"",""3"",""40344""
","""event"",""trial"",""time""
""blur"",""2"",""20470""
""blur"",""2"",""38081""
","""event"",""trial"",""time""
""focus"",""2"",""21984""
""focus"",""3"",""40344""
","""event"",""trial"",""time""
""fullscreenenter"",""0"",""2412""
","""event"",""trial"",""time""
""fullscreenexit"",""2"",""4342""
","null","run_exp/static/images/Set 6_rs/112a.jpg","null","","","","","","learn","SR",""
"","html-keyboard-response","6","44080","0.0-6.0","""event"",""trial"",""time""
""fullscreenenter"",""0"",""2412""
""fullscreenexit"",""2"",""4342""
""blur"",""2"",""20470""
""focus"",""2"",""21984""
""blur"",""2"",""38081""
""focus"",""3"",""40344""
","""event"",""trial"",""time""
""blur"",""2"",""20470""
""blur"",""2"",""38081""
","""event"",""trial"",""time""
""focus"",""2"",""21984""
""focus"",""3"",""40344""
","""event"",""trial"",""time""
""fullscreenenter"",""0"",""2412""
","""event"",""trial"",""time""
""fullscreenexit"",""2"",""4342""
","null","<p></p>","null","","","","","","","",""
"","image","7","46088","0.0-7.0","""event"",""trial"",""time""
""fullscreenenter"",""0"",""2412""
""fullscreenexit"",""2"",""4342""
""blur"",""2"",""20470""
""focus"",""2"",""21984""
""blur"",""2"",""38081""
""focus"",""3"",""40344""
","""event"",""trial"",""time""
""blur"",""2"",""20470""
""blur"",""2"",""38081""
","""event"",""trial"",""time""
""focus"",""2"",""21984""
""focus"",""3"",""40344""
","""event"",""trial"",""time""
""fullscreenenter"",""0"",""2412""
","""event"",""trial"",""time""
""fullscreenexit"",""2"",""4342""
","null","run_exp/static/images/Set 6_rs/023a.jpg","null","","","","","","learn","SR",""
"","show_choice","8","48100","0.0-8.0","""event"",""trial"",""time""
""fullscreenenter"",""0"",""2412""
""fullscreenexit"",""2"",""4342""
""blur"",""2"",""20470""
""focus"",""2"",""21984""
""blur"",""2"",""38081""
""focus"",""3"",""40344""
","""event"",""trial"",""time""
""blur"",""2"",""20470""
""blur"",""2"",""38081""
","""event"",""trial"",""time""
""focus"",""2"",""21984""
""focus"",""3"",""40344""
","""event"",""trial"",""time""
""fullscreenenter"",""0"",""2412""
","""event"",""trial"",""time""
""fullscreenexit"",""2"",""4342""
","null","run_exp/static/images/blank.png","null","","","","","","learn","SR",""
"","html-keyboard-response","9","48617","0.0-9.0","""event"",""trial"",""time""
""fullscreenenter"",""0"",""2412""
""fullscreenexit"",""2"",""4342""
""blur"",""2"",""20470""
""focus"",""2"",""21984""
""blur"",""2"",""38081""
""focus"",""3"",""40344""
","""event"",""trial"",""time""
""blur"",""2"",""20470""
""blur"",""2"",""38081""
","""event"",""trial"",""time""
""focus"",""2"",""21984""
""focus"",""3"",""40344""
","""event"",""trial"",""time""
""fullscreenenter"",""0"",""2412""
","""event"",""trial"",""time""
""fullscreenexit"",""2"",""4342""
","null","<p></p>","null","","","","","","","",""
"","image","10","49793","0.0-10.0","""event"",""trial"",""time""
""fullscreenenter"",""0"",""2412""
""fullscreenexit"",""2"",""4342""
""blur"",""2"",""20470""
""focus"",""2"",""21984""
""blur"",""2"",""38081""
""focus"",""3"",""40344""
","""event"",""trial"",""time""
""blur"",""2"",""20470""
""blur"",""2"",""38081""
","""event"",""trial"",""time""
""focus"",""2"",""21984""
""focus"",""3"",""40344""
","""event"",""trial"",""time""
""fullscreenenter"",""0"",""2412""
","""event"",""trial"",""time""
""fullscreenexit"",""2"",""4342""
","1174.5999999996275","run_exp/static/images/Set 6_rs/150a.jpg","86","","","","","","learn","SR",""
"","show_choice","11","50624","0.0-11.0","""event"",""trial"",""time""
""fullscreenenter"",""0"",""2412""
""fullscreenexit"",""2"",""4342""
""blur"",""2"",""20470""
""focus"",""2"",""21984""
""blur"",""2"",""38081""
""focus"",""3"",""40344""
","""event"",""trial"",""time""
""blur"",""2"",""20470""
""blur"",""2"",""38081""
","""event"",""trial"",""time""
""focus"",""2"",""21984""
""focus"",""3"",""40344""
","""event"",""trial"",""time""
""fullscreenenter"",""0"",""2412""
","""event"",""trial"",""time""
""fullscreenexit"",""2"",""4342""
","null","run_exp/static/images/Set 6_rs/150a.jpg","null","","","","","","learn","SR",""
"","html-keyboard-response","12","51127","0.0-12.0","""event"",""trial"",""time""
""fullscreenenter"",""0"",""2412""
""fullscreenexit"",""2"",""4342""
""blur"",""2"",""20470""
""focus"",""2"",""21984""
""blur"",""2"",""38081""
""focus"",""3"",""40344""
","""event"",""trial"",""time""
""blur"",""2"",""20470""
""blur"",""2"",""38081""
","""event"",""trial"",""time""
""focus"",""2"",""21984""
""focus"",""3"",""40344""
","""event"",""trial"",""time""
""fullscreenenter"",""0"",""2412""
","""event"",""trial"",""time""
""fullscreenexit"",""2"",""4342""
","null","<p></p>","null","","","","","","","",""
"","image","13","51860","0.0-13.0","""event"",""trial"",""time""
""fullscreenenter"",""0"",""2412""
""fullscreenexit"",""2"",""4342""
""blur"",""2"",""20470""
""focus"",""2"",""21984""
""blur"",""2"",""38081""
""focus"",""3"",""40344""
","""event"",""trial"",""time""
""blur"",""2"",""20470""
""blur"",""2"",""38081""
","""event"",""trial"",""time""
""focus"",""2"",""21984""
""focus"",""3"",""40344""
","""event"",""trial"",""time""
""fullscreenenter"",""0"",""2412""
","""event"",""trial"",""time""
""fullscreenexit"",""2"",""4342""
","730.9000000003725","run_exp/static/images/Set 6_rs/050a.jpg","86","","","","","","learn","SL",""
"","show_choice","14","53139","0.0-14.0","""event"",""trial"",""time""
""fullscreenenter"",""0"",""2412""
""fullscreenexit"",""2"",""4342""
""blur"",""2"",""20470""
""focus"",""2"",""21984""
""blur"",""2"",""38081""
""focus"",""3"",""40344""
","""event"",""trial"",""time""
""blur"",""2"",""20470""
""blur"",""2"",""38081""
","""event"",""trial"",""time""
""focus"",""2"",""21984""
""focus"",""3"",""40344""
","""event"",""trial"",""time""
""fullscreenenter"",""0"",""2412""
","""event"",""trial"",""time""
""fullscreenexit"",""2"",""4342""
","null","run_exp/static/images/Set 6_rs/050a.jpg","null","","","","","","learn","SL",""
"","html-keyboard-response","15","53654","0.0-15.0","""event"",""trial"",""time""
""fullscreenenter"",""0"",""2412""
""fullscreenexit"",""2"",""4342""
""blur"",""2"",""20470""
""focus"",""2"",""21984""
""blur"",""2"",""38081""
""focus"",""3"",""40344""
","""event"",""trial"",""time""
""blur"",""2"",""20470""
""blur"",""2"",""38081""
","""event"",""trial"",""time""
""focus"",""2"",""21984""
""focus"",""3"",""40344""
","""event"",""trial"",""time""
""fullscreenenter"",""0"",""2412""
","""event"",""trial"",""time""
""fullscreenexit"",""2"",""4342""
","null","<p></p>","null","","","","","","","",""
"","image","16","54702","0.0-16.0","""event"",""trial"",""time""
""fullscreenenter"",""0"",""2412""
""fullscreenexit"",""2"",""4342""
""blur"",""2"",""20470""
""focus"",""2"",""21984""
""blur"",""2"",""38081""
""focus"",""3"",""40344""
","""event"",""trial"",""time""
""blur"",""2"",""20470""
""blur"",""2"",""38081""
","""event"",""trial"",""time""
""focus"",""2"",""21984""
""focus"",""3"",""40344""
","""event"",""trial"",""time""
""fullscreenenter"",""0"",""2412""
","""event"",""trial"",""time""
""fullscreenexit"",""2"",""4342""
","1046.2000000011176","run_exp/static/images/Set 6_rs/074a.jpg","78","","","","","","learn","SL",""
"","show_choice","17","55666","0.0-17.0","""event"",""trial"",""time""
""fullscreenenter"",""0"",""2412""
""fullscreenexit"",""2"",""4342""
""blur"",""2"",""20470""
""focus"",""2"",""21984""
""blur"",""2"",""38081""
""focus"",""3"",""40344""
","""event"",""trial"",""time""
""blur"",""2"",""20470""
""blur"",""2"",""38081""
","""event"",""trial"",""time""
""focus"",""2"",""21984""
""focus"",""3"",""40344""
","""event"",""trial"",""time""
""fullscreenenter"",""0"",""2412""
","""event"",""trial"",""time""
""fullscreenexit"",""2"",""4342""
","null","run_exp/static/images/Set 6_rs/074a.jpg","null","","","","","","learn","SL",""
"","html-keyboard-response","18","56178","0.0-18.0","""event"",""trial"",""time""
""fullscreenenter"",""0"",""2412""
""fullscreenexit"",""2"",""4342""
""blur"",""2"",""20470""
""focus"",""2"",""21984""
""blur"",""2"",""38081""
""focus"",""3"",""40344""
","""event"",""trial"",""time""
""blur"",""2"",""20470""
""blur"",""2"",""38081""
","""event"",""trial"",""time""
""focus"",""2"",""21984""
""focus"",""3"",""40344""
","""event"",""trial"",""time""
""fullscreenenter"",""0"",""2412""
","""event"",""trial"",""time""
""fullscreenexit"",""2"",""4342""
","null","<p></p>","null","","","","","","","",""
"","image","19","57128","0.0-19.0","""event"",""trial"",""time""
""fullscreenenter"",""0"",""2412""
""fullscreenexit"",""2"",""4342""
""blur"",""2"",""20470""
""focus"",""2"",""21984""
""blur"",""2"",""38081""
""focus"",""3"",""40344""
","""event"",""trial"",""time""
""blur"",""2"",""20470""
""blur"",""2"",""38081""
","""event"",""trial"",""time""
""focus"",""2"",""21984""
""focus"",""3"",""40344""
","""event"",""trial"",""time""
""fullscreenenter"",""0"",""2412""
","""event"",""trial"",""time""
""fullscreenexit"",""2"",""4342""
","948.0999999996275","run_exp/static/images/Set 6_rs/016a.jpg","86","","","","","","learn","SL",""
"","show_choice","20","58194","0.0-20.0","""event"",""trial"",""time""
""fullscreenenter"",""0"",""2412""
""fullscreenexit"",""2"",""4342""
""blur"",""2"",""20470""
""focus"",""2"",""21984""
""blur"",""2"",""38081""
""focus"",""3"",""40344""
","""event"",""trial"",""time""
""blur"",""2"",""20470""
""blur"",""2"",""38081""
","""event"",""trial"",""time""
""focus"",""2"",""21984""
""focus"",""3"",""40344""
","""event"",""trial"",""time""
""fullscreenenter"",""0"",""2412""
","""event"",""trial"",""time""
""fullscreenexit"",""2"",""4342""
","null","run_exp/static/images/Set 6_rs/016a.jpg","null","","","","","","learn","SL",""
"","html-keyboard-response","21","58697","0.0-21.0","""event"",""trial"",""time""
""fullscreenenter"",""0"",""2412""
""fullscreenexit"",""2"",""4342""
""blur"",""2"",""20470""
""focus"",""2"",""21984""
""blur"",""2"",""38081""
""focus"",""3"",""40344""
","""event"",""trial"",""time""
""blur"",""2"",""20470""
""blur"",""2"",""38081""
","""event"",""trial"",""time""
""focus"",""2"",""21984""
""focus"",""3"",""40344""
","""event"",""trial"",""time""
""fullscreenenter"",""0"",""2412""
","""event"",""trial"",""time""
""fullscreenexit"",""2"",""4342""
","null","<p></p>","null","","","","","","","",""
"","image","22","59788","0.0-22.0","""event"",""trial"",""time""
""fullscreenenter"",""0"",""2412""
""fullscreenexit"",""2"",""4342""
""blur"",""2"",""20470""
""focus"",""2"",""21984""
""blur"",""2"",""38081""
""focus"",""3"",""40344""
","""event"",""trial"",""time""
""blur"",""2"",""20470""
""blur"",""2"",""38081""
","""event"",""trial"",""time""
""focus"",""2"",""21984""
""focus"",""3"",""40344""
","""event"",""trial"",""time""
""fullscreenenter"",""0"",""2412""
","""event"",""trial"",""time""
""fullscreenexit"",""2"",""4342""
","1089.4000000003725","run_exp/static/images/Set 6_rs/089a.jpg","86","","","","","","learn","SL",""
"","show_choice","23","60701","0.0-23.0","""event"",""trial"",""time""
""fullscreenenter"",""0"",""2412""
""fullscreenexit"",""2"",""4342""
""blur"",""2"",""20470""
""focus"",""2"",""21984""
""blur"",""2"",""38081""
""focus"",""3"",""40344""
","""event"",""trial"",""time""
""blur"",""2"",""20470""
""blur"",""2"",""38081""
","""event"",""trial"",""time""
""focus"",""2"",""21984""
""focus"",""3"",""40344""
","""event"",""trial"",""time""
""fullscreenenter"",""0"",""2412""
","""event"",""trial"",""time""
""fullscreenexit"",""2"",""4342""
","null","run_exp/static/images/Set 6_rs/089a.jpg","null","","","","","","learn","SL",""
"","html-keyboard-response","24","61215","0.0-24.0","""event"",""trial"",""time""
""fullscreenenter"",""0"",""2412""
""fullscreenexit"",""2"",""4342""
""blur"",""2"",""20470""
""focus"",""2"",""21984""
""blur"",""2"",""38081""
""focus"",""3"",""40344""
","""event"",""trial"",""time""
""blur"",""2"",""20470""
""blur"",""2"",""38081""
","""event"",""trial"",""time""
""focus"",""2"",""21984""
""focus"",""3"",""40344""
","""event"",""trial"",""time""
""fullscreenenter"",""0"",""2412""
","""event"",""trial"",""time""
""fullscreenexit"",""2"",""4342""
","null","<p></p>","null","","","","","","","",""
"","image","25","62025","0.0-25.0","""event"",""trial"",""time""
""fullscreenenter"",""0"",""2412""
""fullscreenexit"",""2"",""4342""
""blur"",""2"",""20470""
""focus"",""2"",""21984""
""blur"",""2"",""38081""
""focus"",""3"",""40344""
","""event"",""trial"",""time""
""blur"",""2"",""20470""
""blur"",""2"",""38081""
","""event"",""trial"",""time""
""focus"",""2"",""21984""
""focus"",""3"",""40344""
","""event"",""trial"",""time""
""fullscreenenter"",""0"",""2412""
","""event"",""trial"",""time""
""fullscreenexit"",""2"",""4342""
","808.8000000007451","run_exp/static/images/Set 6_rs/036a.jpg","86","","","","","","learn","SL",""
"","show_choice","26","63225","0.0-26.0","""event"",""trial"",""time""
""fullscreenenter"",""0"",""2412""
""fullscreenexit"",""2"",""4342""
""blur"",""2"",""20470""
""focus"",""2"",""21984""
""blur"",""2"",""38081""
""focus"",""3"",""40344""
","""event"",""trial"",""time""
""blur"",""2"",""20470""
""blur"",""2"",""38081""
","""event"",""trial"",""time""
""focus"",""2"",""21984""
""focus"",""3"",""40344""
","""event"",""trial"",""time""
""fullscreenenter"",""0"",""2412""
","""event"",""trial"",""time""
""fullscreenexit"",""2"",""4342""
","null","run_exp/static/images/Set 6_rs/036a.jpg","null","","","","","","learn","SL",""
"","html-keyboard-response","27","63742","0.0-27.0","""event"",""trial"",""time""
""fullscreenenter"",""0"",""2412""
""fullscreenexit"",""2"",""4342""
""blur"",""2"",""20470""
""focus"",""2"",""21984""
""blur"",""2"",""38081""
""focus"",""3"",""40344""
","""event"",""trial"",""time""
""blur"",""2"",""20470""
""blur"",""2"",""38081""
","""event"",""trial"",""time""
""focus"",""2"",""21984""
""focus"",""3"",""40344""
","""event"",""trial"",""time""
""fullscreenenter"",""0"",""2412""
","""event"",""trial"",""time""
""fullscreenexit"",""2"",""4342""
","null","<p></p>","null","","","","","","","",""
"","image","28","64351","0.0-28.0","""event"",""trial"",""time""
""fullscreenenter"",""0"",""2412""
""fullscreenexit"",""2"",""4342""
""blur"",""2"",""20470""
""focus"",""2"",""21984""
""blur"",""2"",""38081""
""focus"",""3"",""40344""
","""event"",""trial"",""time""
""blur"",""2"",""20470""
""blur"",""2"",""38081""
","""event"",""trial"",""time""
""focus"",""2"",""21984""
""focus"",""3"",""40344""
","""event"",""trial"",""time""
""fullscreenenter"",""0"",""2412""
","""event"",""trial"",""time""
""fullscreenexit"",""2"",""4342""
","607.2999999988824","run_exp/static/images/Set 6_rs/152a.jpg","78","","","","","","learn","SR",""
"","show_choice","29","65761","0.0-29.0","""event"",""trial"",""time""
""fullscreenenter"",""0"",""2412""
""fullscreenexit"",""2"",""4342""
""blur"",""2"",""20470""
""focus"",""2"",""21984""
""blur"",""2"",""38081""
""focus"",""3"",""40344""
","""event"",""trial"",""time""
""blur"",""2"",""20470""
""blur"",""2"",""38081""
","""event"",""trial"",""time""
""focus"",""2"",""21984""
""focus"",""3"",""40344""
","""event"",""trial"",""time""
""fullscreenenter"",""0"",""2412""
","""event"",""trial"",""time""
""fullscreenexit"",""2"",""4342""
","null","run_exp/static/images/Set 6_rs/152a.jpg","null","","","","","","learn","SR",""
"","html-keyboard-response","30","66275","0.0-30.0","""event"",""trial"",""time""
""fullscreenenter"",""0"",""2412""
""fullscreenexit"",""2"",""4342""
""blur"",""2"",""20470""
""focus"",""2"",""21984""
""blur"",""2"",""38081""
""focus"",""3"",""40344""
","""event"",""trial"",""time""
""blur"",""2"",""20470""
""blur"",""2"",""38081""
","""event"",""trial"",""time""
""focus"",""2"",""21984""
""focus"",""3"",""40344""
","""event"",""trial"",""time""
""fullscreenenter"",""0"",""2412""
","""event"",""trial"",""time""
""fullscreenexit"",""2"",""4342""
","null","<p></p>","null","","","","","","","",""
"","image","31","67585","0.0-31.0","""event"",""trial"",""time""
""fullscreenenter"",""0"",""2412""
""fullscreenexit"",""2"",""4342""
""blur"",""2"",""20470""
""focus"",""2"",""21984""
""blur"",""2"",""38081""
""focus"",""3"",""40344""
","""event"",""trial"",""time""
""blur"",""2"",""20470""
""blur"",""2"",""38081""
","""event"",""trial"",""time""
""focus"",""2"",""21984""
""focus"",""3"",""40344""
","""event"",""trial"",""time""
""fullscreenenter"",""0"",""2412""
","""event"",""trial"",""time""
""fullscreenexit"",""2"",""4342""
","1308.0999999996275","run_exp/static/images/Set 6_rs/017a.jpg","86","","","","","","learn","SL",""
"","show_choice","32","68290","0.0-32.0","""event"",""trial"",""time""
""fullscreenenter"",""0"",""2412""
""fullscreenexit"",""2"",""4342""
""blur"",""2"",""20470""
""focus"",""2"",""21984""
""blur"",""2"",""38081""
""focus"",""3"",""40344""
","""event"",""trial"",""time""
""blur"",""2"",""20470""
""blur"",""2"",""38081""
","""event"",""trial"",""time""
""focus"",""2"",""21984""
""focus"",""3"",""40344""
","""event"",""trial"",""time""
""fullscreenenter"",""0"",""2412""
","""event"",""trial"",""time""
""fullscreenexit"",""2"",""4342""
","null","run_exp/static/images/Set 6_rs/017a.jpg","null","","","","","","learn","SL",""
"","html-keyboard-response","33","68807","0.0-33.0","""event"",""trial"",""time""
""fullscreenenter"",""0"",""2412""
""fullscreenexit"",""2"",""4342""
""blur"",""2"",""20470""
""focus"",""2"",""21984""
""blur"",""2"",""38081""
""focus"",""3"",""40344""
","""event"",""trial"",""time""
""blur"",""2"",""20470""
""blur"",""2"",""38081""
","""event"",""trial"",""time""
""focus"",""2"",""21984""
""focus"",""3"",""40344""
","""event"",""trial"",""time""
""fullscreenenter"",""0"",""2412""
","""event"",""trial"",""time""
""fullscreenexit"",""2"",""4342""
","null","<p></p>","null","","","","","","","",""
"","image","34","69548","0.0-34.0","""event"",""trial"",""time""
""fullscreenenter"",""0"",""2412""
""fullscreenexit"",""2"",""4342""
""blur"",""2"",""20470""
""focus"",""2"",""21984""
""blur"",""2"",""38081""
""focus"",""3"",""40344""
","""event"",""trial"",""time""
""blur"",""2"",""20470""
""blur"",""2"",""38081""
","""event"",""trial"",""time""
""focus"",""2"",""21984""
""focus"",""3"",""40344""
","""event"",""trial"",""time""
""fullscreenenter"",""0"",""2412""
","""event"",""trial"",""time""
""fullscreenexit"",""2"",""4342""
","738.5999999996275","run_exp/static/images/Set 6_rs/134a.jpg","86","","","","","","learn","SR",""
"","show_choice","35","70824","0.0-35.0","""event"",""trial"",""time""
""fullscreenenter"",""0"",""2412""
""fullscreenexit"",""2"",""4342""
""blur"",""2"",""20470""
""focus"",""2"",""21984""
""blur"",""2"",""38081""
""focus"",""3"",""40344""
","""event"",""trial"",""time""
""blur"",""2"",""20470""
""blur"",""2"",""38081""
","""event"",""trial"",""time""
""focus"",""2"",""21984""
""focus"",""3"",""40344""
","""event"",""trial"",""time""
""fullscreenenter"",""0"",""2412""
","""event"",""trial"",""time""
""fullscreenexit"",""2"",""4342""
","null","run_exp/static/images/Set 6_rs/134a.jpg","null","","","","","","learn","SR",""
"","html-keyboard-response","36","71332","0.0-36.0","""event"",""trial"",""time""
""fullscreenenter"",""0"",""2412""
""fullscreenexit"",""2"",""4342""
""blur"",""2"",""20470""
""focus"",""2"",""21984""
""blur"",""2"",""38081""
""focus"",""3"",""40344""
","""event"",""trial"",""time""
""blur"",""2"",""20470""
""blur"",""2"",""38081""
","""event"",""trial"",""time""
""focus"",""2"",""21984""
""focus"",""3"",""40344""
","""event"",""trial"",""time""
""fullscreenenter"",""0"",""2412""
","""event"",""trial"",""time""
""fullscreenexit"",""2"",""4342""
","null","<p></p>","null","","","","","","","",""
"","image","37","71660","0.0-37.0","""event"",""trial"",""time""
""fullscreenenter"",""0"",""2412""
""fullscreenexit"",""2"",""4342""
""blur"",""2"",""20470""
""focus"",""2"",""21984""
""blur"",""2"",""38081""
""focus"",""3"",""40344""
","""event"",""trial"",""time""
""blur"",""2"",""20470""
""blur"",""2"",""38081""
","""event"",""trial"",""time""
""focus"",""2"",""21984""
""focus"",""3"",""40344""
","""event"",""trial"",""time""
""fullscreenenter"",""0"",""2412""
","""event"",""trial"",""time""
""fullscreenexit"",""2"",""4342""
","326.7999999988824","run_exp/static/images/Set 6_rs/191a.jpg","78","","","","","","learn","SL",""
"","show_choice","38","73347","0.0-38.0","""event"",""trial"",""time""
""fullscreenenter"",""0"",""2412""
""fullscreenexit"",""2"",""4342""
""blur"",""2"",""20470""
""focus"",""2"",""21984""
""blur"",""2"",""38081""
""focus"",""3"",""40344""
","""event"",""trial"",""time""
""blur"",""2"",""20470""
""blur"",""2"",""38081""
","""event"",""trial"",""time""
""focus"",""2"",""21984""
""focus"",""3"",""40344""
","""event"",""trial"",""time""
""fullscreenenter"",""0"",""2412""
","""event"",""trial"",""time""
""fullscreenexit"",""2"",""4342""
","null","run_exp/static/images/Set 6_rs/191a.jpg","null","","","","","","learn","SL",""
"","html-keyboard-response","39","73863","0.0-39.0","""event"",""trial"",""time""
""fullscreenenter"",""0"",""2412""
""fullscreenexit"",""2"",""4342""
""blur"",""2"",""20470""
""focus"",""2"",""21984""
""blur"",""2"",""38081""
""focus"",""3"",""40344""
","""event"",""trial"",""time""
""blur"",""2"",""20470""
""blur"",""2"",""38081""
","""event"",""trial"",""time""
""focus"",""2"",""21984""
""focus"",""3"",""40344""
","""event"",""trial"",""time""
""fullscreenenter"",""0"",""2412""
","""event"",""trial"",""time""
""fullscreenexit"",""2"",""4342""
","null","<p></p>","null","","","","","","","",""
"","image","40","74225","0.0-40.0","""event"",""trial"",""time""
""fullscreenenter"",""0"",""2412""
""fullscreenexit"",""2"",""4342""
""blur"",""2"",""20470""
""focus"",""2"",""21984""
""blur"",""2"",""38081""
""focus"",""3"",""40344""
","""event"",""trial"",""time""
""blur"",""2"",""20470""
""blur"",""2"",""38081""
","""event"",""trial"",""time""
""focus"",""2"",""21984""
""focus"",""3"",""40344""
","""event"",""trial"",""time""
""fullscreenenter"",""0"",""2412""
","""event"",""trial"",""time""
""fullscreenexit"",""2"",""4342""
","360.40000000037253","run_exp/static/images/Set 6_rs/126a.jpg","86","","","","","","learn","SR",""
"","show_choice","41","75879","0.0-41.0","""event"",""trial"",""time""
""fullscreenenter"",""0"",""2412""
""fullscreenexit"",""2"",""4342""
""blur"",""2"",""20470""
""focus"",""2"",""21984""
""blur"",""2"",""38081""
""focus"",""3"",""40344""
","""event"",""trial"",""time""
""blur"",""2"",""20470""
""blur"",""2"",""38081""
","""event"",""trial"",""time""
""focus"",""2"",""21984""
""focus"",""3"",""40344""
","""event"",""trial"",""time""
""fullscreenenter"",""0"",""2412""
","""event"",""trial"",""time""
""fullscreenexit"",""2"",""4342""
","null","run_exp/static/images/Set 6_rs/126a.jpg","null","","","","","","learn","SR",""
"","html-keyboard-response","42","76391","0.0-42.0","""event"",""trial"",""time""
""fullscreenenter"",""0"",""2412""
""fullscreenexit"",""2"",""4342""
""blur"",""2"",""20470""
""focus"",""2"",""21984""
""blur"",""2"",""38081""
""focus"",""3"",""40344""
","""event"",""trial"",""time""
""blur"",""2"",""20470""
""blur"",""2"",""38081""
","""event"",""trial"",""time""
""focus"",""2"",""21984""
""focus"",""3"",""40344""
","""event"",""trial"",""time""
""fullscreenenter"",""0"",""2412""
","""event"",""trial"",""time""
""fullscreenexit"",""2"",""4342""
","null","<p></p>","null","","","","","","","",""
"","image","43","77311","0.0-43.0","""event"",""trial"",""time""
""fullscreenenter"",""0"",""2412""
""fullscreenexit"",""2"",""4342""
""blur"",""2"",""20470""
""focus"",""2"",""21984""
""blur"",""2"",""38081""
""focus"",""3"",""40344""
","""event"",""trial"",""time""
""blur"",""2"",""20470""
""blur"",""2"",""38081""
","""event"",""trial"",""time""
""focus"",""2"",""21984""
""focus"",""3"",""40344""
","""event"",""trial"",""time""
""fullscreenenter"",""0"",""2412""
","""event"",""trial"",""time""
""fullscreenexit"",""2"",""4342""
","918.5999999996275","run_exp/static/images/Set 6_rs/123a.jpg","78","","","","","","learn","SL",""
"","show_choice","44","78407","0.0-44.0","""event"",""trial"",""time""
""fullscreenenter"",""0"",""2412""
""fullscreenexit"",""2"",""4342""
""blur"",""2"",""20470""
""focus"",""2"",""21984""
""blur"",""2"",""38081""
""focus"",""3"",""40344""
","""event"",""trial"",""time""
""blur"",""2"",""20470""
""blur"",""2"",""38081""
","""event"",""trial"",""time""
""focus"",""2"",""21984""
""focus"",""3"",""40344""
","""event"",""trial"",""time""
""fullscreenenter"",""0"",""2412""
","""event"",""trial"",""time""
""fullscreenexit"",""2"",""4342""
","null","run_exp/static/images/Set 6_rs/123a.jpg","null","","","","","","learn","SL",""
"","html-keyboard-response","45","78920","0.0-45.0","""event"",""trial"",""time""
""fullscreenenter"",""0"",""2412""
""fullscreenexit"",""2"",""4342""
""blur"",""2"",""20470""
""focus"",""2"",""21984""
""blur"",""2"",""38081""
""focus"",""3"",""40344""
","""event"",""trial"",""time""
""blur"",""2"",""20470""
""blur"",""2"",""38081""
","""event"",""trial"",""time""
""focus"",""2"",""21984""
""focus"",""3"",""40344""
","""event"",""trial"",""time""
""fullscreenenter"",""0"",""2412""
","""event"",""trial"",""time""
""fullscreenexit"",""2"",""4342""
","null","<p></p>","null","","","","","","","",""
"","image","46","79542","0.0-46.0","""event"",""trial"",""time""
""fullscreenenter"",""0"",""2412""
""fullscreenexit"",""2"",""4342""
""blur"",""2"",""20470""
""focus"",""2"",""21984""
""blur"",""2"",""38081""
""focus"",""3"",""40344""
","""event"",""trial"",""time""
""blur"",""2"",""20470""
""blur"",""2"",""38081""
","""event"",""trial"",""time""
""focus"",""2"",""21984""
""focus"",""3"",""40344""
","""event"",""trial"",""time""
""fullscreenenter"",""0"",""2412""
","""event"",""trial"",""time""
""fullscreenexit"",""2"",""4342""
","619.9000000003725","run_exp/static/images/Set 6_rs/116a.jpg","78","","","","","","learn","SL",""
"","show_choice","47","80939","0.0-47.0","""event"",""trial"",""time""
""fullscreenenter"",""0"",""2412""
""fullscreenexit"",""2"",""4342""
""blur"",""2"",""20470""
""focus"",""2"",""21984""
""blur"",""2"",""38081""
""focus"",""3"",""40344""
","""event"",""trial"",""time""
""blur"",""2"",""20470""
""blur"",""2"",""38081""
","""event"",""trial"",""time""
""focus"",""2"",""21984""
""focus"",""3"",""40344""
","""event"",""trial"",""time""
""fullscreenenter"",""0"",""2412""
","""event"",""trial"",""time""
""fullscreenexit"",""2"",""4342""
","null","run_exp/static/images/Set 6_rs/116a.jpg","null","","","","","","learn","SL",""
"","html-keyboard-response","48","81443","0.0-48.0","""event"",""trial"",""time""
""fullscreenenter"",""0"",""2412""
""fullscreenexit"",""2"",""4342""
""blur"",""2"",""20470""
""focus"",""2"",""21984""
""blur"",""2"",""38081""
""focus"",""3"",""40344""
","""event"",""trial"",""time""
""blur"",""2"",""20470""
""blur"",""2"",""38081""
","""event"",""trial"",""time""
""focus"",""2"",""21984""
""focus"",""3"",""40344""
","""event"",""trial"",""time""
""fullscreenenter"",""0"",""2412""
","""event"",""trial"",""time""
""fullscreenexit"",""2"",""4342""
","null","<p></p>","null","","","","","","","",""
"","image","49","82820","0.0-49.0","""event"",""trial"",""time""
""fullscreenenter"",""0"",""2412""
""fullscreenexit"",""2"",""4342""
""blur"",""2"",""20470""
""focus"",""2"",""21984""
""blur"",""2"",""38081""
""focus"",""3"",""40344""
","""event"",""trial"",""time""
""blur"",""2"",""20470""
""blur"",""2"",""38081""
","""event"",""trial"",""time""
""focus"",""2"",""21984""
""focus"",""3"",""40344""
","""event"",""trial"",""time""
""fullscreenenter"",""0"",""2412""
","""event"",""trial"",""time""
""fullscreenexit"",""2"",""4342""
","1375","run_exp/static/images/Set 6_rs/012a.jpg","86","","","","","","learn","SR",""
"","show_choice","50","83449","0.0-50.0","""event"",""trial"",""time""
""fullscreenenter"",""0"",""2412""
""fullscreenexit"",""2"",""4342""
""blur"",""2"",""20470""
""focus"",""2"",""21984""
""blur"",""2"",""38081""
""focus"",""3"",""40344""
","""event"",""trial"",""time""
""blur"",""2"",""20470""
""blur"",""2"",""38081""
","""event"",""trial"",""time""
""focus"",""2"",""21984""
""focus"",""3"",""40344""
","""event"",""trial"",""time""
""fullscreenenter"",""0"",""2412""
","""event"",""trial"",""time""
""fullscreenexit"",""2"",""4342""
","null","run_exp/static/images/Set 6_rs/012a.jpg","null","","","","","","learn","SR",""
"","html-keyboard-response","51","83965","0.0-51.0","""event"",""trial"",""time""
""fullscreenenter"",""0"",""2412""
""fullscreenexit"",""2"",""4342""
""blur"",""2"",""20470""
""focus"",""2"",""21984""
""blur"",""2"",""38081""
""focus"",""3"",""40344""
","""event"",""trial"",""time""
""blur"",""2"",""20470""
""blur"",""2"",""38081""
","""event"",""trial"",""time""
""focus"",""2"",""21984""
""focus"",""3"",""40344""
","""event"",""trial"",""time""
""fullscreenenter"",""0"",""2412""
","""event"",""trial"",""time""
""fullscreenexit"",""2"",""4342""
","null","<p></p>","null","","","","","","","",""
"","image","52","84582","0.0-52.0","""event"",""trial"",""time""
""fullscreenenter"",""0"",""2412""
""fullscreenexit"",""2"",""4342""
""blur"",""2"",""20470""
""focus"",""2"",""21984""
""blur"",""2"",""38081""
""focus"",""3"",""40344""
","""event"",""trial"",""time""
""blur"",""2"",""20470""
""blur"",""2"",""38081""
","""event"",""trial"",""time""
""focus"",""2"",""21984""
""focus"",""3"",""40344""
","""event"",""trial"",""time""
""fullscreenenter"",""0"",""2412""
","""event"",""trial"",""time""
""fullscreenexit"",""2"",""4342""
","616.7000000011176","run_exp/static/images/Set 6_rs/075a.jpg","86","","","","","","learn","SR",""
"","show_choice","53","85969","0.0-53.0","""event"",""trial"",""time""
""fullscreenenter"",""0"",""2412""
""fullscreenexit"",""2"",""4342""
""blur"",""2"",""20470""
""focus"",""2"",""21984""
""blur"",""2"",""38081""
""focus"",""3"",""40344""
","""event"",""trial"",""time""
""blur"",""2"",""20470""
""blur"",""2"",""38081""
","""event"",""trial"",""time""
""focus"",""2"",""21984""
""focus"",""3"",""40344""
","""event"",""trial"",""time""
""fullscreenenter"",""0"",""2412""
","""event"",""trial"",""time""
""fullscreenexit"",""2"",""4342""
","null","run_exp/static/images/Set 6_rs/075a.jpg","null","","","","","","learn","SR",""
"","html-keyboard-response","54","86483","0.0-54.0","""event"",""trial"",""time""
""fullscreenenter"",""0"",""2412""
""fullscreenexit"",""2"",""4342""
""blur"",""2"",""20470""
""focus"",""2"",""21984""
""blur"",""2"",""38081""
""focus"",""3"",""40344""
","""event"",""trial"",""time""
""blur"",""2"",""20470""
""blur"",""2"",""38081""
","""event"",""trial"",""time""
""focus"",""2"",""21984""
""focus"",""3"",""40344""
","""event"",""trial"",""time""
""fullscreenenter"",""0"",""2412""
","""event"",""trial"",""time""
""fullscreenexit"",""2"",""4342""
","null","<p></p>","null","","","","","","","",""
"","image","55","87841","0.0-55.0","""event"",""trial"",""time""
""fullscreenenter"",""0"",""2412""
""fullscreenexit"",""2"",""4342""
""blur"",""2"",""20470""
""focus"",""2"",""21984""
""blur"",""2"",""38081""
""focus"",""3"",""40344""
","""event"",""trial"",""time""
""blur"",""2"",""20470""
""blur"",""2"",""38081""
","""event"",""trial"",""time""
""focus"",""2"",""21984""
""focus"",""3"",""40344""
","""event"",""trial"",""time""
""fullscreenenter"",""0"",""2412""
","""event"",""trial"",""time""
""fullscreenexit"",""2"",""4342""
","1356.5","run_exp/static/images/Set 6_rs/095a.jpg","86","","","","","","learn","SL",""
"","show_choice","56","88493","0.0-56.0","""event"",""trial"",""time""
""fullscreenenter"",""0"",""2412""
""fullscreenexit"",""2"",""4342""
""blur"",""2"",""20470""
""focus"",""2"",""21984""
""blur"",""2"",""38081""
""focus"",""3"",""40344""
","""event"",""trial"",""time""
""blur"",""2"",""20470""
""blur"",""2"",""38081""
","""event"",""trial"",""time""
""focus"",""2"",""21984""
""focus"",""3"",""40344""
","""event"",""trial"",""time""
""fullscreenenter"",""0"",""2412""
","""event"",""trial"",""time""
""fullscreenexit"",""2"",""4342""
","null","run_exp/static/images/Set 6_rs/095a.jpg","null","","","","","","learn","SL",""
"","html-keyboard-response","57","89008","0.0-57.0","""event"",""trial"",""time""
""fullscreenenter"",""0"",""2412""
""fullscreenexit"",""2"",""4342""
""blur"",""2"",""20470""
""focus"",""2"",""21984""
""blur"",""2"",""38081""
""focus"",""3"",""40344""
","""event"",""trial"",""time""
""blur"",""2"",""20470""
""blur"",""2"",""38081""
","""event"",""trial"",""time""
""focus"",""2"",""21984""
""focus"",""3"",""40344""
","""event"",""trial"",""time""
""fullscreenenter"",""0"",""2412""
","""event"",""trial"",""time""
""fullscreenexit"",""2"",""4342""
","null","<p></p>","null","","","","","","","",""
"","image","58","89647","0.0-58.0","""event"",""trial"",""time""
""fullscreenenter"",""0"",""2412""
""fullscreenexit"",""2"",""4342""
""blur"",""2"",""20470""
""focus"",""2"",""21984""
""blur"",""2"",""38081""
""focus"",""3"",""40344""
","""event"",""trial"",""time""
""blur"",""2"",""20470""
""blur"",""2"",""38081""
","""event"",""trial"",""time""
""focus"",""2"",""21984""
""focus"",""3"",""40344""
","""event"",""trial"",""time""
""fullscreenenter"",""0"",""2412""
","""event"",""trial"",""time""
""fullscreenexit"",""2"",""4342""
","637.6999999992549","run_exp/static/images/Set 6_rs/181a.jpg","86","","","","","","learn","SL",""
"","show_choice","59","91018","0.0-59.0","""event"",""trial"",""time""
""fullscreenenter"",""0"",""2412""
""fullscreenexit"",""2"",""4342""
""blur"",""2"",""20470""
""focus"",""2"",""21984""
""blur"",""2"",""38081""
""focus"",""3"",""40344""
","""event"",""trial"",""time""
""blur"",""2"",""20470""
""blur"",""2"",""38081""
","""event"",""trial"",""time""
""focus"",""2"",""21984""
""focus"",""3"",""40344""
","""event"",""trial"",""time""
""fullscreenenter"",""0"",""2412""
","""event"",""trial"",""time""
""fullscreenexit"",""2"",""4342""
","null","run_exp/static/images/Set 6_rs/181a.jpg","null","","","","","","learn","SL",""
"","html-keyboard-response","60","91534","0.0-60.0","""event"",""trial"",""time""
""fullscreenenter"",""0"",""2412""
""fullscreenexit"",""2"",""4342""
""blur"",""2"",""20470""
""focus"",""2"",""21984""
""blur"",""2"",""38081""
""focus"",""3"",""40344""
","""event"",""trial"",""time""
""blur"",""2"",""20470""
""blur"",""2"",""38081""
","""event"",""trial"",""time""
""focus"",""2"",""21984""
""focus"",""3"",""40344""
","""event"",""trial"",""time""
""fullscreenenter"",""0"",""2412""
","""event"",""trial"",""time""
""fullscreenexit"",""2"",""4342""
","null","<p></p>","null","","","","","","","",""
"","image","61","92040","0.0-61.0","""event"",""trial"",""time""
""fullscreenenter"",""0"",""2412""
""fullscreenexit"",""2"",""4342""
""blur"",""2"",""20470""
""focus"",""2"",""21984""
""blur"",""2"",""38081""
""focus"",""3"",""40344""
","""event"",""trial"",""time""
""blur"",""2"",""20470""
""blur"",""2"",""38081""
","""event"",""trial"",""time""
""focus"",""2"",""21984""
""focus"",""3"",""40344""
","""event"",""trial"",""time""
""fullscreenenter"",""0"",""2412""
","""event"",""trial"",""time""
""fullscreenexit"",""2"",""4342""
","505","run_exp/static/images/Set 6_rs/064a.jpg","86","","","","","","learn","SR",""
"","show_choice","62","93545","0.0-62.0","""event"",""trial"",""time""
""fullscreenenter"",""0"",""2412""
""fullscreenexit"",""2"",""4342""
""blur"",""2"",""20470""
""focus"",""2"",""21984""
""blur"",""2"",""38081""
""focus"",""3"",""40344""
","""event"",""trial"",""time""
""blur"",""2"",""20470""
""blur"",""2"",""38081""
","""event"",""trial"",""time""
""focus"",""2"",""21984""
""focus"",""3"",""40344""
","""event"",""trial"",""time""
""fullscreenenter"",""0"",""2412""
","""event"",""trial"",""time""
""fullscreenexit"",""2"",""4342""
","null","run_exp/static/images/Set 6_rs/064a.jpg","null","","","","","","learn","SR",""
"","html-keyboard-response","63","94050","0.0-63.0","""event"",""trial"",""time""
""fullscreenenter"",""0"",""2412""
""fullscreenexit"",""2"",""4342""
""blur"",""2"",""20470""
""focus"",""2"",""21984""
""blur"",""2"",""38081""
""focus"",""3"",""40344""
","""event"",""trial"",""time""
""blur"",""2"",""20470""
""blur"",""2"",""38081""
","""event"",""trial"",""time""
""focus"",""2"",""21984""
""focus"",""3"",""40344""
","""event"",""trial"",""time""
""fullscreenenter"",""0"",""2412""
","""event"",""trial"",""time""
""fullscreenexit"",""2"",""4342""
","null","<p></p>","null","","","","","","","",""
"","image","64","94772","0.0-64.0","""event"",""trial"",""time""
""fullscreenenter"",""0"",""2412""
""fullscreenexit"",""2"",""4342""
""blur"",""2"",""20470""
""focus"",""2"",""21984""
""blur"",""2"",""38081""
""focus"",""3"",""40344""
","""event"",""trial"",""time""
""blur"",""2"",""20470""
""blur"",""2"",""38081""
","""event"",""trial"",""time""
""focus"",""2"",""21984""
""focus"",""3"",""40344""
","""event"",""trial"",""time""
""fullscreenenter"",""0"",""2412""
","""event"",""trial"",""time""
""fullscreenexit"",""2"",""4342""
","721","run_exp/static/images/Set 6_rs/085a.jpg","86","","","","","","learn","SL",""
"","show_choice","65","96053","0.0-65.0","""event"",""trial"",""time""
""fullscreenenter"",""0"",""2412""
""fullscreenexit"",""2"",""4342""
""blur"",""2"",""20470""
""focus"",""2"",""21984""
""blur"",""2"",""38081""
""focus"",""3"",""40344""
","""event"",""trial"",""time""
""blur"",""2"",""20470""
""blur"",""2"",""38081""
","""event"",""trial"",""time""
""focus"",""2"",""21984""
""focus"",""3"",""40344""
","""event"",""trial"",""time""
""fullscreenenter"",""0"",""2412""
","""event"",""trial"",""time""
""fullscreenexit"",""2"",""4342""
","null","run_exp/static/images/Set 6_rs/085a.jpg","null","","","","","","learn","SL",""
"","html-keyboard-response","66","96567","0.0-66.0","""event"",""trial"",""time""
""fullscreenenter"",""0"",""2412""
""fullscreenexit"",""2"",""4342""
""blur"",""2"",""20470""
""focus"",""2"",""21984""
""blur"",""2"",""38081""
""focus"",""3"",""40344""
","""event"",""trial"",""time""
""blur"",""2"",""20470""
""blur"",""2"",""38081""
","""event"",""trial"",""time""
""focus"",""2"",""21984""
""focus"",""3"",""40344""
","""event"",""trial"",""time""
""fullscreenenter"",""0"",""2412""
","""event"",""trial"",""time""
""fullscreenexit"",""2"",""4342""
","null","<p></p>","null","","","","","","","",""
"","image","67","98113","0.0-67.0","""event"",""trial"",""time""
""fullscreenenter"",""0"",""2412""
""fullscreenexit"",""2"",""4342""
""blur"",""2"",""20470""
""focus"",""2"",""21984""
""blur"",""2"",""38081""
""focus"",""3"",""40344""
","""event"",""trial"",""time""
""blur"",""2"",""20470""
""blur"",""2"",""38081""
","""event"",""trial"",""time""
""focus"",""2"",""21984""
""focus"",""3"",""40344""
","""event"",""trial"",""time""
""fullscreenenter"",""0"",""2412""
","""event"",""trial"",""time""
""fullscreenexit"",""2"",""4342""
","1544.300000000745","run_exp/static/images/Set 6_rs/129a.jpg","86","","","","","","learn","SL",""
"","show_choice","68","98579","0.0-68.0","""event"",""trial"",""time""
""fullscreenenter"",""0"",""2412""
""fullscreenexit"",""2"",""4342""
""blur"",""2"",""20470""
""focus"",""2"",""21984""
""blur"",""2"",""38081""
""focus"",""3"",""40344""
","""event"",""trial"",""time""
""blur"",""2"",""20470""
""blur"",""2"",""38081""
","""event"",""trial"",""time""
""focus"",""2"",""21984""
""focus"",""3"",""40344""
","""event"",""trial"",""time""
""fullscreenenter"",""0"",""2412""
","""event"",""trial"",""time""
""fullscreenexit"",""2"",""4342""
","null","run_exp/static/images/Set 6_rs/129a.jpg","null","","","","","","learn","SL",""
"","html-keyboard-response","69","99094","0.0-69.0","""event"",""trial"",""time""
""fullscreenenter"",""0"",""2412""
""fullscreenexit"",""2"",""4342""
""blur"",""2"",""20470""
""focus"",""2"",""21984""
""blur"",""2"",""38081""
""focus"",""3"",""40344""
","""event"",""trial"",""time""
""blur"",""2"",""20470""
""blur"",""2"",""38081""
","""event"",""trial"",""time""
""focus"",""2"",""21984""
""focus"",""3"",""40344""
","""event"",""trial"",""time""
""fullscreenenter"",""0"",""2412""
","""event"",""trial"",""time""
""fullscreenexit"",""2"",""4342""
","null","<p></p>","null","","","","","","","",""
"","image","70","100258","0.0-70.0","""event"",""trial"",""time""
""fullscreenenter"",""0"",""2412""
""fullscreenexit"",""2"",""4342""
""blur"",""2"",""20470""
""focus"",""2"",""21984""
""blur"",""2"",""38081""
""focus"",""3"",""40344""
","""event"",""trial"",""time""
""blur"",""2"",""20470""
""blur"",""2"",""38081""
","""event"",""trial"",""time""
""focus"",""2"",""21984""
""focus"",""3"",""40344""
","""event"",""trial"",""time""
""fullscreenenter"",""0"",""2412""
","""event"",""trial"",""time""
""fullscreenexit"",""2"",""4342""
","1162.5","run_exp/static/images/Set 6_rs/186a.jpg","86","","","","","","learn","SR",""
"","show_choice","71","101109","0.0-71.0","""event"",""trial"",""time""
""fullscreenenter"",""0"",""2412""
""fullscreenexit"",""2"",""4342""
""blur"",""2"",""20470""
""focus"",""2"",""21984""
""blur"",""2"",""38081""
""focus"",""3"",""40344""
","""event"",""trial"",""time""
""blur"",""2"",""20470""
""blur"",""2"",""38081""
","""event"",""trial"",""time""
""focus"",""2"",""21984""
""focus"",""3"",""40344""
","""event"",""trial"",""time""
""fullscreenenter"",""0"",""2412""
","""event"",""trial"",""time""
""fullscreenexit"",""2"",""4342""
","null","run_exp/static/images/Set 6_rs/186a.jpg","null","","","","","","learn","SR",""
"","html-keyboard-response","72","101623","0.0-72.0","""event"",""trial"",""time""
""fullscreenenter"",""0"",""2412""
""fullscreenexit"",""2"",""4342""
""blur"",""2"",""20470""
""focus"",""2"",""21984""
""blur"",""2"",""38081""
""focus"",""3"",""40344""
","""event"",""trial"",""time""
""blur"",""2"",""20470""
""blur"",""2"",""38081""
","""event"",""trial"",""time""
""focus"",""2"",""21984""
""focus"",""3"",""40344""
","""event"",""trial"",""time""
""fullscreenenter"",""0"",""2412""
","""event"",""trial"",""time""
""fullscreenexit"",""2"",""4342""
","null","<p></p>","null","","","","","","","",""
"","image","73","103017","0.0-73.0","""event"",""trial"",""time""
""fullscreenenter"",""0"",""2412""
""fullscreenexit"",""2"",""4342""
""blur"",""2"",""20470""
""focus"",""2"",""21984""
""blur"",""2"",""38081""
""focus"",""3"",""40344""
","""event"",""trial"",""time""
""blur"",""2"",""20470""
""blur"",""2"",""38081""
","""event"",""trial"",""time""
""focus"",""2"",""21984""
""focus"",""3"",""40344""
","""event"",""trial"",""time""
""fullscreenenter"",""0"",""2412""
","""event"",""trial"",""time""
""fullscreenexit"",""2"",""4342""
","1392.5","run_exp/static/images/Set 6_rs/008a.jpg","78","","","","","","learn","SL",""
"","show_choice","74","103630","0.0-74.0","""event"",""trial"",""time""
""fullscreenenter"",""0"",""2412""
""fullscreenexit"",""2"",""4342""
""blur"",""2"",""20470""
""focus"",""2"",""21984""
""blur"",""2"",""38081""
""focus"",""3"",""40344""
","""event"",""trial"",""time""
""blur"",""2"",""20470""
""blur"",""2"",""38081""
","""event"",""trial"",""time""
""focus"",""2"",""21984""
""focus"",""3"",""40344""
","""event"",""trial"",""time""
""fullscreenenter"",""0"",""2412""
","""event"",""trial"",""time""
""fullscreenexit"",""2"",""4342""
","null","run_exp/static/images/Set 6_rs/008a.jpg","null","","","","","","learn","SL",""
"","html-keyboard-response","75","104145","0.0-75.0","""event"",""trial"",""time""
""fullscreenenter"",""0"",""2412""
""fullscreenexit"",""2"",""4342""
""blur"",""2"",""20470""
""focus"",""2"",""21984""
""blur"",""2"",""38081""
""focus"",""3"",""40344""
","""event"",""trial"",""time""
""blur"",""2"",""20470""
""blur"",""2"",""38081""
","""event"",""trial"",""time""
""focus"",""2"",""21984""
""focus"",""3"",""40344""
","""event"",""trial"",""time""
""fullscreenenter"",""0"",""2412""
","""event"",""trial"",""time""
""fullscreenexit"",""2"",""4342""
","null","<p></p>","null","","","","","","","",""
"","image","76","105446","0.0-76.0","""event"",""trial"",""time""
""fullscreenenter"",""0"",""2412""
""fullscreenexit"",""2"",""4342""
""blur"",""2"",""20470""
""focus"",""2"",""21984""
""blur"",""2"",""38081""
""focus"",""3"",""40344""
","""event"",""trial"",""time""
""blur"",""2"",""20470""
""blur"",""2"",""38081""
","""event"",""trial"",""time""
""focus"",""2"",""21984""
""focus"",""3"",""40344""
","""event"",""trial"",""time""
""fullscreenenter"",""0"",""2412""
","""event"",""trial"",""time""
""fullscreenexit"",""2"",""4342""
","1299.5","run_exp/static/images/Set 6_rs/062a.jpg","78","","","","","","learn","SL",""
"","show_choice","77","106154","0.0-77.0","""event"",""trial"",""time""
""fullscreenenter"",""0"",""2412""
""fullscreenexit"",""2"",""4342""
""blur"",""2"",""20470""
""focus"",""2"",""21984""
""blur"",""2"",""38081""
""focus"",""3"",""40344""
","""event"",""trial"",""time""
""blur"",""2"",""20470""
""blur"",""2"",""38081""
","""event"",""trial"",""time""
""focus"",""2"",""21984""
""focus"",""3"",""40344""
","""event"",""trial"",""time""
""fullscreenenter"",""0"",""2412""
","""event"",""trial"",""time""
""fullscreenexit"",""2"",""4342""
","null","run_exp/static/images/Set 6_rs/062a.jpg","null","","","","","","learn","SL",""
"","html-keyboard-response","78","106670","0.0-78.0","""event"",""trial"",""time""
""fullscreenenter"",""0"",""2412""
""fullscreenexit"",""2"",""4342""
""blur"",""2"",""20470""
""focus"",""2"",""21984""
""blur"",""2"",""38081""
""focus"",""3"",""40344""
","""event"",""trial"",""time""
""blur"",""2"",""20470""
""blur"",""2"",""38081""
","""event"",""trial"",""time""
""focus"",""2"",""21984""
""focus"",""3"",""40344""
","""event"",""trial"",""time""
""fullscreenenter"",""0"",""2412""
","""event"",""trial"",""time""
""fullscreenexit"",""2"",""4342""
","null","<p></p>","null","","","","","","","",""
"","image","79","107059","0.0-79.0","""event"",""trial"",""time""
""fullscreenenter"",""0"",""2412""
""fullscreenexit"",""2"",""4342""
""blur"",""2"",""20470""
""focus"",""2"",""21984""
""blur"",""2"",""38081""
""focus"",""3"",""40344""
","""event"",""trial"",""time""
""blur"",""2"",""20470""
""blur"",""2"",""38081""
","""event"",""trial"",""time""
""focus"",""2"",""21984""
""focus"",""3"",""40344""
","""event"",""trial"",""time""
""fullscreenenter"",""0"",""2412""
","""event"",""trial"",""time""
""fullscreenexit"",""2"",""4342""
","388","run_exp/static/images/Set 6_rs/122a.jpg","86","","","","","","learn","SR",""
"","show_choice","80","108684","0.0-80.0","""event"",""trial"",""time""
""fullscreenenter"",""0"",""2412""
""fullscreenexit"",""2"",""4342""
""blur"",""2"",""20470""
""focus"",""2"",""21984""
""blur"",""2"",""38081""
""focus"",""3"",""40344""
","""event"",""trial"",""time""
""blur"",""2"",""20470""
""blur"",""2"",""38081""
","""event"",""trial"",""time""
""focus"",""2"",""21984""
""focus"",""3"",""40344""
","""event"",""trial"",""time""
""fullscreenenter"",""0"",""2412""
","""event"",""trial"",""time""
""fullscreenexit"",""2"",""4342""
","null","run_exp/static/images/Set 6_rs/122a.jpg","null","","","","","","learn","SR",""
"","html-keyboard-response","81","109198","0.0-81.0","""event"",""trial"",""time""
""fullscreenenter"",""0"",""2412""
""fullscreenexit"",""2"",""4342""
""blur"",""2"",""20470""
""focus"",""2"",""21984""
""blur"",""2"",""38081""
""focus"",""3"",""40344""
","""event"",""trial"",""time""
""blur"",""2"",""20470""
""blur"",""2"",""38081""
","""event"",""trial"",""time""
""focus"",""2"",""21984""
""focus"",""3"",""40344""
","""event"",""trial"",""time""
""fullscreenenter"",""0"",""2412""
","""event"",""trial"",""time""
""fullscreenexit"",""2"",""4342""
","null","<p></p>","null","","","","","","","",""
"","image","82","109262","0.0-82.0","""event"",""trial"",""time""
""fullscreenenter"",""0"",""2412""
""fullscreenexit"",""2"",""4342""
""blur"",""2"",""20470""
""focus"",""2"",""21984""
""blur"",""2"",""38081""
""focus"",""3"",""40344""
","""event"",""trial"",""time""
""blur"",""2"",""20470""
""blur"",""2"",""38081""
","""event"",""trial"",""time""
""focus"",""2"",""21984""
""focus"",""3"",""40344""
","""event"",""trial"",""time""
""fullscreenenter"",""0"",""2412""
","""event"",""trial"",""time""
""fullscreenexit"",""2"",""4342""
","62.09999999962747","run_exp/static/images/Set 6_rs/154a.jpg","78","","","","","","learn","SR",""
"","show_choice","83","111200","0.0-83.0","""event"",""trial"",""time""
""fullscreenenter"",""0"",""2412""
""fullscreenexit"",""2"",""4342""
""blur"",""2"",""20470""
""focus"",""2"",""21984""
""blur"",""2"",""38081""
""focus"",""3"",""40344""
","""event"",""trial"",""time""
""blur"",""2"",""20470""
""blur"",""2"",""38081""
","""event"",""trial"",""time""
""focus"",""2"",""21984""
""focus"",""3"",""40344""
","""event"",""trial"",""time""
""fullscreenenter"",""0"",""2412""
","""event"",""trial"",""time""
""fullscreenexit"",""2"",""4342""
","null","run_exp/static/images/Set 6_rs/154a.jpg","null","","","","","","learn","SR",""
"","html-keyboard-response","84","111717","0.0-84.0","""event"",""trial"",""time""
""fullscreenenter"",""0"",""2412""
""fullscreenexit"",""2"",""4342""
""blur"",""2"",""20470""
""focus"",""2"",""21984""
""blur"",""2"",""38081""
""focus"",""3"",""40344""
","""event"",""trial"",""time""
""blur"",""2"",""20470""
""blur"",""2"",""38081""
","""event"",""trial"",""time""
""focus"",""2"",""21984""
""focus"",""3"",""40344""
","""event"",""trial"",""time""
""fullscreenenter"",""0"",""2412""
","""event"",""trial"",""time""
""fullscreenexit"",""2"",""4342""
","null","<p></p>","null","","","","","","","",""
"","image","85","111845","0.0-85.0","""event"",""trial"",""time""
""fullscreenenter"",""0"",""2412""
""fullscreenexit"",""2"",""4342""
""blur"",""2"",""20470""
""focus"",""2"",""21984""
""blur"",""2"",""38081""
""focus"",""3"",""40344""
","""event"",""trial"",""time""
""blur"",""2"",""20470""
""blur"",""2"",""38081""
","""event"",""trial"",""time""
""focus"",""2"",""21984""
""focus"",""3"",""40344""
","""event"",""trial"",""time""
""fullscreenenter"",""0"",""2412""
","""event"",""trial"",""time""
""fullscreenexit"",""2"",""4342""
","127.09999999962747","run_exp/static/images/Set 6_rs/045a.jpg","86","","","","","","learn","SR",""
"","show_choice","86","113731","0.0-86.0","""event"",""trial"",""time""
""fullscreenenter"",""0"",""2412""
""fullscreenexit"",""2"",""4342""
""blur"",""2"",""20470""
""focus"",""2"",""21984""
""blur"",""2"",""38081""
""focus"",""3"",""40344""
","""event"",""trial"",""time""
""blur"",""2"",""20470""
""blur"",""2"",""38081""
","""event"",""trial"",""time""
""focus"",""2"",""21984""
""focus"",""3"",""40344""
","""event"",""trial"",""time""
""fullscreenenter"",""0"",""2412""
","""event"",""trial"",""time""
""fullscreenexit"",""2"",""4342""
","null","run_exp/static/images/Set 6_rs/045a.jpg","null","","","","","","learn","SR",""
"","html-keyboard-response","87","114245","0.0-87.0","""event"",""trial"",""time""
""fullscreenenter"",""0"",""2412""
""fullscreenexit"",""2"",""4342""
""blur"",""2"",""20470""
""focus"",""2"",""21984""
""blur"",""2"",""38081""
""focus"",""3"",""40344""
","""event"",""trial"",""time""
""blur"",""2"",""20470""
""blur"",""2"",""38081""
","""event"",""trial"",""time""
""focus"",""2"",""21984""
""focus"",""3"",""40344""
","""event"",""trial"",""time""
""fullscreenenter"",""0"",""2412""
","""event"",""trial"",""time""
""fullscreenexit"",""2"",""4342""
","null","<p></p>","null","","","","","","","",""
"","image","88","114869","0.0-88.0","""event"",""trial"",""time""
""fullscreenenter"",""0"",""2412""
""fullscreenexit"",""2"",""4342""
""blur"",""2"",""20470""
""focus"",""2"",""21984""
""blur"",""2"",""38081""
""focus"",""3"",""40344""
","""event"",""trial"",""time""
""blur"",""2"",""20470""
""blur"",""2"",""38081""
","""event"",""trial"",""time""
""focus"",""2"",""21984""
""focus"",""3"",""40344""
","""event"",""trial"",""time""
""fullscreenenter"",""0"",""2412""
","""event"",""trial"",""time""
""fullscreenexit"",""2"",""4342""
","621.5","run_exp/static/images/Set 6_rs/166a.jpg","78","","","","","","learn","SR",""
"","show_choice","89","116258","0.0-89.0","""event"",""trial"",""time""
""fullscreenenter"",""0"",""2412""
""fullscreenexit"",""2"",""4342""
""blur"",""2"",""20470""
""focus"",""2"",""21984""
""blur"",""2"",""38081""
""focus"",""3"",""40344""
","""event"",""trial"",""time""
""blur"",""2"",""20470""
""blur"",""2"",""38081""
","""event"",""trial"",""time""
""focus"",""2"",""21984""
""focus"",""3"",""40344""
","""event"",""trial"",""time""
""fullscreenenter"",""0"",""2412""
","""event"",""trial"",""time""
""fullscreenexit"",""2"",""4342""
","null","run_exp/static/images/Set 6_rs/166a.jpg","null","","","","","","learn","SR",""
"","html-keyboard-response","90","116771","0.0-90.0","""event"",""trial"",""time""
""fullscreenenter"",""0"",""2412""
""fullscreenexit"",""2"",""4342""
""blur"",""2"",""20470""
""focus"",""2"",""21984""
""blur"",""2"",""38081""
""focus"",""3"",""40344""
","""event"",""trial"",""time""
""blur"",""2"",""20470""
""blur"",""2"",""38081""
","""event"",""trial"",""time""
""focus"",""2"",""21984""
""focus"",""3"",""40344""
","""event"",""trial"",""time""
""fullscreenenter"",""0"",""2412""
","""event"",""trial"",""time""
""fullscreenexit"",""2"",""4342""
","null","<p></p>","null","","","","","","","",""
"","image","91","117988","0.0-91.0","""event"",""trial"",""time""
""fullscreenenter"",""0"",""2412""
""fullscreenexit"",""2"",""4342""
""blur"",""2"",""20470""
""focus"",""2"",""21984""
""blur"",""2"",""38081""
""focus"",""3"",""40344""
","""event"",""trial"",""time""
""blur"",""2"",""20470""
""blur"",""2"",""38081""
","""event"",""trial"",""time""
""focus"",""2"",""21984""
""focus"",""3"",""40344""
","""event"",""trial"",""time""
""fullscreenenter"",""0"",""2412""
","""event"",""trial"",""time""
""fullscreenexit"",""2"",""4342""
","1215.7999999988824","run_exp/static/images/Set 6_rs/131a.jpg","86","","","","","","learn","SR",""
"","show_choice","92","118775","0.0-92.0","""event"",""trial"",""time""
""fullscreenenter"",""0"",""2412""
""fullscreenexit"",""2"",""4342""
""blur"",""2"",""20470""
""focus"",""2"",""21984""
""blur"",""2"",""38081""
""focus"",""3"",""40344""
","""event"",""trial"",""time""
""blur"",""2"",""20470""
""blur"",""2"",""38081""
","""event"",""trial"",""time""
""focus"",""2"",""21984""
""focus"",""3"",""40344""
","""event"",""trial"",""time""
""fullscreenenter"",""0"",""2412""
","""event"",""trial"",""time""
""fullscreenexit"",""2"",""4342""
","null","run_exp/static/images/Set 6_rs/131a.jpg","null","","","","","","learn","SR",""
"","html-keyboard-response","93","119286","0.0-93.0","""event"",""trial"",""time""
""fullscreenenter"",""0"",""2412""
""fullscreenexit"",""2"",""4342""
""blur"",""2"",""20470""
""focus"",""2"",""21984""
""blur"",""2"",""38081""
""focus"",""3"",""40344""
","""event"",""trial"",""time""
""blur"",""2"",""20470""
""blur"",""2"",""38081""
","""event"",""trial"",""time""
""focus"",""2"",""21984""
""focus"",""3"",""40344""
","""event"",""trial"",""time""
""fullscreenenter"",""0"",""2412""
","""event"",""trial"",""time""
""fullscreenexit"",""2"",""4342""
","null","<p></p>","null","","","","","","","",""
"","image","94","119870","0.0-94.0","""event"",""trial"",""time""
""fullscreenenter"",""0"",""2412""
""fullscreenexit"",""2"",""4342""
""blur"",""2"",""20470""
""focus"",""2"",""21984""
""blur"",""2"",""38081""
""focus"",""3"",""40344""
","""event"",""trial"",""time""
""blur"",""2"",""20470""
""blur"",""2"",""38081""
","""event"",""trial"",""time""
""focus"",""2"",""21984""
""focus"",""3"",""40344""
","""event"",""trial"",""time""
""fullscreenenter"",""0"",""2412""
","""event"",""trial"",""time""
""fullscreenexit"",""2"",""4342""
","583.3000000007451","run_exp/static/images/Set 6_rs/014a.jpg","78","","","","","","learn","SL",""
"","show_choice","95","121301","0.0-95.0","""event"",""trial"",""time""
""fullscreenenter"",""0"",""2412""
""fullscreenexit"",""2"",""4342""
""blur"",""2"",""20470""
""focus"",""2"",""21984""
""blur"",""2"",""38081""
""focus"",""3"",""40344""
","""event"",""trial"",""time""
""blur"",""2"",""20470""
""blur"",""2"",""38081""
","""event"",""trial"",""time""
""focus"",""2"",""21984""
""focus"",""3"",""40344""
","""event"",""trial"",""time""
""fullscreenenter"",""0"",""2412""
","""event"",""trial"",""time""
""fullscreenexit"",""2"",""4342""
","null","run_exp/static/images/Set 6_rs/014a.jpg","null","","","","","","learn","SL",""
"","html-keyboard-response","96","121804","0.0-96.0","""event"",""trial"",""time""
""fullscreenenter"",""0"",""2412""
""fullscreenexit"",""2"",""4342""
""blur"",""2"",""20470""
""focus"",""2"",""21984""
""blur"",""2"",""38081""
""focus"",""3"",""40344""
","""event"",""trial"",""time""
""blur"",""2"",""20470""
""blur"",""2"",""38081""
","""event"",""trial"",""time""
""focus"",""2"",""21984""
""focus"",""3"",""40344""
","""event"",""trial"",""time""
""fullscreenenter"",""0"",""2412""
","""event"",""trial"",""time""
""fullscreenexit"",""2"",""4342""
","null","<p></p>","null","","","","","","","",""
"","image","97","122323","0.0-97.0","""event"",""trial"",""time""
""fullscreenenter"",""0"",""2412""
""fullscreenexit"",""2"",""4342""
""blur"",""2"",""20470""
""focus"",""2"",""21984""
""blur"",""2"",""38081""
""focus"",""3"",""40344""
","""event"",""trial"",""time""
""blur"",""2"",""20470""
""blur"",""2"",""38081""
","""event"",""trial"",""time""
""focus"",""2"",""21984""
""focus"",""3"",""40344""
","""event"",""trial"",""time""
""fullscreenenter"",""0"",""2412""
","""event"",""trial"",""time""
""fullscreenexit"",""2"",""4342""
","517.7000000011176","run_exp/static/images/Set 6_rs/138a.jpg","86","","","","","","learn","SL",""
"","show_choice","98","123807","0.0-98.0","""event"",""trial"",""time""
""fullscreenenter"",""0"",""2412""
""fullscreenexit"",""2"",""4342""
""blur"",""2"",""20470""
""focus"",""2"",""21984""
""blur"",""2"",""38081""
""focus"",""3"",""40344""
","""event"",""trial"",""time""
""blur"",""2"",""20470""
""blur"",""2"",""38081""
","""event"",""trial"",""time""
""focus"",""2"",""21984""
""focus"",""3"",""40344""
","""event"",""trial"",""time""
""fullscreenenter"",""0"",""2412""
","""event"",""trial"",""time""
""fullscreenexit"",""2"",""4342""
","null","run_exp/static/images/Set 6_rs/138a.jpg","null","","","","","","learn","SL",""
"","html-keyboard-response","99","124324","0.0-99.0","""event"",""trial"",""time""
""fullscreenenter"",""0"",""2412""
""fullscreenexit"",""2"",""4342""
""blur"",""2"",""20470""
""focus"",""2"",""21984""
""blur"",""2"",""38081""
""focus"",""3"",""40344""
","""event"",""trial"",""time""
""blur"",""2"",""20470""
""blur"",""2"",""38081""
","""event"",""trial"",""time""
""focus"",""2"",""21984""
""focus"",""3"",""40344""
","""event"",""trial"",""time""
""fullscreenenter"",""0"",""2412""
","""event"",""trial"",""time""
""fullscreenexit"",""2"",""4342""
","null","<p></p>","null","","","","","","","",""
"","image","100","124597","0.0-100.0","""event"",""trial"",""time""
""fullscreenenter"",""0"",""2412""
""fullscreenexit"",""2"",""4342""
""blur"",""2"",""20470""
""focus"",""2"",""21984""
""blur"",""2"",""38081""
""focus"",""3"",""40344""
","""event"",""trial"",""time""
""blur"",""2"",""20470""
""blur"",""2"",""38081""
","""event"",""trial"",""time""
""focus"",""2"",""21984""
""focus"",""3"",""40344""
","""event"",""trial"",""time""
""fullscreenenter"",""0"",""2412""
","""event"",""trial"",""time""
""fullscreenexit"",""2"",""4342""
","272.09999999962747","run_exp/static/images/Set 6_rs/117a.jpg","78","","","","","","learn","SL",""
"","show_choice","101","126330","0.0-101.0","""event"",""trial"",""time""
""fullscreenenter"",""0"",""2412""
""fullscreenexit"",""2"",""4342""
""blur"",""2"",""20470""
""focus"",""2"",""21984""
""blur"",""2"",""38081""
""focus"",""3"",""40344""
","""event"",""trial"",""time""
""blur"",""2"",""20470""
""blur"",""2"",""38081""
","""event"",""trial"",""time""
""focus"",""2"",""21984""
""focus"",""3"",""40344""
","""event"",""trial"",""time""
""fullscreenenter"",""0"",""2412""
","""event"",""trial"",""time""
""fullscreenexit"",""2"",""4342""
","null","run_exp/static/images/Set 6_rs/117a.jpg","null","","","","","","learn","SL",""
"","html-keyboard-response","102","126845","0.0-102.0","""event"",""trial"",""time""
""fullscreenenter"",""0"",""2412""
""fullscreenexit"",""2"",""4342""
""blur"",""2"",""20470""
""focus"",""2"",""21984""
""blur"",""2"",""38081""
""focus"",""3"",""40344""
","""event"",""trial"",""time""
""blur"",""2"",""20470""
""blur"",""2"",""38081""
","""event"",""trial"",""time""
""focus"",""2"",""21984""
""focus"",""3"",""40344""
","""event"",""trial"",""time""
""fullscreenenter"",""0"",""2412""
","""event"",""trial"",""time""
""fullscreenexit"",""2"",""4342""
","null","<p></p>","null","","","","","","","",""
"","image","103","127471","0.0-103.0","""event"",""trial"",""time""
""fullscreenenter"",""0"",""2412""
""fullscreenexit"",""2"",""4342""
""blur"",""2"",""20470""
""focus"",""2"",""21984""
""blur"",""2"",""38081""
""focus"",""3"",""40344""
","""event"",""trial"",""time""
""blur"",""2"",""20470""
""blur"",""2"",""38081""
","""event"",""trial"",""time""
""focus"",""2"",""21984""
""focus"",""3"",""40344""
","""event"",""trial"",""time""
""fullscreenenter"",""0"",""2412""
","""event"",""trial"",""time""
""fullscreenexit"",""2"",""4342""
","624.6999999992549","run_exp/static/images/Set 6_rs/169a.jpg","86","","","","","","learn","SR",""
"","show_choice","104","128856","0.0-104.0","""event"",""trial"",""time""
""fullscreenenter"",""0"",""2412""
""fullscreenexit"",""2"",""4342""
""blur"",""2"",""20470""
""focus"",""2"",""21984""
""blur"",""2"",""38081""
""focus"",""3"",""40344""
","""event"",""trial"",""time""
""blur"",""2"",""20470""
""blur"",""2"",""38081""
","""event"",""trial"",""time""
""focus"",""2"",""21984""
""focus"",""3"",""40344""
","""event"",""trial"",""time""
""fullscreenenter"",""0"",""2412""
","""event"",""trial"",""time""
""fullscreenexit"",""2"",""4342""
","null","run_exp/static/images/Set 6_rs/169a.jpg","null","","","","","","learn","SR",""
"","html-keyboard-response","105","129361","0.0-105.0","""event"",""trial"",""time""
""fullscreenenter"",""0"",""2412""
""fullscreenexit"",""2"",""4342""
""blur"",""2"",""20470""
""focus"",""2"",""21984""
""blur"",""2"",""38081""
""focus"",""3"",""40344""
","""event"",""trial"",""time""
""blur"",""2"",""20470""
""blur"",""2"",""38081""
","""event"",""trial"",""time""
""focus"",""2"",""21984""
""focus"",""3"",""40344""
","""event"",""trial"",""time""
""fullscreenenter"",""0"",""2412""
","""event"",""trial"",""time""
""fullscreenexit"",""2"",""4342""
","null","<p></p>","null","","","","","","","",""
"","image","106","129441","0.0-106.0","""event"",""trial"",""time""
""fullscreenenter"",""0"",""2412""
""fullscreenexit"",""2"",""4342""
""blur"",""2"",""20470""
""focus"",""2"",""21984""
""blur"",""2"",""38081""
""focus"",""3"",""40344""
","""event"",""trial"",""time""
""blur"",""2"",""20470""
""blur"",""2"",""38081""
","""event"",""trial"",""time""
""focus"",""2"",""21984""
""focus"",""3"",""40344""
","""event"",""trial"",""time""
""fullscreenenter"",""0"",""2412""
","""event"",""trial"",""time""
""fullscreenexit"",""2"",""4342""
","78.90000000037253","run_exp/static/images/Set 6_rs/132a.jpg","78","","","","","","learn","SR",""
"","show_choice","107","131365","0.0-107.0","""event"",""trial"",""time""
""fullscreenenter"",""0"",""2412""
""fullscreenexit"",""2"",""4342""
""blur"",""2"",""20470""
""focus"",""2"",""21984""
""blur"",""2"",""38081""
""focus"",""3"",""40344""
","""event"",""trial"",""time""
""blur"",""2"",""20470""
""blur"",""2"",""38081""
","""event"",""trial"",""time""
""focus"",""2"",""21984""
""focus"",""3"",""40344""
","""event"",""trial"",""time""
""fullscreenenter"",""0"",""2412""
","""event"",""trial"",""time""
""fullscreenexit"",""2"",""4342""
","null","run_exp/static/images/Set 6_rs/132a.jpg","null","","","","","","learn","SR",""
"","html-keyboard-response","108","131877","0.0-108.0","""event"",""trial"",""time""
""fullscreenenter"",""0"",""2412""
""fullscreenexit"",""2"",""4342""
""blur"",""2"",""20470""
""focus"",""2"",""21984""
""blur"",""2"",""38081""
""focus"",""3"",""40344""
","""event"",""trial"",""time""
""blur"",""2"",""20470""
""blur"",""2"",""38081""
","""event"",""trial"",""time""
""focus"",""2"",""21984""
""focus"",""3"",""40344""
","""event"",""trial"",""time""
""fullscreenenter"",""0"",""2412""
","""event"",""trial"",""time""
""fullscreenexit"",""2"",""4342""
","null","<p></p>","null","","","","","","","",""
"","image","109","132281","0.0-109.0","""event"",""trial"",""time""
""fullscreenenter"",""0"",""2412""
""fullscreenexit"",""2"",""4342""
""blur"",""2"",""20470""
""focus"",""2"",""21984""
""blur"",""2"",""38081""
""focus"",""3"",""40344""
","""event"",""trial"",""time""
""blur"",""2"",""20470""
""blur"",""2"",""38081""
","""event"",""trial"",""time""
""focus"",""2"",""21984""
""focus"",""3"",""40344""
","""event"",""trial"",""time""
""fullscreenenter"",""0"",""2412""
","""event"",""trial"",""time""
""fullscreenexit"",""2"",""4342""
","401.2000000011176","run_exp/static/images/Set 6_rs/079a.jpg","78","","","","","","learn","SL",""
"","show_choice","110","133882","0.0-110.0","""event"",""trial"",""time""
""fullscreenenter"",""0"",""2412""
""fullscreenexit"",""2"",""4342""
""blur"",""2"",""20470""
""focus"",""2"",""21984""
""blur"",""2"",""38081""
""focus"",""3"",""40344""
","""event"",""trial"",""time""
""blur"",""2"",""20470""
""blur"",""2"",""38081""
","""event"",""trial"",""time""
""focus"",""2"",""21984""
""focus"",""3"",""40344""
","""event"",""trial"",""time""
""fullscreenenter"",""0"",""2412""
","""event"",""trial"",""time""
""fullscreenexit"",""2"",""4342""
","null","run_exp/static/images/Set 6_rs/079a.jpg","null","","","","","","learn","SL",""
"","html-keyboard-response","111","134385","0.0-111.0","""event"",""trial"",""time""
""fullscreenenter"",""0"",""2412""
""fullscreenexit"",""2"",""4342""
""blur"",""2"",""20470""
""focus"",""2"",""21984""
""blur"",""2"",""38081""
""focus"",""3"",""40344""
","""event"",""trial"",""time""
""blur"",""2"",""20470""
""blur"",""2"",""38081""
","""event"",""trial"",""time""
""focus"",""2"",""21984""
""focus"",""3"",""40344""
","""event"",""trial"",""time""
""fullscreenenter"",""0"",""2412""
","""event"",""trial"",""time""
""fullscreenexit"",""2"",""4342""
","null","<p></p>","null","","","","","","","",""
"","image","112","135385","0.0-112.0","""event"",""trial"",""time""
""fullscreenenter"",""0"",""2412""
""fullscreenexit"",""2"",""4342""
""blur"",""2"",""20470""
""focus"",""2"",""21984""
""blur"",""2"",""38081""
""focus"",""3"",""40344""
","""event"",""trial"",""time""
""blur"",""2"",""20470""
""blur"",""2"",""38081""
","""event"",""trial"",""time""
""focus"",""2"",""21984""
""focus"",""3"",""40344""
","""event"",""trial"",""time""
""fullscreenenter"",""0"",""2412""
","""event"",""trial"",""time""
""fullscreenexit"",""2"",""4342""
","999.5","run_exp/static/images/Set 6_rs/177a.jpg","86","","","","","","learn","SR",""
"","show_choice","113","136402","0.0-113.0","""event"",""trial"",""time""
""fullscreenenter"",""0"",""2412""
""fullscreenexit"",""2"",""4342""
""blur"",""2"",""20470""
""focus"",""2"",""21984""
""blur"",""2"",""38081""
""focus"",""3"",""40344""
","""event"",""trial"",""time""
""blur"",""2"",""20470""
""blur"",""2"",""38081""
","""event"",""trial"",""time""
""focus"",""2"",""21984""
""focus"",""3"",""40344""
","""event"",""trial"",""time""
""fullscreenenter"",""0"",""2412""
","""event"",""trial"",""time""
""fullscreenexit"",""2"",""4342""
","null","run_exp/static/images/Set 6_rs/177a.jpg","null","","","","","","learn","SR",""
"","html-keyboard-response","114","136916","0.0-114.0","""event"",""trial"",""time""
""fullscreenenter"",""0"",""2412""
""fullscreenexit"",""2"",""4342""
""blur"",""2"",""20470""
""focus"",""2"",""21984""
""blur"",""2"",""38081""
""focus"",""3"",""40344""
","""event"",""trial"",""time""
""blur"",""2"",""20470""
""blur"",""2"",""38081""
","""event"",""trial"",""time""
""focus"",""2"",""21984""
""focus"",""3"",""40344""
","""event"",""trial"",""time""
""fullscreenenter"",""0"",""2412""
","""event"",""trial"",""time""
""fullscreenexit"",""2"",""4342""
","null","<p></p>","null","","","","","","","",""
"","image","115","137655","0.0-115.0","""event"",""trial"",""time""
""fullscreenenter"",""0"",""2412""
""fullscreenexit"",""2"",""4342""
""blur"",""2"",""20470""
""focus"",""2"",""21984""
""blur"",""2"",""38081""
""focus"",""3"",""40344""
","""event"",""trial"",""time""
""blur"",""2"",""20470""
""blur"",""2"",""38081""
","""event"",""trial"",""time""
""focus"",""2"",""21984""
""focus"",""3"",""40344""
","""event"",""trial"",""time""
""fullscreenenter"",""0"",""2412""
","""event"",""trial"",""time""
""fullscreenexit"",""2"",""4342""
","738.2999999988824","run_exp/static/images/Set 6_rs/006a.jpg","86","","","","","","learn","SL",""
"","show_choice","116","138932","0.0-116.0","""event"",""trial"",""time""
""fullscreenenter"",""0"",""2412""
""fullscreenexit"",""2"",""4342""
""blur"",""2"",""20470""
""focus"",""2"",""21984""
""blur"",""2"",""38081""
""focus"",""3"",""40344""
","""event"",""trial"",""time""
""blur"",""2"",""20470""
""blur"",""2"",""38081""
","""event"",""trial"",""time""
""focus"",""2"",""21984""
""focus"",""3"",""40344""
","""event"",""trial"",""time""
""fullscreenenter"",""0"",""2412""
","""event"",""trial"",""time""
""fullscreenexit"",""2"",""4342""
","null","run_exp/static/images/Set 6_rs/006a.jpg","null","","","","","","learn","SL",""
"","html-keyboard-response","117","139448","0.0-117.0","""event"",""trial"",""time""
""fullscreenenter"",""0"",""2412""
""fullscreenexit"",""2"",""4342""
""blur"",""2"",""20470""
""focus"",""2"",""21984""
""blur"",""2"",""38081""
""focus"",""3"",""40344""
","""event"",""trial"",""time""
""blur"",""2"",""20470""
""blur"",""2"",""38081""
","""event"",""trial"",""time""
""focus"",""2"",""21984""
""focus"",""3"",""40344""
","""event"",""trial"",""time""
""fullscreenenter"",""0"",""2412""
","""event"",""trial"",""time""
""fullscreenexit"",""2"",""4342""
","null","<p></p>","null","","","","","","","",""
"","image","118","139481","0.0-118.0","""event"",""trial"",""time""
""fullscreenenter"",""0"",""2412""
""fullscreenexit"",""2"",""4342""
""blur"",""2"",""20470""
""focus"",""2"",""21984""
""blur"",""2"",""38081""
""focus"",""3"",""40344""
","""event"",""trial"",""time""
""blur"",""2"",""20470""
""blur"",""2"",""38081""
","""event"",""trial"",""time""
""focus"",""2"",""21984""
""focus"",""3"",""40344""
","""event"",""trial"",""time""
""fullscreenenter"",""0"",""2412""
","""event"",""trial"",""time""
""fullscreenexit"",""2"",""4342""
","31.199999999254942","run_exp/static/images/Set 6_rs/066a.jpg","78","","","","","","learn","SL",""
"","show_choice","119","141462","0.0-119.0","""event"",""trial"",""time""
""fullscreenenter"",""0"",""2412""
""fullscreenexit"",""2"",""4342""
""blur"",""2"",""20470""
""focus"",""2"",""21984""
""blur"",""2"",""38081""
""focus"",""3"",""40344""
","""event"",""trial"",""time""
""blur"",""2"",""20470""
""blur"",""2"",""38081""
","""event"",""trial"",""time""
""focus"",""2"",""21984""
""focus"",""3"",""40344""
","""event"",""trial"",""time""
""fullscreenenter"",""0"",""2412""
","""event"",""trial"",""time""
""fullscreenexit"",""2"",""4342""
","null","run_exp/static/images/Set 6_rs/066a.jpg","null","","","","","","learn","SL",""
"","html-keyboard-response","120","141978","0.0-120.0","""event"",""trial"",""time""
""fullscreenenter"",""0"",""2412""
""fullscreenexit"",""2"",""4342""
""blur"",""2"",""20470""
""focus"",""2"",""21984""
""blur"",""2"",""38081""
""focus"",""3"",""40344""
","""event"",""trial"",""time""
""blur"",""2"",""20470""
""blur"",""2"",""38081""
","""event"",""trial"",""time""
""focus"",""2"",""21984""
""focus"",""3"",""40344""
","""event"",""trial"",""time""
""fullscreenenter"",""0"",""2412""
","""event"",""trial"",""time""
""fullscreenexit"",""2"",""4342""
","null","<p></p>","null","","","","","","","",""
"","image","121","142801","0.0-121.0","""event"",""trial"",""time""
""fullscreenenter"",""0"",""2412""
""fullscreenexit"",""2"",""4342""
""blur"",""2"",""20470""
""focus"",""2"",""21984""
""blur"",""2"",""38081""
""focus"",""3"",""40344""
","""event"",""trial"",""time""
""blur"",""2"",""20470""
""blur"",""2"",""38081""
","""event"",""trial"",""time""
""focus"",""2"",""21984""
""focus"",""3"",""40344""
","""event"",""trial"",""time""
""fullscreenenter"",""0"",""2412""
","""event"",""trial"",""time""
""fullscreenexit"",""2"",""4342""
","821.1999999992549","run_exp/static/images/Set 6_rs/172a.jpg","78","","","","","","learn","SR",""
"","show_choice","122","143991","0.0-122.0","""event"",""trial"",""time""
""fullscreenenter"",""0"",""2412""
""fullscreenexit"",""2"",""4342""
""blur"",""2"",""20470""
""focus"",""2"",""21984""
""blur"",""2"",""38081""
""focus"",""3"",""40344""
","""event"",""trial"",""time""
""blur"",""2"",""20470""
""blur"",""2"",""38081""
","""event"",""trial"",""time""
""focus"",""2"",""21984""
""focus"",""3"",""40344""
","""event"",""trial"",""time""
""fullscreenenter"",""0"",""2412""
","""event"",""trial"",""time""
""fullscreenexit"",""2"",""4342""
","null","run_exp/static/images/Set 6_rs/172a.jpg","null","","","","","","learn","SR",""
"","html-keyboard-response","123","144495","0.0-123.0","""event"",""trial"",""time""
""fullscreenenter"",""0"",""2412""
""fullscreenexit"",""2"",""4342""
""blur"",""2"",""20470""
""focus"",""2"",""21984""
""blur"",""2"",""38081""
""focus"",""3"",""40344""
","""event"",""trial"",""time""
""blur"",""2"",""20470""
""blur"",""2"",""38081""
","""event"",""trial"",""time""
""focus"",""2"",""21984""
""focus"",""3"",""40344""
","""event"",""trial"",""time""
""fullscreenenter"",""0"",""2412""
","""event"",""trial"",""time""
""fullscreenexit"",""2"",""4342""
","null","<p></p>","null","","","","","","","",""
"","image","124","145216","0.0-124.0","""event"",""trial"",""time""
""fullscreenenter"",""0"",""2412""
""fullscreenexit"",""2"",""4342""
""blur"",""2"",""20470""
""focus"",""2"",""21984""
""blur"",""2"",""38081""
""focus"",""3"",""40344""
","""event"",""trial"",""time""
""blur"",""2"",""20470""
""blur"",""2"",""38081""
","""event"",""trial"",""time""
""focus"",""2"",""21984""
""focus"",""3"",""40344""
","""event"",""trial"",""time""
""fullscreenenter"",""0"",""2412""
","""event"",""trial"",""time""
""fullscreenexit"",""2"",""4342""
","719.5","run_exp/static/images/Set 6_rs/071a.jpg","78","","","","","","learn","SL",""
"","show_choice","125","146512","0.0-125.0","""event"",""trial"",""time""
""fullscreenenter"",""0"",""2412""
""fullscreenexit"",""2"",""4342""
""blur"",""2"",""20470""
""focus"",""2"",""21984""
""blur"",""2"",""38081""
""focus"",""3"",""40344""
","""event"",""trial"",""time""
""blur"",""2"",""20470""
""blur"",""2"",""38081""
","""event"",""trial"",""time""
""focus"",""2"",""21984""
""focus"",""3"",""40344""
","""event"",""trial"",""time""
""fullscreenenter"",""0"",""2412""
","""event"",""trial"",""time""
""fullscreenexit"",""2"",""4342""
","null","run_exp/static/images/Set 6_rs/071a.jpg","null","","","","","","learn","SL",""
"","html-keyboard-response","126","147028","0.0-126.0","""event"",""trial"",""time""
""fullscreenenter"",""0"",""2412""
""fullscreenexit"",""2"",""4342""
""blur"",""2"",""20470""
""focus"",""2"",""21984""
""blur"",""2"",""38081""
""focus"",""3"",""40344""
","""event"",""trial"",""time""
""blur"",""2"",""20470""
""blur"",""2"",""38081""
","""event"",""trial"",""time""
""focus"",""2"",""21984""
""focus"",""3"",""40344""
","""event"",""trial"",""time""
""fullscreenenter"",""0"",""2412""
","""event"",""trial"",""time""
""fullscreenexit"",""2"",""4342""
","null","<p></p>","null","","","","","","","",""
"","image","127","147507","0.0-127.0","""event"",""trial"",""time""
""fullscreenenter"",""0"",""2412""
""fullscreenexit"",""2"",""4342""
""blur"",""2"",""20470""
""focus"",""2"",""21984""
""blur"",""2"",""38081""
""focus"",""3"",""40344""
","""event"",""trial"",""time""
""blur"",""2"",""20470""
""blur"",""2"",""38081""
","""event"",""trial"",""time""
""focus"",""2"",""21984""
""focus"",""3"",""40344""
","""event"",""trial"",""time""
""fullscreenenter"",""0"",""2412""
","""event"",""trial"",""time""
""fullscreenexit"",""2"",""4342""
","478.40000000037253","run_exp/static/images/Set 6_rs/073a.jpg","78","","","","","","learn","SL",""
"","show_choice","128","149033","0.0-128.0","""event"",""trial"",""time""
""fullscreenenter"",""0"",""2412""
""fullscreenexit"",""2"",""4342""
""blur"",""2"",""20470""
""focus"",""2"",""21984""
""blur"",""2"",""38081""
""focus"",""3"",""40344""
","""event"",""trial"",""time""
""blur"",""2"",""20470""
""blur"",""2"",""38081""
","""event"",""trial"",""time""
""focus"",""2"",""21984""
""focus"",""3"",""40344""
","""event"",""trial"",""time""
""fullscreenenter"",""0"",""2412""
","""event"",""trial"",""time""
""fullscreenexit"",""2"",""4342""
","null","run_exp/static/images/Set 6_rs/073a.jpg","null","","","","","","learn","SL",""
"","html-keyboard-response","129","149547","0.0-129.0","""event"",""trial"",""time""
""fullscreenenter"",""0"",""2412""
""fullscreenexit"",""2"",""4342""
""blur"",""2"",""20470""
""focus"",""2"",""21984""
""blur"",""2"",""38081""
""focus"",""3"",""40344""
","""event"",""trial"",""time""
""blur"",""2"",""20470""
""blur"",""2"",""38081""
","""event"",""trial"",""time""
""focus"",""2"",""21984""
""focus"",""3"",""40344""
","""event"",""trial"",""time""
""fullscreenenter"",""0"",""2412""
","""event"",""trial"",""time""
""fullscreenexit"",""2"",""4342""
","null","<p></p>","null","","","","","","","",""
"","image","130","150275","0.0-130.0","""event"",""trial"",""time""
""fullscreenenter"",""0"",""2412""
""fullscreenexit"",""2"",""4342""
""blur"",""2"",""20470""
""focus"",""2"",""21984""
""blur"",""2"",""38081""
""focus"",""3"",""40344""
","""event"",""trial"",""time""
""blur"",""2"",""20470""
""blur"",""2"",""38081""
","""event"",""trial"",""time""
""focus"",""2"",""21984""
""focus"",""3"",""40344""
","""event"",""trial"",""time""
""fullscreenenter"",""0"",""2412""
","""event"",""trial"",""time""
""fullscreenexit"",""2"",""4342""
","726.5999999996275","run_exp/static/images/Set 6_rs/121a.jpg","78","","","","","","learn","SR",""
"","show_choice","131","151555","0.0-131.0","""event"",""trial"",""time""
""fullscreenenter"",""0"",""2412""
""fullscreenexit"",""2"",""4342""
""blur"",""2"",""20470""
""focus"",""2"",""21984""
""blur"",""2"",""38081""
""focus"",""3"",""40344""
","""event"",""trial"",""time""
""blur"",""2"",""20470""
""blur"",""2"",""38081""
","""event"",""trial"",""time""
""focus"",""2"",""21984""
""focus"",""3"",""40344""
","""event"",""trial"",""time""
""fullscreenenter"",""0"",""2412""
","""event"",""trial"",""time""
""fullscreenexit"",""2"",""4342""
","null","run_exp/static/images/Set 6_rs/121a.jpg","null","","","","","","learn","SR",""
"","html-keyboard-response","132","152071","0.0-132.0","""event"",""trial"",""time""
""fullscreenenter"",""0"",""2412""
""fullscreenexit"",""2"",""4342""
""blur"",""2"",""20470""
""focus"",""2"",""21984""
""blur"",""2"",""38081""
""focus"",""3"",""40344""
","""event"",""trial"",""time""
""blur"",""2"",""20470""
""blur"",""2"",""38081""
","""event"",""trial"",""time""
""focus"",""2"",""21984""
""focus"",""3"",""40344""
","""event"",""trial"",""time""
""fullscreenenter"",""0"",""2412""
","""event"",""trial"",""time""
""fullscreenexit"",""2"",""4342""
","null","<p></p>","null","","","","","","","",""
"","image","133","152534","0.0-133.0","""event"",""trial"",""time""
""fullscreenenter"",""0"",""2412""
""fullscreenexit"",""2"",""4342""
""blur"",""2"",""20470""
""focus"",""2"",""21984""
""blur"",""2"",""38081""
""focus"",""3"",""40344""
","""event"",""trial"",""time""
""blur"",""2"",""20470""
""blur"",""2"",""38081""
","""event"",""trial"",""time""
""focus"",""2"",""21984""
""focus"",""3"",""40344""
","""event"",""trial"",""time""
""fullscreenenter"",""0"",""2412""
","""event"",""trial"",""time""
""fullscreenexit"",""2"",""4342""
","461.8999999985099","run_exp/static/images/Set 6_rs/167a.jpg","86","","","","","","learn","SL",""
"","show_choice","134","154077","0.0-134.0","""event"",""trial"",""time""
""fullscreenenter"",""0"",""2412""
""fullscreenexit"",""2"",""4342""
""blur"",""2"",""20470""
""focus"",""2"",""21984""
""blur"",""2"",""38081""
""focus"",""3"",""40344""
","""event"",""trial"",""time""
""blur"",""2"",""20470""
""blur"",""2"",""38081""
","""event"",""trial"",""time""
""focus"",""2"",""21984""
""focus"",""3"",""40344""
","""event"",""trial"",""time""
""fullscreenenter"",""0"",""2412""
","""event"",""trial"",""time""
""fullscreenexit"",""2"",""4342""
","null","run_exp/static/images/Set 6_rs/167a.jpg","null","","","","","","learn","SL",""
"","html-keyboard-response","135","154591","0.0-135.0","""event"",""trial"",""time""
""fullscreenenter"",""0"",""2412""
""fullscreenexit"",""2"",""4342""
""blur"",""2"",""20470""
""focus"",""2"",""21984""
""blur"",""2"",""38081""
""focus"",""3"",""40344""
","""event"",""trial"",""time""
""blur"",""2"",""20470""
""blur"",""2"",""38081""
","""event"",""trial"",""time""
""focus"",""2"",""21984""
""focus"",""3"",""40344""
","""event"",""trial"",""time""
""fullscreenenter"",""0"",""2412""
","""event"",""trial"",""time""
""fullscreenexit"",""2"",""4342""
","null","<p></p>","null","","","","","","","",""
"","image","136","155334","0.0-136.0","""event"",""trial"",""time""
""fullscreenenter"",""0"",""2412""
""fullscreenexit"",""2"",""4342""
""blur"",""2"",""20470""
""focus"",""2"",""21984""
""blur"",""2"",""38081""
""focus"",""3"",""40344""
","""event"",""trial"",""time""
""blur"",""2"",""20470""
""blur"",""2"",""38081""
","""event"",""trial"",""time""
""focus"",""2"",""21984""
""focus"",""3"",""40344""
","""event"",""trial"",""time""
""fullscreenenter"",""0"",""2412""
","""event"",""trial"",""time""
""fullscreenexit"",""2"",""4342""
","742.1999999992549","run_exp/static/images/Set 6_rs/063a.jpg","86","","","","","","learn","SR",""
"","show_choice","137","156602","0.0-137.0","""event"",""trial"",""time""
""fullscreenenter"",""0"",""2412""
""fullscreenexit"",""2"",""4342""
""blur"",""2"",""20470""
""focus"",""2"",""21984""
""blur"",""2"",""38081""
""focus"",""3"",""40344""
","""event"",""trial"",""time""
""blur"",""2"",""20470""
""blur"",""2"",""38081""
","""event"",""trial"",""time""
""focus"",""2"",""21984""
""focus"",""3"",""40344""
","""event"",""trial"",""time""
""fullscreenenter"",""0"",""2412""
","""event"",""trial"",""time""
""fullscreenexit"",""2"",""4342""
","null","run_exp/static/images/Set 6_rs/063a.jpg","null","","","","","","learn","SR",""
"","html-keyboard-response","138","157116","0.0-138.0","""event"",""trial"",""time""
""fullscreenenter"",""0"",""2412""
""fullscreenexit"",""2"",""4342""
""blur"",""2"",""20470""
""focus"",""2"",""21984""
""blur"",""2"",""38081""
""focus"",""3"",""40344""
","""event"",""trial"",""time""
""blur"",""2"",""20470""
""blur"",""2"",""38081""
","""event"",""trial"",""time""
""focus"",""2"",""21984""
""focus"",""3"",""40344""
","""event"",""trial"",""time""
""fullscreenenter"",""0"",""2412""
","""event"",""trial"",""time""
""fullscreenexit"",""2"",""4342""
","null","<p></p>","null","","","","","","","",""
"","image","139","158651","0.0-139.0","""event"",""trial"",""time""
""fullscreenenter"",""0"",""2412""
""fullscreenexit"",""2"",""4342""
""blur"",""2"",""20470""
""focus"",""2"",""21984""
""blur"",""2"",""38081""
""focus"",""3"",""40344""
","""event"",""trial"",""time""
""blur"",""2"",""20470""
""blur"",""2"",""38081""
","""event"",""trial"",""time""
""focus"",""2"",""21984""
""focus"",""3"",""40344""
","""event"",""trial"",""time""
""fullscreenenter"",""0"",""2412""
","""event"",""trial"",""time""
""fullscreenexit"",""2"",""4342""
","1534","run_exp/static/images/Set 6_rs/057a.jpg","78","","","","","","learn","SL",""
"","show_choice","140","159130","0.0-140.0","""event"",""trial"",""time""
""fullscreenenter"",""0"",""2412""
""fullscreenexit"",""2"",""4342""
""blur"",""2"",""20470""
""focus"",""2"",""21984""
""blur"",""2"",""38081""
""focus"",""3"",""40344""
","""event"",""trial"",""time""
""blur"",""2"",""20470""
""blur"",""2"",""38081""
","""event"",""trial"",""time""
""focus"",""2"",""21984""
""focus"",""3"",""40344""
","""event"",""trial"",""time""
""fullscreenenter"",""0"",""2412""
","""event"",""trial"",""time""
""fullscreenexit"",""2"",""4342""
","null","run_exp/static/images/Set 6_rs/057a.jpg","null","","","","","","learn","SL",""
"","html-keyboard-response","141","159645","0.0-141.0","""event"",""trial"",""time""
""fullscreenenter"",""0"",""2412""
""fullscreenexit"",""2"",""4342""
""blur"",""2"",""20470""
""focus"",""2"",""21984""
""blur"",""2"",""38081""
""focus"",""3"",""40344""
","""event"",""trial"",""time""
""blur"",""2"",""20470""
""blur"",""2"",""38081""
","""event"",""trial"",""time""
""focus"",""2"",""21984""
""focus"",""3"",""40344""
","""event"",""trial"",""time""
""fullscreenenter"",""0"",""2412""
","""event"",""trial"",""time""
""fullscreenexit"",""2"",""4342""
","null","<p></p>","null","","","","","","","",""
"","image","142","159981","0.0-142.0","""event"",""trial"",""time""
""fullscreenenter"",""0"",""2412""
""fullscreenexit"",""2"",""4342""
""blur"",""2"",""20470""
""focus"",""2"",""21984""
""blur"",""2"",""38081""
""focus"",""3"",""40344""
","""event"",""trial"",""time""
""blur"",""2"",""20470""
""blur"",""2"",""38081""
","""event"",""trial"",""time""
""focus"",""2"",""21984""
""focus"",""3"",""40344""
","""event"",""trial"",""time""
""fullscreenenter"",""0"",""2412""
","""event"",""trial"",""time""
""fullscreenexit"",""2"",""4342""
","335.40000000037253","run_exp/static/images/Set 6_rs/070a.jpg","86","","","","","","learn","SR",""
"","show_choice","143","161653","0.0-143.0","""event"",""trial"",""time""
""fullscreenenter"",""0"",""2412""
""fullscreenexit"",""2"",""4342""
""blur"",""2"",""20470""
""focus"",""2"",""21984""
""blur"",""2"",""38081""
""focus"",""3"",""40344""
","""event"",""trial"",""time""
""blur"",""2"",""20470""
""blur"",""2"",""38081""
","""event"",""trial"",""time""
""focus"",""2"",""21984""
""focus"",""3"",""40344""
","""event"",""trial"",""time""
""fullscreenenter"",""0"",""2412""
","""event"",""trial"",""time""
""fullscreenexit"",""2"",""4342""
","null","run_exp/static/images/Set 6_rs/070a.jpg","null","","","","","","learn","SR",""
"","html-keyboard-response","144","162168","0.0-144.0","""event"",""trial"",""time""
""fullscreenenter"",""0"",""2412""
""fullscreenexit"",""2"",""4342""
""blur"",""2"",""20470""
""focus"",""2"",""21984""
""blur"",""2"",""38081""
""focus"",""3"",""40344""
","""event"",""trial"",""time""
""blur"",""2"",""20470""
""blur"",""2"",""38081""
","""event"",""trial"",""time""
""focus"",""2"",""21984""
""focus"",""3"",""40344""
","""event"",""trial"",""time""
""fullscreenenter"",""0"",""2412""
","""event"",""trial"",""time""
""fullscreenexit"",""2"",""4342""
","null","<p></p>","null","","","","","","","",""
"","image","145","163930","0.0-145.0","""event"",""trial"",""time""
""fullscreenenter"",""0"",""2412""
""fullscreenexit"",""2"",""4342""
""blur"",""2"",""20470""
""focus"",""2"",""21984""
""blur"",""2"",""38081""
""focus"",""3"",""40344""
","""event"",""trial"",""time""
""blur"",""2"",""20470""
""blur"",""2"",""38081""
","""event"",""trial"",""time""
""focus"",""2"",""21984""
""focus"",""3"",""40344""
","""event"",""trial"",""time""
""fullscreenenter"",""0"",""2412""
","""event"",""trial"",""time""
""fullscreenexit"",""2"",""4342""
","1759.300000000745","run_exp/static/images/Set 6_rs/111a.jpg","78","","","","","","learn","SL",""
"","show_choice","146","164176","0.0-146.0","""event"",""trial"",""time""
""fullscreenenter"",""0"",""2412""
""fullscreenexit"",""2"",""4342""
""blur"",""2"",""20470""
""focus"",""2"",""21984""
""blur"",""2"",""38081""
""focus"",""3"",""40344""
","""event"",""trial"",""time""
""blur"",""2"",""20470""
""blur"",""2"",""38081""
","""event"",""trial"",""time""
""focus"",""2"",""21984""
""focus"",""3"",""40344""
","""event"",""trial"",""time""
""fullscreenenter"",""0"",""2412""
","""event"",""trial"",""time""
""fullscreenexit"",""2"",""4342""
","null","run_exp/static/images/Set 6_rs/111a.jpg","null","","","","","","learn","SL",""
"","html-keyboard-response","147","164692","0.0-147.0","""event"",""trial"",""time""
""fullscreenenter"",""0"",""2412""
""fullscreenexit"",""2"",""4342""
""blur"",""2"",""20470""
""focus"",""2"",""21984""
""blur"",""2"",""38081""
""focus"",""3"",""40344""
","""event"",""trial"",""time""
""blur"",""2"",""20470""
""blur"",""2"",""38081""
","""event"",""trial"",""time""
""focus"",""2"",""21984""
""focus"",""3"",""40344""
","""event"",""trial"",""time""
""fullscreenenter"",""0"",""2412""
","""event"",""trial"",""time""
""fullscreenexit"",""2"",""4342""
","null","<p></p>","null","","","","","","","",""
"","image","148","165592","0.0-148.0","""event"",""trial"",""time""
""fullscreenenter"",""0"",""2412""
""fullscreenexit"",""2"",""4342""
""blur"",""2"",""20470""
""focus"",""2"",""21984""
""blur"",""2"",""38081""
""focus"",""3"",""40344""
","""event"",""trial"",""time""
""blur"",""2"",""20470""
""blur"",""2"",""38081""
","""event"",""trial"",""time""
""focus"",""2"",""21984""
""focus"",""3"",""40344""
","""event"",""trial"",""time""
""fullscreenenter"",""0"",""2412""
","""event"",""trial"",""time""
""fullscreenexit"",""2"",""4342""
","899","run_exp/static/images/Set 6_rs/024a.jpg","86","","","","","","learn","SR",""
"","show_choice","149","166694","0.0-149.0","""event"",""trial"",""time""
""fullscreenenter"",""0"",""2412""
""fullscreenexit"",""2"",""4342""
""blur"",""2"",""20470""
""focus"",""2"",""21984""
""blur"",""2"",""38081""
""focus"",""3"",""40344""
","""event"",""trial"",""time""
""blur"",""2"",""20470""
""blur"",""2"",""38081""
","""event"",""trial"",""time""
""focus"",""2"",""21984""
""focus"",""3"",""40344""
","""event"",""trial"",""time""
""fullscreenenter"",""0"",""2412""
","""event"",""trial"",""time""
""fullscreenexit"",""2"",""4342""
","null","run_exp/static/images/Set 6_rs/024a.jpg","null","","","","","","learn","SR",""
"","html-keyboard-response","150","167196","0.0-150.0","""event"",""trial"",""time""
""fullscreenenter"",""0"",""2412""
""fullscreenexit"",""2"",""4342""
""blur"",""2"",""20470""
""focus"",""2"",""21984""
""blur"",""2"",""38081""
""focus"",""3"",""40344""
","""event"",""trial"",""time""
""blur"",""2"",""20470""
""blur"",""2"",""38081""
","""event"",""trial"",""time""
""focus"",""2"",""21984""
""focus"",""3"",""40344""
","""event"",""trial"",""time""
""fullscreenenter"",""0"",""2412""
","""event"",""trial"",""time""
""fullscreenexit"",""2"",""4342""
","null","<p></p>","null","","","","","","","",""
"","image","151","168783","0.0-151.0","""event"",""trial"",""time""
""fullscreenenter"",""0"",""2412""
""fullscreenexit"",""2"",""4342""
""blur"",""2"",""20470""
""focus"",""2"",""21984""
""blur"",""2"",""38081""
""focus"",""3"",""40344""
","""event"",""trial"",""time""
""blur"",""2"",""20470""
""blur"",""2"",""38081""
","""event"",""trial"",""time""
""focus"",""2"",""21984""
""focus"",""3"",""40344""
","""event"",""trial"",""time""
""fullscreenenter"",""0"",""2412""
","""event"",""trial"",""time""
""fullscreenexit"",""2"",""4342""
","1586.5","run_exp/static/images/Set 6_rs/091a.jpg","86","","","","","","learn","SL",""
"","show_choice","152","169206","0.0-152.0","""event"",""trial"",""time""
""fullscreenenter"",""0"",""2412""
""fullscreenexit"",""2"",""4342""
""blur"",""2"",""20470""
""focus"",""2"",""21984""
""blur"",""2"",""38081""
""focus"",""3"",""40344""
","""event"",""trial"",""time""
""blur"",""2"",""20470""
""blur"",""2"",""38081""
","""event"",""trial"",""time""
""focus"",""2"",""21984""
""focus"",""3"",""40344""
","""event"",""trial"",""time""
""fullscreenenter"",""0"",""2412""
","""event"",""trial"",""time""
""fullscreenexit"",""2"",""4342""
","null","run_exp/static/images/Set 6_rs/091a.jpg","null","","","","","","learn","SL",""
"","html-keyboard-response","153","169718","0.0-153.0","""event"",""trial"",""time""
""fullscreenenter"",""0"",""2412""
""fullscreenexit"",""2"",""4342""
""blur"",""2"",""20470""
""focus"",""2"",""21984""
""blur"",""2"",""38081""
""focus"",""3"",""40344""
","""event"",""trial"",""time""
""blur"",""2"",""20470""
""blur"",""2"",""38081""
","""event"",""trial"",""time""
""focus"",""2"",""21984""
""focus"",""3"",""40344""
","""event"",""trial"",""time""
""fullscreenenter"",""0"",""2412""
","""event"",""trial"",""time""
""fullscreenexit"",""2"",""4342""
","null","<p></p>","null","","","","","","","",""
"","image","154","170418","0.0-154.0","""event"",""trial"",""time""
""fullscreenenter"",""0"",""2412""
""fullscreenexit"",""2"",""4342""
""blur"",""2"",""20470""
""focus"",""2"",""21984""
""blur"",""2"",""38081""
""focus"",""3"",""40344""
","""event"",""trial"",""time""
""blur"",""2"",""20470""
""blur"",""2"",""38081""
","""event"",""trial"",""time""
