"success","trial_type","trial_index","time_elapsed","internal_node_id","interactions","blur_events","focus_events","fullscreenenter_events","fullscreenexit_events","rt","stimulus","key_press","subject_id","participant_id","age","gender","prompt","phase","condition","lure_bin"
"true","fullscreen","0","4399","0.0-0.0","""event"",""trial"",""time""
""fullscreenenter"",""0"",""3405""
","
","
","""event"",""trial"",""time""
""fullscreenenter"",""0"",""3405""
","
","","","","","","","","","","",""
"","pavlovia","1","4406","0.0-1.0","""event"",""trial"",""time""
""fullscreenenter"",""0"",""3405""
","
","
","""event"",""trial"",""time""
""fullscreenenter"",""0"",""3405""
","
","","","","","","","","","","",""
"","welcome","2","39255","0.0-2.0","""event"",""trial"",""time""
""fullscreenenter"",""0"",""3405""
","
","
","""event"",""trial"",""time""
""fullscreenenter"",""0"",""3405""
","
","null","run_exp/static/audio/clip_1_welcome.m4a","null","575","758","13","Male","<div class='center'><p>Welcome to the third part of the study! First, you'll be shown pictures of items one at a time. For each picture, you have to decide if the item is typically found indoors or outdoors.</p><p>If you think it's usually found indoors, then press <b>v</b> key on your keyboard. If you think it's usually found outdoors, then press the <b>n</b> key.There will be reminders on the screen to help you remember which keys to press. </p><p>If you're not sure whether the item is an indoor item or an outdoor item, go ahead and take a guess but try your best not to skip that choice. </p></div>","","",""
"","html-keyboard-response","3","39480","0.0-3.0","""event"",""trial"",""time""
""fullscreenenter"",""0"",""3405""
","
","
","""event"",""trial"",""time""
""fullscreenenter"",""0"",""3405""
","
","221.90000000002328","<div class='center'><p>Welcome to the third part of the study! First, you'll be shown pictures of items one at a time. For each picture, you have to decide if the item is typically found indoors or outdoors.</p><p>If you think it's usually found indoors, then press <b>v</b> key on your keyboard. If you think it's usually found outdoors, then press the <b>n</b> key.There will be reminders on the screen to help you remember which keys to press. </p><p>If you're not sure whether the item is an indoor item or an outdoor item, go ahead and take a guess but try your best not to skip that choice. </p><div><p><b>[Press the space bar to continue]</b></p></div>","32","","","","","","","",""
"","image","4","41192","0.0-4.0","""event"",""trial"",""time""
""fullscreenenter"",""0"",""3405""
","
","
","""event"",""trial"",""time""
""fullscreenenter"",""0"",""3405""
","
","1709.2999999999884","run_exp/static/images/Set 6_rs/150a.jpg","86","","","","","","learn","SR",""
"","show_choice","5","41484","0.0-5.0","""event"",""trial"",""time""
""fullscreenenter"",""0"",""3405""
","
","
","""event"",""trial"",""time""
""fullscreenenter"",""0"",""3405""
","
","null","run_exp/static/images/Set 6_rs/150a.jpg","null","","","","","","learn","SR",""
"","html-keyboard-response","6","41987","0.0-6.0","""event"",""trial"",""time""
""fullscreenenter"",""0"",""3405""
","
","
","""event"",""trial"",""time""
""fullscreenenter"",""0"",""3405""
","
","null","<p></p>","null","","","","","","","",""
"","image","7","43587","0.0-7.0","""event"",""trial"",""time""
""fullscreenenter"",""0"",""3405""
","
","
","""event"",""trial"",""time""
""fullscreenenter"",""0"",""3405""
","
","1598.2999999999884","run_exp/static/images/Set 6_rs/074a.jpg","78","","","","","","learn","SL",""
"","show_choice","8","43991","0.0-8.0","""event"",""trial"",""time""
""fullscreenenter"",""0"",""3405""
","
","
","""event"",""trial"",""time""
""fullscreenenter"",""0"",""3405""
","
","null","run_exp/static/images/Set 6_rs/074a.jpg","null","","","","","","learn","SL",""
"","html-keyboard-response","9","44493","0.0-9.0","""event"",""trial"",""time""
""fullscreenenter"",""0"",""3405""
","
","
","""event"",""trial"",""time""
""fullscreenenter"",""0"",""3405""
","
","null","<p></p>","null","","","","","","","",""
"","image","10","45298","0.0-10.0","""event"",""trial"",""time""
""fullscreenenter"",""0"",""3405""
","
","
","""event"",""trial"",""time""
""fullscreenenter"",""0"",""3405""
","
","802.4000000000233","run_exp/static/images/Set 6_rs/186a.jpg","86","","","","","","learn","SR",""
"","show_choice","11","46499","0.0-11.0","""event"",""trial"",""time""
""fullscreenenter"",""0"",""3405""
","
","
","""event"",""trial"",""time""
""fullscreenenter"",""0"",""3405""
","
","null","run_exp/static/images/Set 6_rs/186a.jpg","null","","","","","","learn","SR",""
"","html-keyboard-response","12","47001","0.0-12.0","""event"",""trial"",""time""
""fullscreenenter"",""0"",""3405""
","
","
","""event"",""trial"",""time""
""fullscreenenter"",""0"",""3405""
","
","null","<p></p>","null","","","","","","","",""
"","image","13","48034","0.0-13.0","""event"",""trial"",""time""
""fullscreenenter"",""0"",""3405""
","
","
","""event"",""trial"",""time""
""fullscreenenter"",""0"",""3405""
","
","1030.399999999965","run_exp/static/images/Set 6_rs/023a.jpg","86","","","","","","learn","SR",""
"","show_choice","14","49006","0.0-14.0","""event"",""trial"",""time""
""fullscreenenter"",""0"",""3405""
","
","
","""event"",""trial"",""time""
""fullscreenenter"",""0"",""3405""
","
","null","run_exp/static/images/Set 6_rs/023a.jpg","null","","","","","","learn","SR",""
"","html-keyboard-response","15","49507","0.0-15.0","""event"",""trial"",""time""
""fullscreenenter"",""0"",""3405""
","
","
","""event"",""trial"",""time""
""fullscreenenter"",""0"",""3405""
","
","null","<p></p>","null","","","","","","","",""
"","image","16","50489","0.0-16.0","""event"",""trial"",""time""
""fullscreenenter"",""0"",""3405""
","
","
","""event"",""trial"",""time""
""fullscreenenter"",""0"",""3405""
","
","979.1000000000349","run_exp/static/images/Set 6_rs/167a.jpg","78","","","","","","learn","SL",""
"","show_choice","17","51512","0.0-17.0","""event"",""trial"",""time""
""fullscreenenter"",""0"",""3405""
","
","
","""event"",""trial"",""time""
""fullscreenenter"",""0"",""3405""
","
","null","run_exp/static/images/Set 6_rs/167a.jpg","null","","","","","","learn","SL",""
"","html-keyboard-response","18","52014","0.0-18.0","""event"",""trial"",""time""
""fullscreenenter"",""0"",""3405""
","
","
","""event"",""trial"",""time""
""fullscreenenter"",""0"",""3405""
","
","null","<p></p>","null","","","","","","","",""
"","image","19","52904","0.0-19.0","""event"",""trial"",""time""
""fullscreenenter"",""0"",""3405""
","
","
","""event"",""trial"",""time""
""fullscreenenter"",""0"",""3405""
","
","888.1999999999534","run_exp/static/images/Set 6_rs/016a.jpg","86","","","","","","learn","SL",""
"","show_choice","20","54018","0.0-20.0","""event"",""trial"",""time""
""fullscreenenter"",""0"",""3405""
","
","
","""event"",""trial"",""time""
""fullscreenenter"",""0"",""3405""
","
","null","run_exp/static/images/Set 6_rs/016a.jpg","null","","","","","","learn","SL",""
"","html-keyboard-response","21","54519","0.0-21.0","""event"",""trial"",""time""
""fullscreenenter"",""0"",""3405""
","
","
","""event"",""trial"",""time""
""fullscreenenter"",""0"",""3405""
","
","null","<p></p>","null","","","","","","","",""
"","image","22","55445","0.0-22.0","""event"",""trial"",""time""
""fullscreenenter"",""0"",""3405""
","
","
","""event"",""trial"",""time""
""fullscreenenter"",""0"",""3405""
","
","923.7000000000116","run_exp/static/images/Set 6_rs/152a.jpg","78","","","","","","learn","SR",""
"","show_choice","23","56523","0.0-23.0","""event"",""trial"",""time""
""fullscreenenter"",""0"",""3405""
","
","
","""event"",""trial"",""time""
""fullscreenenter"",""0"",""3405""
","
","null","run_exp/static/images/Set 6_rs/152a.jpg","null","","","","","","learn","SR",""
"","html-keyboard-response","24","57025","0.0-24.0","""event"",""trial"",""time""
""fullscreenenter"",""0"",""3405""
","
","
","""event"",""trial"",""time""
""fullscreenenter"",""0"",""3405""
","
","null","<p></p>","null","","","","","","","",""
"","image","25","57938","0.0-25.0","""event"",""trial"",""time""
""fullscreenenter"",""0"",""3405""
","
","
","""event"",""trial"",""time""
""fullscreenenter"",""0"",""3405""
","
","910.2000000000116","run_exp/static/images/Set 6_rs/088a.jpg","86","","","","","","learn","SR",""
"","show_choice","26","59030","0.0-26.0","""event"",""trial"",""time""
""fullscreenenter"",""0"",""3405""
","
","
","""event"",""trial"",""time""
""fullscreenenter"",""0"",""3405""
","
","null","run_exp/static/images/Set 6_rs/088a.jpg","null","","","","","","learn","SR",""
"","html-keyboard-response","27","59531","0.0-27.0","""event"",""trial"",""time""
""fullscreenenter"",""0"",""3405""
","
","
","""event"",""trial"",""time""
""fullscreenenter"",""0"",""3405""
","
","null","<p></p>","null","","","","","","","",""
"","image","28","60575","0.0-28.0","""event"",""trial"",""time""
""fullscreenenter"",""0"",""3405""
","
","
","""event"",""trial"",""time""
""fullscreenenter"",""0"",""3405""
","
","1040.5999999999767","run_exp/static/images/Set 6_rs/122a.jpg","86","","","","","","learn","SR",""
"","show_choice","29","61536","0.0-29.0","""event"",""trial"",""time""
""fullscreenenter"",""0"",""3405""
","
","
","""event"",""trial"",""time""
""fullscreenenter"",""0"",""3405""
","
","null","run_exp/static/images/Set 6_rs/122a.jpg","null","","","","","","learn","SR",""
"","html-keyboard-response","30","62037","0.0-30.0","""event"",""trial"",""time""
""fullscreenenter"",""0"",""3405""
","
","
","""event"",""trial"",""time""
""fullscreenenter"",""0"",""3405""
","
","null","<p></p>","null","","","","","","","",""
"","image","31","62675","0.0-31.0","""event"",""trial"",""time""
""fullscreenenter"",""0"",""3405""
","
","
","""event"",""trial"",""time""
""fullscreenenter"",""0"",""3405""
","
","635.4000000000233","run_exp/static/images/Set 6_rs/007a.jpg","86","","","","","","learn","SR",""
"","show_choice","32","64042","0.0-32.0","""event"",""trial"",""time""
""fullscreenenter"",""0"",""3405""
","
","
","""event"",""trial"",""time""
""fullscreenenter"",""0"",""3405""
","
","null","run_exp/static/images/Set 6_rs/007a.jpg","null","","","","","","learn","SR",""
"","html-keyboard-response","33","64544","0.0-33.0","""event"",""trial"",""time""
""fullscreenenter"",""0"",""3405""
","
","
","""event"",""trial"",""time""
""fullscreenenter"",""0"",""3405""
","
","null","<p></p>","null","","","","","","","",""
"","image","34","65765","0.0-34.0","""event"",""trial"",""time""
""fullscreenenter"",""0"",""3405""
","
","
","""event"",""trial"",""time""
""fullscreenenter"",""0"",""3405""
","
","1218.100000000035","run_exp/static/images/Set 6_rs/008a.jpg","78","","","","","","learn","SL",""
"","show_choice","35","66549","0.0-35.0","""event"",""trial"",""time""
""fullscreenenter"",""0"",""3405""
","
","
","""event"",""trial"",""time""
""fullscreenenter"",""0"",""3405""
","
","null","run_exp/static/images/Set 6_rs/008a.jpg","null","","","","","","learn","SL",""
"","html-keyboard-response","36","67051","0.0-36.0","""event"",""trial"",""time""
""fullscreenenter"",""0"",""3405""
","
","
","""event"",""trial"",""time""
""fullscreenenter"",""0"",""3405""
","
","null","<p></p>","null","","","","","","","",""
"","image","37","67722","0.0-37.0","""event"",""trial"",""time""
""fullscreenenter"",""0"",""3405""
","
","
","""event"",""trial"",""time""
""fullscreenenter"",""0"",""3405""
","
","667.9000000000233","run_exp/static/images/Set 6_rs/006a.jpg","86","","","","","","learn","SL",""
"","show_choice","38","69056","0.0-38.0","""event"",""trial"",""time""
""fullscreenenter"",""0"",""3405""
","
","
","""event"",""trial"",""time""
""fullscreenenter"",""0"",""3405""
","
","null","run_exp/static/images/Set 6_rs/006a.jpg","null","","","","","","learn","SL",""
"","html-keyboard-response","39","69557","0.0-39.0","""event"",""trial"",""time""
""fullscreenenter"",""0"",""3405""
","
","
","""event"",""trial"",""time""
""fullscreenenter"",""0"",""3405""
","
","null","<p></p>","null","","","","","","","",""
"","image","40","70966","0.0-40.0","""event"",""trial"",""time""
""fullscreenenter"",""0"",""3405""
","
","
","""event"",""trial"",""time""
""fullscreenenter"",""0"",""3405""
","
","1407.3000000000466","run_exp/static/images/Set 6_rs/061a.jpg","78","","","","","","learn","SR",""
"","show_choice","41","71561","0.0-41.0","""event"",""trial"",""time""
""fullscreenenter"",""0"",""3405""
","
","
","""event"",""trial"",""time""
""fullscreenenter"",""0"",""3405""
","
","null","run_exp/static/images/Set 6_rs/061a.jpg","null","","","","","","learn","SR",""
"","html-keyboard-response","42","72062","0.0-42.0","""event"",""trial"",""time""
""fullscreenenter"",""0"",""3405""
","
","
","""event"",""trial"",""time""
""fullscreenenter"",""0"",""3405""
","
","null","<p></p>","null","","","","","","","",""
"","image","43","72701","0.0-43.0","""event"",""trial"",""time""
""fullscreenenter"",""0"",""3405""
","
","
","""event"",""trial"",""time""
""fullscreenenter"",""0"",""3405""
","
","636.4000000000233","run_exp/static/images/Set 6_rs/075a.jpg","86","","","","","","learn","SR",""
"","show_choice","44","74066","0.0-44.0","""event"",""trial"",""time""
""fullscreenenter"",""0"",""3405""
","
","
","""event"",""trial"",""time""
""fullscreenenter"",""0"",""3405""
","
","null","run_exp/static/images/Set 6_rs/075a.jpg","null","","","","","","learn","SR",""
"","html-keyboard-response","45","74568","0.0-45.0","""event"",""trial"",""time""
""fullscreenenter"",""0"",""3405""
","
","
","""event"",""trial"",""time""
""fullscreenenter"",""0"",""3405""
","
","null","<p></p>","null","","","","","","","",""
"","image","46","75456","0.0-46.0","""event"",""trial"",""time""
""fullscreenenter"",""0"",""3405""
","
","
","""event"",""trial"",""time""
""fullscreenenter"",""0"",""3405""
","
","873.2000000000116","run_exp/static/images/Set 6_rs/123a.jpg","78","","","","","","learn","SL",""
"","show_choice","47","76585","0.0-47.0","""event"",""trial"",""time""
""fullscreenenter"",""0"",""3405""
","
","
","""event"",""trial"",""time""
""fullscreenenter"",""0"",""3405""
","
","null","run_exp/static/images/Set 6_rs/123a.jpg","null","","","","","","learn","SL",""
"","html-keyboard-response","48","77086","0.0-48.0","""event"",""trial"",""time""
""fullscreenenter"",""0"",""3405""
","
","
","""event"",""trial"",""time""
""fullscreenenter"",""0"",""3405""
","
","null","<p></p>","null","","","","","","","",""
"","image","49","78664","0.0-49.0","""event"",""trial"",""time""
""fullscreenenter"",""0"",""3405""
","
","
","""event"",""trial"",""time""
""fullscreenenter"",""0"",""3405""
","
","1576","run_exp/static/images/Set 6_rs/017a.jpg","78","","","","","","learn","SL",""
"","show_choice","50","79090","0.0-50.0","""event"",""trial"",""time""
""fullscreenenter"",""0"",""3405""
","
","
","""event"",""trial"",""time""
""fullscreenenter"",""0"",""3405""
","
","null","run_exp/static/images/Set 6_rs/017a.jpg","null","","","","","","learn","SL",""
"","html-keyboard-response","51","79592","0.0-51.0","""event"",""trial"",""time""
""fullscreenenter"",""0"",""3405""
","
","
","""event"",""trial"",""time""
""fullscreenenter"",""0"",""3405""
","
","null","<p></p>","null","","","","","","","",""
"","image","52","80742","0.0-52.0","""event"",""trial"",""time""
""fullscreenenter"",""0"",""3405""
","
","
","""event"",""trial"",""time""
""fullscreenenter"",""0"",""3405""
","
","1147.2999999999884","run_exp/static/images/Set 6_rs/177a.jpg","78","","","","","","learn","SR",""
"","show_choice","53","81596","0.0-53.0","""event"",""trial"",""time""
""fullscreenenter"",""0"",""3405""
","
","
","""event"",""trial"",""time""
""fullscreenenter"",""0"",""3405""
","
","null","run_exp/static/images/Set 6_rs/177a.jpg","null","","","","","","learn","SR",""
"","html-keyboard-response","54","82097","0.0-54.0","""event"",""trial"",""time""
""fullscreenenter"",""0"",""3405""
","
","
","""event"",""trial"",""time""
""fullscreenenter"",""0"",""3405""
","
","null","<p></p>","null","","","","","","","",""
"","image","55","82841","0.0-55.0","""event"",""trial"",""time""
""fullscreenenter"",""0"",""3405""
","
","
","""event"",""trial"",""time""
""fullscreenenter"",""0"",""3405""
","
","740.7000000000116","run_exp/static/images/Set 6_rs/062a.jpg","86","","","","","","learn","SL",""
"","show_choice","56","84102","0.0-56.0","""event"",""trial"",""time""
""fullscreenenter"",""0"",""3405""
","
","
","""event"",""trial"",""time""
""fullscreenenter"",""0"",""3405""
","
","null","run_exp/static/images/Set 6_rs/062a.jpg","null","","","","","","learn","SL",""
"","html-keyboard-response","57","84603","0.0-57.0","""event"",""trial"",""time""
""fullscreenenter"",""0"",""3405""
","
","
","""event"",""trial"",""time""
""fullscreenenter"",""0"",""3405""
","
","null","<p></p>","null","","","","","","","",""
"","image","58","85425","0.0-58.0","""event"",""trial"",""time""
""fullscreenenter"",""0"",""3405""
","
","
","""event"",""trial"",""time""
""fullscreenenter"",""0"",""3405""
","
","820.2999999999884","run_exp/static/images/Set 6_rs/057a.jpg","86","","","","","","learn","SL",""
"","show_choice","59","86606","0.0-59.0","""event"",""trial"",""time""
""fullscreenenter"",""0"",""3405""
","
","
","""event"",""trial"",""time""
""fullscreenenter"",""0"",""3405""
","
","null","run_exp/static/images/Set 6_rs/057a.jpg","null","","","","","","learn","SL",""
"","html-keyboard-response","60","87108","0.0-60.0","""event"",""trial"",""time""
""fullscreenenter"",""0"",""3405""
","
","
","""event"",""trial"",""time""
""fullscreenenter"",""0"",""3405""
","
","null","<p></p>","null","","","","","","","",""
"","image","61","88530","0.0-61.0","""event"",""trial"",""time""
""fullscreenenter"",""0"",""3405""
","
","
","""event"",""trial"",""time""
""fullscreenenter"",""0"",""3405""
","
","1419.5","run_exp/static/images/Set 6_rs/168a.jpg","78","","","","","","learn","SL",""
"","show_choice","62","89112","0.0-62.0","""event"",""trial"",""time""
""fullscreenenter"",""0"",""3405""
","
","
","""event"",""trial"",""time""
""fullscreenenter"",""0"",""3405""
","
","null","run_exp/static/images/Set 6_rs/168a.jpg","null","","","","","","learn","SL",""
"","html-keyboard-response","63","89616","0.0-63.0","""event"",""trial"",""time""
""fullscreenenter"",""0"",""3405""
","
","
","""event"",""trial"",""time""
""fullscreenenter"",""0"",""3405""
","
","null","<p></p>","null","","","","","","","",""
"","image","64","90619","0.0-64.0","""event"",""trial"",""time""
""fullscreenenter"",""0"",""3405""
","
","
","""event"",""trial"",""time""
""fullscreenenter"",""0"",""3405""
","
","1000.3000000000466","run_exp/static/images/Set 6_rs/138a.jpg","78","","","","","","learn","SL",""
"","show_choice","65","91620","0.0-65.0","""event"",""trial"",""time""
""fullscreenenter"",""0"",""3405""
","
","
","""event"",""trial"",""time""
""fullscreenenter"",""0"",""3405""
","
","null","run_exp/static/images/Set 6_rs/138a.jpg","null","","","","","","learn","SL",""
"","html-keyboard-response","66","92121","0.0-66.0","""event"",""trial"",""time""
""fullscreenenter"",""0"",""3405""
","
","
","""event"",""trial"",""time""
""fullscreenenter"",""0"",""3405""
","
","null","<p></p>","null","","","","","","","",""
"","image","67","92126","0.0-67.0","""event"",""trial"",""time""
""fullscreenenter"",""0"",""3405""
","
","
","""event"",""trial"",""time""
""fullscreenenter"",""0"",""3405""
","
","3.5","run_exp/static/images/Set 6_rs/064a.jpg","78","","","","","","learn","SR",""
"","show_choice","68","94124","0.0-68.0","""event"",""trial"",""time""
""fullscreenenter"",""0"",""3405""
","
","
","""event"",""trial"",""time""
""fullscreenenter"",""0"",""3405""
","
","null","run_exp/static/images/Set 6_rs/064a.jpg","null","","","","","","learn","SR",""
"","html-keyboard-response","69","94625","0.0-69.0","""event"",""trial"",""time""
""fullscreenenter"",""0"",""3405""
","
","
","""event"",""trial"",""time""
""fullscreenenter"",""0"",""3405""
","
","null","<p></p>","null","","","","","","","",""
"","image","70","95302","0.0-70.0","""event"",""trial"",""time""
""fullscreenenter"",""0"",""3405""
","
","
","""event"",""trial"",""time""
""fullscreenenter"",""0"",""3405""
","
","675.4000000000233","run_exp/static/images/Set 6_rs/178a.jpg","78","","","","","","learn","SR",""
"","show_choice","71","96629","0.0-71.0","""event"",""trial"",""time""
""fullscreenenter"",""0"",""3405""
","
","
","""event"",""trial"",""time""
""fullscreenenter"",""0"",""3405""
","
","null","run_exp/static/images/Set 6_rs/178a.jpg","null","","","","","","learn","SR",""
"","html-keyboard-response","72","97130","0.0-72.0","""event"",""trial"",""time""
""fullscreenenter"",""0"",""3405""
","
","
","""event"",""trial"",""time""
""fullscreenenter"",""0"",""3405""
","
","null","<p></p>","null","","","","","","","",""
"","image","73","97950","0.0-73.0","""event"",""trial"",""time""
""fullscreenenter"",""0"",""3405""
","
","
","""event"",""trial"",""time""
""fullscreenenter"",""0"",""3405""
","
","818.1999999999534","run_exp/static/images/Set 6_rs/172a.jpg","78","","","","","","learn","SR",""
"","show_choice","74","99133","0.0-74.0","""event"",""trial"",""time""
""fullscreenenter"",""0"",""3405""
","
","
","""event"",""trial"",""time""
""fullscreenenter"",""0"",""3405""
","
","null","run_exp/static/images/Set 6_rs/172a.jpg","null","","","","","","learn","SR",""
"","html-keyboard-response","75","99634","0.0-75.0","""event"",""trial"",""time""
""fullscreenenter"",""0"",""3405""
","
","
","""event"",""trial"",""time""
""fullscreenenter"",""0"",""3405""
","
","null","<p></p>","null","","","","","","","",""
"","image","76","101100","0.0-76.0","""event"",""trial"",""time""
""fullscreenenter"",""0"",""3405""
","
","
","""event"",""trial"",""time""
""fullscreenenter"",""0"",""3405""
","
","1463","run_exp/static/images/Set 6_rs/191a.jpg","78","","","","","","learn","SL",""
"","show_choice","77","101639","0.0-77.0","""event"",""trial"",""time""
""fullscreenenter"",""0"",""3405""
","
","
","""event"",""trial"",""time""
""fullscreenenter"",""0"",""3405""
","
","null","run_exp/static/images/Set 6_rs/191a.jpg","null","","","","","","learn","SL",""
"","html-keyboard-response","78","102141","0.0-78.0","""event"",""trial"",""time""
""fullscreenenter"",""0"",""3405""
","
","
","""event"",""trial"",""time""
""fullscreenenter"",""0"",""3405""
","
","null","<p></p>","null","","","","","","","",""
"","image","79","103362","0.0-79.0","""event"",""trial"",""time""
""fullscreenenter"",""0"",""3405""
","
","
","""event"",""trial"",""time""
""fullscreenenter"",""0"",""3405""
","
","1218.7000000000116","run_exp/static/images/Set 6_rs/066a.jpg","78","","","","","","learn","SL",""
"","show_choice","80","104146","0.0-80.0","""event"",""trial"",""time""
""fullscreenenter"",""0"",""3405""
","
","
","""event"",""trial"",""time""
""fullscreenenter"",""0"",""3405""
","
","null","run_exp/static/images/Set 6_rs/066a.jpg","null","","","","","","learn","SL",""
"","html-keyboard-response","81","104647","0.0-81.0","""event"",""trial"",""time""
""fullscreenenter"",""0"",""3405""
","
","
","""event"",""trial"",""time""
""fullscreenenter"",""0"",""3405""
","
","null","<p></p>","null","","","","","","","",""
"","image","82","105268","0.0-82.0","""event"",""trial"",""time""
""fullscreenenter"",""0"",""3405""
","
","
","""event"",""trial"",""time""
""fullscreenenter"",""0"",""3405""
","
","618.2999999999884","run_exp/static/images/Set 6_rs/166a.jpg","78","","","","","","learn","SR",""
"","show_choice","83","106651","0.0-83.0","""event"",""trial"",""time""
""fullscreenenter"",""0"",""3405""
","
","
","""event"",""trial"",""time""
""fullscreenenter"",""0"",""3405""
","
","null","run_exp/static/images/Set 6_rs/166a.jpg","null","","","","","","learn","SR",""
"","html-keyboard-response","84","107152","0.0-84.0","""event"",""trial"",""time""
""fullscreenenter"",""0"",""3405""
","
","
","""event"",""trial"",""time""
""fullscreenenter"",""0"",""3405""
","
","null","<p></p>","null","","","","","","","",""
"","image","85","107805","0.0-85.0","""event"",""trial"",""time""
""fullscreenenter"",""0"",""3405""
","
","
","""event"",""trial"",""time""
""fullscreenenter"",""0"",""3405""
","
","651.3000000000466","run_exp/static/images/Set 6_rs/024a.jpg","86","","","","","","learn","SR",""
"","show_choice","86","109155","0.0-86.0","""event"",""trial"",""time""
""fullscreenenter"",""0"",""3405""
","
","
","""event"",""trial"",""time""
""fullscreenenter"",""0"",""3405""
","
","null","run_exp/static/images/Set 6_rs/024a.jpg","null","","","","","","learn","SR",""
"","html-keyboard-response","87","109657","0.0-87.0","""event"",""trial"",""time""
""fullscreenenter"",""0"",""3405""
","
","
","""event"",""trial"",""time""
""fullscreenenter"",""0"",""3405""
","
","null","<p></p>","null","","","","","","","",""
"","image","88","110300","0.0-88.0","""event"",""trial"",""time""
""fullscreenenter"",""0"",""3405""
","
","
","""event"",""trial"",""time""
""fullscreenenter"",""0"",""3405""
","
","640.5","run_exp/static/images/Set 6_rs/154a.jpg","86","","","","","","learn","SR",""
"","show_choice","89","111661","0.0-89.0","""event"",""trial"",""time""
""fullscreenenter"",""0"",""3405""
","
","
","""event"",""trial"",""time""
""fullscreenenter"",""0"",""3405""
","
","null","run_exp/static/images/Set 6_rs/154a.jpg","null","","","","","","learn","SR",""
"","html-keyboard-response","90","112162","0.0-90.0","""event"",""trial"",""time""
""fullscreenenter"",""0"",""3405""
","
","
","""event"",""trial"",""time""
""fullscreenenter"",""0"",""3405""
","
","null","<p></p>","null","","","","","","","",""
"","image","91","113056","0.0-91.0","""event"",""trial"",""time""
""fullscreenenter"",""0"",""3405""
","
","
","""event"",""trial"",""time""
""fullscreenenter"",""0"",""3405""
","
","891.7999999999884","run_exp/static/images/Set 6_rs/010a.jpg","86","","","","","","learn","SR",""
"","show_choice","92","114166","0.0-92.0","""event"",""trial"",""time""
""fullscreenenter"",""0"",""3405""
","
","
","""event"",""trial"",""time""
""fullscreenenter"",""0"",""3405""
","
","null","run_exp/static/images/Set 6_rs/010a.jpg","null","","","","","","learn","SR",""
"","html-keyboard-response","93","114668","0.0-93.0","""event"",""trial"",""time""
""fullscreenenter"",""0"",""3405""
","
","
","""event"",""trial"",""time""
""fullscreenenter"",""0"",""3405""
","
","null","<p></p>","null","","","","","","","",""
"","image","94","115259","0.0-94.0","""event"",""trial"",""time""
""fullscreenenter"",""0"",""3405""
","
","
","""event"",""trial"",""time""
""fullscreenenter"",""0"",""3405""
","
","588.7999999999884","run_exp/static/images/Set 6_rs/112a.jpg","86","","","","","","learn","SR",""
"","show_choice","95","116672","0.0-95.0","""event"",""trial"",""time""
""fullscreenenter"",""0"",""3405""
","
","
","""event"",""trial"",""time""
""fullscreenenter"",""0"",""3405""
","
","null","run_exp/static/images/Set 6_rs/112a.jpg","null","","","","","","learn","SR",""
"","html-keyboard-response","96","117173","0.0-96.0","""event"",""trial"",""time""
""fullscreenenter"",""0"",""3405""
","
","
","""event"",""trial"",""time""
""fullscreenenter"",""0"",""3405""
","
","null","<p></p>","null","","","","","","","",""
"","image","97","117732","0.0-97.0","""event"",""trial"",""time""
""fullscreenenter"",""0"",""3405""
","
","
","""event"",""trial"",""time""
""fullscreenenter"",""0"",""3405""
","
","556.2999999999884","run_exp/static/images/Set 6_rs/095a.jpg","86","","","","","","learn","SL",""
"","show_choice","98","119177","0.0-98.0","""event"",""trial"",""time""
""fullscreenenter"",""0"",""3405""
","
","
","""event"",""trial"",""time""
""fullscreenenter"",""0"",""3405""
","
","null","run_exp/static/images/Set 6_rs/095a.jpg","null","","","","","","learn","SL",""
"","html-keyboard-response","99","119679","0.0-99.0","""event"",""trial"",""time""
""fullscreenenter"",""0"",""3405""
","
","
","""event"",""trial"",""time""
""fullscreenenter"",""0"",""3405""
","
","null","<p></p>","null","","","","","","","",""
"","image","100","120383","0.0-100.0","""event"",""trial"",""time""
""fullscreenenter"",""0"",""3405""
","
","
","""event"",""trial"",""time""
""fullscreenenter"",""0"",""3405""
","
","701.8999999999651","run_exp/static/images/Set 6_rs/134a.jpg","86","","","","","","learn","SR",""
"","show_choice","101","121682","0.0-101.0","""event"",""trial"",""time""
""fullscreenenter"",""0"",""3405""
","
","
","""event"",""trial"",""time""
""fullscreenenter"",""0"",""3405""
","
","null","run_exp/static/images/Set 6_rs/134a.jpg","null","","","","","","learn","SR",""
"","html-keyboard-response","102","122184","0.0-102.0","""event"",""trial"",""time""
""fullscreenenter"",""0"",""3405""
","
","
","""event"",""trial"",""time""
""fullscreenenter"",""0"",""3405""
","
","null","<p></p>","null","","","","","","","",""
"","image","103","122752","0.0-103.0","""event"",""trial"",""time""
""fullscreenenter"",""0"",""3405""
","
","
","""event"",""trial"",""time""
""fullscreenenter"",""0"",""3405""
","
","566.1999999999534","run_exp/static/images/Set 6_rs/050a.jpg","86","","","","","","learn","SL",""
"","show_choice","104","124187","0.0-104.0","""event"",""trial"",""time""
""fullscreenenter"",""0"",""3405""
","
","
","""event"",""trial"",""time""
""fullscreenenter"",""0"",""3405""
","
","null","run_exp/static/images/Set 6_rs/050a.jpg","null","","","","","","learn","SL",""
"","html-keyboard-response","105","124688","0.0-105.0","""event"",""trial"",""time""
""fullscreenenter"",""0"",""3405""
","
","
","""event"",""trial"",""time""
""fullscreenenter"",""0"",""3405""
","
","null","<p></p>","null","","","","","","","",""
"","image","106","125333","0.0-106.0","""event"",""trial"",""time""
""fullscreenenter"",""0"",""3405""
","
","
","""event"",""trial"",""time""
""fullscreenenter"",""0"",""3405""
","
","642.7999999999884","run_exp/static/images/Set 6_rs/085a.jpg","86","","","","","","learn","SL",""
"","show_choice","107","126693","0.0-107.0","""event"",""trial"",""time""
""fullscreenenter"",""0"",""3405""
","
","
","""event"",""trial"",""time""
""fullscreenenter"",""0"",""3405""
","
","null","run_exp/static/images/Set 6_rs/085a.jpg","null","","","","","","learn","SL",""
"","html-keyboard-response","108","127194","0.0-108.0","""event"",""trial"",""time""
""fullscreenenter"",""0"",""3405""
","
","
","""event"",""trial"",""time""
""fullscreenenter"",""0"",""3405""
","
","null","<p></p>","null","","","","","","","",""
"","image","109","127795","0.0-109.0","""event"",""trial"",""time""
""fullscreenenter"",""0"",""3405""
","
","
","""event"",""trial"",""time""
""fullscreenenter"",""0"",""3405""
","
","598.2000000000116","run_exp/static/images/Set 6_rs/117a.jpg","86","","","","","","learn","SL",""
"","show_choice","110","129198","0.0-110.0","""event"",""trial"",""time""
""fullscreenenter"",""0"",""3405""
","
","
","""event"",""trial"",""time""
""fullscreenenter"",""0"",""3405""
","
","null","run_exp/static/images/Set 6_rs/117a.jpg","null","","","","","","learn","SL",""
"","html-keyboard-response","111","129700","0.0-111.0","""event"",""trial"",""time""
""fullscreenenter"",""0"",""3405""
","
","
","""event"",""trial"",""time""
""fullscreenenter"",""0"",""3405""
","
","null","<p></p>","null","","","","","","","",""
"","image","112","130497","0.0-112.0","""event"",""trial"",""time""
""fullscreenenter"",""0"",""3405""
","
","
","""event"",""trial"",""time""
""fullscreenenter"",""0"",""3405""
","
","795.2999999999884","run_exp/static/images/Set 6_rs/076a.jpg","78","","","","","","learn","SR",""
"","show_choice","113","131703","0.0-113.0","""event"",""trial"",""time""
""fullscreenenter"",""0"",""3405""
","
","
","""event"",""trial"",""time""
""fullscreenenter"",""0"",""3405""
","
","null","run_exp/static/images/Set 6_rs/076a.jpg","null","","","","","","learn","SR",""
"","html-keyboard-response","114","132204","0.0-114.0","""event"",""trial"",""time""
""fullscreenenter"",""0"",""3405""
","
","
","""event"",""trial"",""time""
""fullscreenenter"",""0"",""3405""
","
","null","<p></p>","null","","","","","","","",""
"","image","115","132912","0.0-115.0","""event"",""trial"",""time""
""fullscreenenter"",""0"",""3405""
","
","
","""event"",""trial"",""time""
""fullscreenenter"",""0"",""3405""
","
","706","run_exp/static/images/Set 6_rs/116a.jpg","78","","","","","","learn","SL",""
"","show_choice","116","134208","0.0-116.0","""event"",""trial"",""time""
""fullscreenenter"",""0"",""3405""
","
","
","""event"",""trial"",""time""
""fullscreenenter"",""0"",""3405""
","
","null","run_exp/static/images/Set 6_rs/116a.jpg","null","","","","","","learn","SL",""
"","html-keyboard-response","117","134709","0.0-117.0","""event"",""trial"",""time""
""fullscreenenter"",""0"",""3405""
","
","
","""event"",""trial"",""time""
""fullscreenenter"",""0"",""3405""
","
","null","<p></p>","null","","","","","","","",""
"","image","118","135589","0.0-118.0","""event"",""trial"",""time""
""fullscreenenter"",""0"",""3405""
","
","
","""event"",""trial"",""time""
""fullscreenenter"",""0"",""3405""
","
","877.4000000000233","run_exp/static/images/Set 6_rs/055a.jpg","86","","","","","","learn","SL",""
"","show_choice","119","136713","0.0-119.0","""event"",""trial"",""time""
""fullscreenenter"",""0"",""3405""
","
","
","""event"",""trial"",""time""
""fullscreenenter"",""0"",""3405""
","
","null","run_exp/static/images/Set 6_rs/055a.jpg","null","","","","","","learn","SL",""
"","html-keyboard-response","120","137214","0.0-120.0","""event"",""trial"",""time""
""fullscreenenter"",""0"",""3405""
","
","
","""event"",""trial"",""time""
""fullscreenenter"",""0"",""3405""
","
","null","<p></p>","null","","","","","","","",""
"","image","121","138228","0.0-121.0","""event"",""trial"",""time""
""fullscreenenter"",""0"",""3405""
","
","
","""event"",""trial"",""time""
""fullscreenenter"",""0"",""3405""
","
","1011.6000000000349","run_exp/static/images/Set 6_rs/012a.jpg","86","","","","","","learn","SR",""
"","show_choice","122","139218","0.0-122.0","""event"",""trial"",""time""
""fullscreenenter"",""0"",""3405""
","
","
","""event"",""trial"",""time""
""fullscreenenter"",""0"",""3405""
","
","null","run_exp/static/images/Set 6_rs/012a.jpg","null","","","","","","learn","SR",""
"","html-keyboard-response","123","139719","0.0-123.0","""event"",""trial"",""time""
""fullscreenenter"",""0"",""3405""
","
","
","""event"",""trial"",""time""
""fullscreenenter"",""0"",""3405""
","
","null","<p></p>","null","","","","","","","",""
"","image","124","140938","0.0-124.0","""event"",""trial"",""time""
""fullscreenenter"",""0"",""3405""
","
","
","""event"",""trial"",""time""
""fullscreenenter"",""0"",""3405""
","
","1216.2999999999884","run_exp/static/images/Set 6_rs/036a.jpg","86","","","","","","learn","SL",""
"","show_choice","125","141723","0.0-125.0","""event"",""trial"",""time""
""fullscreenenter"",""0"",""3405""
","
","
","""event"",""trial"",""time""
""fullscreenenter"",""0"",""3405""
","
","null","run_exp/static/images/Set 6_rs/036a.jpg","null","","","","","","learn","SL",""
"","html-keyboard-response","126","142224","0.0-126.0","""event"",""trial"",""time""
""fullscreenenter"",""0"",""3405""
","
","
","""event"",""trial"",""time""
""fullscreenenter"",""0"",""3405""
","
","null","<p></p>","null","","","","","","","",""
"","image","127","143047","0.0-127.0","""event"",""trial"",""time""
""fullscreenenter"",""0"",""3405""
","
","
","""event"",""trial"",""time""
""fullscreenenter"",""0"",""3405""
","
","820.5","run_exp/static/images/Set 6_rs/131a.jpg","86","","","","","","learn","SR",""
"","show_choice","128","144228","0.0-128.0","""event"",""trial"",""time""
""fullscreenenter"",""0"",""3405""
","
","
","""event"",""trial"",""time""
""fullscreenenter"",""0"",""3405""
","
","null","run_exp/static/images/Set 6_rs/131a.jpg","null","","","","","","learn","SR",""
"","html-keyboard-response","129","144729","0.0-129.0","""event"",""trial"",""time""
""fullscreenenter"",""0"",""3405""
","
","
","""event"",""trial"",""time""
""fullscreenenter"",""0"",""3405""
","
","null","<p></p>","null","","","","","","","",""
"","image","130","145584","0.0-130.0","""event"",""trial"",""time""
""fullscreenenter"",""0"",""3405""
","
","
","""event"",""trial"",""time""
""fullscreenenter"",""0"",""3405""
","
","852.1000000000349","run_exp/static/images/Set 6_rs/079a.jpg","86","","","","","","learn","SL",""
"","show_choice","131","146734","0.0-131.0","""event"",""trial"",""time""
""fullscreenenter"",""0"",""3405""
","
","
","""event"",""trial"",""time""
""fullscreenenter"",""0"",""3405""
","
","null","run_exp/static/images/Set 6_rs/079a.jpg","null","","","","","","learn","SL",""
"","html-keyboard-response","132","147235","0.0-132.0","""event"",""trial"",""time""
""fullscreenenter"",""0"",""3405""
","
","
","""event"",""trial"",""time""
""fullscreenenter"",""0"",""3405""
","
","null","<p></p>","null","","","","","","","",""
"","image","133","148008","0.0-133.0","""event"",""trial"",""time""
""fullscreenenter"",""0"",""3405""
","
","
","""event"",""trial"",""time""
""fullscreenenter"",""0"",""3405""
","
","770.2000000000116","run_exp/static/images/Set 6_rs/181a.jpg","78","","","","","","learn","SL",""
"","show_choice","134","149238","0.0-134.0","""event"",""trial"",""time""
""fullscreenenter"",""0"",""3405""
","
","
","""event"",""trial"",""time""
""fullscreenenter"",""0"",""3405""
","
","null","run_exp/static/images/Set 6_rs/181a.jpg","null","","","","","","learn","SL",""
"","html-keyboard-response","135","149740","0.0-135.0","""event"",""trial"",""time""
""fullscreenenter"",""0"",""3405""
","
","
","""event"",""trial"",""time""
""fullscreenenter"",""0"",""3405""
","
","null","<p></p>","null","","","","","","","",""
"","image","136","150702","0.0-136.0","""event"",""trial"",""time""
""fullscreenenter"",""0"",""3405""
","
","
","""event"",""trial"",""time""
""fullscreenenter"",""0"",""3405""
","
","960.4000000000233","run_exp/static/images/Set 6_rs/089a.jpg","86","","","","","","learn","SL",""
"","show_choice","137","151743","0.0-137.0","""event"",""trial"",""time""
""fullscreenenter"",""0"",""3405""
","
","
","""event"",""trial"",""time""
""fullscreenenter"",""0"",""3405""
","
","null","run_exp/static/images/Set 6_rs/089a.jpg","null","","","","","","learn","SL",""
"","html-keyboard-response","138","152245","0.0-138.0","""event"",""trial"",""time""
""fullscreenenter"",""0"",""3405""
","
","
","""event"",""trial"",""time""
""fullscreenenter"",""0"",""3405""
","
","null","<p></p>","null","","","","","","","",""
"","image","139","153528","0.0-139.0","""event"",""trial"",""time""
""fullscreenenter"",""0"",""3405""
","
","
","""event"",""trial"",""time""
""fullscreenenter"",""0"",""3405""
","
","1280.7999999999884","run_exp/static/images/Set 6_rs/132a.jpg","86","","","","","","learn","SR",""
"","show_choice","140","154249","0.0-140.0","""event"",""trial"",""time""
""fullscreenenter"",""0"",""3405""
","
","
","""event"",""trial"",""time""
""fullscreenenter"",""0"",""3405""
","
","null","run_exp/static/images/Set 6_rs/132a.jpg","null","","","","","","learn","SR",""
"","html-keyboard-response","141","154751","0.0-141.0","""event"",""trial"",""time""
""fullscreenenter"",""0"",""3405""
","
","
","""event"",""trial"",""time""
""fullscreenenter"",""0"",""3405""
","
","null","<p></p>","null","","","","","","","",""
"","image","142","155446","0.0-142.0","""event"",""trial"",""time""
""fullscreenenter"",""0"",""3405""
","
","
","""event"",""trial"",""time""
""fullscreenenter"",""0"",""3405""
","
","692.5","run_exp/static/images/Set 6_rs/111a.jpg","86","","","","","","learn","SL",""
"","show_choice","143","156755","0.0-143.0","""event"",""trial"",""time""
""fullscreenenter"",""0"",""3405""
","
","
","""event"",""trial"",""time""
""fullscreenenter"",""0"",""3405""
","
","null","run_exp/static/images/Set 6_rs/111a.jpg","null","","","","","","learn","SL",""
"","html-keyboard-response","144","157257","0.0-144.0","""event"",""trial"",""time""
""fullscreenenter"",""0"",""3405""
","
","
","""event"",""trial"",""time""
""fullscreenenter"",""0"",""3405""
","
","null","<p></p>","null","","","","","","","",""
"","image","145","158141","0.0-145.0","""event"",""trial"",""time""
""fullscreenenter"",""0"",""3405""
","
","
","""event"",""trial"",""time""
""fullscreenenter"",""0"",""3405""
","
","882.6000000000349","run_exp/static/images/Set 6_rs/108a.jpg","78","","","","","","learn","SR",""
"","show_choice","146","159261","0.0-146.0","""event"",""trial"",""time""
""fullscreenenter"",""0"",""3405""
","
","
","""event"",""trial"",""time""
""fullscreenenter"",""0"",""3405""
","
","null","run_exp/static/images/Set 6_rs/108a.jpg","null","","","","","","learn","SR",""
"","html-keyboard-response","147","159762","0.0-147.0","""event"",""trial"",""time""
""fullscreenenter"",""0"",""3405""
","
","
","""event"",""trial"",""time""
""fullscreenenter"",""0"",""3405""
","
","null","<p></p>","null","","","","","","","",""
"","image","148","160589","0.0-148.0","""event"",""trial"",""time""
""fullscreenenter"",""0"",""3405""
","
","
","""event"",""trial"",""time""
""fullscreenenter"",""0"",""3405""
","
","825","run_exp/static/images/Set 6_rs/063a.jpg","86","","","","","","learn","SR",""
"","show_choice","149","161766","0.0-149.0","""event"",""trial"",""time""
""fullscreenenter"",""0"",""3405""
","
","
","""event"",""trial"",""time""
""fullscreenenter"",""0"",""3405""
","
","null","run_exp/static/images/Set 6_rs/063a.jpg","null","","","","","","learn","SR",""
"","html-keyboard-response","150","162267","0.0-150.0","""event"",""trial"",""time""
""fullscreenenter"",""0"",""3405""
","
","
","""event"",""trial"",""time""
""fullscreenenter"",""0"",""3405""
","
","null","<p></p>","null","","","","","","","",""
"","image","151","163229","0.0-151.0","""event"",""trial"",""time""
""fullscreenenter"",""0"",""3405""
","
","
","""event"",""trial"",""time""
""fullscreenenter"",""0"",""3405""
","
","958.9000000000233","run_exp/static/images/Set 6_rs/126a.jpg","78","","","","","","learn","SR",""
"","show_choice","152","164271","0.0-152.0","""event"",""trial"",""time""
""fullscreenenter"",""0"",""3405""
","
","
","""event"",""trial"",""time""
""fullscreenenter"",""0"",""3405""
","
","null","run_exp/static/images/Set 6_rs/126a.jpg","null","","","","","","learn","SR",""
"","html-keyboard-response","153","164773","0.0-153.0","""event"",""trial"",""time""
""fullscreenenter"",""0"",""3405""
","
","
","""event"",""trial"",""time""
""fullscreenenter"",""0"",""3405""
","
","null","<p></p>","null","","","","","","","",""
"","image","154","165905","0.0-154.0","""event"",""trial"",""time""
""fullscreenenter"",""0"",""3405""
","
","
","""event"",""trial"",""time""
""fullscreenenter"",""0"",""3405""
","
","1129.7000000000116","run_exp/static/images/Set 6_rs/045a.jpg","86","","","","","","learn","SR",""
"","show_choice","155","166777","0.0-155.0","""event"",""trial"",""time""
""fullscreenenter"",""0"",""3405""
","
","
","""event"",""trial"",""time""
""fullscreenenter"",""0"",""3405""
","
","null","run_exp/static/images/Set 6_rs/045a.jpg","null","","","","","","learn","SR",""
"","html-keyboard-response","156","167279","0.0-156.0","""event"",""trial"",""time""
""fullscreenenter"",""0"",""3405""
","
","
","""event"",""trial"",""time""
""fullscreenenter"",""0"",""3405""
","
","null","<p></p>","null","","","","","","","",""
"","image","157","168681","0.0-157.0","""event"",""trial"",""time""
""fullscreenenter"",""0"",""3405""
","
","
","""event"",""trial"",""time""
""fullscreenenter"",""0"",""3405""
","
","1400.3000000000466","run_exp/static/images/Set 6_rs/141a.jpg","78","","","","","","learn","SR",""
"","show_choice","158","169282","0.0-158.0","""event"",""trial"",""time""
""fullscreenenter"",""0"",""3405""
","
","
","""event"",""trial"",""time""
""fullscreenenter"",""0"",""3405""
","
","null","run_exp/static/images/Set 6_rs/141a.jpg","null","","","","","","learn","SR",""
"","html-keyboard-response","159","169783","0.0-159.0","""event"",""trial"",""time""
""fullscreenenter"",""0"",""3405""
","
","
","""event"",""trial"",""time""
""fullscreenenter"",""0"",""3405""
","
","null","<p></p>","null","","","","","","","",""
"","image","160","170629","0.0-160.0","""event"",""trial"",""time""
""fullscreenenter"",""0"",""3405""
","
","
","""event"",""trial"",""time""
""fullscreenenter"",""0"",""3405""
","
","843.8999999999651","run_exp/static/images/Set 6_rs/019a.jpg","86","","","","","","learn","SL",""
"","show_choice","161","171788","0.0-161.0","""event"",""trial"",""time""
""fullscreenenter"",""0"",""3405""
","
","
","""event"",""trial"",""time""
""fullscreenenter"",""0"",""3405""
","
","null","run_exp/static/images/Set 6_rs/019a.jpg","null","","","","","","learn","SL",""
"","html-keyboard-response","162","172289","0.0-162.0","""event"",""trial"",""time""
""fullscreenenter"",""0"",""3405""
","
","
","""event"",""trial"",""time""
""fullscreenenter"",""0"",""3405""
","
","null","<p></p>","null","","","","","","","",""
"","image","163","173251","0.0-163.0","""event"",""trial"",""time""
""fullscreenenter"",""0"",""3405""
","
","
","""event"",""trial"",""time""
""fullscreenenter"",""0"",""3405""
","
","959.5999999999767","run_exp/static/images/Set 6_rs/129a.jpg","86","","","","","","learn","SL",""
"","show_choice","164","174294","0.0-164.0","""event"",""trial"",""time""
""fullscreenenter"",""0"",""3405""
","
","
","""event"",""trial"",""time""
""fullscreenenter"",""0"",""3405""
","
","null","run_exp/static/images/Set 6_rs/129a.jpg","null","","","","","","learn","SL",""
"","html-keyboard-response","165","174795","0.0-165.0","""event"",""trial"",""time""
""fullscreenenter"",""0"",""3405""
","
","
","""event"",""trial"",""time""
""fullscreenenter"",""0"",""3405""
","
","null","<p></p>","null","","","","","","","",""
"","image","166","175717","0.0-166.0","""event"",""trial"",""time""
""fullscreenenter"",""0"",""3405""
","
","
","""event"",""trial"",""time""
""fullscreenenter"",""0"",""3405""
","
","919.6000000000349","run_exp/static/images/Set 6_rs/169a.jpg","78","","","","","","learn","SR",""
"","show_choice","167","176799","0.0-167.0","""event"",""trial"",""time""
""fullscreenenter"",""0"",""3405""
","
","
","""event"",""trial"",""time""
""fullscreenenter"",""0"",""3405""
","
","null","run_exp/static/images/Set 6_rs/169a.jpg","null","","","","","","learn","SR",""
"","html-keyboard-response","168","177300","0.0-168.0","""event"",""trial"",""time""
""fullscreenenter"",""0"",""3405""
","
","
","""event"",""trial"",""time""
""fullscreenenter"",""0"",""3405""
","
","null","<p></p>","null","","","","","","","",""
"","image","169","178152","0.0-169.0","""event"",""trial"",""time""
""fullscreenenter"",""0"",""3405""
","
","
","""event"",""trial"",""time""
""fullscreenenter"",""0"",""3405""
","
","849.4000000000233","run_exp/static/images/Set 6_rs/121a.jpg","86","","","","","","learn","SR",""
"","show_choice","170","179304","0.0-170.0","""event"",""trial"",""time""
""fullscreenenter"",""0"",""3405""
","
","
","""event"",""trial"",""time""
""fullscreenenter"",""0"",""3405""
","
","null","run_exp/static/images/Set 6_rs/121a.jpg","null","","","","","","learn","SR",""
"","html-keyboard-response","171","179806","0.0-171.0","""event"",""trial"",""time""
""fullscreenenter"",""0"",""3405""
","
","
","""event"",""trial"",""time""
""fullscreenenter"",""0"",""3405""
","
","null","<p></p>","null","","","","","","","",""
"","image","172","180668","0.0-172.0","""event"",""trial"",""time""
""fullscreenenter"",""0"",""3405""
","
","
","""event"",""trial"",""time""
""fullscreenenter"",""0"",""3405""
","
","860.1000000000349","run_exp/static/images/Set 6_rs/187a.jpg","78","","","","","","learn","SR",""
"","show_choice","173","181809","0.0-173.0","""event"",""trial"",""time""
""fullscreenenter"",""0"",""3405""
","
","
","""event"",""trial"",""time""
""fullscreenenter"",""0"",""3405""
","
","null","run_exp/static/images/Set 6_rs/187a.jpg","null","","","","","","learn","SR",""
"","html-keyboard-response","174","182311","0.0-174.0","""event"",""trial"",""time""
""fullscreenenter"",""0"",""3405""
","
","
","""event"",""trial"",""time""
""fullscreenenter"",""0"",""3405""
","
","null","<p></p>","null","","","","","","","",""
"","image","175","183525","0.0-175.0","""event"",""trial"",""time""
""fullscreenenter"",""0"",""3405""
","
","
","""event"",""trial"",""time""
""fullscreenenter"",""0"",""3405""
","
","1212.2000000000116","run_exp/static/images/Set 6_rs/091a.jpg","86","","","","","","learn","SL",""
"","show_choice","176","184314","0.0-176.0","""event"",""trial"",""time""
""fullscreenenter"",""0"",""3405""
","
","
","""event"",""trial"",""time""
""fullscreenenter"",""0"",""3405""
","
","null","run_exp/static/images/Set 6_rs/091a.jpg","null","","","","","","learn","SL",""
"","html-keyboard-response","177","184816","0.0-177.0","""event"",""trial"",""time""
""fullscreenenter"",""0"",""3405""
","
","
","""event"",""trial"",""time""
""fullscreenenter"",""0"",""3405""
","
","null","<p></p>","null","","","","","","","",""
"","image","178","185819","0.0-178.0","""event"",""trial"",""time""
""fullscreenenter"",""0"",""3405""
","
","
","""event"",""trial"",""time""
""fullscreenenter"",""0"",""3405""
","
","1000.6999999999534","run_exp/static/images/Set 6_rs/014a.jpg","86","","","","","","learn","SL",""
"","show_choice","179","186820","0.0-179.0","""event"",""trial"",""time""
""fullscreenenter"",""0"",""3405""
","
","
","""event"",""trial"",""time""
""fullscreenenter"",""0"",""3405""
","
","null","run_exp/static/images/Set 6_rs/014a.jpg","null","","","","","","learn","SL",""
"","html-keyboard-response","180","187321","0.0-180.0","""event"",""trial"",""time""
""fullscreenenter"",""0"",""3405""
","
","
","""event"",""trial"",""time""
""fullscreenenter"",""0"",""3405""
","
","null","<p></p>","null","","","","","","","",""
"","image","181","187888","0.0-181.0","""event"",""trial"",""time""
""fullscreenenter"",""0"",""3405""
","
","
","""event"",""trial"",""time""
""fullscreenenter"",""0"",""3405""
","
","564.1999999999534","run_exp/static/images/Set 6_rs/070a.jpg","86","","","","","","learn","SR",""
"","show_choice","182","189325","0.0-182.0","""event"",""trial"",""time""
""fullscreenenter"",""0"",""3405""
","
","
","""event"",""trial"",""time""
""fullscreenenter"",""0"",""3405""
","
","null","run_exp/static/images/Set 6_rs/070a.jpg","null","","","","","","learn","SR",""
"","html-keyboard-response","183","189827","0.0-183.0","""event"",""trial"",""time""
""fullscreenenter"",""0"",""3405""
","
","
","""event"",""trial"",""time""
""fullscreenenter"",""0"",""3405""
","
","null","<p></p>","null","","","","","","","",""
"","image","184","190946","0.0-184.0","""event"",""trial"",""time""
""fullscreenenter"",""0"",""3405""
","
","
","""event"",""trial"",""time""
""fullscreenenter"",""0"",""3405""
","
","1117.2999999999884","run_exp/static/images/Set 6_rs/071a.jpg","78","","","","","","learn","SL",""
"","show_choice","185","191830","0.0-185.0","""event"",""trial"",""time""
""fullscreenenter"",""0"",""3405""
","
","
","""event"",""trial"",""time""
""fullscreenenter"",""0"",""3405""
","
","null","run_exp/static/images/Set 6_rs/071a.jpg","null","","","","","","learn","SL",""
"","html-keyboard-response","186","192332","0.0-186.0","""event"",""trial"",""time""
""fullscreenenter"",""0"",""3405""
","
","
","""event"",""trial"",""time""
""fullscreenenter"",""0"",""3405""
","
","null","<p></p>","null","","","","","","","",""
"","image","187","192985","0.0-187.0","""event"",""trial"",""time""
""fullscreenenter"",""0"",""3405""
","
","
","""event"",""trial"",""time""
""fullscreenenter"",""0"",""3405""
","
","650.3999999999651","run_exp/static/images/Set 6_rs/025a.jpg","86","","","","","","learn","SL",""
"","show_choice","188","194336","0.0-188.0","""event"",""trial"",""time""
""fullscreenenter"",""0"",""3405""
","
","
","""event"",""trial"",""time""
""fullscreenenter"",""0"",""3405""
","
","null","run_exp/static/images/Set 6_rs/025a.jpg","null","","","","","","learn","SL",""
"","html-keyboard-response","189","194837","0.0-189.0","""event"",""trial"",""time""
""fullscreenenter"",""0"",""3405""
","
","
","""event"",""trial"",""time""
""fullscreenenter"",""0"",""3405""
","
","null","<p></p>","null","","","","","","","",""
"","image","190","195546","0.0-190.0","""event"",""trial"",""time""
""fullscreenenter"",""0"",""3405""
","
","
","""event"",""trial"",""time""
""fullscreenenter"",""0"",""3405""
","
","706.5999999999767","run_exp/static/images/Set 6_rs/073a.jpg","86","","","","","","learn","SL",""
"","show_choice","191","196841","0.0-191.0","""event"",""trial"",""time""
""fullscreenenter"",""0"",""3405""
","
","
","""event"",""trial"",""time""
""fullscreenenter"",""0"",""3405""
","
","null","run_exp/static/images/Set 6_rs/073a.jpg","null","","","","","","learn","SL",""
"","html-keyboard-response","192","197343","0.0-192.0","""event"",""trial"",""time""
""fullscreenenter"",""0"",""3405""
","
","
","""event"",""trial"",""time""
""fullscreenenter"",""0"",""3405""
","
","null","<p></p>","null","","","","","","","",""
"","image","193","198331","0.0-193.0","""event"",""trial"",""time""
""fullscreenenter"",""0"",""3405""
","
","
","""event"",""trial"",""time""
""fullscreenenter"",""0"",""3405""
","
","985.4000000000233","run_exp/static/images/Set 6_rs/144a.jpg","86","","","","","","learn","SL",""
"","show_choice","194","199347","0.0-194.0","""event"",""trial"",""time""
""fullscreenenter"",""0"",""3405""
","
","
","""event"",""trial"",""time""
""fullscreenenter"",""0"",""3405""
","
","null","run_exp/static/images/Set 6_rs/144a.jpg","null","","","","","","learn","SL",""
"","html-keyboard-response","195","199848","0.0-195.0","""event"",""trial"",""time""
""fullscreenenter"",""0"",""3405""
","
","
","""event"",""trial"",""time""
""fullscreenenter"",""0"",""3405""
","
","null","<p></p>","null","","","","","","","",""
"","test_intro","196","236652","0.0-196.0","""event"",""trial"",""time""
""fullscreenenter"",""0"",""3405""
","
","
","""event"",""trial"",""time""
""fullscreenenter"",""0"",""3405""
","
","null","run_exp/static/audio/clip_2_memory.m4a","null","","","","","<div class='center'><p>Now, lets see how much you remember about the items you just saw.  For each item, you need to indicate if it was <b>old</b> by pressing the <b>v</b> key, <b>similar</b> by pressing the <b>b</b> key, or <b>new</b> by pressing the <b>n</b> key.</p><p>Old refers to an item that you saw before in the indoor/outdoor game that you just played, new refers to an item you have <b>not</b> seen before within the indoor/outdoor game, and similar refers to an item that is similar to an item youve seen before but is not exactly the same. </p><p>Before we begin, lets go over some brief demonstrations to make sure you understand.</p></div>","","",""
"","html-keyboard-response","197","236956","0.0-197.0","""event"",""trial"",""time""
""fullscreenenter"",""0"",""3405""
","
","
","""event"",""trial"",""time""
""fullscreenenter"",""0"",""3405""
","
","300.60000000009313","<div class='center'><p>Now, lets see how much you remember about the items you just saw.  For each item, you need to indicate if it was <b>old</b> by pressing the <b>v</b> key, <b>similar</b> by pressing the <b>b</b> key, or <b>new</b> by pressing the <b>n</b> key.</p><p>Old refers to an item that you saw before in the indoor/outdoor game that you just played, new refers to an item you have <b>not</b> seen before within the indoor/outdoor game, and similar refers to an item that is similar to an item youve seen before but is not exactly the same. </p><p>Before we begin, lets go over some brief demonstrations to make sure you understand.</p><div><p><b>[Press the space bar to continue]</b></p></div>","32","","","","","","","",""
"","items","198","244460","0.0-198.0","""event"",""trial"",""time""
""fullscreenenter"",""0"",""3405""
","
","
","""event"",""trial"",""time""
""fullscreenenter"",""0"",""3405""
","
","null","run_exp/static/audio/clip_3_items.m4a","null","","","","","","","",""
"","mop","199","248964","0.0-199.0","""event"",""trial"",""time""
""fullscreenenter"",""0"",""3405""
","
","
","""event"",""trial"",""time""
""fullscreenenter"",""0"",""3405""
","
","null","run_exp/static/audio/clip_4_mop.m4a","null","","","","","","","",""
"","baseball","200","252467","0.0-200.0","""event"",""trial"",""time""
""fullscreenenter"",""0"",""3405""
","
","
","""event"",""trial"",""time""
""fullscreenenter"",""0"",""3405""
","
","null","run_exp/static/audio/clip_5_baseball.m4a","null","","","","","","","",""
"","trumpet","201","255972","0.0-201.0","""event"",""trial"",""time""
""fullscreenenter"",""0"",""3405""
","
","
","""event"",""trial"",""time""
""fullscreenenter"",""0"",""3405""
","
","null","run_exp/static/audio/clip_6_trumpet.m4a","null","","","","","","","",""
"","gummies","202","259476","0.0-202.0","""event"",""trial"",""time""
""fullscreenenter"",""0"",""3405""
","
","
","""event"",""trial"",""time""
""fullscreenenter"",""0"",""3405""
","
","null","run_exp/static/audio/clip_7_gummies.m4a","null","","","","","","","",""
"","osn","203","263980","0.0-203.0","""event"",""trial"",""time""
""fullscreenenter"",""0"",""3405""
","
","
","""event"",""trial"",""time""
""fullscreenenter"",""0"",""3405""
","
","null","run_exp/static/audio/clip_8_osn.m4a","null","","","","","","","",""
"","old_1","204","270483","0.0-204.0","""event"",""trial"",""time""
""fullscreenenter"",""0"",""3405""
","
","
","""event"",""trial"",""time""
""fullscreenenter"",""0"",""3405""
","
","null","run_exp/static/audio/clip_9_old_trumpet.m4a","null","","","","","","","",""
"","new_1","205","277989","0.0-205.0","""event"",""trial"",""time""
""fullscreenenter"",""0"",""3405""
","
","
","""event"",""trial"",""time""
""fullscreenenter"",""0"",""3405""
","
","null","run_exp/static/audio/clip_10_new_balloon.m4a","null","","","","","","","",""
"","similar_1a","206","282494","0.0-206.0","""event"",""trial"",""time""
""fullscreenenter"",""0"",""3405""
","
","
","""event"",""trial"",""time""
""fullscreenenter"",""0"",""3405""
","
","null","run_exp/static/audio/clip_11a_similar_mop.m4a","null","","","","","","","",""
"","similar_1b","207","288997","0.0-207.0","""event"",""trial"",""time""
""fullscreenenter"",""0"",""3405""
","
","
","""event"",""trial"",""time""
""fullscreenenter"",""0"",""3405""
","
","null","run_exp/static/audio/clip_11b_similar_mop.m4a","null","","","","","","","",""
"","new_2","208","292501","0.0-208.0","""event"",""trial"",""time""
""fullscreenenter"",""0"",""3405""
","
","
","""event"",""trial"",""time""
""fullscreenenter"",""0"",""3405""
","
","null","run_exp/static/audio/clip_12_new_stoplight.m4a","null","","","","","","","",""
"","old_2","209","296005","0.0-209.0","""event"",""trial"",""time""
""fullscreenenter"",""0"",""3405""
","
","
","""event"",""trial"",""time""
""fullscreenenter"",""0"",""3405""
","
","null","run_exp/static/audio/clip_13_old_baseball.m4a","null","","","","","","","",""
"","similar_2a","210","299509","0.0-210.0","""event"",""trial"",""time""
""fullscreenenter"",""0"",""3405""
","
","
","""event"",""trial"",""time""
""fullscreenenter"",""0"",""3405""
","
","null","run_exp/static/audio/clip_14a_similar_gummies.m4a","null","","","","","","","",""
"","similar_2b","211","307013","0.0-211.0","""event"",""trial"",""time""
""fullscreenenter"",""0"",""3405""
","
","
","""event"",""trial"",""time""
""fullscreenenter"",""0"",""3405""
","
","null","run_exp/static/audio/clip_14b_similar_gummies.m4a","null","","","","","","","",""
"","practice","212","349207","0.0-212.0","""event"",""trial"",""time""
""fullscreenenter"",""0"",""3405""
","
","
","""event"",""trial"",""time""
""fullscreenenter"",""0"",""3405""
","
","null","run_exp/static/audio/clip_15_practice.m4a","null","","","","","<div class='center'><p>Lets practice a little to make sure you understand the difference between new, similar, and old. Lets say you saw these three items in the indoor/outdoor game.</p><p> Try your best to remember these images because youll soon be tested on them in a practice game. In the practice game, youll be shown images and youll have to say if they are old (one of the three images belows), similar (similar to one of the images below but not exactly the same), or new (are not one of the images below nor similar to them).</p><p>Once you press the space bar youll be shown these images again but one at time. Then youll begin the practice game.</p><p><img src='run_exp/static/images/tutorial/test/three_indoor_outdoor.png' height='300'></p></div>","","",""
"","html-keyboard-response","213","349559","0.0-213.0","""event"",""trial"",""time""
""fullscreenenter"",""0"",""3405""
","
","
","""event"",""trial"",""time""
""fullscreenenter"",""0"",""3405""
","
","348.69999999995343","<div class='center'><p>Lets practice a little to make sure you understand the difference between new, similar, and old. Lets say you saw these three items in the indoor/outdoor game.</p><p> Try your best to remember these images because youll soon be tested on them in a practice game. In the practice game, youll be shown images and youll have to say if they are old (one of the three images belows), similar (similar to one of the images below but not exactly the same), or new (are not one of the images below nor similar to them).</p><p>Once you press the space bar youll be shown these images again but one at time. Then youll begin the practice game.</p><p><img src='run_exp/static/images/tutorial/test/three_indoor_outdoor.png' height='300'></p><div><p><b>[Press the space bar to continue]</b></p></div>","32","","","","","","","",""
"","planet","214","351562","0.0-214.0","""event"",""trial"",""time""
""fullscreenenter"",""0"",""3405""
","
","
","""event"",""trial"",""time""
""fullscreenenter"",""0"",""3405""
","
","null","run_exp/static/images/tutorial/test/008a.jpg","null","","","","","","","",""
"","boot","215","353564","0.0-215.0","""event"",""trial"",""time""
""fullscreenenter"",""0"",""3405""
","
","
","""event"",""trial"",""time""
""fullscreenenter"",""0"",""3405""
","
","null","run_exp/static/images/tutorial/test/011a.jpg","null","","","","","","","",""
"","lemon","216","355566","0.0-216.0","""event"",""trial"",""time""
""fullscreenenter"",""0"",""3405""
","
","
","""event"",""trial"",""time""
""fullscreenenter"",""0"",""3405""
","
","null","run_exp/static/images/tutorial/test/018a.jpg","null","","","","","","","",""
"","practice_q1","217","356972","0.0-217.0","""event"",""trial"",""time""
""fullscreenenter"",""0"",""3405""
","
","
","""event"",""trial"",""time""
""fullscreenenter"",""0"",""3405""
","
","1400.5999999999767","run_exp/static/audio/clip_16_practice_question.m4a","78","","","","","","","",""
"","correct","218","359021","0.0-218.0-0.0","""event"",""trial"",""time""
""fullscreenenter"",""0"",""3405""
","
","
","""event"",""trial"",""time""
""fullscreenenter"",""0"",""3405""
","
","null","run_exp/static/audio/clip_17_correct.m4a","null","","","","","<div class='center'><p>That's correct!</p></div>","","",""
"","html-keyboard-response","219","360101","0.0-218.0-1.0","""event"",""trial"",""time""
""fullscreenenter"",""0"",""3405""
","
","
","""event"",""trial"",""time""
""fullscreenenter"",""0"",""3405""
","
","1077.1000000000931","<div class='center'><p>That's correct!</p><div><p><b>[Press the space bar to continue]</b></p></div>","32","","","","","","","",""
"","practice_q2","220","361739","0.0-218.0-2.0","""event"",""trial"",""time""
""fullscreenenter"",""0"",""3405""
","
","
","""event"",""trial"",""time""
""fullscreenenter"",""0"",""3405""
","
","1634.4000000000233","run_exp/static/audio/clip_16_practice_question.m4a","86","","","","","","","",""
"","correct","221","363714","0.0-219.0-0.0","""event"",""trial"",""time""
""fullscreenenter"",""0"",""3405""
","
","
","""event"",""trial"",""time""
""fullscreenenter"",""0"",""3405""
","
","null","run_exp/static/audio/clip_17_correct.m4a","null","","","","","<div class='center'><p>That's correct!</p></div>","","",""
"","html-keyboard-response","222","364162","0.0-219.0-1.0","""event"",""trial"",""time""
""fullscreenenter"",""0"",""3405""
","
","
","""event"",""trial"",""time""
""fullscreenenter"",""0"",""3405""
","
","445.79999999993015","<div class='center'><p>That's correct!</p><div><p><b>[Press the space bar to continue]</b></p></div>","32","","","","","","","",""
"","practice_q3","223","365240","0.0-219.0-2.0","""event"",""trial"",""time""
""fullscreenenter"",""0"",""3405""
","
","
","""event"",""trial"",""time""
""fullscreenenter"",""0"",""3405""
","
","1074.6000000000931","run_exp/static/audio/clip_16_practice_question.m4a","66","","","","","","","",""
"","correct","224","367554","0.0-220.0-0.0","""event"",""trial"",""time""
""fullscreenenter"",""0"",""3405""
","
","
","""event"",""trial"",""time""
""fullscreenenter"",""0"",""3405""
","
","null","run_exp/static/audio/clip_17_correct.m4a","null","","","","","<div class='center'><p>That's correct!</p></div>","","",""
"","html-keyboard-response","225","367826","0.0-220.0-1.0","""event"",""trial"",""time""
""fullscreenenter"",""0"",""3405""
","
","
","""event"",""trial"",""time""
""fullscreenenter"",""0"",""3405""
","
","269.69999999995343","<div class='center'><p>That's correct!</p><div><p><b>[Press the space bar to continue]</b></p></div>","32","","","","","","","",""
"","begin_text","226","386413","0.0-221.0-0.0","""event"",""trial"",""time""
""fullscreenenter"",""0"",""3405""
","
","
","""event"",""trial"",""time""
""fullscreenenter"",""0"",""3405""
","
","null","run_exp/static/audio/clip_22_begin_test.m4a","null","","","","","<div class='center'><p>On to the real game where well test your memory of items from the indoor/outdoor game. For each item, you need to indicate if the item is <b>old</b> by pressing the <b>v</b> key, <b>similar</b> by pressing the <b>b</b> key, or <b>new</b> by pressing the <b>n</b> key. </p></div>","","",""
"","html-keyboard-response","227","387017","0.0-221.0-1.0","""event"",""trial"",""time""
""fullscreenenter"",""0"",""3405""
","
","
","""event"",""trial"",""time""
""fullscreenenter"",""0"",""3405""
","
","601.3000000000466","<div class='center'><p>On to the real game where well test your memory of items from the indoor/outdoor game. For each item, you need to indicate if the item is <b>old</b> by pressing the <b>v</b> key, <b>similar</b> by pressing the <b>b</b> key, or <b>new</b> by pressing the <b>n</b> key. </p><div><p><b>[Press the space bar to continue]</b></p></div>","32","","","","","","","",""
"","image","228","388667","0.0-222.0-0.0","""event"",""trial"",""time""
""fullscreenenter"",""0"",""3405""
","
","
","""event"",""trial"",""time""
""fullscreenenter"",""0"",""3405""
","
","1646.4000000000233","run_exp/static/images/Set 6_rs/116b.jpg","66","","","","","","test","TL","2"
"","show_choice","229","389170","0.0-222.0-1.0","""event"",""trial"",""time""
""fullscreenenter"",""0"",""3405""
","
","
","""event"",""trial"",""time""
""fullscreenenter"",""0"",""3405""
","
","null","run_exp/static/images/Set 6_rs/116b.jpg","null","","","","","","test","TL",""
"","html-keyboard-response","230","389672","0.0-222.0-2.0","""event"",""trial"",""time""
""fullscreenenter"",""0"",""3405""
","
","
","""event"",""trial"",""time""
""fullscreenenter"",""0"",""3405""
","
","null","<p></p>","null","","","","","","","",""
"","image","231","390842","0.0-223.0-0.0","""event"",""trial"",""time""
""fullscreenenter"",""0"",""3405""
","
","
","""event"",""trial"",""time""
""fullscreenenter"",""0"",""3405""
","
","1167.1999999999534","run_exp/static/images/Set 6_rs/095b.jpg","66","","","","","","test","TL","5"
"","show_choice","232","391345","0.0-223.0-1.0","""event"",""trial"",""time""
""fullscreenenter"",""0"",""3405""
","
","
","""event"",""trial"",""time""
""fullscreenenter"",""0"",""3405""
","
","null","run_exp/static/images/Set 6_rs/095b.jpg","null","","","","","","test","TL",""
"","html-keyboard-response","233","391847","0.0-223.0-2.0","""event"",""trial"",""time""
""fullscreenenter"",""0"",""3405""
","
","
","""event"",""trial"",""time""
""fullscreenenter"",""0"",""3405""
","
","null","<p></p>","null","","","","","","","",""
"","image","234","392789","0.0-224.0-0.0","""event"",""trial"",""time""
""fullscreenenter"",""0"",""3405""
","
","
","""event"",""trial"",""time""
""fullscreenenter"",""0"",""3405""
","
","939.7999999999302","run_exp/static/images/Set 6_rs/176a.jpg","78","","","","","","test","TF","4"
"","show_choice","235","393292","0.0-224.0-1.0","""event"",""trial"",""time""
""fullscreenenter"",""0"",""3405""
","
","
","""event"",""trial"",""time""
""fullscreenenter"",""0"",""3405""
","
","null","run_exp/static/images/Set 6_rs/176a.jpg","null","","","","","","test","TF",""
"","html-keyboard-response","236","393794","0.0-224.0-2.0","""event"",""trial"",""time""
""fullscreenenter"",""0"",""3405""
","
","
","""event"",""trial"",""time""
""fullscreenenter"",""0"",""3405""
","
","null","<p></p>","null","","","","","","","",""
"","image","237","394757","0.0-225.0-0.0","""event"",""trial"",""time""
""fullscreenenter"",""0"",""3405""
","
","
","""event"",""trial"",""time""
""fullscreenenter"",""0"",""3405""
","
","960.3000000000466","run_exp/static/images/Set 6_rs/064a.jpg","86","","","","","","test","TR","5"
"","show_choice","238","395267","0.0-225.0-1.0","""event"",""trial"",""time""
""fullscreenenter"",""0"",""3405""
","
","
","""event"",""trial"",""time""
""fullscreenenter"",""0"",""3405""
","
","null","run_exp/static/images/Set 6_rs/064a.jpg","null","","","","","","test","TR",""
"","html-keyboard-response","239","395770","0.0-225.0-2.0","""event"",""trial"",""time""
""fullscreenenter"",""0"",""3405""
","
","
","""event"",""trial"",""time""
""fullscreenenter"",""0"",""3405""
","
","null","<p></p>","null","","","","","","","",""
"","image","240","397123","0.0-226.0-0.0","""event"",""trial"",""time""
""fullscreenenter"",""0"",""3405""
","
","
","""event"",""trial"",""time""
""fullscreenenter"",""0"",""3405""
","
","1350.7000000000698","run_exp/static/images/Set 6_rs/035a.jpg","66","","","","","","test","TF","4"
"","show_choice","241","397625","0.0-226.0-1.0","""event"",""trial"",""time""
""fullscreenenter"",""0"",""3405""
","
","
","""event"",""trial"",""time""
""fullscreenenter"",""0"",""3405""
","
","null","run_exp/static/images/Set 6_rs/035a.jpg","null","","","","","","test","TF",""
"","html-keyboard-response","242","398127","0.0-226.0-2.0","""event"",""trial"",""time""
""fullscreenenter"",""0"",""3405""
","
","
","""event"",""trial"",""time""
""fullscreenenter"",""0"",""3405""
","
","null","<p></p>","null","","","","","","","",""
"","image","243","399125","0.0-227.0-0.0","""event"",""trial"",""time""
""fullscreenenter"",""0"",""3405""
","
","
","""event"",""trial"",""time""
""fullscreenenter"",""0"",""3405""
","
","994.8000000000466","run_exp/static/images/Set 6_rs/045a.jpg","86","","","","","","test","TR","2"
"","show_choice","244","399626","0.0-227.0-1.0","""event"",""trial"",""time""
""fullscreenenter"",""0"",""3405""
","
","
","""event"",""trial"",""time""
""fullscreenenter"",""0"",""3405""
","
","null","run_exp/static/images/Set 6_rs/045a.jpg","null","","","","","","test","TR",""
"","html-keyboard-response","245","400128","0.0-227.0-2.0","""event"",""trial"",""time""
""fullscreenenter"",""0"",""3405""
","
","
","""event"",""trial"",""time""
""fullscreenenter"",""0"",""3405""
","
","null","<p></p>","null","","","","","","","",""
"","image","246","401230","0.0-228.0-0.0","""event"",""trial"",""time""
""fullscreenenter"",""0"",""3405""
","
","
","""event"",""trial"",""time""
""fullscreenenter"",""0"",""3405""
","
","1098.8000000000466","run_exp/static/images/Set 6_rs/065a.jpg","78","","","","","","test","TF","3"
"","show_choice","247","401733","0.0-228.0-1.0","""event"",""trial"",""time""
""fullscreenenter"",""0"",""3405""
","
","
","""event"",""trial"",""time""
""fullscreenenter"",""0"",""3405""
","
","null","run_exp/static/images/Set 6_rs/065a.jpg","null","","","","","","test","TF",""
"","html-keyboard-response","248","402234","0.0-228.0-2.0","""event"",""trial"",""time""
""fullscreenenter"",""0"",""3405""
","
","
","""event"",""trial"",""time""
""fullscreenenter"",""0"",""3405""
","
","null","<p></p>","null","","","","","","","",""
"","image","249","403410","0.0-229.0-0.0","""event"",""trial"",""time""
""fullscreenenter"",""0"",""3405""
","
","
","""event"",""trial"",""time""
""fullscreenenter"",""0"",""3405""
","
","1173","run_exp/static/images/Set 6_rs/056a.jpg","78","","","","","","test","TF","3"
"","show_choice","250","403912","0.0-229.0-1.0","""event"",""trial"",""time""
""fullscreenenter"",""0"",""3405""
","
","
","""event"",""trial"",""time""
""fullscreenenter"",""0"",""3405""
","
","null","run_exp/static/images/Set 6_rs/056a.jpg","null","","","","","","test","TF",""
"","html-keyboard-response","251","404414","0.0-229.0-2.0","""event"",""trial"",""time""
""fullscreenenter"",""0"",""3405""
","
","
","""event"",""trial"",""time""
""fullscreenenter"",""0"",""3405""
","
","null","<p></p>","null","","","","","","","",""
"","image","252","405952","0.0-230.0-0.0","""event"",""trial"",""time""
""fullscreenenter"",""0"",""3405""
","
","
","""event"",""trial"",""time""
""fullscreenenter"",""0"",""3405""
","
","1534.7000000000698","run_exp/static/images/Set 6_rs/086a.jpg","78","","","","","","test","TF","1"
"","show_choice","253","406454","0.0-230.0-1.0","""event"",""trial"",""time""
""fullscreenenter"",""0"",""3405""
","
","
","""event"",""trial"",""time""
""fullscreenenter"",""0"",""3405""
","
","null","run_exp/static/images/Set 6_rs/086a.jpg","null","","","","","","test","TF",""
"","html-keyboard-response","254","406956","0.0-230.0-2.0","""event"",""trial"",""time""
""fullscreenenter"",""0"",""3405""
","
","
","""event"",""trial"",""time""
""fullscreenenter"",""0"",""3405""
","
","null","<p></p>","null","","","","","","","",""
"","image","255","408035","0.0-231.0-0.0","""event"",""trial"",""time""
""fullscreenenter"",""0"",""3405""
","
","
","""event"",""trial"",""time""
""fullscreenenter"",""0"",""3405""
","
","1076.6999999999534","run_exp/static/images/Set 6_rs/019b.jpg","66","","","","","","test","TL","2"
"","show_choice","256","408538","0.0-231.0-1.0","""event"",""trial"",""time""
""fullscreenenter"",""0"",""3405""
","
","
","""event"",""trial"",""time""
""fullscreenenter"",""0"",""3405""
","
","null","run_exp/static/images/Set 6_rs/019b.jpg","null","","","","","","test","TL",""
"","html-keyboard-response","257","409040","0.0-231.0-2.0","""event"",""trial"",""time""
""fullscreenenter"",""0"",""3405""
","
","
","""event"",""trial"",""time""
""fullscreenenter"",""0"",""3405""
","
","null","<p></p>","null","","","","","","","",""
"","image","258","410401","0.0-232.0-0.0","""event"",""trial"",""time""
""fullscreenenter"",""0"",""3405""
","
","
","""event"",""trial"",""time""
""fullscreenenter"",""0"",""3405""
","
","1359.3000000000466","run_exp/static/images/Set 6_rs/149a.jpg","86","","","","","","test","TF","1"
"","show_choice","259","410904","0.0-232.0-1.0","""event"",""trial"",""time""
""fullscreenenter"",""0"",""3405""
","
","
","""event"",""trial"",""time""
""fullscreenenter"",""0"",""3405""
","
","null","run_exp/static/images/Set 6_rs/149a.jpg","null","","","","","","test","TF",""
"","html-keyboard-response","260","411405","0.0-232.0-2.0","""event"",""trial"",""time""
""fullscreenenter"",""0"",""3405""
","
","
","""event"",""trial"",""time""
""fullscreenenter"",""0"",""3405""
","
","null","<p></p>","null","","","","","","","",""
"","image","261","412941","0.0-233.0-0.0","""event"",""trial"",""time""
""fullscreenenter"",""0"",""3405""
","
","
","""event"",""trial"",""time""
""fullscreenenter"",""0"",""3405""
","
","1532.6999999999534","run_exp/static/images/Set 6_rs/140a.jpg","78","","","","","","test","TF","1"
"","show_choice","262","413443","0.0-233.0-1.0","""event"",""trial"",""time""
""fullscreenenter"",""0"",""3405""
","
","
","""event"",""trial"",""time""
""fullscreenenter"",""0"",""3405""
","
","null","run_exp/static/images/Set 6_rs/140a.jpg","null","","","","","","test","TF",""
"","html-keyboard-response","263","413945","0.0-233.0-2.0","""event"",""trial"",""time""
""fullscreenenter"",""0"",""3405""
","
","
","""event"",""trial"",""time""
""fullscreenenter"",""0"",""3405""
","
","null","<p></p>","null","","","","","","","",""
"","image","264","414878","0.0-234.0-0.0","""event"",""trial"",""time""
""fullscreenenter"",""0"",""3405""
","
","
","""event"",""trial"",""time""
""fullscreenenter"",""0"",""3405""
","
","931.3000000000466","run_exp/static/images/Set 6_rs/177a.jpg","86","","","","","","test","TR","5"
"","show_choice","265","415381","0.0-234.0-1.0","""event"",""trial"",""time""
""fullscreenenter"",""0"",""3405""
","
","
","""event"",""trial"",""time""
""fullscreenenter"",""0"",""3405""
","
","null","run_exp/static/images/Set 6_rs/177a.jpg","null","","","","","","test","TR",""
"","html-keyboard-response","266","415883","0.0-234.0-2.0","""event"",""trial"",""time""
""fullscreenenter"",""0"",""3405""
","
","
","""event"",""trial"",""time""
""fullscreenenter"",""0"",""3405""
","
","null","<p></p>","null","","","","","","","",""
"","image","267","417103","0.0-235.0-0.0","""event"",""trial"",""time""
""fullscreenenter"",""0"",""3405""
","
","
","""event"",""trial"",""time""
""fullscreenenter"",""0"",""3405""
","
","1217.1000000000931","run_exp/static/images/Set 6_rs/016b.jpg","66","","","","","","test","TL","1"
"","show_choice","268","417605","0.0-235.0-1.0","""event"",""trial"",""time""
""fullscreenenter"",""0"",""3405""
","
","
","""event"",""trial"",""time""
""fullscreenenter"",""0"",""3405""
","
","null","run_exp/static/images/Set 6_rs/016b.jpg","null","","","","","","test","TL",""
"","html-keyboard-response","269","418107","0.0-235.0-2.0","""event"",""trial"",""time""
""fullscreenenter"",""0"",""3405""
","
","
","""event"",""trial"",""time""
""fullscreenenter"",""0"",""3405""
","
","null","<p></p>","null","","","","","","","",""
"","image","270","419130","0.0-236.0-0.0","""event"",""trial"",""time""
""fullscreenenter"",""0"",""3405""
","
","
","""event"",""trial"",""time""
""fullscreenenter"",""0"",""3405""
","
","1020.1999999999534","run_exp/static/images/Set 6_rs/129b.jpg","86","","","","","","test","TL","1"
"","show_choice","271","419632","0.0-236.0-1.0","""event"",""trial"",""time""
""fullscreenenter"",""0"",""3405""
","
","
","""event"",""trial"",""time""
""fullscreenenter"",""0"",""3405""
","
","null","run_exp/static/images/Set 6_rs/129b.jpg","null","","","","","","test","TL",""
"","html-keyboard-response","272","420134","0.0-236.0-2.0","""event"",""trial"",""time""
""fullscreenenter"",""0"",""3405""
","
","
","""event"",""trial"",""time""
""fullscreenenter"",""0"",""3405""
","
","null","<p></p>","null","","","","","","","",""
"","image","273","421895","0.0-237.0-0.0","""event"",""trial"",""time""
""fullscreenenter"",""0"",""3405""
","
","
","""event"",""trial"",""time""
""fullscreenenter"",""0"",""3405""
","
","1757.6000000000931","run_exp/static/images/Set 6_rs/066b.jpg","78","","","","","","test","TL","5"
"","show_choice","274","422397","0.0-237.0-1.0","""event"",""trial"",""time""
""fullscreenenter"",""0"",""3405""
","
","
","""event"",""trial"",""time""
""fullscreenenter"",""0"",""3405""
","
","null","run_exp/static/images/Set 6_rs/066b.jpg","null","","","","","","test","TL",""
"","html-keyboard-response","275","422899","0.0-237.0-2.0","""event"",""trial"",""time""
""fullscreenenter"",""0"",""3405""
","
","
","""event"",""trial"",""time""
""fullscreenenter"",""0"",""3405""
","
","null","<p></p>","null","","","","","","","",""
"","image","276","424081","0.0-238.0-0.0","""event"",""trial"",""time""
""fullscreenenter"",""0"",""3405""
","
","
","""event"",""trial"",""time""
""fullscreenenter"",""0"",""3405""
","
","1178.7000000000698","run_exp/static/images/Set 6_rs/077a.jpg","78","","","","","","test","TF","3"
"","show_choice","277","424583","0.0-238.0-1.0","""event"",""trial"",""time""
""fullscreenenter"",""0"",""3405""
","
","
","""event"",""trial"",""time""
""fullscreenenter"",""0"",""3405""
","
","null","run_exp/static/images/Set 6_rs/077a.jpg","null","","","","","","test","TF",""
"","html-keyboard-response","278","425085","0.0-238.0-2.0","""event"",""trial"",""time""
""fullscreenenter"",""0"",""3405""
","
","
","""event"",""trial"",""time""
""fullscreenenter"",""0"",""3405""
","
","null","<p></p>","null","","","","","","","",""
"","image","279","426514","0.0-239.0-0.0","""event"",""trial"",""time""
""fullscreenenter"",""0"",""3405""
","
","
","""event"",""trial"",""time""
""fullscreenenter"",""0"",""3405""
","
","1426.5999999999767","run_exp/static/images/Set 6_rs/168b.jpg","66","","","","","","test","TL","3"
"","show_choice","280","427017","0.0-239.0-1.0","""event"",""trial"",""time""
""fullscreenenter"",""0"",""3405""
","
","
","""event"",""trial"",""time""
""fullscreenenter"",""0"",""3405""
","
","null","run_exp/static/images/Set 6_rs/168b.jpg","null","","","","","","test","TL",""
"","html-keyboard-response","281","427519","0.0-239.0-2.0","""event"",""trial"",""time""
""fullscreenenter"",""0"",""3405""
","
","
","""event"",""trial"",""time""
""fullscreenenter"",""0"",""3405""
","
","null","<p></p>","null","","","","","","","",""
"","image","282","428430","0.0-240.0-0.0","""event"",""trial"",""time""
""fullscreenenter"",""0"",""3405""
","
","
","""event"",""trial"",""time""
""fullscreenenter"",""0"",""3405""
","
","908.5","run_exp/static/images/Set 6_rs/078a.jpg","78","","","","","","test","TF","1"
"","show_choice","283","428933","0.0-240.0-1.0","""event"",""trial"",""time""
""fullscreenenter"",""0"",""3405""
","
","
","""event"",""trial"",""time""
""fullscreenenter"",""0"",""3405""
","
","null","run_exp/static/images/Set 6_rs/078a.jpg","null","","","","","","test","TF",""
"","html-keyboard-response","284","429435","0.0-240.0-2.0","""event"",""trial"",""time""
""fullscreenenter"",""0"",""3405""
","
","
","""event"",""trial"",""time""
""fullscreenenter"",""0"",""3405""
","
","null","<p></p>","null","","","","","","","",""
"","image","285","430237","0.0-241.0-0.0","""event"",""trial"",""time""
""fullscreenenter"",""0"",""3405""
","
","
","""event"",""trial"",""time""
""fullscreenenter"",""0"",""3405""
","
","799.5","run_exp/static/images/Set 6_rs/012a.jpg","86","","","","","","test","TR","1"
"","show_choice","286","430739","0.0-241.0-1.0","""event"",""trial"",""time""
""fullscreenenter"",""0"",""3405""
","
","
","""event"",""trial"",""time""
""fullscreenenter"",""0"",""3405""
","
","null","run_exp/static/images/Set 6_rs/012a.jpg","null","","","","","","test","TR",""
"","html-keyboard-response","287","431241","0.0-241.0-2.0","""event"",""trial"",""time""
""fullscreenenter"",""0"",""3405""
","
","
","""event"",""trial"",""time""
""fullscreenenter"",""0"",""3405""
","
","null","<p></p>","null","","","","","","","",""
"","image","288","432530","0.0-242.0-0.0","""event"",""trial"",""time""
""fullscreenenter"",""0"",""3405""
","
","
","""event"",""trial"",""time""
""fullscreenenter"",""0"",""3405""
","
","1286.6999999999534","run_exp/static/images/Set 6_rs/048a.jpg","66","","","","","","test","TF","4"
"","show_choice","289","433033","0.0-242.0-1.0","""event"",""trial"",""time""
""fullscreenenter"",""0"",""3405""
","
","
","""event"",""trial"",""time""
""fullscreenenter"",""0"",""3405""
","
","null","run_exp/static/images/Set 6_rs/048a.jpg","null","","","","","","test","TF",""
"","html-keyboard-response","290","433534","0.0-242.0-2.0","""event"",""trial"",""time""
""fullscreenenter"",""0"",""3405""
","
","
","""event"",""trial"",""time""
""fullscreenenter"",""0"",""3405""
","
","null","<p></p>","null","","","","","","","",""
"","image","291","434556","0.0-243.0-0.0","""event"",""trial"",""time""
""fullscreenenter"",""0"",""3405""
","
","
","""event"",""trial"",""time""
""fullscreenenter"",""0"",""3405""
","
","1019.0999999999767","run_exp/static/images/Set 6_rs/169a.jpg","86","","","","","","test","TR","4"
"","show_choice","292","435059","0.0-243.0-1.0","""event"",""trial"",""time""
""fullscreenenter"",""0"",""3405""
","
","
","""event"",""trial"",""time""
""fullscreenenter"",""0"",""3405""
","
","null","run_exp/static/images/Set 6_rs/169a.jpg","null","","","","","","test","TR",""
"","html-keyboard-response","293","435560","0.0-243.0-2.0","""event"",""trial"",""time""
""fullscreenenter"",""0"",""3405""
","
","
","""event"",""trial"",""time""
""fullscreenenter"",""0"",""3405""
","
","null","<p></p>","null","","","","","","","",""
"","image","294","436352","0.0-244.0-0.0","""event"",""trial"",""time""
""fullscreenenter"",""0"",""3405""
","
","
","""event"",""trial"",""time""
""fullscreenenter"",""0"",""3405""
","
","789.3000000000466","run_exp/static/images/Set 6_rs/166a.jpg","86","","","","","","test","TR","1"
"","show_choice","295","436855","0.0-244.0-1.0","""event"",""trial"",""time""
""fullscreenenter"",""0"",""3405""
","
","
","""event"",""trial"",""time""
""fullscreenenter"",""0"",""3405""
","
","null","run_exp/static/images/Set 6_rs/166a.jpg","null","","","","","","test","TR",""
"","html-keyboard-response","296","437357","0.0-244.0-2.0","""event"",""trial"",""time""
""fullscreenenter"",""0"",""3405""
","
","
","""event"",""trial"",""time""
""fullscreenenter"",""0"",""3405""
","
","null","<p></p>","null","","","","","","","",""
"","image","297","438077","0.0-245.0-0.0","""event"",""trial"",""time""
""fullscreenenter"",""0"",""3405""
","
","
","""event"",""trial"",""time""
""fullscreenenter"",""0"",""3405""
","
","717","run_exp/static/images/Set 6_rs/131a.jpg","86","","","","","","test","TR","5"
"","show_choice","298","438581","0.0-245.0-1.0","""event"",""trial"",""time""
""fullscreenenter"",""0"",""3405""
","
","
","""event"",""trial"",""time""
""fullscreenenter"",""0"",""3405""
","
","null","run_exp/static/images/Set 6_rs/131a.jpg","null","","","","","","test","TR",""
"","html-keyboard-response","299","439083","0.0-245.0-2.0","""event"",""trial"",""time""
""fullscreenenter"",""0"",""3405""
","
","
","""event"",""trial"",""time""
""fullscreenenter"",""0"",""3405""
","
","null","<p></p>","null","","","","","","","",""
"","image","300","439727","0.0-246.0-0.0","""event"",""trial"",""time""
""fullscreenenter"",""0"",""3405""
","
","
","""event"",""trial"",""time""
""fullscreenenter"",""0"",""3405""
","
","640.3999999999069","run_exp/static/images/Set 6_rs/152a.jpg","86","","","","","","test","TR","2"
"","show_choice","301","440231","0.0-246.0-1.0","""event"",""trial"",""time""
""fullscreenenter"",""0"",""3405""
","
","
","""event"",""trial"",""time""
""fullscreenenter"",""0"",""3405""
","
","null","run_exp/static/images/Set 6_rs/152a.jpg","null","","","","","","test","TR",""
"","html-keyboard-response","302","440732","0.0-246.0-2.0","""event"",""trial"",""time""
""fullscreenenter"",""0"",""3405""
","
","
","""event"",""trial"",""time""
""fullscreenenter"",""0"",""3405""
","
","null","<p></p>","null","","","","","","","",""
"","image","303","441330","0.0-247.0-0.0","""event"",""trial"",""time""
""fullscreenenter"",""0"",""3405""
","
","
","""event"",""trial"",""time""
""fullscreenenter"",""0"",""3405""
","
","595.1999999999534","run_exp/static/images/Set 6_rs/024a.jpg","86","","","","","","test","TR","5"
"","show_choice","304","441832","0.0-247.0-1.0","""event"",""trial"",""time""
""fullscreenenter"",""0"",""3405""
","
","
","""event"",""trial"",""time""
""fullscreenenter"",""0"",""3405""
","
","null","run_exp/static/images/Set 6_rs/024a.jpg","null","","","","","","test","TR",""
"","html-keyboard-response","305","442334","0.0-247.0-2.0","""event"",""trial"",""time""
""fullscreenenter"",""0"",""3405""
","
","
","""event"",""trial"",""time""
""fullscreenenter"",""0"",""3405""
","
","null","<p></p>","null","","","","","","","",""
"","image","306","443682","0.0-248.0-0.0","""event"",""trial"",""time""
""fullscreenenter"",""0"",""3405""
","
","
","""event"",""trial"",""time""
""fullscreenenter"",""0"",""3405""
","
","1344.9000000000233","run_exp/static/images/Set 6_rs/079b.jpg","66","","","","","","test","TL","5"
"","show_choice","307","444184","0.0-248.0-1.0","""event"",""trial"",""time""
""fullscreenenter"",""0"",""3405""
","
","
","""event"",""trial"",""time""
""fullscreenenter"",""0"",""3405""
","
","null","run_exp/static/images/Set 6_rs/079b.jpg","null","","","","","","test","TL",""
"","html-keyboard-response","308","444686","0.0-248.0-2.0","""event"",""trial"",""time""
""fullscreenenter"",""0"",""3405""
","
","
","""event"",""trial"",""time""
""fullscreenenter"",""0"",""3405""
","
","null","<p></p>","null","","","","","","","",""
"","image","309","445662","0.0-249.0-0.0","""event"",""trial"",""time""
""fullscreenenter"",""0"",""3405""
","
","
","""event"",""trial"",""time""
""fullscreenenter"",""0"",""3405""
","
","972.5999999999767","run_exp/static/images/Set 6_rs/010a.jpg","86","","","","","","test","TR","5"
"","show_choice","310","446164","0.0-249.0-1.0","""event"",""trial"",""time""
""fullscreenenter"",""0"",""3405""
","
","
","""event"",""trial"",""time""
""fullscreenenter"",""0"",""3405""
","
","null","run_exp/static/images/Set 6_rs/010a.jpg","null","","","","","","test","TR",""
"","html-keyboard-response","311","446666","0.0-249.0-2.0","""event"",""trial"",""time""
""fullscreenenter"",""0"",""3405""
","
","
","""event"",""trial"",""time""
""fullscreenenter"",""0"",""3405""
","
","null","<p></p>","null","","","","","","","",""
"","image","312","447696","0.0-250.0-0.0","""event"",""trial"",""time""
""fullscreenenter"",""0"",""3405""
","
","
","""event"",""trial"",""time""
""fullscreenenter"",""0"",""3405""
","
","1027.4000000000233","run_exp/static/images/Set 6_rs/001a.jpg","78","","","","","","test","TF","1"
"","show_choice","313","448198","0.0-250.0-1.0","""event"",""trial"",""time""
""fullscreenenter"",""0"",""3405""
","
","
","""event"",""trial"",""time""
""fullscreenenter"",""0"",""3405""
","
","null","run_exp/static/images/Set 6_rs/001a.jpg","null","","","","","","test","TF",""
"","html-keyboard-response","314","448700","0.0-250.0-2.0","""event"",""trial"",""time""
""fullscreenenter"",""0"",""3405""
","
","
","""event"",""trial"",""time""
""fullscreenenter"",""0"",""3405""
","
","null","<p></p>","null","","","","","","","",""
"","image","315","449592","0.0-251.0-0.0","""event"",""trial"",""time""
""fullscreenenter"",""0"",""3405""
","
","
","""event"",""trial"",""time""
""fullscreenenter"",""0"",""3405""
","
","889","run_exp/static/images/Set 6_rs/085b.jpg","86","","","","","","test","TL","1"
"","show_choice","316","450095","0.0-251.0-1.0","""event"",""trial"",""time""
""fullscreenenter"",""0"",""3405""
","
","
","""event"",""trial"",""time""
""fullscreenenter"",""0"",""3405""
","
","null","run_exp/static/images/Set 6_rs/085b.jpg","null","","","","","","test","TL",""
"","html-keyboard-response","317","450596","0.0-251.0-2.0","""event"",""trial"",""time""
""fullscreenenter"",""0"",""3405""
","
","
","""event"",""trial"",""time""
""fullscreenenter"",""0"",""3405""
","
","null","<p></p>","null","","","","","","","",""
"","image","318","451425","0.0-252.0-0.0","""event"",""trial"",""time""
""fullscreenenter"",""0"",""3405""
","
","
","""event"",""trial"",""time""
""fullscreenenter"",""0"",""3405""
","
","824.9000000000233","run_exp/static/images/Set 6_rs/108a.jpg","86","","","","","","test","TR","5"
"","show_choice","319","451927","0.0-252.0-1.0","""event"",""trial"",""time""
""fullscreenenter"",""0"",""3405""
","
","
","""event"",""trial"",""time""
""fullscreenenter"",""0"",""3405""
","
","null","run_exp/static/images/Set 6_rs/108a.jpg","null","","","","","","test","TR",""
"","html-keyboard-response","320","452429","0.0-252.0-2.0","""event"",""trial"",""time""
""fullscreenenter"",""0"",""3405""
","
","
","""event"",""trial"",""time""
""fullscreenenter"",""0"",""3405""
","
","null","<p></p>","null","","","","","","","",""
"","image","321","453909","0.0-253.0-0.0","""event"",""trial"",""time""
""fullscreenenter"",""0"",""3405""
","
","
","""event"",""trial"",""time""
""fullscreenenter"",""0"",""3405""
","
","1476.8999999999069","run_exp/static/images/Set 6_rs/005a.jpg","78","","","","","","test","TF","5"
"","show_choice","322","454412","0.0-253.0-1.0","""event"",""trial"",""time""
""fullscreenenter"",""0"",""3405""
","
","
","""event"",""trial"",""time""
""fullscreenenter"",""0"",""3405""
","
","null","run_exp/static/images/Set 6_rs/005a.jpg","null","","","","","","test","TF",""
"","html-keyboard-response","323","454914","0.0-253.0-2.0","""event"",""trial"",""time""
""fullscreenenter"",""0"",""3405""
","
","
","""event"",""trial"",""time""
""fullscreenenter"",""0"",""3405""
","
","null","<p></p>","null","","","","","","","",""
"","image","324","455759","0.0-254.0-0.0","""event"",""trial"",""time""
""fullscreenenter"",""0"",""3405""
","
","
","""event"",""trial"",""time""
""fullscreenenter"",""0"",""3405""
","
","842.6999999999534","run_exp/static/images/Set 6_rs/134a.jpg","86","","","","","","test","TR","3"
"","show_choice","325","456261","0.0-254.0-1.0","""event"",""trial"",""time""
""fullscreenenter"",""0"",""3405""
","
","
","""event"",""trial"",""time""
""fullscreenenter"",""0"",""3405""
","
","null","run_exp/static/images/Set 6_rs/134a.jpg","null","","","","","","test","TR",""
"","html-keyboard-response","326","456764","0.0-254.0-2.0","""event"",""trial"",""time""
""fullscreenenter"",""0"",""3405""
","
","
","""event"",""trial"",""time""
""fullscreenenter"",""0"",""3405""
","
","null","<p></p>","null","","","","","","","",""
"","image","327","457657","0.0-255.0-0.0","""event"",""trial"",""time""
""fullscreenenter"",""0"",""3405""
","
","
","""event"",""trial"",""time""
""fullscreenenter"",""0"",""3405""
","
","890.2999999999302","run_exp/static/images/Set 6_rs/172a.jpg","86","","","","","","test","TR","1"
"","show_choice","328","458160","0.0-255.0-1.0","""event"",""trial"",""time""
""fullscreenenter"",""0"",""3405""
","
","
","""event"",""trial"",""time""
""fullscreenenter"",""0"",""3405""
","
","null","run_exp/static/images/Set 6_rs/172a.jpg","null","","","","","","test","TR",""
"","html-keyboard-response","329","458661","0.0-255.0-2.0","""event"",""trial"",""time""
""fullscreenenter"",""0"",""3405""
","
","
","""event"",""trial"",""time""
""fullscreenenter"",""0"",""3405""
","
","null","<p></p>","null","","","","","","","",""
"","image","330","459573","0.0-256.0-0.0","""event"",""trial"",""time""
""fullscreenenter"",""0"",""3405""
","
","
","""event"",""trial"",""time""
""fullscreenenter"",""0"",""3405""
","
","908.5999999999767","run_exp/static/images/Set 6_rs/178a.jpg","86","","","","","","test","TR","3"
"","show_choice","331","460075","0.0-256.0-1.0","""event"",""trial"",""time""
""fullscreenenter"",""0"",""3405""
","
","
","""event"",""trial"",""time""
""fullscreenenter"",""0"",""3405""
","
","null","run_exp/static/images/Set 6_rs/178a.jpg","null","","","","","","test","TR",""
"","html-keyboard-response","332","460577","0.0-256.0-2.0","""event"",""trial"",""time""
""fullscreenenter"",""0"",""3405""
","
","
","""event"",""trial"",""time""
""fullscreenenter"",""0"",""3405""
","
","null","<p></p>","null","","","","","","","",""
"","image","333","461314","0.0-257.0-0.0","""event"",""trial"",""time""
""fullscreenenter"",""0"",""3405""
","
","
","""event"",""trial"",""time""
""fullscreenenter"",""0"",""3405""
","
","733.9000000000233","run_exp/static/images/Set 6_rs/132a.jpg","86","","","","","","test","TR","5"
"","show_choice","334","461816","0.0-257.0-1.0","""event"",""trial"",""time""
""fullscreenenter"",""0"",""3405""
","
","
","""event"",""trial"",""time""
""fullscreenenter"",""0"",""3405""
","
","null","run_exp/static/images/Set 6_rs/132a.jpg","null","","","","","","test","TR",""
"","html-keyboard-response","335","462318","0.0-257.0-2.0","""event"",""trial"",""time""
""fullscreenenter"",""0"",""3405""
","
","
","""event"",""trial"",""time""
""fullscreenenter"",""0"",""3405""
","
","null","<p></p>","null","","","","","","","",""
"","image","336","463326","0.0-258.0-0.0","""event"",""trial"",""time""
""fullscreenenter"",""0"",""3405""
","
","
","""event"",""trial"",""time""
""fullscreenenter"",""0"",""3405""
","
","1004.5","run_exp/static/images/Set 6_rs/076a.jpg","86","","","","","","test","TR","4"
"","show_choice","337","463828","0.0-258.0-1.0","""event"",""trial"",""time""
""fullscreenenter"",""0"",""3405""
","
","
","""event"",""trial"",""time""
""fullscreenenter"",""0"",""3405""
","
","null","run_exp/static/images/Set 6_rs/076a.jpg","null","","","","","","test","TR",""
"","html-keyboard-response","338","464330","0.0-258.0-2.0","""event"",""trial"",""time""
""fullscreenenter"",""0"",""3405""
","
","
","""event"",""trial"",""time""
""fullscreenenter"",""0"",""3405""
","
","null","<p></p>","null","","","","","","","",""
"","image","339","465585","0.0-259.0-0.0","""event"",""trial"",""time""
""fullscreenenter"",""0"",""3405""
","
","
","""event"",""trial"",""time""
""fullscreenenter"",""0"",""3405""
","
","1251.8999999999069","run_exp/static/images/Set 6_rs/154a.jpg","86","","","","","","test","TR","3"
"","show_choice","340","466087","0.0-259.0-1.0","""event"",""trial"",""time""
""fullscreenenter"",""0"",""3405""
","
","
","""event"",""trial"",""time""
""fullscreenenter"",""0"",""3405""
","
