"success","trial_type","trial_index","time_elapsed","internal_node_id","interactions","blur_events","focus_events","fullscreenenter_events","fullscreenexit_events","rt","stimulus","key_press","subject_id","participant_id","age","gender","prompt","phase","condition","lure_bin"
"true","fullscreen","0","4705","0.0-0.0","""event"",""trial"",""time""
""fullscreenenter"",""0"",""3908""
","
","
","""event"",""trial"",""time""
""fullscreenenter"",""0"",""3908""
","
","","","","","","","","","","",""
"","pavlovia","1","4718","0.0-1.0","""event"",""trial"",""time""
""fullscreenenter"",""0"",""3908""
","
","
","""event"",""trial"",""time""
""fullscreenenter"",""0"",""3908""
","
","","","","","","","","","","",""
"","welcome","2","39800","0.0-2.0","""event"",""trial"",""time""
""fullscreenenter"",""0"",""3908""
","
","
","""event"",""trial"",""time""
""fullscreenenter"",""0"",""3908""
","
","null","run_exp/static/audio/clip_1_welcome.m4a","null","596","179","20","Female","<div class='center'><p>Welcome to the third part of the study! First, you'll be shown pictures of items one at a time. For each picture, you have to decide if the item is typically found indoors or outdoors.</p><p>If you think it's usually found indoors, then press <b>v</b> key on your keyboard. If you think it's usually found outdoors, then press the <b>n</b> key.There will be reminders on the screen to help you remember which keys to press. </p><p>If you're not sure whether the item is an indoor item or an outdoor item, go ahead and take a guess but try your best not to skip that choice. </p></div>","","",""
"","html-keyboard-response","3","42615","0.0-3.0","""event"",""trial"",""time""
""fullscreenenter"",""0"",""3908""
","
","
","""event"",""trial"",""time""
""fullscreenenter"",""0"",""3908""
","
","2797.199999999255","<div class='center'><p>Welcome to the third part of the study! First, you'll be shown pictures of items one at a time. For each picture, you have to decide if the item is typically found indoors or outdoors.</p><p>If you think it's usually found indoors, then press <b>v</b> key on your keyboard. If you think it's usually found outdoors, then press the <b>n</b> key.There will be reminders on the screen to help you remember which keys to press. </p><p>If you're not sure whether the item is an indoor item or an outdoor item, go ahead and take a guess but try your best not to skip that choice. </p><div><p><b>[Press the space bar to continue]</b></p></div>","32","","","","","","","",""
"","image","4","44142","0.0-4.0","""event"",""trial"",""time""
""fullscreenenter"",""0"",""3908""
","
","
","""event"",""trial"",""time""
""fullscreenenter"",""0"",""3908""
","
","1523.800000000745","run_exp/static/images/Set 6_rs/019a.jpg","86","","","","","","learn","SL",""
"","show_choice","5","44622","0.0-5.0","""event"",""trial"",""time""
""fullscreenenter"",""0"",""3908""
","
","
","""event"",""trial"",""time""
""fullscreenenter"",""0"",""3908""
","
","null","run_exp/static/images/Set 6_rs/019a.jpg","null","","","","","","learn","SL",""
"","html-keyboard-response","6","45126","0.0-6.0","""event"",""trial"",""time""
""fullscreenenter"",""0"",""3908""
","
","
","""event"",""trial"",""time""
""fullscreenenter"",""0"",""3908""
","
","null","<p></p>","null","","","","","","","",""
"","image","7","46299","0.0-7.0","""event"",""trial"",""time""
""fullscreenenter"",""0"",""3908""
","
","
","""event"",""trial"",""time""
""fullscreenenter"",""0"",""3908""
","
","1171.300000000745","run_exp/static/images/Set 6_rs/167a.jpg","78","","","","","","learn","SL",""
"","show_choice","8","47130","0.0-8.0","""event"",""trial"",""time""
""fullscreenenter"",""0"",""3908""
","
","
","""event"",""trial"",""time""
""fullscreenenter"",""0"",""3908""
","
","null","run_exp/static/images/Set 6_rs/167a.jpg","null","","","","","","learn","SL",""
"","html-keyboard-response","9","47636","0.0-9.0","""event"",""trial"",""time""
""fullscreenenter"",""0"",""3908""
","
","
","""event"",""trial"",""time""
""fullscreenenter"",""0"",""3908""
","
","null","<p></p>","null","","","","","","","",""
"","image","10","49090","0.0-10.0","""event"",""trial"",""time""
""fullscreenenter"",""0"",""3908""
","
","
","""event"",""trial"",""time""
""fullscreenenter"",""0"",""3908""
","
","1452.3999999985099","run_exp/static/images/Set 6_rs/131a.jpg","86","","","","","","learn","SR",""
"","show_choice","11","49640","0.0-11.0","""event"",""trial"",""time""
""fullscreenenter"",""0"",""3908""
","
","
","""event"",""trial"",""time""
""fullscreenenter"",""0"",""3908""
","
","null","run_exp/static/images/Set 6_rs/131a.jpg","null","","","","","","learn","SR",""
"","html-keyboard-response","12","50142","0.0-12.0","""event"",""trial"",""time""
""fullscreenenter"",""0"",""3908""
","
","
","""event"",""trial"",""time""
""fullscreenenter"",""0"",""3908""
","
","null","<p></p>","null","","","","","","","",""
"","image","13","51184","0.0-13.0","""event"",""trial"",""time""
""fullscreenenter"",""0"",""3908""
","
","
","""event"",""trial"",""time""
""fullscreenenter"",""0"",""3908""
","
","1040.4000000022352","run_exp/static/images/Set 6_rs/108a.jpg","78","","","","","","learn","SR",""
"","show_choice","14","52149","0.0-14.0","""event"",""trial"",""time""
""fullscreenenter"",""0"",""3908""
","
","
","""event"",""trial"",""time""
""fullscreenenter"",""0"",""3908""
","
","null","run_exp/static/images/Set 6_rs/108a.jpg","null","","","","","","learn","SR",""
"","html-keyboard-response","15","52650","0.0-15.0","""event"",""trial"",""time""
""fullscreenenter"",""0"",""3908""
","
","
","""event"",""trial"",""time""
""fullscreenenter"",""0"",""3908""
","
","null","<p></p>","null","","","","","","","",""
"","image","16","53823","0.0-16.0","""event"",""trial"",""time""
""fullscreenenter"",""0"",""3908""
","
","
","""event"",""trial"",""time""
""fullscreenenter"",""0"",""3908""
","
","1171.4000000022352","run_exp/static/images/Set 6_rs/169a.jpg","78","","","","","","learn","SR",""
"","show_choice","17","54653","0.0-17.0","""event"",""trial"",""time""
""fullscreenenter"",""0"",""3908""
","
","
","""event"",""trial"",""time""
""fullscreenenter"",""0"",""3908""
","
","null","run_exp/static/images/Set 6_rs/169a.jpg","null","","","","","","learn","SR",""
"","html-keyboard-response","18","55157","0.0-18.0","""event"",""trial"",""time""
""fullscreenenter"",""0"",""3908""
","
","
","""event"",""trial"",""time""
""fullscreenenter"",""0"",""3908""
","
","null","<p></p>","null","","","","","","","",""
"","image","19","56299","0.0-19.0","""event"",""trial"",""time""
""fullscreenenter"",""0"",""3908""
","
","
","""event"",""trial"",""time""
""fullscreenenter"",""0"",""3908""
","
","1141.199999999255","run_exp/static/images/Set 6_rs/023a.jpg","86","","","","","","learn","SR",""
"","show_choice","20","57163","0.0-20.0","""event"",""trial"",""time""
""fullscreenenter"",""0"",""3908""
","
","
","""event"",""trial"",""time""
""fullscreenenter"",""0"",""3908""
","
","null","run_exp/static/images/Set 6_rs/023a.jpg","null","","","","","","learn","SR",""
"","html-keyboard-response","21","57664","0.0-21.0","""event"",""trial"",""time""
""fullscreenenter"",""0"",""3908""
","
","
","""event"",""trial"",""time""
""fullscreenenter"",""0"",""3908""
","
","null","<p></p>","null","","","","","","","",""
"","image","22","58698","0.0-22.0","""event"",""trial"",""time""
""fullscreenenter"",""0"",""3908""
","
","
","""event"",""trial"",""time""
""fullscreenenter"",""0"",""3908""
","
","1033.2999999970198","run_exp/static/images/Set 6_rs/178a.jpg","78","","","","","","learn","SR",""
"","show_choice","23","59667","0.0-23.0","""event"",""trial"",""time""
""fullscreenenter"",""0"",""3908""
","
","
","""event"",""trial"",""time""
""fullscreenenter"",""0"",""3908""
","
","null","run_exp/static/images/Set 6_rs/178a.jpg","null","","","","","","learn","SR",""
"","html-keyboard-response","24","60174","0.0-24.0","""event"",""trial"",""time""
""fullscreenenter"",""0"",""3908""
","
","
","""event"",""trial"",""time""
""fullscreenenter"",""0"",""3908""
","
","null","<p></p>","null","","","","","","","",""
"","image","25","60879","0.0-25.0","""event"",""trial"",""time""
""fullscreenenter"",""0"",""3908""
","
","
","""event"",""trial"",""time""
""fullscreenenter"",""0"",""3908""
","
","703.6000000014901","run_exp/static/images/Set 6_rs/010a.jpg","86","","","","","","learn","SR",""
"","show_choice","26","62177","0.0-26.0","""event"",""trial"",""time""
""fullscreenenter"",""0"",""3908""
","
","
","""event"",""trial"",""time""
""fullscreenenter"",""0"",""3908""
","
","null","run_exp/static/images/Set 6_rs/010a.jpg","null","","","","","","learn","SR",""
"","html-keyboard-response","27","62680","0.0-27.0","""event"",""trial"",""time""
""fullscreenenter"",""0"",""3908""
","
","
","""event"",""trial"",""time""
""fullscreenenter"",""0"",""3908""
","
","null","<p></p>","null","","","","","","","",""
"","image","28","63944","0.0-28.0","""event"",""trial"",""time""
""fullscreenenter"",""0"",""3908""
","
","
","""event"",""trial"",""time""
""fullscreenenter"",""0"",""3908""
","
","1262.1000000014901","run_exp/static/images/Set 6_rs/117a.jpg","86","","","","","","learn","SL",""
"","show_choice","29","64685","0.0-29.0","""event"",""trial"",""time""
""fullscreenenter"",""0"",""3908""
","
","
","""event"",""trial"",""time""
""fullscreenenter"",""0"",""3908""
","
","null","run_exp/static/images/Set 6_rs/117a.jpg","null","","","","","","learn","SL",""
"","html-keyboard-response","30","65191","0.0-30.0","""event"",""trial"",""time""
""fullscreenenter"",""0"",""3908""
","
","
","""event"",""trial"",""time""
""fullscreenenter"",""0"",""3908""
","
","null","<p></p>","null","","","","","","","",""
"","image","31","66214","0.0-31.0","""event"",""trial"",""time""
""fullscreenenter"",""0"",""3908""
","
","
","""event"",""trial"",""time""
""fullscreenenter"",""0"",""3908""
","
","1021.3000000007451","run_exp/static/images/Set 6_rs/129a.jpg","86","","","","","","learn","SL",""
"","show_choice","32","67196","0.0-32.0","""event"",""trial"",""time""
""fullscreenenter"",""0"",""3908""
","
","
","""event"",""trial"",""time""
""fullscreenenter"",""0"",""3908""
","
","null","run_exp/static/images/Set 6_rs/129a.jpg","null","","","","","","learn","SL",""
"","html-keyboard-response","33","67700","0.0-33.0","""event"",""trial"",""time""
""fullscreenenter"",""0"",""3908""
","
","
","""event"",""trial"",""time""
""fullscreenenter"",""0"",""3908""
","
","null","<p></p>","null","","","","","","","",""
"","image","34","69706","0.0-34.0","""event"",""trial"",""time""
""fullscreenenter"",""0"",""3908""
","
","
","""event"",""trial"",""time""
""fullscreenenter"",""0"",""3908""
","
","null","run_exp/static/images/Set 6_rs/121a.jpg","null","","","","","","learn","SR",""
"","show_choice","35","71711","0.0-35.0","""event"",""trial"",""time""
""fullscreenenter"",""0"",""3908""
","
","
","""event"",""trial"",""time""
""fullscreenenter"",""0"",""3908""
","
","null","run_exp/static/images/blank.png","null","","","","","","learn","SR",""
"","html-keyboard-response","36","72212","0.0-36.0","""event"",""trial"",""time""
""fullscreenenter"",""0"",""3908""
","
","
","""event"",""trial"",""time""
""fullscreenenter"",""0"",""3908""
","
","null","<p></p>","null","","","","","","","",""
"","image","37","73459","0.0-37.0","""event"",""trial"",""time""
""fullscreenenter"",""0"",""3908""
","
","
","""event"",""trial"",""time""
""fullscreenenter"",""0"",""3908""
","
","1244.9000000022352","run_exp/static/images/Set 6_rs/126a.jpg","78","","","","","","learn","SR",""
"","show_choice","38","74218","0.0-38.0","""event"",""trial"",""time""
""fullscreenenter"",""0"",""3908""
","
","
","""event"",""trial"",""time""
""fullscreenenter"",""0"",""3908""
","
","null","run_exp/static/images/Set 6_rs/126a.jpg","null","","","","","","learn","SR",""
"","html-keyboard-response","39","74724","0.0-39.0","""event"",""trial"",""time""
""fullscreenenter"",""0"",""3908""
","
","
","""event"",""trial"",""time""
""fullscreenenter"",""0"",""3908""
","
","null","<p></p>","null","","","","","","","",""
"","image","40","75733","0.0-40.0","""event"",""trial"",""time""
""fullscreenenter"",""0"",""3908""
","
","
","""event"",""trial"",""time""
""fullscreenenter"",""0"",""3908""
","
","1006.8000000007451","run_exp/static/images/Set 6_rs/116a.jpg","86","","","","","","learn","SL",""
"","show_choice","41","76730","0.0-41.0","""event"",""trial"",""time""
""fullscreenenter"",""0"",""3908""
","
","
","""event"",""trial"",""time""
""fullscreenenter"",""0"",""3908""
","
","null","run_exp/static/images/Set 6_rs/116a.jpg","null","","","","","","learn","SL",""
"","html-keyboard-response","42","77232","0.0-42.0","""event"",""trial"",""time""
""fullscreenenter"",""0"",""3908""
","
","
","""event"",""trial"",""time""
""fullscreenenter"",""0"",""3908""
","
","null","<p></p>","null","","","","","","","",""
"","image","43","78319","0.0-43.0","""event"",""trial"",""time""
""fullscreenenter"",""0"",""3908""
","
","
","""event"",""trial"",""time""
""fullscreenenter"",""0"",""3908""
","
","1085.300000000745","run_exp/static/images/Set 6_rs/138a.jpg","78","","","","","","learn","SL",""
"","show_choice","44","79236","0.0-44.0","""event"",""trial"",""time""
""fullscreenenter"",""0"",""3908""
","
","
","""event"",""trial"",""time""
""fullscreenenter"",""0"",""3908""
","
","null","run_exp/static/images/Set 6_rs/138a.jpg","null","","","","","","learn","SL",""
"","html-keyboard-response","45","79742","0.0-45.0","""event"",""trial"",""time""
""fullscreenenter"",""0"",""3908""
","
","
","""event"",""trial"",""time""
""fullscreenenter"",""0"",""3908""
","
","null","<p></p>","null","","","","","","","",""
"","image","46","80367","0.0-46.0","""event"",""trial"",""time""
""fullscreenenter"",""0"",""3908""
","
","
","""event"",""trial"",""time""
""fullscreenenter"",""0"",""3908""
","
","622.6000000014901","run_exp/static/images/Set 6_rs/007a.jpg","86","","","","","","learn","SR",""
"","show_choice","47","81749","0.0-47.0","""event"",""trial"",""time""
""fullscreenenter"",""0"",""3908""
","
","
","""event"",""trial"",""time""
""fullscreenenter"",""0"",""3908""
","
","null","run_exp/static/images/Set 6_rs/007a.jpg","null","","","","","","learn","SR",""
"","html-keyboard-response","48","82255","0.0-48.0","""event"",""trial"",""time""
""fullscreenenter"",""0"",""3908""
","
","
","""event"",""trial"",""time""
""fullscreenenter"",""0"",""3908""
","
","null","<p></p>","null","","","","","","","",""
"","image","49","83157","0.0-49.0","""event"",""trial"",""time""
""fullscreenenter"",""0"",""3908""
","
","
","""event"",""trial"",""time""
""fullscreenenter"",""0"",""3908""
","
","900","run_exp/static/images/Set 6_rs/123a.jpg","78","","","","","","learn","SL",""
"","show_choice","50","84259","0.0-50.0","""event"",""trial"",""time""
""fullscreenenter"",""0"",""3908""
","
","
","""event"",""trial"",""time""
""fullscreenenter"",""0"",""3908""
","
","null","run_exp/static/images/Set 6_rs/123a.jpg","null","","","","","","learn","SL",""
"","html-keyboard-response","51","84765","0.0-51.0","""event"",""trial"",""time""
""fullscreenenter"",""0"",""3908""
","
","
","""event"",""trial"",""time""
""fullscreenenter"",""0"",""3908""
","
","null","<p></p>","null","","","","","","","",""
"","image","52","86489","0.0-52.0","""event"",""trial"",""time""
""fullscreenenter"",""0"",""3908""
","
","
","""event"",""trial"",""time""
""fullscreenenter"",""0"",""3908""
","
","1722.3999999985099","run_exp/static/images/Set 6_rs/085a.jpg","86","","","","","","learn","SL",""
"","show_choice","53","86768","0.0-53.0","""event"",""trial"",""time""
""fullscreenenter"",""0"",""3908""
","
","
","""event"",""trial"",""time""
""fullscreenenter"",""0"",""3908""
","
","null","run_exp/static/images/Set 6_rs/085a.jpg","null","","","","","","learn","SL",""
"","html-keyboard-response","54","87273","0.0-54.0","""event"",""trial"",""time""
""fullscreenenter"",""0"",""3908""
","
","
","""event"",""trial"",""time""
""fullscreenenter"",""0"",""3908""
","
","null","<p></p>","null","","","","","","","",""
"","image","55","88264","0.0-55.0","""event"",""trial"",""time""
""fullscreenenter"",""0"",""3908""
","
","
","""event"",""trial"",""time""
""fullscreenenter"",""0"",""3908""
","
","990.3999999985099","run_exp/static/images/Set 6_rs/111a.jpg","86","","","","","","learn","SL",""
"","show_choice","56","89279","0.0-56.0","""event"",""trial"",""time""
""fullscreenenter"",""0"",""3908""
","
","
","""event"",""trial"",""time""
""fullscreenenter"",""0"",""3908""
","
","null","run_exp/static/images/Set 6_rs/111a.jpg","null","","","","","","learn","SL",""
"","html-keyboard-response","57","89781","0.0-57.0","""event"",""trial"",""time""
""fullscreenenter"",""0"",""3908""
","
","
","""event"",""trial"",""time""
""fullscreenenter"",""0"",""3908""
","
","null","<p></p>","null","","","","","","","",""
"","image","58","90559","0.0-58.0","""event"",""trial"",""time""
""fullscreenenter"",""0"",""3908""
","
","
","""event"",""trial"",""time""
""fullscreenenter"",""0"",""3908""
","
","777.5999999977648","run_exp/static/images/Set 6_rs/177a.jpg","78","","","","","","learn","SR",""
"","show_choice","59","91784","0.0-59.0","""event"",""trial"",""time""
""fullscreenenter"",""0"",""3908""
","
","
","""event"",""trial"",""time""
""fullscreenenter"",""0"",""3908""
","
","null","run_exp/static/images/Set 6_rs/177a.jpg","null","","","","","","learn","SR",""
"","html-keyboard-response","60","92286","0.0-60.0","""event"",""trial"",""time""
""fullscreenenter"",""0"",""3908""
","
","
","""event"",""trial"",""time""
""fullscreenenter"",""0"",""3908""
","
","null","<p></p>","null","","","","","","","",""
"","image","61","94069","0.0-61.0","""event"",""trial"",""time""
""fullscreenenter"",""0"",""3908""
","
","
","""event"",""trial"",""time""
""fullscreenenter"",""0"",""3908""
","
","1781.800000000745","run_exp/static/images/Set 6_rs/134a.jpg","86","","","","","","learn","SR",""
"","show_choice","62","94292","0.0-62.0","""event"",""trial"",""time""
""fullscreenenter"",""0"",""3908""
","
","
","""event"",""trial"",""time""
""fullscreenenter"",""0"",""3908""
","
","null","run_exp/static/images/Set 6_rs/134a.jpg","null","","","","","","learn","SR",""
"","html-keyboard-response","63","94797","0.0-63.0","""event"",""trial"",""time""
""fullscreenenter"",""0"",""3908""
","
","
","""event"",""trial"",""time""
""fullscreenenter"",""0"",""3908""
","
","null","<p></p>","null","","","","","","","",""
"","image","64","96160","0.0-64.0","""event"",""trial"",""time""
""fullscreenenter"",""0"",""3908""
","
","
","""event"",""trial"",""time""
""fullscreenenter"",""0"",""3908""
","
","1361.5","run_exp/static/images/Set 6_rs/191a.jpg","78","","","","","","learn","SL",""
"","show_choice","65","96799","0.0-65.0","""event"",""trial"",""time""
""fullscreenenter"",""0"",""3908""
","
","
","""event"",""trial"",""time""
""fullscreenenter"",""0"",""3908""
","
","null","run_exp/static/images/Set 6_rs/191a.jpg","null","","","","","","learn","SL",""
"","html-keyboard-response","66","97301","0.0-66.0","""event"",""trial"",""time""
""fullscreenenter"",""0"",""3908""
","
","
","""event"",""trial"",""time""
""fullscreenenter"",""0"",""3908""
","
","null","<p></p>","null","","","","","","","",""
"","image","67","98207","0.0-67.0","""event"",""trial"",""time""
""fullscreenenter"",""0"",""3908""
","
","
","""event"",""trial"",""time""
""fullscreenenter"",""0"",""3908""
","
","905.2000000029802","run_exp/static/images/Set 6_rs/076a.jpg","78","","","","","","learn","SR",""
"","show_choice","68","99303","0.0-68.0","""event"",""trial"",""time""
""fullscreenenter"",""0"",""3908""
","
","
","""event"",""trial"",""time""
""fullscreenenter"",""0"",""3908""
","
","null","run_exp/static/images/Set 6_rs/076a.jpg","null","","","","","","learn","SR",""
"","html-keyboard-response","69","99805","0.0-69.0","""event"",""trial"",""time""
""fullscreenenter"",""0"",""3908""
","
","
","""event"",""trial"",""time""
""fullscreenenter"",""0"",""3908""
","
","null","<p></p>","null","","","","","","","",""
"","image","70","100888","0.0-70.0","""event"",""trial"",""time""
""fullscreenenter"",""0"",""3908""
","
","
","""event"",""trial"",""time""
""fullscreenenter"",""0"",""3908""
","
","1081.199999999255","run_exp/static/images/Set 6_rs/074a.jpg","78","","","","","","learn","SL",""
"","show_choice","71","101809","0.0-71.0","""event"",""trial"",""time""
""fullscreenenter"",""0"",""3908""
","
","
","""event"",""trial"",""time""
""fullscreenenter"",""0"",""3908""
","
","null","run_exp/static/images/Set 6_rs/074a.jpg","null","","","","","","learn","SL",""
"","html-keyboard-response","72","102315","0.0-72.0","""event"",""trial"",""time""
""fullscreenenter"",""0"",""3908""
","
","
","""event"",""trial"",""time""
""fullscreenenter"",""0"",""3908""
","
","null","<p></p>","null","","","","","","","",""
"","image","73","103362","0.0-73.0","""event"",""trial"",""time""
""fullscreenenter"",""0"",""3908""
","
","
","""event"",""trial"",""time""
""fullscreenenter"",""0"",""3908""
","
","1045.9000000022352","run_exp/static/images/Set 6_rs/141a.jpg","78","","","","","","learn","SR",""
"","show_choice","74","104319","0.0-74.0","""event"",""trial"",""time""
""fullscreenenter"",""0"",""3908""
","
","
","""event"",""trial"",""time""
""fullscreenenter"",""0"",""3908""
","
","null","run_exp/static/images/Set 6_rs/141a.jpg","null","","","","","","learn","SR",""
"","html-keyboard-response","75","104820","0.0-75.0","""event"",""trial"",""time""
""fullscreenenter"",""0"",""3908""
","
","
","""event"",""trial"",""time""
""fullscreenenter"",""0"",""3908""
","
","null","<p></p>","null","","","","","","","",""
"","image","76","105973","0.0-76.0","""event"",""trial"",""time""
""fullscreenenter"",""0"",""3908""
","
","
","""event"",""trial"",""time""
""fullscreenenter"",""0"",""3908""
","
","1151.800000000745","run_exp/static/images/Set 6_rs/150a.jpg","86","","","","","","learn","SR",""
"","show_choice","77","106825","0.0-77.0","""event"",""trial"",""time""
""fullscreenenter"",""0"",""3908""
","
","
","""event"",""trial"",""time""
""fullscreenenter"",""0"",""3908""
","
","null","run_exp/static/images/Set 6_rs/150a.jpg","null","","","","","","learn","SR",""
"","html-keyboard-response","78","107331","0.0-78.0","""event"",""trial"",""time""
""fullscreenenter"",""0"",""3908""
","
","
","""event"",""trial"",""time""
""fullscreenenter"",""0"",""3908""
","
","null","<p></p>","null","","","","","","","",""
"","image","79","108224","0.0-79.0","""event"",""trial"",""time""
""fullscreenenter"",""0"",""3908""
","
","
","""event"",""trial"",""time""
""fullscreenenter"",""0"",""3908""
","
","889.7000000029802","run_exp/static/images/Set 6_rs/075a.jpg","86","","","","","","learn","SR",""
"","show_choice","80","109336","0.0-80.0","""event"",""trial"",""time""
""fullscreenenter"",""0"",""3908""
","
","
","""event"",""trial"",""time""
""fullscreenenter"",""0"",""3908""
","
","null","run_exp/static/images/Set 6_rs/075a.jpg","null","","","","","","learn","SR",""
"","html-keyboard-response","81","109837","0.0-81.0","""event"",""trial"",""time""
""fullscreenenter"",""0"",""3908""
","
","
","""event"",""trial"",""time""
""fullscreenenter"",""0"",""3908""
","
","null","<p></p>","null","","","","","","","",""
"","image","82","111035","0.0-82.0","""event"",""trial"",""time""
""fullscreenenter"",""0"",""3908""
","
","
","""event"",""trial"",""time""
""fullscreenenter"",""0"",""3908""
","
","1196.300000000745","run_exp/static/images/Set 6_rs/187a.jpg","86","","","","","","learn","SR",""
"","show_choice","83","111840","0.0-83.0","""event"",""trial"",""time""
""fullscreenenter"",""0"",""3908""
","
","
","""event"",""trial"",""time""
""fullscreenenter"",""0"",""3908""
","
","null","run_exp/static/images/Set 6_rs/187a.jpg","null","","","","","","learn","SR",""
"","html-keyboard-response","84","112344","0.0-84.0","""event"",""trial"",""time""
""fullscreenenter"",""0"",""3908""
","
","
","""event"",""trial"",""time""
""fullscreenenter"",""0"",""3908""
","
","null","<p></p>","null","","","","","","","",""
"","image","85","114025","0.0-85.0","""event"",""trial"",""time""
""fullscreenenter"",""0"",""3908""
","
","
","""event"",""trial"",""time""
""fullscreenenter"",""0"",""3908""
","
","1675.9000000022352","run_exp/static/images/Set 6_rs/050a.jpg","78","","","","","","learn","SL",""
"","show_choice","86","114351","0.0-86.0","""event"",""trial"",""time""
""fullscreenenter"",""0"",""3908""
","
","
","""event"",""trial"",""time""
""fullscreenenter"",""0"",""3908""
","
","null","run_exp/static/images/Set 6_rs/050a.jpg","null","","","","","","learn","SL",""
"","html-keyboard-response","87","114851","0.0-87.0","""event"",""trial"",""time""
""fullscreenenter"",""0"",""3908""
","
","
","""event"",""trial"",""time""
""fullscreenenter"",""0"",""3908""
","
","null","<p></p>","null","","","","","","","",""
"","image","88","115854","0.0-88.0","""event"",""trial"",""time""
""fullscreenenter"",""0"",""3908""
","
","
","""event"",""trial"",""time""
""fullscreenenter"",""0"",""3908""
","
","1002.1999999992549","run_exp/static/images/Set 6_rs/172a.jpg","78","","","","","","learn","SR",""
"","show_choice","89","116853","0.0-89.0","""event"",""trial"",""time""
""fullscreenenter"",""0"",""3908""
","
","
","""event"",""trial"",""time""
""fullscreenenter"",""0"",""3908""
","
","null","run_exp/static/images/Set 6_rs/172a.jpg","null","","","","","","learn","SR",""
"","html-keyboard-response","90","117357","0.0-90.0","""event"",""trial"",""time""
""fullscreenenter"",""0"",""3908""
","
","
","""event"",""trial"",""time""
""fullscreenenter"",""0"",""3908""
","
","null","<p></p>","null","","","","","","","",""
"","image","91","118190","0.0-91.0","""event"",""trial"",""time""
""fullscreenenter"",""0"",""3908""
","
","
","""event"",""trial"",""time""
""fullscreenenter"",""0"",""3908""
","
","831","run_exp/static/images/Set 6_rs/073a.jpg","86","","","","","","learn","SL",""
"","show_choice","92","119361","0.0-92.0","""event"",""trial"",""time""
""fullscreenenter"",""0"",""3908""
","
","
","""event"",""trial"",""time""
""fullscreenenter"",""0"",""3908""
","
","null","run_exp/static/images/Set 6_rs/073a.jpg","null","","","","","","learn","SL",""
"","html-keyboard-response","93","119862","0.0-93.0","""event"",""trial"",""time""
""fullscreenenter"",""0"",""3908""
","
","
","""event"",""trial"",""time""
""fullscreenenter"",""0"",""3908""
","
","null","<p></p>","null","","","","","","","",""
"","image","94","120464","0.0-94.0","""event"",""trial"",""time""
""fullscreenenter"",""0"",""3908""
","
","
","""event"",""trial"",""time""
""fullscreenenter"",""0"",""3908""
","
","600.3000000007451","run_exp/static/images/Set 6_rs/112a.jpg","86","","","","","","learn","SR",""
"","show_choice","95","121869","0.0-95.0","""event"",""trial"",""time""
""fullscreenenter"",""0"",""3908""
","
","
","""event"",""trial"",""time""
""fullscreenenter"",""0"",""3908""
","
","null","run_exp/static/images/Set 6_rs/112a.jpg","null","","","","","","learn","SR",""
"","html-keyboard-response","96","122370","0.0-96.0","""event"",""trial"",""time""
""fullscreenenter"",""0"",""3908""
","
","
","""event"",""trial"",""time""
""fullscreenenter"",""0"",""3908""
","
","null","<p></p>","null","","","","","","","",""
"","image","97","123478","0.0-97.0","""event"",""trial"",""time""
""fullscreenenter"",""0"",""3908""
","
","
","""event"",""trial"",""time""
""fullscreenenter"",""0"",""3908""
","
","1106.6000000014901","run_exp/static/images/Set 6_rs/036a.jpg","86","","","","","","learn","SL",""
"","show_choice","98","124375","0.0-98.0","""event"",""trial"",""time""
""fullscreenenter"",""0"",""3908""
","
","
","""event"",""trial"",""time""
""fullscreenenter"",""0"",""3908""
","
","null","run_exp/static/images/Set 6_rs/036a.jpg","null","","","","","","learn","SL",""
"","html-keyboard-response","99","124878","0.0-99.0","""event"",""trial"",""time""
""fullscreenenter"",""0"",""3908""
","
","
","""event"",""trial"",""time""
""fullscreenenter"",""0"",""3908""
","
","null","<p></p>","null","","","","","","","",""
"","image","100","125841","0.0-100.0","""event"",""trial"",""time""
""fullscreenenter"",""0"",""3908""
","
","
","""event"",""trial"",""time""
""fullscreenenter"",""0"",""3908""
","
","961.5","run_exp/static/images/Set 6_rs/024a.jpg","86","","","","","","learn","SR",""
"","show_choice","101","126882","0.0-101.0","""event"",""trial"",""time""
""fullscreenenter"",""0"",""3908""
","
","
","""event"",""trial"",""time""
""fullscreenenter"",""0"",""3908""
","
","null","run_exp/static/images/Set 6_rs/024a.jpg","null","","","","","","learn","SR",""
"","html-keyboard-response","102","127383","0.0-102.0","""event"",""trial"",""time""
""fullscreenenter"",""0"",""3908""
","
","
","""event"",""trial"",""time""
""fullscreenenter"",""0"",""3908""
","
","null","<p></p>","null","","","","","","","",""
"","image","103","128088","0.0-103.0","""event"",""trial"",""time""
""fullscreenenter"",""0"",""3908""
","
","
","""event"",""trial"",""time""
""fullscreenenter"",""0"",""3908""
","
","703.0999999977648","run_exp/static/images/Set 6_rs/154a.jpg","86","","","","","","learn","SR",""
"","show_choice","104","129388","0.0-104.0","""event"",""trial"",""time""
""fullscreenenter"",""0"",""3908""
","
","
","""event"",""trial"",""time""
""fullscreenenter"",""0"",""3908""
","
","null","run_exp/static/images/Set 6_rs/154a.jpg","null","","","","","","learn","SR",""
"","html-keyboard-response","105","129891","0.0-105.0","""event"",""trial"",""time""
""fullscreenenter"",""0"",""3908""
","
","
","""event"",""trial"",""time""
""fullscreenenter"",""0"",""3908""
","
","null","<p></p>","null","","","","","","","",""
"","image","106","130430","0.0-106.0","""event"",""trial"",""time""
""fullscreenenter"",""0"",""3908""
","
","
","""event"",""trial"",""time""
""fullscreenenter"",""0"",""3908""
","
","538","run_exp/static/images/Set 6_rs/057a.jpg","86","","","","","","learn","SL",""
"","show_choice","107","131896","0.0-107.0","""event"",""trial"",""time""
""fullscreenenter"",""0"",""3908""
","
","
","""event"",""trial"",""time""
""fullscreenenter"",""0"",""3908""
","
","null","run_exp/static/images/Set 6_rs/057a.jpg","null","","","","","","learn","SL",""
"","html-keyboard-response","108","132402","0.0-108.0","""event"",""trial"",""time""
""fullscreenenter"",""0"",""3908""
","
","
","""event"",""trial"",""time""
""fullscreenenter"",""0"",""3908""
","
","null","<p></p>","null","","","","","","","",""
"","image","109","133021","0.0-109.0","""event"",""trial"",""time""
""fullscreenenter"",""0"",""3908""
","
","
","""event"",""trial"",""time""
""fullscreenenter"",""0"",""3908""
","
","617.1000000014901","run_exp/static/images/Set 6_rs/066a.jpg","78","","","","","","learn","SL",""
"","show_choice","110","134406","0.0-110.0","""event"",""trial"",""time""
""fullscreenenter"",""0"",""3908""
","
","
","""event"",""trial"",""time""
""fullscreenenter"",""0"",""3908""
","
","null","run_exp/static/images/Set 6_rs/066a.jpg","null","","","","","","learn","SL",""
"","html-keyboard-response","111","134912","0.0-111.0","""event"",""trial"",""time""
""fullscreenenter"",""0"",""3908""
","
","
","""event"",""trial"",""time""
""fullscreenenter"",""0"",""3908""
","
","null","<p></p>","null","","","","","","","",""
"","image","112","136097","0.0-112.0","""event"",""trial"",""time""
""fullscreenenter"",""0"",""3908""
","
","
","""event"",""trial"",""time""
""fullscreenenter"",""0"",""3908""
","
","1183.3999999985099","run_exp/static/images/Set 6_rs/064a.jpg","86","","","","","","learn","SR",""
"","show_choice","113","136917","0.0-113.0","""event"",""trial"",""time""
""fullscreenenter"",""0"",""3908""
","
","
","""event"",""trial"",""time""
""fullscreenenter"",""0"",""3908""
","
","null","run_exp/static/images/Set 6_rs/064a.jpg","null","","","","","","learn","SR",""
"","html-keyboard-response","114","137420","0.0-114.0","""event"",""trial"",""time""
""fullscreenenter"",""0"",""3908""
","
","
","""event"",""trial"",""time""
""fullscreenenter"",""0"",""3908""
","
","null","<p></p>","null","","","","","","","",""
"","image","115","138464","0.0-115.0","""event"",""trial"",""time""
""fullscreenenter"",""0"",""3908""
","
","
","""event"",""trial"",""time""
""fullscreenenter"",""0"",""3908""
","
","1042.2999999970198","run_exp/static/images/Set 6_rs/089a.jpg","86","","","","","","learn","SL",""
"","show_choice","116","139425","0.0-116.0","""event"",""trial"",""time""
""fullscreenenter"",""0"",""3908""
","
","
","""event"",""trial"",""time""
""fullscreenenter"",""0"",""3908""
","
","null","run_exp/static/images/Set 6_rs/089a.jpg","null","","","","","","learn","SL",""
"","html-keyboard-response","117","139929","0.0-117.0","""event"",""trial"",""time""
""fullscreenenter"",""0"",""3908""
","
","
","""event"",""trial"",""time""
""fullscreenenter"",""0"",""3908""
","
","null","<p></p>","null","","","","","","","",""
"","image","118","140873","0.0-118.0","""event"",""trial"",""time""
""fullscreenenter"",""0"",""3908""
","
","
","""event"",""trial"",""time""
""fullscreenenter"",""0"",""3908""
","
","942.1000000014901","run_exp/static/images/Set 6_rs/025a.jpg","78","","","","","","learn","SL",""
"","show_choice","119","141934","0.0-119.0","""event"",""trial"",""time""
""fullscreenenter"",""0"",""3908""
","
","
","""event"",""trial"",""time""
""fullscreenenter"",""0"",""3908""
","
","null","run_exp/static/images/Set 6_rs/025a.jpg","null","","","","","","learn","SL",""
"","html-keyboard-response","120","142439","0.0-120.0","""event"",""trial"",""time""
""fullscreenenter"",""0"",""3908""
","
","
","""event"",""trial"",""time""
""fullscreenenter"",""0"",""3908""
","
","null","<p></p>","null","","","","","","","",""
"","image","121","143527","0.0-121.0","""event"",""trial"",""time""
""fullscreenenter"",""0"",""3908""
","
","
","""event"",""trial"",""time""
""fullscreenenter"",""0"",""3908""
","
","1085.5999999977648","run_exp/static/images/Set 6_rs/017a.jpg","86","","","","","","learn","SL",""
"","show_choice","122","144445","0.0-122.0","""event"",""trial"",""time""
""fullscreenenter"",""0"",""3908""
","
","
","""event"",""trial"",""time""
""fullscreenenter"",""0"",""3908""
","
","null","run_exp/static/images/Set 6_rs/017a.jpg","null","","","","","","learn","SL",""
"","html-keyboard-response","123","144947","0.0-123.0","""event"",""trial"",""time""
""fullscreenenter"",""0"",""3908""
","
","
","""event"",""trial"",""time""
""fullscreenenter"",""0"",""3908""
","
","null","<p></p>","null","","","","","","","",""
"","image","124","145892","0.0-124.0","""event"",""trial"",""time""
""fullscreenenter"",""0"",""3908""
","
","
","""event"",""trial"",""time""
""fullscreenenter"",""0"",""3908""
","
","943","run_exp/static/images/Set 6_rs/012a.jpg","86","","","","","","learn","SR",""
"","show_choice","125","146956","0.0-125.0","""event"",""trial"",""time""
""fullscreenenter"",""0"",""3908""
","
","
","""event"",""trial"",""time""
""fullscreenenter"",""0"",""3908""
","
","null","run_exp/static/images/Set 6_rs/012a.jpg","null","","","","","","learn","SR",""
"","html-keyboard-response","126","147458","0.0-126.0","""event"",""trial"",""time""
""fullscreenenter"",""0"",""3908""
","
","
","""event"",""trial"",""time""
""fullscreenenter"",""0"",""3908""
","
","null","<p></p>","null","","","","","","","",""
"","image","127","148364","0.0-127.0","""event"",""trial"",""time""
""fullscreenenter"",""0"",""3908""
","
","
","""event"",""trial"",""time""
""fullscreenenter"",""0"",""3908""
","
","903.9000000022352","run_exp/static/images/Set 6_rs/014a.jpg","86","","","","","","learn","SL",""
"","show_choice","128","149466","0.0-128.0","""event"",""trial"",""time""
""fullscreenenter"",""0"",""3908""
","
","
","""event"",""trial"",""time""
""fullscreenenter"",""0"",""3908""
","
","null","run_exp/static/images/Set 6_rs/014a.jpg","null","","","","","","learn","SL",""
"","html-keyboard-response","129","149970","0.0-129.0","""event"",""trial"",""time""
""fullscreenenter"",""0"",""3908""
","
","
","""event"",""trial"",""time""
""fullscreenenter"",""0"",""3908""
","
","null","<p></p>","null","","","","","","","",""
"","image","130","150794","0.0-130.0","""event"",""trial"",""time""
""fullscreenenter"",""0"",""3908""
","
","
","""event"",""trial"",""time""
""fullscreenenter"",""0"",""3908""
","
","822.5999999977648","run_exp/static/images/Set 6_rs/071a.jpg","78","","","","","","learn","SL",""
"","show_choice","131","151973","0.0-131.0","""event"",""trial"",""time""
""fullscreenenter"",""0"",""3908""
","
","
","""event"",""trial"",""time""
""fullscreenenter"",""0"",""3908""
","
","null","run_exp/static/images/Set 6_rs/071a.jpg","null","","","","","","learn","SL",""
"","html-keyboard-response","132","152477","0.0-132.0","""event"",""trial"",""time""
""fullscreenenter"",""0"",""3908""
","
","
","""event"",""trial"",""time""
""fullscreenenter"",""0"",""3908""
","
","null","<p></p>","null","","","","","","","",""
"","image","133","153448","0.0-133.0","""event"",""trial"",""time""
""fullscreenenter"",""0"",""3908""
","
","
","""event"",""trial"",""time""
""fullscreenenter"",""0"",""3908""
","
","969.5","run_exp/static/images/Set 6_rs/144a.jpg","86","","","","","","learn","SL",""
"","show_choice","134","154483","0.0-134.0","""event"",""trial"",""time""
""fullscreenenter"",""0"",""3908""
","
","
","""event"",""trial"",""time""
""fullscreenenter"",""0"",""3908""
","
","null","run_exp/static/images/Set 6_rs/144a.jpg","null","","","","","","learn","SL",""
"","html-keyboard-response","135","154988","0.0-135.0","""event"",""trial"",""time""
""fullscreenenter"",""0"",""3908""
","
","
","""event"",""trial"",""time""
""fullscreenenter"",""0"",""3908""
","
","null","<p></p>","null","","","","","","","",""
"","image","136","155767","0.0-136.0","""event"",""trial"",""time""
""fullscreenenter"",""0"",""3908""
","
","
","""event"",""trial"",""time""
""fullscreenenter"",""0"",""3908""
","
","777.1000000014901","run_exp/static/images/Set 6_rs/055a.jpg","86","","","","","","learn","SL",""
"","show_choice","137","156990","0.0-137.0","""event"",""trial"",""time""
""fullscreenenter"",""0"",""3908""
","
","
","""event"",""trial"",""time""
""fullscreenenter"",""0"",""3908""
","
","null","run_exp/static/images/Set 6_rs/055a.jpg","null","","","","","","learn","SL",""
"","html-keyboard-response","138","157495","0.0-138.0","""event"",""trial"",""time""
""fullscreenenter"",""0"",""3908""
","
","
","""event"",""trial"",""time""
""fullscreenenter"",""0"",""3908""
","
","null","<p></p>","null","","","","","","","",""
"","image","139","158556","0.0-139.0","""event"",""trial"",""time""
""fullscreenenter"",""0"",""3908""
","
","
","""event"",""trial"",""time""
""fullscreenenter"",""0"",""3908""
","
","1059.3999999985099","run_exp/static/images/Set 6_rs/045a.jpg","86","","","","","","learn","SR",""
"","show_choice","140","159501","0.0-140.0","""event"",""trial"",""time""
""fullscreenenter"",""0"",""3908""
","
","
","""event"",""trial"",""time""
""fullscreenenter"",""0"",""3908""
","
","null","run_exp/static/images/Set 6_rs/045a.jpg","null","","","","","","learn","SR",""
"","html-keyboard-response","141","160007","0.0-141.0","""event"",""trial"",""time""
""fullscreenenter"",""0"",""3908""
","
","
","""event"",""trial"",""time""
""fullscreenenter"",""0"",""3908""
","
","null","<p></p>","null","","","","","","","",""
"","image","142","160694","0.0-142.0","""event"",""trial"",""time""
""fullscreenenter"",""0"",""3908""
","
","
","""event"",""trial"",""time""
""fullscreenenter"",""0"",""3908""
","
","685.5","run_exp/static/images/Set 6_rs/095a.jpg","86","","","","","","learn","SL",""
"","show_choice","143","162013","0.0-143.0","""event"",""trial"",""time""
""fullscreenenter"",""0"",""3908""
","
","
","""event"",""trial"",""time""
""fullscreenenter"",""0"",""3908""
","
","null","run_exp/static/images/Set 6_rs/095a.jpg","null","","","","","","learn","SL",""
"","html-keyboard-response","144","162517","0.0-144.0","""event"",""trial"",""time""
""fullscreenenter"",""0"",""3908""
","
","
","""event"",""trial"",""time""
""fullscreenenter"",""0"",""3908""
","
","null","<p></p>","null","","","","","","","",""
"","image","145","163529","0.0-145.0","""event"",""trial"",""time""
""fullscreenenter"",""0"",""3908""
","
","
","""event"",""trial"",""time""
""fullscreenenter"",""0"",""3908""
","
","1010","run_exp/static/images/Set 6_rs/016a.jpg","86","","","","","","learn","SL",""
"","show_choice","146","164521","0.0-146.0","""event"",""trial"",""time""
""fullscreenenter"",""0"",""3908""
","
","
","""event"",""trial"",""time""
""fullscreenenter"",""0"",""3908""
","
","null","run_exp/static/images/Set 6_rs/016a.jpg","null","","","","","","learn","SL",""
"","html-keyboard-response","147","165025","0.0-147.0","""event"",""trial"",""time""
""fullscreenenter"",""0"",""3908""
","
","
","""event"",""trial"",""time""
""fullscreenenter"",""0"",""3908""
","
","null","<p></p>","null","","","","","","","",""
"","image","148","166005","0.0-148.0","""event"",""trial"",""time""
""fullscreenenter"",""0"",""3908""
","
","
","""event"",""trial"",""time""
""fullscreenenter"",""0"",""3908""
","
","978.6999999992549","run_exp/static/images/Set 6_rs/168a.jpg","86","","","","","","learn","SL",""
"","show_choice","149","167030","0.0-149.0","""event"",""trial"",""time""
""fullscreenenter"",""0"",""3908""
","
","
","""event"",""trial"",""time""
""fullscreenenter"",""0"",""3908""
","
","null","run_exp/static/images/Set 6_rs/168a.jpg","null","","","","","","learn","SL",""
"","html-keyboard-response","150","167533","0.0-150.0","""event"",""trial"",""time""
""fullscreenenter"",""0"",""3908""
","
","
","""event"",""trial"",""time""
""fullscreenenter"",""0"",""3908""
","
","null","<p></p>","null","","","","","","","",""
"","image","151","168457","0.0-151.0","""event"",""trial"",""time""
""fullscreenenter"",""0"",""3908""
","
","
","""event"",""trial"",""time""
""fullscreenenter"",""0"",""3908""
","
","921.7000000029802","run_exp/static/images/Set 6_rs/132a.jpg","86","","","","","","learn","SR",""
"","show_choice","152","169537","0.0-152.0","""event"",""trial"",""time""
""fullscreenenter"",""0"",""3908""
","
","
","""event"",""trial"",""time""
""fullscreenenter"",""0"",""3908""
","
","null","run_exp/static/images/Set 6_rs/132a.jpg","null","","","","","","learn","SR",""
"","html-keyboard-response","153","170042","0.0-153.0","""event"",""trial"",""time""
""fullscreenenter"",""0"",""3908""
","
","
","""event"",""trial"",""time""
""fullscreenenter"",""0"",""3908""
","
","null","<p></p>","null","","","","","","","",""
"","image","154","171134","0.0-154.0","""event"",""trial"",""time""
""fullscreenenter"",""0"",""3908""
","
","
","""event"",""trial"",""time""
""fullscreenenter"",""0"",""3908""
","
","1091.300000000745","run_exp/static/images/Set 6_rs/008a.jpg","86","","","","","","learn","SL",""
"","show_choice","155","172045","0.0-155.0","""event"",""trial"",""time""
""fullscreenenter"",""0"",""3908""
","
","
","""event"",""trial"",""time""
""fullscreenenter"",""0"",""3908""
","
","null","run_exp/static/images/Set 6_rs/008a.jpg","null","","","","","","learn","SL",""
"","html-keyboard-response","156","172546","0.0-156.0","""event"",""trial"",""time""
""fullscreenenter"",""0"",""3908""
","
","
","""event"",""trial"",""time""
""fullscreenenter"",""0"",""3908""
","
","null","<p></p>","null","","","","","","","",""
"","image","157","173362","0.0-157.0","""event"",""trial"",""time""
""fullscreenenter"",""0"",""3908""
","
","
","""event"",""trial"",""time""
""fullscreenenter"",""0"",""3908""
","
","814.1999999992549","run_exp/static/images/Set 6_rs/006a.jpg","86","","","","","","learn","SL",""
"","show_choice","158","174554","0.0-158.0","""event"",""trial"",""time""
""fullscreenenter"",""0"",""3908""
","
","
","""event"",""trial"",""time""
""fullscreenenter"",""0"",""3908""
","
","null","run_exp/static/images/Set 6_rs/006a.jpg","null","","","","","","learn","SL",""
"","html-keyboard-response","159","175058","0.0-159.0","""event"",""trial"",""time""
""fullscreenenter"",""0"",""3908""
","
","
","""event"",""trial"",""time""
""fullscreenenter"",""0"",""3908""
","
","null","<p></p>","null","","","","","","","",""
"","image","160","176399","0.0-160.0","""event"",""trial"",""time""
""fullscreenenter"",""0"",""3908""
","
","
","""event"",""trial"",""time""
""fullscreenenter"",""0"",""3908""
","
","1339.6000000014901","run_exp/static/images/Set 6_rs/122a.jpg","86","","","","","","learn","SR",""
"","show_choice","161","177064","0.0-161.0","""event"",""trial"",""time""
""fullscreenenter"",""0"",""3908""
","
","
","""event"",""trial"",""time""
""fullscreenenter"",""0"",""3908""
","
","null","run_exp/static/images/Set 6_rs/122a.jpg","null","","","","","","learn","SR",""
"","html-keyboard-response","162","177570","0.0-162.0","""event"",""trial"",""time""
""fullscreenenter"",""0"",""3908""
","
","
","""event"",""trial"",""time""
""fullscreenenter"",""0"",""3908""
","
","null","<p></p>","null","","","","","","","",""
"","image","163","178379","0.0-163.0","""event"",""trial"",""time""
""fullscreenenter"",""0"",""3908""
","
","
","""event"",""trial"",""time""
""fullscreenenter"",""0"",""3908""
","
","807.3999999985099","run_exp/static/images/Set 6_rs/186a.jpg","86","","","","","","learn","SR",""
"","show_choice","164","179576","0.0-164.0","""event"",""trial"",""time""
""fullscreenenter"",""0"",""3908""
","
","
","""event"",""trial"",""time""
""fullscreenenter"",""0"",""3908""
","
","null","run_exp/static/images/Set 6_rs/186a.jpg","null","","","","","","learn","SR",""
"","html-keyboard-response","165","180077","0.0-165.0","""event"",""trial"",""time""
""fullscreenenter"",""0"",""3908""
","
","
","""event"",""trial"",""time""
""fullscreenenter"",""0"",""3908""
","
","null","<p></p>","null","","","","","","","",""
"","image","166","181098","0.0-166.0","""event"",""trial"",""time""
""fullscreenenter"",""0"",""3908""
","
","
","""event"",""trial"",""time""
""fullscreenenter"",""0"",""3908""
","
","1019.2999999970198","run_exp/static/images/Set 6_rs/061a.jpg","78","","","","","","learn","SR",""
"","show_choice","167","182083","0.0-167.0","""event"",""trial"",""time""
""fullscreenenter"",""0"",""3908""
","
","
","""event"",""trial"",""time""
""fullscreenenter"",""0"",""3908""
","
","null","run_exp/static/images/Set 6_rs/061a.jpg","null","","","","","","learn","SR",""
"","html-keyboard-response","168","182588","0.0-168.0","""event"",""trial"",""time""
""fullscreenenter"",""0"",""3908""
","
","
","""event"",""trial"",""time""
""fullscreenenter"",""0"",""3908""
","
","null","<p></p>","null","","","","","","","",""
"","image","169","183328","0.0-169.0","""event"",""trial"",""time""
""fullscreenenter"",""0"",""3908""
","
","
","""event"",""trial"",""time""
""fullscreenenter"",""0"",""3908""
","
","738.1999999992549","run_exp/static/images/Set 6_rs/062a.jpg","86","","","","","","learn","SL",""
"","show_choice","170","184593","0.0-170.0","""event"",""trial"",""time""
""fullscreenenter"",""0"",""3908""
","
","
","""event"",""trial"",""time""
""fullscreenenter"",""0"",""3908""
","
","null","run_exp/static/images/Set 6_rs/062a.jpg","null","","","","","","learn","SL",""
"","html-keyboard-response","171","185095","0.0-171.0","""event"",""trial"",""time""
""fullscreenenter"",""0"",""3908""
","
","
","""event"",""trial"",""time""
""fullscreenenter"",""0"",""3908""
","
","null","<p></p>","null","","","","","","","",""
"","image","172","185827","0.0-172.0","""event"",""trial"",""time""
""fullscreenenter"",""0"",""3908""
","
","
","""event"",""trial"",""time""
""fullscreenenter"",""0"",""3908""
","
","730","run_exp/static/images/Set 6_rs/181a.jpg","78","","","","","","learn","SL",""
"","show_choice","173","187099","0.0-173.0","""event"",""trial"",""time""
""fullscreenenter"",""0"",""3908""
","
","
","""event"",""trial"",""time""
""fullscreenenter"",""0"",""3908""
","
","null","run_exp/static/images/Set 6_rs/181a.jpg","null","","","","","","learn","SL",""
"","html-keyboard-response","174","187602","0.0-174.0","""event"",""trial"",""time""
""fullscreenenter"",""0"",""3908""
","
","
","""event"",""trial"",""time""
""fullscreenenter"",""0"",""3908""
","
","null","<p></p>","null","","","","","","","",""
"","image","175","188395","0.0-175.0","""event"",""trial"",""time""
""fullscreenenter"",""0"",""3908""
","
","
","""event"",""trial"",""time""
""fullscreenenter"",""0"",""3908""
","
","791.4000000022352","run_exp/static/images/Set 6_rs/152a.jpg","86","","","","","","learn","SR",""
"","show_choice","176","189607","0.0-176.0","""event"",""trial"",""time""
""fullscreenenter"",""0"",""3908""
","
","
","""event"",""trial"",""time""
""fullscreenenter"",""0"",""3908""
","
","null","run_exp/static/images/Set 6_rs/152a.jpg","null","","","","","","learn","SR",""
"","html-keyboard-response","177","190113","0.0-177.0","""event"",""trial"",""time""
""fullscreenenter"",""0"",""3908""
","
","
","""event"",""trial"",""time""
""fullscreenenter"",""0"",""3908""
","
","null","<p></p>","null","","","","","","","",""
"","image","178","190822","0.0-178.0","""event"",""trial"",""time""
""fullscreenenter"",""0"",""3908""
","
","
","""event"",""trial"",""time""
""fullscreenenter"",""0"",""3908""
","
","707.5999999977648","run_exp/static/images/Set 6_rs/088a.jpg","86","","","","","","learn","SR",""
"","show_choice","179","192115","0.0-179.0","""event"",""trial"",""time""
""fullscreenenter"",""0"",""3908""
","
","
","""event"",""trial"",""time""
""fullscreenenter"",""0"",""3908""
","
","null","run_exp/static/images/Set 6_rs/088a.jpg","null","","","","","","learn","SR",""
"","html-keyboard-response","180","192617","0.0-180.0","""event"",""trial"",""time""
""fullscreenenter"",""0"",""3908""
","
","
","""event"",""trial"",""time""
""fullscreenenter"",""0"",""3908""
","
","null","<p></p>","null","","","","","","","",""
"","image","181","193477","0.0-181.0","""event"",""trial"",""time""
""fullscreenenter"",""0"",""3908""
","
","
","""event"",""trial"",""time""
""fullscreenenter"",""0"",""3908""
","
","858.2999999970198","run_exp/static/images/Set 6_rs/063a.jpg","86","","","","","","learn","SR",""
"","show_choice","182","194621","0.0-182.0","""event"",""trial"",""time""
""fullscreenenter"",""0"",""3908""
","
","
","""event"",""trial"",""time""
""fullscreenenter"",""0"",""3908""
","
","null","run_exp/static/images/Set 6_rs/063a.jpg","null","","","","","","learn","SR",""
"","html-keyboard-response","183","195128","0.0-183.0","""event"",""trial"",""time""
""fullscreenenter"",""0"",""3908""
","
","
","""event"",""trial"",""time""
""fullscreenenter"",""0"",""3908""
","
","null","<p></p>","null","","","","","","","",""
"","image","184","195796","0.0-184.0","""event"",""trial"",""time""
""fullscreenenter"",""0"",""3908""
","
","
","""event"",""trial"",""time""
""fullscreenenter"",""0"",""3908""
","
","667.1000000014901","run_exp/static/images/Set 6_rs/166a.jpg","86","","","","","","learn","SR",""
"","show_choice","185","197134","0.0-185.0","""event"",""trial"",""time""
""fullscreenenter"",""0"",""3908""
","
","
","""event"",""trial"",""time""
""fullscreenenter"",""0"",""3908""
","
","null","run_exp/static/images/Set 6_rs/166a.jpg","null","","","","","","learn","SR",""
"","html-keyboard-response","186","197640","0.0-186.0","""event"",""trial"",""time""
""fullscreenenter"",""0"",""3908""
","
","
","""event"",""trial"",""time""
""fullscreenenter"",""0"",""3908""
","
","null","<p></p>","null","","","","","","","",""
"","image","187","198563","0.0-187.0","""event"",""trial"",""time""
""fullscreenenter"",""0"",""3908""
","
","
","""event"",""trial"",""time""
""fullscreenenter"",""0"",""3908""
","
","921.6999999992549","run_exp/static/images/Set 6_rs/079a.jpg","86","","","","","","learn","SL",""
"","show_choice","188","199646","0.0-188.0","""event"",""trial"",""time""
""fullscreenenter"",""0"",""3908""
","
","
","""event"",""trial"",""time""
""fullscreenenter"",""0"",""3908""
","
","null","run_exp/static/images/Set 6_rs/079a.jpg","null","","","","","","learn","SL",""
"","html-keyboard-response","189","200152","0.0-189.0","""event"",""trial"",""time""
""fullscreenenter"",""0"",""3908""
","
","
","""event"",""trial"",""time""
""fullscreenenter"",""0"",""3908""
","
","null","<p></p>","null","","","","","","","",""
"","image","190","201397","0.0-190.0","""event"",""trial"",""time""
""fullscreenenter"",""0"",""3908""
","
","
","""event"",""trial"",""time""
""fullscreenenter"",""0"",""3908""
","
","1244","run_exp/static/images/Set 6_rs/091a.jpg","78","","","","","","learn","SL",""
"","show_choice","191","202160","0.0-191.0","""event"",""trial"",""time""
""fullscreenenter"",""0"",""3908""
","
","
","""event"",""trial"",""time""
""fullscreenenter"",""0"",""3908""
","
","null","run_exp/static/images/Set 6_rs/091a.jpg","null","","","","","","learn","SL",""
"","html-keyboard-response","192","202666","0.0-192.0","""event"",""trial"",""time""
""fullscreenenter"",""0"",""3908""
","
","
","""event"",""trial"",""time""
""fullscreenenter"",""0"",""3908""
","
","null","<p></p>","null","","","","","","","",""
"","image","193","203355","0.0-193.0","""event"",""trial"",""time""
""fullscreenenter"",""0"",""3908""
","
","
","""event"",""trial"",""time""
""fullscreenenter"",""0"",""3908""
","
","687.5999999977648","run_exp/static/images/Set 6_rs/070a.jpg","86","","","","","","learn","SR",""
"","show_choice","194","204673","0.0-194.0","""event"",""trial"",""time""
""fullscreenenter"",""0"",""3908""
","
","
","""event"",""trial"",""time""
""fullscreenenter"",""0"",""3908""
","
","null","run_exp/static/images/Set 6_rs/070a.jpg","null","","","","","","learn","SR",""
"","html-keyboard-response","195","205174","0.0-195.0","""event"",""trial"",""time""
""fullscreenenter"",""0"",""3908""
","
","
","""event"",""trial"",""time""
""fullscreenenter"",""0"",""3908""
","
","null","<p></p>","null","","","","","","","",""
"","test_intro","196","242442","0.0-196.0","""event"",""trial"",""time""
""fullscreenenter"",""0"",""3908""
","
","
","""event"",""trial"",""time""
""fullscreenenter"",""0"",""3908""
","
","null","run_exp/static/audio/clip_2_memory.m4a","null","","","","","<div class='center'><p>Now, lets see how much you remember about the items you just saw.  For each item, you need to indicate if it was <b>old</b> by pressing the <b>v</b> key, <b>similar</b> by pressing the <b>b</b> key, or <b>new</b> by pressing the <b>n</b> key.</p><p>Old refers to an item that you saw before in the indoor/outdoor game that you just played, new refers to an item you have <b>not</b> seen before within the indoor/outdoor game, and similar refers to an item that is similar to an item youve seen before but is not exactly the same. </p><p>Before we begin, lets go over some brief demonstrations to make sure you understand.</p></div>","","",""
"","html-keyboard-response","197","260961","0.0-197.0","""event"",""trial"",""time""
""fullscreenenter"",""0"",""3908""
","
","
","""event"",""trial"",""time""
""fullscreenenter"",""0"",""3908""
","
","18517.10000000149","<div class='center'><p>Now, lets see how much you remember about the items you just saw.  For each item, you need to indicate if it was <b>old</b> by pressing the <b>v</b> key, <b>similar</b> by pressing the <b>b</b> key, or <b>new</b> by pressing the <b>n</b> key.</p><p>Old refers to an item that you saw before in the indoor/outdoor game that you just played, new refers to an item you have <b>not</b> seen before within the indoor/outdoor game, and similar refers to an item that is similar to an item youve seen before but is not exactly the same. </p><p>Before we begin, lets go over some brief demonstrations to make sure you understand.</p><div><p><b>[Press the space bar to continue]</b></p></div>","32","","","","","","","",""
"","items","198","268465","0.0-198.0","""event"",""trial"",""time""
""fullscreenenter"",""0"",""3908""
","
","
","""event"",""trial"",""time""
""fullscreenenter"",""0"",""3908""
","
","null","run_exp/static/audio/clip_3_items.m4a","null","","","","","","","",""
"","mop","199","272968","0.0-199.0","""event"",""trial"",""time""
""fullscreenenter"",""0"",""3908""
","
","
","""event"",""trial"",""time""
""fullscreenenter"",""0"",""3908""
","
","null","run_exp/static/audio/clip_4_mop.m4a","null","","","","","","","",""
"","baseball","200","276474","0.0-200.0","""event"",""trial"",""time""
""fullscreenenter"",""0"",""3908""
","
","
","""event"",""trial"",""time""
""fullscreenenter"",""0"",""3908""
","
","null","run_exp/static/audio/clip_5_baseball.m4a","null","","","","","","","",""
"","trumpet","201","279977","0.0-201.0","""event"",""trial"",""time""
""fullscreenenter"",""0"",""3908""
","
","
","""event"",""trial"",""time""
""fullscreenenter"",""0"",""3908""
","
","null","run_exp/static/audio/clip_6_trumpet.m4a","null","","","","","","","",""
"","gummies","202","283485","0.0-202.0","""event"",""trial"",""time""
""fullscreenenter"",""0"",""3908""
","
","
","""event"",""trial"",""time""
""fullscreenenter"",""0"",""3908""
","
","null","run_exp/static/audio/clip_7_gummies.m4a","null","","","","","","","",""
"","osn","203","287988","0.0-203.0","""event"",""trial"",""time""
""fullscreenenter"",""0"",""3908""
","
","
","""event"",""trial"",""time""
""fullscreenenter"",""0"",""3908""
","
","null","run_exp/static/audio/clip_8_osn.m4a","null","","","","","","","",""
"","old_1","204","294495","0.0-204.0","""event"",""trial"",""time""
""fullscreenenter"",""0"",""3908""
","
","
","""event"",""trial"",""time""
""fullscreenenter"",""0"",""3908""
","
","null","run_exp/static/audio/clip_9_old_trumpet.m4a","null","","","","","","","",""
"","new_1","205","301999","0.0-205.0","""event"",""trial"",""time""
""fullscreenenter"",""0"",""3908""
","
","
","""event"",""trial"",""time""
""fullscreenenter"",""0"",""3908""
","
","null","run_exp/static/audio/clip_10_new_balloon.m4a","null","","","","","","","",""
"","similar_1a","206","306504","0.0-206.0","""event"",""trial"",""time""
""fullscreenenter"",""0"",""3908""
","
","
","""event"",""trial"",""time""
""fullscreenenter"",""0"",""3908""
","
","null","run_exp/static/audio/clip_11a_similar_mop.m4a","null","","","","","","","",""
"","similar_1b","207","313007","0.0-207.0","""event"",""trial"",""time""
""fullscreenenter"",""0"",""3908""
","
","
","""event"",""trial"",""time""
""fullscreenenter"",""0"",""3908""
","
","null","run_exp/static/audio/clip_11b_similar_mop.m4a","null","","","","","","","",""
"","new_2","208","316509","0.0-208.0","""event"",""trial"",""time""
""fullscreenenter"",""0"",""3908""
","
","
","""event"",""trial"",""time""
""fullscreenenter"",""0"",""3908""
","
","null","run_exp/static/audio/clip_12_new_stoplight.m4a","null","","","","","","","",""
"","old_2","209","320012","0.0-209.0","""event"",""trial"",""time""
""fullscreenenter"",""0"",""3908""
","
","
","""event"",""trial"",""time""
""fullscreenenter"",""0"",""3908""
","
","null","run_exp/static/audio/clip_13_old_baseball.m4a","null","","","","","","","",""
"","similar_2a","210","323515","0.0-210.0","""event"",""trial"",""time""
""fullscreenenter"",""0"",""3908""
","
","
","""event"",""trial"",""time""
""fullscreenenter"",""0"",""3908""
","
","null","run_exp/static/audio/clip_14a_similar_gummies.m4a","null","","","","","","","",""
"","similar_2b","211","331019","0.0-211.0","""event"",""trial"",""time""
""fullscreenenter"",""0"",""3908""
","
","
","""event"",""trial"",""time""
""fullscreenenter"",""0"",""3908""
","
","null","run_exp/static/audio/clip_14b_similar_gummies.m4a","null","","","","","","","",""
"","practice","212","373349","0.0-212.0","""event"",""trial"",""time""
""fullscreenenter"",""0"",""3908""
","
","
","""event"",""trial"",""time""
""fullscreenenter"",""0"",""3908""
","
","null","run_exp/static/audio/clip_15_practice.m4a","null","","","","","<div class='center'><p>Lets practice a little to make sure you understand the difference between new, similar, and old. Lets say you saw these three items in the indoor/outdoor game.</p><p> Try your best to remember these images because youll soon be tested on them in a practice game. In the practice game, youll be shown images and youll have to say if they are old (one of the three images belows), similar (similar to one of the images below but not exactly the same), or new (are not one of the images below nor similar to them).</p><p>Once you press the space bar youll be shown these images again but one at time. Then youll begin the practice game.</p><p><img src='run_exp/static/images/tutorial/test/three_indoor_outdoor.png' height='300'></p></div>","","",""
"","html-keyboard-response","213","375848","0.0-213.0","""event"",""trial"",""time""
""fullscreenenter"",""0"",""3908""
","
","
","""event"",""trial"",""time""
""fullscreenenter"",""0"",""3908""
","
","2477.89999999851","<div class='center'><p>Lets practice a little to make sure you understand the difference between new, similar, and old. Lets say you saw these three items in the indoor/outdoor game.</p><p> Try your best to remember these images because youll soon be tested on them in a practice game. In the practice game, youll be shown images and youll have to say if they are old (one of the three images belows), similar (similar to one of the images below but not exactly the same), or new (are not one of the images below nor similar to them).</p><p>Once you press the space bar youll be shown these images again but one at time. Then youll begin the practice game.</p><p><img src='run_exp/static/images/tutorial/test/three_indoor_outdoor.png' height='300'></p><div><p><b>[Press the space bar to continue]</b></p></div>","32","","","","","","","",""
"","planet","214","377854","0.0-214.0","""event"",""trial"",""time""
""fullscreenenter"",""0"",""3908""
","
","
","""event"",""trial"",""time""
""fullscreenenter"",""0"",""3908""
","
","null","run_exp/static/images/tutorial/test/008a.jpg","null","","","","","","","",""
"","boot","215","379859","0.0-215.0","""event"",""trial"",""time""
""fullscreenenter"",""0"",""3908""
","
","
","""event"",""trial"",""time""
""fullscreenenter"",""0"",""3908""
","
","null","run_exp/static/images/tutorial/test/011a.jpg","null","","","","","","","",""
"","lemon","216","381864","0.0-216.0","""event"",""trial"",""time""
""fullscreenenter"",""0"",""3908""
","
","
","""event"",""trial"",""time""
""fullscreenenter"",""0"",""3908""
","
","null","run_exp/static/images/tutorial/test/018a.jpg","null","","","","","","","",""
"","practice_q1","217","383023","0.0-217.0","""event"",""trial"",""time""
""fullscreenenter"",""0"",""3908""
","
","
","""event"",""trial"",""time""
""fullscreenenter"",""0"",""3908""
","
","1157.6000000014901","run_exp/static/audio/clip_16_practice_question.m4a","78","","","","","","","",""
"","correct","218","385130","0.0-218.0-0.0","""event"",""trial"",""time""
""fullscreenenter"",""0"",""3908""
","
","
","""event"",""trial"",""time""
""fullscreenenter"",""0"",""3908""
","
","null","run_exp/static/audio/clip_17_correct.m4a","null","","","","","<div class='center'><p>That's correct!</p></div>","","",""
"","html-keyboard-response","219","385633","0.0-218.0-1.0","""event"",""trial"",""time""
""fullscreenenter"",""0"",""3908""
","
","
","""event"",""trial"",""time""
""fullscreenenter"",""0"",""3908""
","
","502","<div class='center'><p>That's correct!</p><div><p><b>[Press the space bar to continue]</b></p></div>","32","","","","","","","",""
"","practice_q2","220","386805","0.0-218.0-2.0","""event"",""trial"",""time""
""fullscreenenter"",""0"",""3908""
","
","
","""event"",""trial"",""time""
""fullscreenenter"",""0"",""3908""
","
","1170.199999999255","run_exp/static/audio/clip_16_practice_question.m4a","86","","","","","","","",""
"","correct","221","388859","0.0-219.0-0.0","""event"",""trial"",""time""
""fullscreenenter"",""0"",""3908""
","
","
","""event"",""trial"",""time""
""fullscreenenter"",""0"",""3908""
","
","null","run_exp/static/audio/clip_17_correct.m4a","null","","","","","<div class='center'><p>That's correct!</p></div>","","",""
"","html-keyboard-response","222","389211","0.0-219.0-1.0","""event"",""trial"",""time""
""fullscreenenter"",""0"",""3908""
","
","
","""event"",""trial"",""time""
""fullscreenenter"",""0"",""3908""
","
","350.3999999985099","<div class='center'><p>That's correct!</p><div><p><b>[Press the space bar to continue]</b></p></div>","32","","","","","","","",""
"","practice_q3","223","390450","0.0-219.0-2.0","""event"",""trial"",""time""
""fullscreenenter"",""0"",""3908""
","
","
","""event"",""trial"",""time""
""fullscreenenter"",""0"",""3908""
","
","1238.3999999985099","run_exp/static/audio/clip_16_practice_question.m4a","66","","","","","","","",""
"","correct","224","392700","0.0-220.0-0.0","""event"",""trial"",""time""
""fullscreenenter"",""0"",""3908""
","
","
","""event"",""trial"",""time""
""fullscreenenter"",""0"",""3908""
","
","null","run_exp/static/audio/clip_17_correct.m4a","null","","","","","<div class='center'><p>That's correct!</p></div>","","",""
"","html-keyboard-response","225","393037","0.0-220.0-1.0","""event"",""trial"",""time""
""fullscreenenter"",""0"",""3908""
","
","
","""event"",""trial"",""time""
""fullscreenenter"",""0"",""3908""
","
","335.70000000298023","<div class='center'><p>That's correct!</p><div><p><b>[Press the space bar to continue]</b></p></div>","32","","","","","","","",""
"","begin_text","226","411710","0.0-221.0-0.0","""event"",""trial"",""time""
""fullscreenenter"",""0"",""3908""
","
","
","""event"",""trial"",""time""
""fullscreenenter"",""0"",""3908""
","
","null","run_exp/static/audio/clip_22_begin_test.m4a","null","","","","","<div class='center'><p>On to the real game where well test your memory of items from the indoor/outdoor game. For each item, you need to indicate if the item is <b>old</b> by pressing the <b>v</b> key, <b>similar</b> by pressing the <b>b</b> key, or <b>new</b> by pressing the <b>n</b> key. </p></div>","","",""
"","html-keyboard-response","227","412454","0.0-221.0-1.0","""event"",""trial"",""time""
""fullscreenenter"",""0"",""3908""
","
","
","""event"",""trial"",""time""
""fullscreenenter"",""0"",""3908""
","
","742.6000000014901","<div class='center'><p>On to the real game where well test your memory of items from the indoor/outdoor game. For each item, you need to indicate if the item is <b>old</b> by pressing the <b>v</b> key, <b>similar</b> by pressing the <b>b</b> key, or <b>new</b> by pressing the <b>n</b> key. </p><div><p><b>[Press the space bar to continue]</b></p></div>","32","","","","","","","",""
"","image","228","414004","0.0-222.0-0.0","""event"",""trial"",""time""
""fullscreenenter"",""0"",""3908""
","
","
","""event"",""trial"",""time""
""fullscreenenter"",""0"",""3908""
","
","1548.800000000745","run_exp/static/images/Set 6_rs/055b.jpg","66","","","","","","test","TL","4"
"","show_choice","229","414510","0.0-222.0-1.0","""event"",""trial"",""time""
""fullscreenenter"",""0"",""3908""
","
","
","""event"",""trial"",""time""
""fullscreenenter"",""0"",""3908""
","
","null","run_exp/static/images/Set 6_rs/055b.jpg","null","","","","","","test","TL",""
"","html-keyboard-response","230","415011","0.0-222.0-2.0","""event"",""trial"",""time""
""fullscreenenter"",""0"",""3908""
","
","
","""event"",""trial"",""time""
""fullscreenenter"",""0"",""3908""
","
","null","<p></p>","null","","","","","","","",""
"","image","231","416752","0.0-223.0-0.0","""event"",""trial"",""time""
""fullscreenenter"",""0"",""3908""
","
","
","""event"",""trial"",""time""
""fullscreenenter"",""0"",""3908""
","
","1739.1000000014901","run_exp/static/images/Set 6_rs/111b.jpg","66","","","","","","test","TL","3"
"","show_choice","232","417254","0.0-223.0-1.0","""event"",""trial"",""time""
""fullscreenenter"",""0"",""3908""
","
","
","""event"",""trial"",""time""
""fullscreenenter"",""0"",""3908""
","
","null","run_exp/static/images/Set 6_rs/111b.jpg","null","","","","","","test","TL",""
"","html-keyboard-response","233","417760","0.0-223.0-2.0","""event"",""trial"",""time""
""fullscreenenter"",""0"",""3908""
","
","
","""event"",""trial"",""time""
""fullscreenenter"",""0"",""3908""
","
","null","<p></p>","null","","","","","","","",""
"","image","234","418642","0.0-224.0-0.0","""event"",""trial"",""time""
""fullscreenenter"",""0"",""3908""
","
","
","""event"",""trial"",""time""
""fullscreenenter"",""0"",""3908""
","
","880.1999999992549","run_exp/static/images/Set 6_rs/170a.jpg","78","","","","","","test","TF","2"
"","show_choice","235","419145","0.0-224.0-1.0","""event"",""trial"",""time""
""fullscreenenter"",""0"",""3908""
","
","
","""event"",""trial"",""time""
""fullscreenenter"",""0"",""3908""
","
","null","run_exp/static/images/Set 6_rs/170a.jpg","null","","","","","","test","TF",""
"","html-keyboard-response","236","419651","0.0-224.0-2.0","""event"",""trial"",""time""
""fullscreenenter"",""0"",""3908""
","
","
","""event"",""trial"",""time""
""fullscreenenter"",""0"",""3908""
","
","null","<p></p>","null","","","","","","","",""
"","image","237","421049","0.0-225.0-0.0","""event"",""trial"",""time""
""fullscreenenter"",""0"",""3908""
","
","
","""event"",""trial"",""time""
""fullscreenenter"",""0"",""3908""
","
","1396.699999999255","run_exp/static/images/Set 6_rs/085b.jpg","86","","","","","","test","TL","1"
"","show_choice","238","421551","0.0-225.0-1.0","""event"",""trial"",""time""
""fullscreenenter"",""0"",""3908""
","
","
","""event"",""trial"",""time""
""fullscreenenter"",""0"",""3908""
","
","null","run_exp/static/images/Set 6_rs/085b.jpg","null","","","","","","test","TL",""
"","html-keyboard-response","239","422053","0.0-225.0-2.0","""event"",""trial"",""time""
""fullscreenenter"",""0"",""3908""
","
","
","""event"",""trial"",""time""
""fullscreenenter"",""0"",""3908""
","
","null","<p></p>","null","","","","","","","",""
"","image","240","423232","0.0-226.0-0.0","""event"",""trial"",""time""
""fullscreenenter"",""0"",""3908""
","
","
","""event"",""trial"",""time""
""fullscreenenter"",""0"",""3908""
","
","1177.5999999977648","run_exp/static/images/Set 6_rs/171a.jpg","78","","","","","","test","TF","1"
"","show_choice","241","423738","0.0-226.0-1.0","""event"",""trial"",""time""
""fullscreenenter"",""0"",""3908""
","
","
","""event"",""trial"",""time""
""fullscreenenter"",""0"",""3908""
","
","null","run_exp/static/images/Set 6_rs/171a.jpg","null","","","","","","test","TF",""
"","html-keyboard-response","242","424245","0.0-226.0-2.0","""event"",""trial"",""time""
""fullscreenenter"",""0"",""3908""
","
","
","""event"",""trial"",""time""
""fullscreenenter"",""0"",""3908""
","
","null","<p></p>","null","","","","","","","",""
"","image","243","425216","0.0-227.0-0.0","""event"",""trial"",""time""
""fullscreenenter"",""0"",""3908""
","
","
","""event"",""trial"",""time""
""fullscreenenter"",""0"",""3908""
","
","970","run_exp/static/images/Set 6_rs/097a.jpg","78","","","","","","test","TF","5"
"","show_choice","244","425720","0.0-227.0-1.0","""event"",""trial"",""time""
""fullscreenenter"",""0"",""3908""
","
","
","""event"",""trial"",""time""
""fullscreenenter"",""0"",""3908""
","
","null","run_exp/static/images/Set 6_rs/097a.jpg","null","","","","","","test","TF",""
"","html-keyboard-response","245","426222","0.0-227.0-2.0","""event"",""trial"",""time""
""fullscreenenter"",""0"",""3908""
","
","
","""event"",""trial"",""time""
""fullscreenenter"",""0"",""3908""
","
","null","<p></p>","null","","","","","","","",""
"","image","246","427350","0.0-228.0-0.0","""event"",""trial"",""time""
""fullscreenenter"",""0"",""3908""
","
","
","""event"",""trial"",""time""
""fullscreenenter"",""0"",""3908""
","
","1126.699999999255","run_exp/static/images/Set 6_rs/074b.jpg","66","","","","","","test","TL","4"
"","show_choice","247","427853","0.0-228.0-1.0","""event"",""trial"",""time""
""fullscreenenter"",""0"",""3908""
","
","
","""event"",""trial"",""time""
""fullscreenenter"",""0"",""3908""
","
","null","run_exp/static/images/Set 6_rs/074b.jpg","null","","","","","","test","TL",""
"","html-keyboard-response","248","428356","0.0-228.0-2.0","""event"",""trial"",""time""
""fullscreenenter"",""0"",""3908""
","
","
","""event"",""trial"",""time""
""fullscreenenter"",""0"",""3908""
","
","null","<p></p>","null","","","","","","","",""
"","image","249","429398","0.0-229.0-0.0","""event"",""trial"",""time""
""fullscreenenter"",""0"",""3908""
","
","
","""event"",""trial"",""time""
""fullscreenenter"",""0"",""3908""
","
","1040.699999999255","run_exp/static/images/Set 6_rs/191b.jpg","66","","","","","","test","TL","2"
"","show_choice","250","429901","0.0-229.0-1.0","""event"",""trial"",""time""
""fullscreenenter"",""0"",""3908""
","
","
","""event"",""trial"",""time""
""fullscreenenter"",""0"",""3908""
","
","null","run_exp/static/images/Set 6_rs/191b.jpg","null","","","","","","test","TL",""
"","html-keyboard-response","251","430406","0.0-229.0-2.0","""event"",""trial"",""time""
""fullscreenenter"",""0"",""3908""
","
","
","""event"",""trial"",""time""
""fullscreenenter"",""0"",""3908""
","
","null","<p></p>","null","","","","","","","",""
"","image","252","431357","0.0-230.0-0.0","""event"",""trial"",""time""
""fullscreenenter"",""0"",""3908""
","
","
","""event"",""trial"",""time""
""fullscreenenter"",""0"",""3908""
","
","949.5999999977648","run_exp/static/images/Set 6_rs/005a.jpg","78","","","","","","test","TF","5"
"","show_choice","253","431860","0.0-230.0-1.0","""event"",""trial"",""time""
""fullscreenenter"",""0"",""3908""
","
","
","""event"",""trial"",""time""
""fullscreenenter"",""0"",""3908""
","
","null","run_exp/static/images/Set 6_rs/005a.jpg","null","","","","","","test","TF",""
"","html-keyboard-response","254","432363","0.0-230.0-2.0","""event"",""trial"",""time""
""fullscreenenter"",""0"",""3908""
","
","
","""event"",""trial"",""time""
""fullscreenenter"",""0"",""3908""
","
","null","<p></p>","null","","","","","","","",""
"","image","255","433200","0.0-231.0-0.0","""event"",""trial"",""time""
""fullscreenenter"",""0"",""3908""
","
","
","""event"",""trial"",""time""
""fullscreenenter"",""0"",""3908""
","
","835.1999999992549","run_exp/static/images/Set 6_rs/001a.jpg","78","","","","","","test","TF","1"
"","show_choice","256","433702","0.0-231.0-1.0","""event"",""trial"",""time""
""fullscreenenter"",""0"",""3908""
","
","
","""event"",""trial"",""time""
""fullscreenenter"",""0"",""3908""
","
","null","run_exp/static/images/Set 6_rs/001a.jpg","null","","","","","","test","TF",""
"","html-keyboard-response","257","434205","0.0-231.0-2.0","""event"",""trial"",""time""
""fullscreenenter"",""0"",""3908""
","
","
","""event"",""trial"",""time""
""fullscreenenter"",""0"",""3908""
","
","null","<p></p>","null","","","","","","","",""
"","image","258","435339","0.0-232.0-0.0","""event"",""trial"",""time""
""fullscreenenter"",""0"",""3908""
","
","
","""event"",""trial"",""time""
""fullscreenenter"",""0"",""3908""
","
","1131.6000000014901","run_exp/static/images/Set 6_rs/079b.jpg","66","","","","","","test","TL","5"
"","show_choice","259","435840","0.0-232.0-1.0","""event"",""trial"",""time""
""fullscreenenter"",""0"",""3908""
","
","
","""event"",""trial"",""time""
""fullscreenenter"",""0"",""3908""
","
","null","run_exp/static/images/Set 6_rs/079b.jpg","null","","","","","","test","TL",""
"","html-keyboard-response","260","436343","0.0-232.0-2.0","""event"",""trial"",""time""
""fullscreenenter"",""0"",""3908""
","
","
","""event"",""trial"",""time""
""fullscreenenter"",""0"",""3908""
","
","null","<p></p>","null","","","","","","","",""
"","image","261","437295","0.0-233.0-0.0","""event"",""trial"",""time""
""fullscreenenter"",""0"",""3908""
","
","
","""event"",""trial"",""time""
""fullscreenenter"",""0"",""3908""
","
","951.2999999970198","run_exp/static/images/Set 6_rs/172a.jpg","86","","","","","","test","TR","1"
"","show_choice","262","437800","0.0-233.0-1.0","""event"",""trial"",""time""
""fullscreenenter"",""0"",""3908""
","
","
","""event"",""trial"",""time""
""fullscreenenter"",""0"",""3908""
","
","null","run_exp/static/images/Set 6_rs/172a.jpg","null","","","","","","test","TR",""
"","html-keyboard-response","263","438304","0.0-233.0-2.0","""event"",""trial"",""time""
""fullscreenenter"",""0"",""3908""
","
","
","""event"",""trial"",""time""
""fullscreenenter"",""0"",""3908""
","
","null","<p></p>","null","","","","","","","",""
"","image","264","439365","0.0-234.0-0.0","""event"",""trial"",""time""
""fullscreenenter"",""0"",""3908""
","
","
","""event"",""trial"",""time""
""fullscreenenter"",""0"",""3908""
","
","1059","run_exp/static/images/Set 6_rs/006b.jpg","66","","","","","","test","TL","2"
"","show_choice","265","439869","0.0-234.0-1.0","""event"",""trial"",""time""
""fullscreenenter"",""0"",""3908""
","
","
","""event"",""trial"",""time""
""fullscreenenter"",""0"",""3908""
","
","null","run_exp/static/images/Set 6_rs/006b.jpg","null","","","","","","test","TL",""
"","html-keyboard-response","266","440370","0.0-234.0-2.0","""event"",""trial"",""time""
""fullscreenenter"",""0"",""3908""
","
","
","""event"",""trial"",""time""
""fullscreenenter"",""0"",""3908""
","
","null","<p></p>","null","","","","","","","",""
"","image","267","441232","0.0-235.0-0.0","""event"",""trial"",""time""
""fullscreenenter"",""0"",""3908""
","
","
","""event"",""trial"",""time""
""fullscreenenter"",""0"",""3908""
","
","860","run_exp/static/images/Set 6_rs/136a.jpg","78","","","","","","test","TF","4"
"","show_choice","268","441734","0.0-235.0-1.0","""event"",""trial"",""time""
""fullscreenenter"",""0"",""3908""
","
","
","""event"",""trial"",""time""
""fullscreenenter"",""0"",""3908""
","
","null","run_exp/static/images/Set 6_rs/136a.jpg","null","","","","","","test","TF",""
"","html-keyboard-response","269","442239","0.0-235.0-2.0","""event"",""trial"",""time""
""fullscreenenter"",""0"",""3908""
","
","
","""event"",""trial"",""time""
""fullscreenenter"",""0"",""3908""
","
","null","<p></p>","null","","","","","","","",""
"","image","270","443370","0.0-236.0-0.0","""event"",""trial"",""time""
""fullscreenenter"",""0"",""3908""
","
","
","""event"",""trial"",""time""
""fullscreenenter"",""0"",""3908""
","
","1129.3999999985099","run_exp/static/images/Set 6_rs/010a.jpg","66","","","","","","test","TR","5"
"","show_choice","271","443874","0.0-236.0-1.0","""event"",""trial"",""time""
""fullscreenenter"",""0"",""3908""
","
","
","""event"",""trial"",""time""
""fullscreenenter"",""0"",""3908""
","
","null","run_exp/static/images/Set 6_rs/010a.jpg","null","","","","","","test","TR",""
"","html-keyboard-response","272","444379","0.0-236.0-2.0","""event"",""trial"",""time""
""fullscreenenter"",""0"",""3908""
","
","
","""event"",""trial"",""time""
""fullscreenenter"",""0"",""3908""
","
","null","<p></p>","null","","","","","","","",""
"","image","273","445508","0.0-237.0-0.0","""event"",""trial"",""time""
""fullscreenenter"",""0"",""3908""
","
","
","""event"",""trial"",""time""
""fullscreenenter"",""0"",""3908""
","
","1126.9000000022352","run_exp/static/images/Set 6_rs/112a.jpg","86","","","","","","test","TR","5"
"","show_choice","274","446009","0.0-237.0-1.0","""event"",""trial"",""time""
""fullscreenenter"",""0"",""3908""
","
","
","""event"",""trial"",""time""
""fullscreenenter"",""0"",""3908""
","
","null","run_exp/static/images/Set 6_rs/112a.jpg","null","","","","","","test","TR",""
"","html-keyboard-response","275","446516","0.0-237.0-2.0","""event"",""trial"",""time""
""fullscreenenter"",""0"",""3908""
","
","
","""event"",""trial"",""time""
""fullscreenenter"",""0"",""3908""
","
","null","<p></p>","null","","","","","","","",""
"","image","276","447982","0.0-238.0-0.0","""event"",""trial"",""time""
""fullscreenenter"",""0"",""3908""
","
","
","""event"",""trial"",""time""
""fullscreenenter"",""0"",""3908""
","
","1464.8999999985099","run_exp/static/images/Set 6_rs/023a.jpg","66","","","","","","test","TR","3"
"","show_choice","277","448485","0.0-238.0-1.0","""event"",""trial"",""time""
""fullscreenenter"",""0"",""3908""
","
","
","""event"",""trial"",""time""
""fullscreenenter"",""0"",""3908""
","
","null","run_exp/static/images/Set 6_rs/023a.jpg","null","","","","","","test","TR",""
"","html-keyboard-response","278","448991","0.0-238.0-2.0","""event"",""trial"",""time""
""fullscreenenter"",""0"",""3908""
","
","
","""event"",""trial"",""time""
""fullscreenenter"",""0"",""3908""
","
","null","<p></p>","null","","","","","","","",""
"","image","279","450232","0.0-239.0-0.0","""event"",""trial"",""time""
""fullscreenenter"",""0"",""3908""
","
","
","""event"",""trial"",""time""
""fullscreenenter"",""0"",""3908""
","
","1238.8999999985099","run_exp/static/images/Set 6_rs/187a.jpg","86","","","","","","test","TR","3"
"","show_choice","280","450735","0.0-239.0-1.0","""event"",""trial"",""time""
""fullscreenenter"",""0"",""3908""
","
","
","""event"",""trial"",""time""
""fullscreenenter"",""0"",""3908""
","
","null","run_exp/static/images/Set 6_rs/187a.jpg","null","","","","","","test","TR",""
"","html-keyboard-response","281","451237","0.0-239.0-2.0","""event"",""trial"",""time""
""fullscreenenter"",""0"",""3908""
","
","
","""event"",""trial"",""time""
""fullscreenenter"",""0"",""3908""
","
","null","<p></p>","null","","","","","","","",""
"","image","282","452190","0.0-240.0-0.0","""event"",""trial"",""time""
""fullscreenenter"",""0"",""3908""
","
","
","""event"",""trial"",""time""
""fullscreenenter"",""0"",""3908""
","
","951.2999999970198","run_exp/static/images/Set 6_rs/073b.jpg","66","","","","","","test","TL","3"
"","show_choice","283","452692","0.0-240.0-1.0","""event"",""trial"",""time""
""fullscreenenter"",""0"",""3908""
","
","
","""event"",""trial"",""time""
""fullscreenenter"",""0"",""3908""
","
","null","run_exp/static/images/Set 6_rs/073b.jpg","null","","","","","","test","TL",""
"","html-keyboard-response","284","453198","0.0-240.0-2.0","""event"",""trial"",""time""
""fullscreenenter"",""0"",""3908""
","
","
","""event"",""trial"",""time""
""fullscreenenter"",""0"",""3908""
","
","null","<p></p>","null","","","","","","","",""
"","image","285","454260","0.0-241.0-0.0","""event"",""trial"",""time""
""fullscreenenter"",""0"",""3908""
","
","
","""event"",""trial"",""time""
""fullscreenenter"",""0"",""3908""
","
","1059.9000000022352","run_exp/static/images/Set 6_rs/057b.jpg","86","","","","","","test","TL","1"
"","show_choice","286","454762","0.0-241.0-1.0","""event"",""trial"",""time""
""fullscreenenter"",""0"",""3908""
","
","
","""event"",""trial"",""time""
""fullscreenenter"",""0"",""3908""
","
","null","run_exp/static/images/Set 6_rs/057b.jpg","null","","","","","","test","TL",""
"","html-keyboard-response","287","455265","0.0-241.0-2.0","""event"",""trial"",""time""
""fullscreenenter"",""0"",""3908""
","
","
","""event"",""trial"",""time""
""fullscreenenter"",""0"",""3908""
","
","null","<p></p>","null","","","","","","","",""
"","image","288","456219","0.0-242.0-0.0","""event"",""trial"",""time""
""fullscreenenter"",""0"",""3908""
","
","
","""event"",""trial"",""time""
""fullscreenenter"",""0"",""3908""
","
","951.8000000007451","run_exp/static/images/Set 6_rs/126a.jpg","86","","","","","","test","TR","2"
"","show_choice","289","456720","0.0-242.0-1.0","""event"",""trial"",""time""
""fullscreenenter"",""0"",""3908""
","
","
","""event"",""trial"",""time""
""fullscreenenter"",""0"",""3908""
","
","null","run_exp/static/images/Set 6_rs/126a.jpg","null","","","","","","test","TR",""
"","html-keyboard-response","290","457222","0.0-242.0-2.0","""event"",""trial"",""time""
""fullscreenenter"",""0"",""3908""
","
","
","""event"",""trial"",""time""
""fullscreenenter"",""0"",""3908""
","
","null","<p></p>","null","","","","","","","",""
"","image","291","458289","0.0-243.0-0.0","""event"",""trial"",""time""
""fullscreenenter"",""0"",""3908""
","
","
","""event"",""trial"",""time""
""fullscreenenter"",""0"",""3908""
","
","1064.8999999985099","run_exp/static/images/Set 6_rs/118a.jpg","78","","","","","","test","TF","5"
"","show_choice","292","458794","0.0-243.0-1.0","""event"",""trial"",""time""
""fullscreenenter"",""0"",""3908""
","
","
","""event"",""trial"",""time""
""fullscreenenter"",""0"",""3908""
","
","null","run_exp/static/images/Set 6_rs/118a.jpg","null","","","","","","test","TF",""
"","html-keyboard-response","293","459296","0.0-243.0-2.0","""event"",""trial"",""time""
""fullscreenenter"",""0"",""3908""
","
","
","""event"",""trial"",""time""
""fullscreenenter"",""0"",""3908""
","
","null","<p></p>","null","","","","","","","",""
"","image","294","460696","0.0-244.0-0.0","""event"",""trial"",""time""
""fullscreenenter"",""0"",""3908""
","
","
","""event"",""trial"",""time""
""fullscreenenter"",""0"",""3908""
","
","1398.5999999977648","run_exp/static/images/Set 6_rs/181b.jpg","86","","","","","","test","TL","1"
"","show_choice","295","461199","0.0-244.0-1.0","""event"",""trial"",""time""
""fullscreenenter"",""0"",""3908""
","
","
","""event"",""trial"",""time""
""fullscreenenter"",""0"",""3908""
","
","null","run_exp/static/images/Set 6_rs/181b.jpg","null","","","","","","test","TL",""
"","html-keyboard-response","296","461704","0.0-244.0-2.0","""event"",""trial"",""time""
""fullscreenenter"",""0"",""3908""
","
","
","""event"",""trial"",""time""
""fullscreenenter"",""0"",""3908""
","
","null","<p></p>","null","","","","","","","",""
"","image","297","463306","0.0-245.0-0.0","""event"",""trial"",""time""
""fullscreenenter"",""0"",""3908""
","
","
","""event"",""trial"",""time""
""fullscreenenter"",""0"",""3908""
","
","1600.6000000014901","run_exp/static/images/Set 6_rs/065a.jpg","78","","","","","","test","TF","3"
"","show_choice","298","463808","0.0-245.0-1.0","""event"",""trial"",""time""
""fullscreenenter"",""0"",""3908""
","
","
","""event"",""trial"",""time""
""fullscreenenter"",""0"",""3908""
","
","null","run_exp/static/images/Set 6_rs/065a.jpg","null","","","","","","test","TF",""
"","html-keyboard-response","299","464314","0.0-245.0-2.0","""event"",""trial"",""time""
""fullscreenenter"",""0"",""3908""
","
","
","""event"",""trial"",""time""
""fullscreenenter"",""0"",""3908""
","
","null","<p></p>","null","","","","","","","",""
"","image","300","465465","0.0-246.0-0.0","""event"",""trial"",""time""
""fullscreenenter"",""0"",""3908""
","
","
","""event"",""trial"",""time""
""fullscreenenter"",""0"",""3908""
","
","1148.8999999985099","run_exp/static/images/Set 6_rs/091b.jpg","66","","","","","","test","TL","3"
"","show_choice","301","465966","0.0-246.0-1.0","""event"",""trial"",""time""
""fullscreenenter"",""0"",""3908""
","
","
","""event"",""trial"",""time""
""fullscreenenter"",""0"",""3908""
","
","null","run_exp/static/images/Set 6_rs/091b.jpg","null","","","","","","test","TL",""
"","html-keyboard-response","302","466473","0.0-246.0-2.0","""event"",""trial"",""time""
""fullscreenenter"",""0"",""3908""
","
","
","""event"",""trial"",""time""
""fullscreenenter"",""0"",""3908""
","
","null","<p></p>","null","","","","","","","",""
"","image","303","467514","0.0-247.0-0.0","""event"",""trial"",""time""
""fullscreenenter"",""0"",""3908""
","
","
","""event"",""trial"",""time""
""fullscreenenter"",""0"",""3908""
","
","1039.7999999970198","run_exp/static/images/Set 6_rs/117b.jpg","66","","","","","","test","TL","5"
"","show_choice","304","468017","0.0-247.0-1.0","""event"",""trial"",""time""
""fullscreenenter"",""0"",""3908""
","
","
","""event"",""trial"",""time""
""fullscreenenter"",""0"",""3908""
","
","null","run_exp/static/images/Set 6_rs/117b.jpg","null","","","","","","test","TL",""
"","html-keyboard-response","305","468522","0.0-247.0-2.0","""event"",""trial"",""time""
""fullscreenenter"",""0"",""3908""
","
","
","""event"",""trial"",""time""
""fullscreenenter"",""0"",""3908""
","
","null","<p></p>","null","","","","","","","",""
"","image","306","469584","0.0-248.0-0.0","""event"",""trial"",""time""
""fullscreenenter"",""0"",""3908""
","
","
","""event"",""trial"",""time""
""fullscreenenter"",""0"",""3908""
","
","1061.5","run_exp/static/images/Set 6_rs/077a.jpg","78","","","","","","test","TF","3"
"","show_choice","307","470087","0.0-248.0-1.0","""event"",""trial"",""time""
""fullscreenenter"",""0"",""3908""
","
","
","""event"",""trial"",""time""
""fullscreenenter"",""0"",""3908""
","
","null","run_exp/static/images/Set 6_rs/077a.jpg","null","","","","","","test","TF",""
"","html-keyboard-response","308","470593","0.0-248.0-2.0","""event"",""trial"",""time""
""fullscreenenter"",""0"",""3908""
","
","
","""event"",""trial"",""time""
""fullscreenenter"",""0"",""3908""
","
","null","<p></p>","null","","","","","","","",""
"","image","309","471406","0.0-249.0-0.0","""event"",""trial"",""time""
""fullscreenenter"",""0"",""3908""
","
","
","""event"",""trial"",""time""
""fullscreenenter"",""0"",""3908""
","
","811.7000000029802","run_exp/static/images/Set 6_rs/190a.jpg","78","","","","","","test","TF","3"
"","show_choice","310","471911","0.0-249.0-1.0","""event"",""trial"",""time""
""fullscreenenter"",""0"",""3908""
","
","
","""event"",""trial"",""time""
""fullscreenenter"",""0"",""3908""
","
","null","run_exp/static/images/Set 6_rs/190a.jpg","null","","","","","","test","TF",""
"","html-keyboard-response","311","472417","0.0-249.0-2.0","""event"",""trial"",""time""
""fullscreenenter"",""0"",""3908""
","
","
","""event"",""trial"",""time""
""fullscreenenter"",""0"",""3908""
","
","null","<p></p>","null","","","","","","","",""
"","image","312","474240","0.0-250.0-0.0","""event"",""trial"",""time""
""fullscreenenter"",""0"",""3908""
","
","
","""event"",""trial"",""time""
""fullscreenenter"",""0"",""3908""
","
","1821.199999999255","run_exp/static/images/Set 6_rs/017b.jpg","66","","","","","","test","TL","3"
"","show_choice","313","474743","0.0-250.0-1.0","""event"",""trial"",""time""
""fullscreenenter"",""0"",""3908""
","
","
","""event"",""trial"",""time""
""fullscreenenter"",""0"",""3908""
","
","null","run_exp/static/images/Set 6_rs/017b.jpg","null","","","","","","test","TL",""
"","html-keyboard-response","314","475249","0.0-250.0-2.0","""event"",""trial"",""time""
""fullscreenenter"",""0"",""3908""
","
","
","""event"",""trial"",""time""
""fullscreenenter"",""0"",""3908""
","
","null","<p></p>","null","","","","","","","",""
"","image","315","476783","0.0-251.0-0.0","""event"",""trial"",""time""
""fullscreenenter"",""0"",""3908""
","
","
","""event"",""trial"",""time""
""fullscreenenter"",""0"",""3908""
","
","1532.1000000014901","run_exp/static/images/Set 6_rs/061a.jpg","66","","","","","","test","TR","5"
"","show_choice","316","477285","0.0-251.0-1.0","""event"",""trial"",""time""
""fullscreenenter"",""0"",""3908""
","
","
","""event"",""trial"",""time""
""fullscreenenter"",""0"",""3908""
","
","null","run_exp/static/images/Set 6_rs/061a.jpg","null","","","","","","test","TR",""
"","html-keyboard-response","317","477787","0.0-251.0-2.0","""event"",""trial"",""time""
""fullscreenenter"",""0"",""3908""
","
","
","""event"",""trial"",""time""
""fullscreenenter"",""0"",""3908""
","
","null","<p></p>","null","","","","","","","",""
"","image","318","478673","0.0-252.0-0.0","""event"",""trial"",""time""
""fullscreenenter"",""0"",""3908""
","
","
","""event"",""trial"",""time""
""fullscreenenter"",""0"",""3908""
","
","884.6999999992549","run_exp/static/images/Set 6_rs/109a.jpg","78","","","","","","test","TF","5"
"","show_choice","319","479176","0.0-252.0-1.0","""event"",""trial"",""time""
""fullscreenenter"",""0"",""3908""
","
","
","""event"",""trial"",""time""
""fullscreenenter"",""0"",""3908""
","
","null","run_exp/static/images/Set 6_rs/109a.jpg","null","","","","","","test","TF",""
"","html-keyboard-response","320","479681","0.0-252.0-2.0","""event"",""trial"",""time""
""fullscreenenter"",""0"",""3908""
","
","
","""event"",""trial"",""time""
""fullscreenenter"",""0"",""3908""
","
","null","<p></p>","null","","","","","","","",""
"","image","321","481059","0.0-253.0-0.0","""event"",""trial"",""time""
""fullscreenenter"",""0"",""3908""
","
","
","""event"",""trial"",""time""
""fullscreenenter"",""0"",""3908""
","
","1376","run_exp/static/images/Set 6_rs/121a.jpg","86","","","","","","test","TR","4"
"","show_choice","322","481563","0.0-253.0-1.0","""event"",""trial"",""time""
""fullscreenenter"",""0"",""3908""
","
","
","""event"",""trial"",""time""
""fullscreenenter"",""0"",""3908""
","
","null","run_exp/static/images/Set 6_rs/121a.jpg","null","","","","","","test","TR",""
"","html-keyboard-response","323","482066","0.0-253.0-2.0","""event"",""trial"",""time""
""fullscreenenter"",""0"",""3908""
","
","
","""event"",""trial"",""time""
""fullscreenenter"",""0"",""3908""
","
","null","<p></p>","null","","","","","","","",""
"","image","324","483308","0.0-254.0-0.0","""event"",""trial"",""time""
""fullscreenenter"",""0"",""3908""
","
","
","""event"",""trial"",""time""
""fullscreenenter"",""0"",""3908""
","
","1240.800000000745","run_exp/static/images/Set 6_rs/012a.jpg","86","","","","","","test","TR","1"
"","show_choice","325","483813","0.0-254.0-1.0","""event"",""trial"",""time""
""fullscreenenter"",""0"",""3908""
","
","
","""event"",""trial"",""time""
""fullscreenenter"",""0"",""3908""
","
","null","run_exp/static/images/Set 6_rs/012a.jpg","null","","","","","","test","TR",""
"","html-keyboard-response","326","484320","0.0-254.0-2.0","""event"",""trial"",""time""
""fullscreenenter"",""0"",""3908""
","
","
","""event"",""trial"",""time""
""fullscreenenter"",""0"",""3908""
","
","null","<p></p>","null","","","","","","","",""
"","image","327","485491","0.0-255.0-0.0","""event"",""trial"",""time""
""fullscreenenter"",""0"",""3908""
","
","
","""event"",""trial"",""time""
""fullscreenenter"",""0"",""3908""
","
","1169.5999999977648","run_exp/static/images/Set 6_rs/188a.jpg","78","","","","","","test","TF","3"
"","show_choice","328","485993","0.0-255.0-1.0","""event"",""trial"",""time""
""fullscreenenter"",""0"",""3908""
","
","
","""event"",""trial"",""time""
""fullscreenenter"",""0"",""3908""
","
","null","run_exp/static/images/Set 6_rs/188a.jpg","null","","","","","","test","TF",""
"","html-keyboard-response","329","486498","0.0-255.0-2.0","""event"",""trial"",""time""
""fullscreenenter"",""0"",""3908""
","
","
","""event"",""trial"",""time""
""fullscreenenter"",""0"",""3908""
","
","null","<p></p>","null","","","","","","","",""
"","image","330","487766","0.0-256.0-0.0","""event"",""trial"",""time""
""fullscreenenter"",""0"",""3908""
","
","
","""event"",""trial"",""time""
""fullscreenenter"",""0"",""3908""
","
","1266.699999999255","run_exp/static/images/Set 6_rs/086a.jpg","78","","","","","","test","TF","1"
"","show_choice","331","488271","0.0-256.0-1.0","""event"",""trial"",""time""
""fullscreenenter"",""0"",""3908""
","
","
","""event"",""trial"",""time""
""fullscreenenter"",""0"",""3908""
","
","null","run_exp/static/images/Set 6_rs/086a.jpg","null","","","","","","test","TF",""
"","html-keyboard-response","332","488777","0.0-256.0-2.0","""event"",""trial"",""time""
""fullscreenenter"",""0"",""3908""
","
","
","""event"",""trial"",""time""
""fullscreenenter"",""0"",""3908""
","
","null","<p></p>","null","","","","","","","",""
"","image","333","489655","0.0-257.0-0.0","""event"",""trial"",""time""
""fullscreenenter"",""0"",""3908""
","
","
","""event"",""trial"",""time""
""fullscreenenter"",""0"",""3908""
","
","876.3000000007451","run_exp/static/images/Set 6_rs/056a.jpg","78","","","","","","test","TF","3"
"","show_choice","334","490157","0.0-257.0-1.0","""event"",""trial"",""time""
""fullscreenenter"",""0"",""3908""
","
","
","""event"",""trial"",""time""
""fullscreenenter"",""0"",""3908""
","
","null","run_exp/static/images/Set 6_rs/056a.jpg","null","","","","","","test","TF",""
"","html-keyboard-response","335","490661","0.0-257.0-2.0","""event"",""trial"",""time""
""fullscreenenter"",""0"",""3908""
","
","
","""event"",""trial"",""time""
""fullscreenenter"",""0"",""3908""
","
","null","<p></p>","null","","","","","","","",""
"","image","336","491363","0.0-258.0-0.0","""event"",""trial"",""time""
""fullscreenenter"",""0"",""3908""
","
","
","""event"",""trial"",""time""
""fullscreenenter"",""0"",""3908""
","
","701.1999999992549","run_exp/static/images/Set 6_rs/015a.jpg","78","","","","","","test","TF","4"
"","show_choice","337","491868","0.0-258.0-1.0","""event"",""trial"",""time""
""fullscreenenter"",""0"",""3908""
","
","
","""event"",""trial"",""time""
""fullscreenenter"",""0"",""3908""
","
","null","run_exp/static/images/Set 6_rs/015a.jpg","null","","","","","","test","TF",""
"","html-keyboard-response","338","492375","0.0-258.0-2.0","""event"",""trial"",""time""
""fullscreenenter"",""0"",""3908""
","
","
","""event"",""trial"",""time""
""fullscreenenter"",""0"",""3908""
","
","null","<p></p>","null","","","","","","","",""
"","image","339","493704","0.0-259.0-0.0","""event"",""trial"",""time""
""fullscreenenter"",""0"",""3908""
","
","
","""event"",""trial"",""time""
""fullscreenenter"",""0"",""3908""
","
","1327.300000000745","run_exp/static/images/Set 6_rs/123b.jpg","66","","","","","","test","TL","2"
"","show_choice","340","494206","0.0-259.0-1.0","""event"",""trial"",""time""
""fullscreenenter"",""0"",""3908""
","
","
","""event"",""trial"",""time""
""fullscreenenter"",""0"",""3908""
","
","null","run_exp/static/images/Set 6_rs/123b.jpg","null","","","","","","test","TL",""
