"success","trial_type","trial_index","time_elapsed","internal_node_id","interactions","blur_events","focus_events","fullscreenenter_events","fullscreenexit_events","rt","stimulus","key_press","subject_id","participant_id","age","gender","prompt","phase","condition","lure_bin"
"true","fullscreen","0","12791","0.0-0.0","""event"",""trial"",""time""
""fullscreenenter"",""0"",""11794""
","
","
","""event"",""trial"",""time""
""fullscreenenter"",""0"",""11794""
","
","","","","","","","","","","",""
"","pavlovia","1","12798","0.0-1.0","""event"",""trial"",""time""
""fullscreenenter"",""0"",""11794""
","
","
","""event"",""trial"",""time""
""fullscreenenter"",""0"",""11794""
","
","","","","","","","","","","",""
"","welcome","2","47809","0.0-2.0","""event"",""trial"",""time""
""fullscreenenter"",""0"",""11794""
","
","
","""event"",""trial"",""time""
""fullscreenenter"",""0"",""11794""
","
","null","run_exp/static/audio/clip_1_welcome.m4a","null","532","229","10","Female","<div class='center'><p>Welcome to the third part of the study! First, you'll be shown pictures of items one at a time. For each picture, you have to decide if the item is typically found indoors or outdoors.</p><p>If you think it's usually found indoors, then press <b>v</b> key on your keyboard. If you think it's usually found outdoors, then press the <b>n</b> key.There will be reminders on the screen to help you remember which keys to press. </p><p>If you're not sure whether the item is an indoor item or an outdoor item, go ahead and take a guess but try your best not to skip that choice. </p></div>","","",""
"","html-keyboard-response","3","49524","0.0-3.0","""event"",""trial"",""time""
""fullscreenenter"",""0"",""11794""
","
","
","""event"",""trial"",""time""
""fullscreenenter"",""0"",""11794""
","
","1712.2999999970198","<div class='center'><p>Welcome to the third part of the study! First, you'll be shown pictures of items one at a time. For each picture, you have to decide if the item is typically found indoors or outdoors.</p><p>If you think it's usually found indoors, then press <b>v</b> key on your keyboard. If you think it's usually found outdoors, then press the <b>n</b> key.There will be reminders on the screen to help you remember which keys to press. </p><p>If you're not sure whether the item is an indoor item or an outdoor item, go ahead and take a guess but try your best not to skip that choice. </p><div><p><b>[Press the space bar to continue]</b></p></div>","32","","","","","","","",""
"","image","4","50902","0.0-4.0","""event"",""trial"",""time""
""fullscreenenter"",""0"",""11794""
","
","
","""event"",""trial"",""time""
""fullscreenenter"",""0"",""11794""
","
","1375.6000000089407","run_exp/static/images/Set 6_rs/123a.jpg","78","","","","","","learn","SL",""
"","show_choice","5","51528","0.0-5.0","""event"",""trial"",""time""
""fullscreenenter"",""0"",""11794""
","
","
","""event"",""trial"",""time""
""fullscreenenter"",""0"",""11794""
","
","null","run_exp/static/images/Set 6_rs/123a.jpg","null","","","","","","learn","SL",""
"","html-keyboard-response","6","52033","0.0-6.0","""event"",""trial"",""time""
""fullscreenenter"",""0"",""11794""
","
","
","""event"",""trial"",""time""
""fullscreenenter"",""0"",""11794""
","
","null","<p></p>","null","","","","","","","",""
"","image","7","52956","0.0-7.0","""event"",""trial"",""time""
""fullscreenenter"",""0"",""11794""
","
","
","""event"",""trial"",""time""
""fullscreenenter"",""0"",""11794""
","
","921.0999999940395","run_exp/static/images/Set 6_rs/186a.jpg","86","","","","","","learn","SR",""
"","show_choice","8","54040","0.0-8.0","""event"",""trial"",""time""
""fullscreenenter"",""0"",""11794""
","
","
","""event"",""trial"",""time""
""fullscreenenter"",""0"",""11794""
","
","null","run_exp/static/images/Set 6_rs/186a.jpg","null","","","","","","learn","SR",""
"","html-keyboard-response","9","54543","0.0-9.0","""event"",""trial"",""time""
""fullscreenenter"",""0"",""11794""
","
","
","""event"",""trial"",""time""
""fullscreenenter"",""0"",""11794""
","
","null","<p></p>","null","","","","","","","",""
"","image","10","55744","0.0-10.0","""event"",""trial"",""time""
""fullscreenenter"",""0"",""11794""
","
","
","""event"",""trial"",""time""
""fullscreenenter"",""0"",""11794""
","
","1199.6000000089407","run_exp/static/images/Set 6_rs/126a.jpg","78","","","","","","learn","SR",""
"","show_choice","11","56558","0.0-11.0","""event"",""trial"",""time""
""fullscreenenter"",""0"",""11794""
","
","
","""event"",""trial"",""time""
""fullscreenenter"",""0"",""11794""
","
","null","run_exp/static/images/Set 6_rs/126a.jpg","null","","","","","","learn","SR",""
"","html-keyboard-response","12","57065","0.0-12.0","""event"",""trial"",""time""
""fullscreenenter"",""0"",""11794""
","
","
","""event"",""trial"",""time""
""fullscreenenter"",""0"",""11794""
","
","null","<p></p>","null","","","","","","","",""
"","image","13","59073","0.0-13.0","""event"",""trial"",""time""
""fullscreenenter"",""0"",""11794""
","
","
","""event"",""trial"",""time""
""fullscreenenter"",""0"",""11794""
","
","null","run_exp/static/images/Set 6_rs/152a.jpg","null","","","","","","learn","SR",""
"","show_choice","14","61079","0.0-14.0","""event"",""trial"",""time""
""fullscreenenter"",""0"",""11794""
","
","
","""event"",""trial"",""time""
""fullscreenenter"",""0"",""11794""
","
","null","run_exp/static/images/blank.png","null","","","","","","learn","SR",""
"","html-keyboard-response","15","61583","0.0-15.0","""event"",""trial"",""time""
""fullscreenenter"",""0"",""11794""
","
","
","""event"",""trial"",""time""
""fullscreenenter"",""0"",""11794""
","
","null","<p></p>","null","","","","","","","",""
"","image","16","62321","0.0-16.0","""event"",""trial"",""time""
""fullscreenenter"",""0"",""11794""
","
","
","""event"",""trial"",""time""
""fullscreenenter"",""0"",""11794""
","
","736.9000000059605","run_exp/static/images/Set 6_rs/070a.jpg","78","","","","","","learn","SR",""
"","show_choice","17","63590","0.0-17.0","""event"",""trial"",""time""
""fullscreenenter"",""0"",""11794""
","
","
","""event"",""trial"",""time""
""fullscreenenter"",""0"",""11794""
","
","null","run_exp/static/images/Set 6_rs/070a.jpg","null","","","","","","learn","SR",""
"","html-keyboard-response","18","64095","0.0-18.0","""event"",""trial"",""time""
""fullscreenenter"",""0"",""11794""
","
","
","""event"",""trial"",""time""
""fullscreenenter"",""0"",""11794""
","
","null","<p></p>","null","","","","","","","",""
"","image","19","65365","0.0-19.0","""event"",""trial"",""time""
""fullscreenenter"",""0"",""11794""
","
","
","""event"",""trial"",""time""
""fullscreenenter"",""0"",""11794""
","
","1269","run_exp/static/images/Set 6_rs/064a.jpg","78","","","","","","learn","SR",""
"","show_choice","20","66098","0.0-20.0","""event"",""trial"",""time""
""fullscreenenter"",""0"",""11794""
","
","
","""event"",""trial"",""time""
""fullscreenenter"",""0"",""11794""
","
","null","run_exp/static/images/Set 6_rs/064a.jpg","null","","","","","","learn","SR",""
"","html-keyboard-response","21","66604","0.0-21.0","""event"",""trial"",""time""
""fullscreenenter"",""0"",""11794""
","
","
","""event"",""trial"",""time""
""fullscreenenter"",""0"",""11794""
","
","null","<p></p>","null","","","","","","","",""
"","image","22","68535","0.0-22.0","""event"",""trial"",""time""
""fullscreenenter"",""0"",""11794""
","
","
","""event"",""trial"",""time""
""fullscreenenter"",""0"",""11794""
","
","1929.8999999910593","run_exp/static/images/Set 6_rs/075a.jpg","86","","","","","","learn","SR",""
"","show_choice","23","68607","0.0-23.0","""event"",""trial"",""time""
""fullscreenenter"",""0"",""11794""
","
","
","""event"",""trial"",""time""
""fullscreenenter"",""0"",""11794""
","
","null","run_exp/static/images/Set 6_rs/075a.jpg","null","","","","","","learn","SR",""
"","html-keyboard-response","24","69111","0.0-24.0","""event"",""trial"",""time""
""fullscreenenter"",""0"",""11794""
","
","
","""event"",""trial"",""time""
""fullscreenenter"",""0"",""11794""
","
","null","<p></p>","null","","","","","","","",""
"","image","25","70556","0.0-25.0","""event"",""trial"",""time""
""fullscreenenter"",""0"",""11794""
","
","
","""event"",""trial"",""time""
""fullscreenenter"",""0"",""11794""
","
","1443.5","run_exp/static/images/Set 6_rs/144a.jpg","86","","","","","","learn","SL",""
"","show_choice","26","71116","0.0-26.0","""event"",""trial"",""time""
""fullscreenenter"",""0"",""11794""
","
","
","""event"",""trial"",""time""
""fullscreenenter"",""0"",""11794""
","
","null","run_exp/static/images/Set 6_rs/144a.jpg","null","","","","","","learn","SL",""
"","html-keyboard-response","27","71617","0.0-27.0","""event"",""trial"",""time""
""fullscreenenter"",""0"",""11794""
","
","
","""event"",""trial"",""time""
""fullscreenenter"",""0"",""11794""
","
","null","<p></p>","null","","","","","","","",""
"","image","28","72796","0.0-28.0","""event"",""trial"",""time""
""fullscreenenter"",""0"",""11794""
","
","
","""event"",""trial"",""time""
""fullscreenenter"",""0"",""11794""
","
","1177.1000000089407","run_exp/static/images/Set 6_rs/134a.jpg","86","","","","","","learn","SR",""
"","show_choice","29","73620","0.0-29.0","""event"",""trial"",""time""
""fullscreenenter"",""0"",""11794""
","
","
","""event"",""trial"",""time""
""fullscreenenter"",""0"",""11794""
","
","null","run_exp/static/images/Set 6_rs/134a.jpg","null","","","","","","learn","SR",""
"","html-keyboard-response","30","74126","0.0-30.0","""event"",""trial"",""time""
""fullscreenenter"",""0"",""11794""
","
","
","""event"",""trial"",""time""
""fullscreenenter"",""0"",""11794""
","
","null","<p></p>","null","","","","","","","",""
"","image","31","75541","0.0-31.0","""event"",""trial"",""time""
""fullscreenenter"",""0"",""11794""
","
","
","""event"",""trial"",""time""
""fullscreenenter"",""0"",""11794""
","
","1413.300000011921","run_exp/static/images/Set 6_rs/055a.jpg","86","","","","","","learn","SL",""
"","show_choice","32","76131","0.0-32.0","""event"",""trial"",""time""
""fullscreenenter"",""0"",""11794""
","
","
","""event"",""trial"",""time""
""fullscreenenter"",""0"",""11794""
","
","null","run_exp/static/images/Set 6_rs/055a.jpg","null","","","","","","learn","SL",""
"","html-keyboard-response","33","76636","0.0-33.0","""event"",""trial"",""time""
""fullscreenenter"",""0"",""11794""
","
","
","""event"",""trial"",""time""
""fullscreenenter"",""0"",""11794""
","
","null","<p></p>","null","","","","","","","",""
"","image","34","77373","0.0-34.0","""event"",""trial"",""time""
""fullscreenenter"",""0"",""11794""
","
","
","""event"",""trial"",""time""
""fullscreenenter"",""0"",""11794""
","
","735.7000000029802","run_exp/static/images/Set 6_rs/023a.jpg","86","","","","","","learn","SR",""
"","show_choice","35","78638","0.0-35.0","""event"",""trial"",""time""
""fullscreenenter"",""0"",""11794""
","
","
","""event"",""trial"",""time""
""fullscreenenter"",""0"",""11794""
","
","null","run_exp/static/images/Set 6_rs/023a.jpg","null","","","","","","learn","SR",""
"","html-keyboard-response","36","79144","0.0-36.0","""event"",""trial"",""time""
""fullscreenenter"",""0"",""11794""
","
","
","""event"",""trial"",""time""
""fullscreenenter"",""0"",""11794""
","
","null","<p></p>","null","","","","","","","",""
"","image","37","79998","0.0-37.0","""event"",""trial"",""time""
""fullscreenenter"",""0"",""11794""
","
","
","""event"",""trial"",""time""
""fullscreenenter"",""0"",""11794""
","
","853","run_exp/static/images/Set 6_rs/062a.jpg","86","","","","","","learn","SL",""
"","show_choice","38","81146","0.0-38.0","""event"",""trial"",""time""
""fullscreenenter"",""0"",""11794""
","
","
","""event"",""trial"",""time""
""fullscreenenter"",""0"",""11794""
","
","null","run_exp/static/images/Set 6_rs/062a.jpg","null","","","","","","learn","SL",""
"","html-keyboard-response","39","81648","0.0-39.0","""event"",""trial"",""time""
""fullscreenenter"",""0"",""11794""
","
","
","""event"",""trial"",""time""
""fullscreenenter"",""0"",""11794""
","
","null","<p></p>","null","","","","","","","",""
"","image","40","82521","0.0-40.0","""event"",""trial"",""time""
""fullscreenenter"",""0"",""11794""
","
","
","""event"",""trial"",""time""
""fullscreenenter"",""0"",""11794""
","
","871.7000000029802","run_exp/static/images/Set 6_rs/061a.jpg","78","","","","","","learn","SR",""
"","show_choice","41","83651","0.0-41.0","""event"",""trial"",""time""
""fullscreenenter"",""0"",""11794""
","
","
","""event"",""trial"",""time""
""fullscreenenter"",""0"",""11794""
","
","null","run_exp/static/images/Set 6_rs/061a.jpg","null","","","","","","learn","SR",""
"","html-keyboard-response","42","84152","0.0-42.0","""event"",""trial"",""time""
""fullscreenenter"",""0"",""11794""
","
","
","""event"",""trial"",""time""
""fullscreenenter"",""0"",""11794""
","
","null","<p></p>","null","","","","","","","",""
"","image","43","85275","0.0-43.0","""event"",""trial"",""time""
""fullscreenenter"",""0"",""11794""
","
","
","""event"",""trial"",""time""
""fullscreenenter"",""0"",""11794""
","
","1122.2000000029802","run_exp/static/images/Set 6_rs/138a.jpg","78","","","","","","learn","SL",""
"","show_choice","44","86155","0.0-44.0","""event"",""trial"",""time""
""fullscreenenter"",""0"",""11794""
","
","
","""event"",""trial"",""time""
""fullscreenenter"",""0"",""11794""
","
","null","run_exp/static/images/Set 6_rs/138a.jpg","null","","","","","","learn","SL",""
"","html-keyboard-response","45","86661","0.0-45.0","""event"",""trial"",""time""
""fullscreenenter"",""0"",""11794""
","
","
","""event"",""trial"",""time""
""fullscreenenter"",""0"",""11794""
","
","null","<p></p>","null","","","","","","","",""
"","image","46","88314","0.0-46.0","""event"",""trial"",""time""
""fullscreenenter"",""0"",""11794""
","
","
","""event"",""trial"",""time""
""fullscreenenter"",""0"",""11794""
","
","1650.2999999970198","run_exp/static/images/Set 6_rs/008a.jpg","86","","","","","","learn","SL",""
"","show_choice","47","88665","0.0-47.0","""event"",""trial"",""time""
""fullscreenenter"",""0"",""11794""
","
","
","""event"",""trial"",""time""
""fullscreenenter"",""0"",""11794""
","
","null","run_exp/static/images/Set 6_rs/008a.jpg","null","","","","","","learn","SL",""
"","html-keyboard-response","48","89169","0.0-48.0","""event"",""trial"",""time""
""fullscreenenter"",""0"",""11794""
","
","
","""event"",""trial"",""time""
""fullscreenenter"",""0"",""11794""
","
","null","<p></p>","null","","","","","","","",""
"","image","49","90366","0.0-49.0","""event"",""trial"",""time""
""fullscreenenter"",""0"",""11794""
","
","
","""event"",""trial"",""time""
""fullscreenenter"",""0"",""11794""
","
","1196.1000000089407","run_exp/static/images/Set 6_rs/025a.jpg","78","","","","","","learn","SL",""
"","show_choice","50","91174","0.0-50.0","""event"",""trial"",""time""
""fullscreenenter"",""0"",""11794""
","
","
","""event"",""trial"",""time""
""fullscreenenter"",""0"",""11794""
","
","null","run_exp/static/images/Set 6_rs/025a.jpg","null","","","","","","learn","SL",""
"","html-keyboard-response","51","91680","0.0-51.0","""event"",""trial"",""time""
""fullscreenenter"",""0"",""11794""
","
","
","""event"",""trial"",""time""
""fullscreenenter"",""0"",""11794""
","
","null","<p></p>","null","","","","","","","",""
"","image","52","93253","0.0-52.0","""event"",""trial"",""time""
""fullscreenenter"",""0"",""11794""
","
","
","""event"",""trial"",""time""
""fullscreenenter"",""0"",""11794""
","
","1570.4000000059605","run_exp/static/images/Set 6_rs/076a.jpg","78","","","","","","learn","SR",""
"","show_choice","53","93683","0.0-53.0","""event"",""trial"",""time""
""fullscreenenter"",""0"",""11794""
","
","
","""event"",""trial"",""time""
""fullscreenenter"",""0"",""11794""
","
","null","run_exp/static/images/Set 6_rs/076a.jpg","null","","","","","","learn","SR",""
"","html-keyboard-response","54","94189","0.0-54.0","""event"",""trial"",""time""
""fullscreenenter"",""0"",""11794""
","
","
","""event"",""trial"",""time""
""fullscreenenter"",""0"",""11794""
","
","null","<p></p>","null","","","","","","","",""
"","image","55","95076","0.0-55.0","""event"",""trial"",""time""
""fullscreenenter"",""0"",""11794""
","
","
","""event"",""trial"",""time""
""fullscreenenter"",""0"",""11794""
","
","885","run_exp/static/images/Set 6_rs/172a.jpg","78","","","","","","learn","SR",""
"","show_choice","56","96192","0.0-56.0","""event"",""trial"",""time""
""fullscreenenter"",""0"",""11794""
","
","
","""event"",""trial"",""time""
""fullscreenenter"",""0"",""11794""
","
","null","run_exp/static/images/Set 6_rs/172a.jpg","null","","","","","","learn","SR",""
"","html-keyboard-response","57","96697","0.0-57.0","""event"",""trial"",""time""
""fullscreenenter"",""0"",""11794""
","
","
","""event"",""trial"",""time""
""fullscreenenter"",""0"",""11794""
","
","null","<p></p>","null","","","","","","","",""
"","image","58","98244","0.0-58.0","""event"",""trial"",""time""
""fullscreenenter"",""0"",""11794""
","
","
","""event"",""trial"",""time""
""fullscreenenter"",""0"",""11794""
","
","1545.7000000029802","run_exp/static/images/Set 6_rs/091a.jpg","86","","","","","","learn","SL",""
"","show_choice","59","98700","0.0-59.0","""event"",""trial"",""time""
""fullscreenenter"",""0"",""11794""
","
","
","""event"",""trial"",""time""
""fullscreenenter"",""0"",""11794""
","
","null","run_exp/static/images/Set 6_rs/091a.jpg","null","","","","","","learn","SL",""
"","html-keyboard-response","60","99204","0.0-60.0","""event"",""trial"",""time""
""fullscreenenter"",""0"",""11794""
","
","
","""event"",""trial"",""time""
""fullscreenenter"",""0"",""11794""
","
","null","<p></p>","null","","","","","","","",""
"","image","61","100819","0.0-61.0","""event"",""trial"",""time""
""fullscreenenter"",""0"",""11794""
","
","
","""event"",""trial"",""time""
""fullscreenenter"",""0"",""11794""
","
","1613","run_exp/static/images/Set 6_rs/017a.jpg","86","","","","","","learn","SL",""
"","show_choice","62","101207","0.0-62.0","""event"",""trial"",""time""
""fullscreenenter"",""0"",""11794""
","
","
","""event"",""trial"",""time""
""fullscreenenter"",""0"",""11794""
","
","null","run_exp/static/images/Set 6_rs/017a.jpg","null","","","","","","learn","SL",""
"","html-keyboard-response","63","101712","0.0-63.0","""event"",""trial"",""time""
""fullscreenenter"",""0"",""11794""
","
","
","""event"",""trial"",""time""
""fullscreenenter"",""0"",""11794""
","
","null","<p></p>","null","","","","","","","",""
"","image","64","103007","0.0-64.0","""event"",""trial"",""time""
""fullscreenenter"",""0"",""11794""
","
","
","""event"",""trial"",""time""
""fullscreenenter"",""0"",""11794""
","
","1293.800000011921","run_exp/static/images/Set 6_rs/014a.jpg","86","","","","","","learn","SL",""
"","show_choice","65","103718","0.0-65.0","""event"",""trial"",""time""
""fullscreenenter"",""0"",""11794""
","
","
","""event"",""trial"",""time""
""fullscreenenter"",""0"",""11794""
","
","null","run_exp/static/images/Set 6_rs/014a.jpg","null","","","","","","learn","SL",""
"","html-keyboard-response","66","104219","0.0-66.0","""event"",""trial"",""time""
""fullscreenenter"",""0"",""11794""
","
","
","""event"",""trial"",""time""
""fullscreenenter"",""0"",""11794""
","
","null","<p></p>","null","","","","","","","",""
"","image","67","105550","0.0-67.0","""event"",""trial"",""time""
""fullscreenenter"",""0"",""11794""
","
","
","""event"",""trial"",""time""
""fullscreenenter"",""0"",""11794""
","
","1329","run_exp/static/images/Set 6_rs/012a.jpg","86","","","","","","learn","SR",""
"","show_choice","68","106222","0.0-68.0","""event"",""trial"",""time""
""fullscreenenter"",""0"",""11794""
","
","
","""event"",""trial"",""time""
""fullscreenenter"",""0"",""11794""
","
","null","run_exp/static/images/Set 6_rs/012a.jpg","null","","","","","","learn","SR",""
"","html-keyboard-response","69","106725","0.0-69.0","""event"",""trial"",""time""
""fullscreenenter"",""0"",""11794""
","
","
","""event"",""trial"",""time""
""fullscreenenter"",""0"",""11794""
","
","null","<p></p>","null","","","","","","","",""
"","image","70","108163","0.0-70.0","""event"",""trial"",""time""
""fullscreenenter"",""0"",""11794""
","
","
","""event"",""trial"",""time""
""fullscreenenter"",""0"",""11794""
","
","1437.3999999910593","run_exp/static/images/Set 6_rs/116a.jpg","78","","","","","","learn","SL",""
"","show_choice","71","108730","0.0-71.0","""event"",""trial"",""time""
""fullscreenenter"",""0"",""11794""
","
","
","""event"",""trial"",""time""
""fullscreenenter"",""0"",""11794""
","
","null","run_exp/static/images/Set 6_rs/116a.jpg","null","","","","","","learn","SL",""
"","html-keyboard-response","72","109235","0.0-72.0","""event"",""trial"",""time""
""fullscreenenter"",""0"",""11794""
","
","
","""event"",""trial"",""time""
""fullscreenenter"",""0"",""11794""
","
","null","<p></p>","null","","","","","","","",""
"","image","73","110517","0.0-73.0","""event"",""trial"",""time""
""fullscreenenter"",""0"",""11794""
","
","
","""event"",""trial"",""time""
""fullscreenenter"",""0"",""11794""
","
","1280.7000000029802","run_exp/static/images/Set 6_rs/074a.jpg","78","","","","","","learn","SL",""
"","show_choice","74","111241","0.0-74.0","""event"",""trial"",""time""
""fullscreenenter"",""0"",""11794""
","
","
","""event"",""trial"",""time""
""fullscreenenter"",""0"",""11794""
","
","null","run_exp/static/images/Set 6_rs/074a.jpg","null","","","","","","learn","SL",""
"","html-keyboard-response","75","111743","0.0-75.0","""event"",""trial"",""time""
""fullscreenenter"",""0"",""11794""
","
","
","""event"",""trial"",""time""
""fullscreenenter"",""0"",""11794""
","
","null","<p></p>","null","","","","","","","",""
"","image","76","112530","0.0-76.0","""event"",""trial"",""time""
""fullscreenenter"",""0"",""11794""
","
","
","""event"",""trial"",""time""
""fullscreenenter"",""0"",""11794""
","
","785.5","run_exp/static/images/Set 6_rs/095a.jpg","86","","","","","","learn","SL",""
"","show_choice","77","113749","0.0-77.0","""event"",""trial"",""time""
""fullscreenenter"",""0"",""11794""
","
","
","""event"",""trial"",""time""
""fullscreenenter"",""0"",""11794""
","
","null","run_exp/static/images/Set 6_rs/095a.jpg","null","","","","","","learn","SL",""
"","html-keyboard-response","78","114253","0.0-78.0","""event"",""trial"",""time""
""fullscreenenter"",""0"",""11794""
","
","
","""event"",""trial"",""time""
""fullscreenenter"",""0"",""11794""
","
","null","<p></p>","null","","","","","","","",""
"","image","79","115673","0.0-79.0","""event"",""trial"",""time""
""fullscreenenter"",""0"",""11794""
","
","
","""event"",""trial"",""time""
""fullscreenenter"",""0"",""11794""
","
","1418.0999999940395","run_exp/static/images/Set 6_rs/063a.jpg","78","","","","","","learn","SR",""
"","show_choice","80","116256","0.0-80.0","""event"",""trial"",""time""
""fullscreenenter"",""0"",""11794""
","
","
","""event"",""trial"",""time""
""fullscreenenter"",""0"",""11794""
","
","null","run_exp/static/images/Set 6_rs/063a.jpg","null","","","","","","learn","SR",""
"","html-keyboard-response","81","116761","0.0-81.0","""event"",""trial"",""time""
""fullscreenenter"",""0"",""11794""
","
","
","""event"",""trial"",""time""
""fullscreenenter"",""0"",""11794""
","
","null","<p></p>","null","","","","","","","",""
"","image","82","118763","0.0-82.0","""event"",""trial"",""time""
""fullscreenenter"",""0"",""11794""
","
","
","""event"",""trial"",""time""
""fullscreenenter"",""0"",""11794""
","
","null","run_exp/static/images/Set 6_rs/066a.jpg","null","","","","","","learn","SL",""
"","show_choice","83","120765","0.0-83.0","""event"",""trial"",""time""
""fullscreenenter"",""0"",""11794""
","
","
","""event"",""trial"",""time""
""fullscreenenter"",""0"",""11794""
","
","null","run_exp/static/images/blank.png","null","","","","","","learn","SL",""
"","html-keyboard-response","84","121267","0.0-84.0","""event"",""trial"",""time""
""fullscreenenter"",""0"",""11794""
","
","
","""event"",""trial"",""time""
""fullscreenenter"",""0"",""11794""
","
","null","<p></p>","null","","","","","","","",""
"","image","85","122314","0.0-85.0","""event"",""trial"",""time""
""fullscreenenter"",""0"",""11794""
","
","
","""event"",""trial"",""time""
""fullscreenenter"",""0"",""11794""
","
","1045.199999988079","run_exp/static/images/Set 6_rs/024a.jpg","86","","","","","","learn","SR",""
"","show_choice","86","123270","0.0-86.0","""event"",""trial"",""time""
""fullscreenenter"",""0"",""11794""
","
","
","""event"",""trial"",""time""
""fullscreenenter"",""0"",""11794""
","
","null","run_exp/static/images/Set 6_rs/024a.jpg","null","","","","","","learn","SR",""
"","html-keyboard-response","87","123774","0.0-87.0","""event"",""trial"",""time""
""fullscreenenter"",""0"",""11794""
","
","
","""event"",""trial"",""time""
""fullscreenenter"",""0"",""11794""
","
","null","<p></p>","null","","","","","","","",""
"","image","88","125340","0.0-88.0","""event"",""trial"",""time""
""fullscreenenter"",""0"",""11794""
","
","
","""event"",""trial"",""time""
""fullscreenenter"",""0"",""11794""
","
","1564.2000000029802","run_exp/static/images/Set 6_rs/141a.jpg","78","","","","","","learn","SR",""
"","show_choice","89","125777","0.0-89.0","""event"",""trial"",""time""
""fullscreenenter"",""0"",""11794""
","
","
","""event"",""trial"",""time""
""fullscreenenter"",""0"",""11794""
","
","null","run_exp/static/images/Set 6_rs/141a.jpg","null","","","","","","learn","SR",""
"","html-keyboard-response","90","126278","0.0-90.0","""event"",""trial"",""time""
""fullscreenenter"",""0"",""11794""
","
","
","""event"",""trial"",""time""
""fullscreenenter"",""0"",""11794""
","
","null","<p></p>","null","","","","","","","",""
"","image","91","127561","0.0-91.0","""event"",""trial"",""time""
""fullscreenenter"",""0"",""11794""
","
","
","""event"",""trial"",""time""
""fullscreenenter"",""0"",""11794""
","
","1281.7999999970198","run_exp/static/images/Set 6_rs/132a.jpg","78","","","","","","learn","SR",""
"","show_choice","92","128281","0.0-92.0","""event"",""trial"",""time""
""fullscreenenter"",""0"",""11794""
","
","
","""event"",""trial"",""time""
""fullscreenenter"",""0"",""11794""
","
","null","run_exp/static/images/Set 6_rs/132a.jpg","null","","","","","","learn","SR",""
"","html-keyboard-response","93","128785","0.0-93.0","""event"",""trial"",""time""
""fullscreenenter"",""0"",""11794""
","
","
","""event"",""trial"",""time""
""fullscreenenter"",""0"",""11794""
","
","null","<p></p>","null","","","","","","","",""
"","image","94","129867","0.0-94.0","""event"",""trial"",""time""
""fullscreenenter"",""0"",""11794""
","
","
","""event"",""trial"",""time""
""fullscreenenter"",""0"",""11794""
","
","1080.1000000089407","run_exp/static/images/Set 6_rs/112a.jpg","86","","","","","","learn","SR",""
"","show_choice","95","130788","0.0-95.0","""event"",""trial"",""time""
""fullscreenenter"",""0"",""11794""
","
","
","""event"",""trial"",""time""
""fullscreenenter"",""0"",""11794""
","
","null","run_exp/static/images/Set 6_rs/112a.jpg","null","","","","","","learn","SR",""
"","html-keyboard-response","96","131293","0.0-96.0","""event"",""trial"",""time""
""fullscreenenter"",""0"",""11794""
","
","
","""event"",""trial"",""time""
""fullscreenenter"",""0"",""11794""
","
","null","<p></p>","null","","","","","","","",""
"","image","97","133229","0.0-97.0","""event"",""trial"",""time""
""fullscreenenter"",""0"",""11794""
","
","
","""event"",""trial"",""time""
""fullscreenenter"",""0"",""11794""
","
","1934.2999999970198","run_exp/static/images/Set 6_rs/167a.jpg","86","","","","","","learn","SL",""
"","show_choice","98","133297","0.0-98.0","""event"",""trial"",""time""
""fullscreenenter"",""0"",""11794""
","
","
","""event"",""trial"",""time""
""fullscreenenter"",""0"",""11794""
","
","null","run_exp/static/images/Set 6_rs/167a.jpg","null","","","","","","learn","SL",""
"","html-keyboard-response","99","133800","0.0-99.0","""event"",""trial"",""time""
""fullscreenenter"",""0"",""11794""
","
","
","""event"",""trial"",""time""
""fullscreenenter"",""0"",""11794""
","
","null","<p></p>","null","","","","","","","",""
"","image","100","135426","0.0-100.0","""event"",""trial"",""time""
""fullscreenenter"",""0"",""11794""
","
","
","""event"",""trial"",""time""
""fullscreenenter"",""0"",""11794""
","
","1624.3999999910593","run_exp/static/images/Set 6_rs/122a.jpg","86","","","","","","learn","SR",""
"","show_choice","101","135803","0.0-101.0","""event"",""trial"",""time""
""fullscreenenter"",""0"",""11794""
","
","
","""event"",""trial"",""time""
""fullscreenenter"",""0"",""11794""
","
","null","run_exp/static/images/Set 6_rs/122a.jpg","null","","","","","","learn","SR",""
"","html-keyboard-response","102","136308","0.0-102.0","""event"",""trial"",""time""
""fullscreenenter"",""0"",""11794""
","
","
","""event"",""trial"",""time""
""fullscreenenter"",""0"",""11794""
","
","null","<p></p>","null","","","","","","","",""
"","image","103","137380","0.0-103.0","""event"",""trial"",""time""
""fullscreenenter"",""0"",""11794""
","
","
","""event"",""trial"",""time""
""fullscreenenter"",""0"",""11794""
","
","1070.7999999970198","run_exp/static/images/Set 6_rs/079a.jpg","86","","","","","","learn","SL",""
"","show_choice","104","138311","0.0-104.0","""event"",""trial"",""time""
""fullscreenenter"",""0"",""11794""
","
","
","""event"",""trial"",""time""
""fullscreenenter"",""0"",""11794""
","
","null","run_exp/static/images/Set 6_rs/079a.jpg","null","","","","","","learn","SL",""
"","html-keyboard-response","105","138815","0.0-105.0","""event"",""trial"",""time""
""fullscreenenter"",""0"",""11794""
","
","
","""event"",""trial"",""time""
""fullscreenenter"",""0"",""11794""
","
","null","<p></p>","null","","","","","","","",""
"","image","106","140073","0.0-106.0","""event"",""trial"",""time""
""fullscreenenter"",""0"",""11794""
","
","
","""event"",""trial"",""time""
""fullscreenenter"",""0"",""11794""
","
","1256.2999999970198","run_exp/static/images/Set 6_rs/089a.jpg","86","","","","","","learn","SL",""
"","show_choice","107","140825","0.0-107.0","""event"",""trial"",""time""
""fullscreenenter"",""0"",""11794""
","
","
","""event"",""trial"",""time""
""fullscreenenter"",""0"",""11794""
","
","null","run_exp/static/images/Set 6_rs/089a.jpg","null","","","","","","learn","SL",""
"","html-keyboard-response","108","141331","0.0-108.0","""event"",""trial"",""time""
""fullscreenenter"",""0"",""11794""
","
","
","""event"",""trial"",""time""
""fullscreenenter"",""0"",""11794""
","
","null","<p></p>","null","","","","","","","",""
"","image","109","142190","0.0-109.0","""event"",""trial"",""time""
""fullscreenenter"",""0"",""11794""
","
","
","""event"",""trial"",""time""
""fullscreenenter"",""0"",""11794""
","
","857.7000000029802","run_exp/static/images/Set 6_rs/181a.jpg","78","","","","","","learn","SL",""
"","show_choice","110","143338","0.0-110.0","""event"",""trial"",""time""
""fullscreenenter"",""0"",""11794""
","
","
","""event"",""trial"",""time""
""fullscreenenter"",""0"",""11794""
","
","null","run_exp/static/images/Set 6_rs/181a.jpg","null","","","","","","learn","SL",""
"","html-keyboard-response","111","143840","0.0-111.0","""event"",""trial"",""time""
""fullscreenenter"",""0"",""11794""
","
","
","""event"",""trial"",""time""
""fullscreenenter"",""0"",""11794""
","
","null","<p></p>","null","","","","","","","",""
"","image","112","145298","0.0-112.0","""event"",""trial"",""time""
""fullscreenenter"",""0"",""11794""
","
","
","""event"",""trial"",""time""
""fullscreenenter"",""0"",""11794""
","
","1455.9000000059605","run_exp/static/images/Set 6_rs/045a.jpg","86","","","","","","learn","SR",""
"","show_choice","113","145846","0.0-113.0","""event"",""trial"",""time""
""fullscreenenter"",""0"",""11794""
","
","
","""event"",""trial"",""time""
""fullscreenenter"",""0"",""11794""
","
","null","run_exp/static/images/Set 6_rs/045a.jpg","null","","","","","","learn","SR",""
"","html-keyboard-response","114","146347","0.0-114.0","""event"",""trial"",""time""
""fullscreenenter"",""0"",""11794""
","
","
","""event"",""trial"",""time""
""fullscreenenter"",""0"",""11794""
","
","null","<p></p>","null","","","","","","","",""
"","image","115","147325","0.0-115.0","""event"",""trial"",""time""
""fullscreenenter"",""0"",""11794""
","
","
","""event"",""trial"",""time""
""fullscreenenter"",""0"",""11794""
","
","977","run_exp/static/images/Set 6_rs/036a.jpg","86","","","","","","learn","SL",""
"","show_choice","116","148353","0.0-116.0","""event"",""trial"",""time""
""fullscreenenter"",""0"",""11794""
","
","
","""event"",""trial"",""time""
""fullscreenenter"",""0"",""11794""
","
","null","run_exp/static/images/Set 6_rs/036a.jpg","null","","","","","","learn","SL",""
"","html-keyboard-response","117","148858","0.0-117.0","""event"",""trial"",""time""
""fullscreenenter"",""0"",""11794""
","
","
","""event"",""trial"",""time""
""fullscreenenter"",""0"",""11794""
","
","null","<p></p>","null","","","","","","","",""
"","image","118","150493","0.0-118.0","""event"",""trial"",""time""
""fullscreenenter"",""0"",""11794""
","
","
","""event"",""trial"",""time""
""fullscreenenter"",""0"",""11794""
","
","1633","run_exp/static/images/Set 6_rs/168a.jpg","86","","","","","","learn","SL",""
"","show_choice","119","150865","0.0-119.0","""event"",""trial"",""time""
""fullscreenenter"",""0"",""11794""
","
","
","""event"",""trial"",""time""
""fullscreenenter"",""0"",""11794""
","
","null","run_exp/static/images/Set 6_rs/168a.jpg","null","","","","","","learn","SL",""
"","html-keyboard-response","120","151370","0.0-120.0","""event"",""trial"",""time""
""fullscreenenter"",""0"",""11794""
","
","
","""event"",""trial"",""time""
""fullscreenenter"",""0"",""11794""
","
","null","<p></p>","null","","","","","","","",""
"","image","121","152951","0.0-121.0","""event"",""trial"",""time""
""fullscreenenter"",""0"",""11794""
","
","
","""event"",""trial"",""time""
""fullscreenenter"",""0"",""11794""
","
","1579.3999999910593","run_exp/static/images/Set 6_rs/073a.jpg","86","","","","","","learn","SL",""
"","show_choice","122","153377","0.0-122.0","""event"",""trial"",""time""
""fullscreenenter"",""0"",""11794""
","
","
","""event"",""trial"",""time""
""fullscreenenter"",""0"",""11794""
","
","null","run_exp/static/images/Set 6_rs/073a.jpg","null","","","","","","learn","SL",""
"","html-keyboard-response","123","153882","0.0-123.0","""event"",""trial"",""time""
""fullscreenenter"",""0"",""11794""
","
","
","""event"",""trial"",""time""
""fullscreenenter"",""0"",""11794""
","
","null","<p></p>","null","","","","","","","",""
"","image","124","154881","0.0-124.0","""event"",""trial"",""time""
""fullscreenenter"",""0"",""11794""
","
","
","""event"",""trial"",""time""
""fullscreenenter"",""0"",""11794""
","
","998","run_exp/static/images/Set 6_rs/111a.jpg","86","","","","","","learn","SL",""
"","show_choice","125","155884","0.0-125.0","""event"",""trial"",""time""
""fullscreenenter"",""0"",""11794""
","
","
","""event"",""trial"",""time""
""fullscreenenter"",""0"",""11794""
","
","null","run_exp/static/images/Set 6_rs/111a.jpg","null","","","","","","learn","SL",""
"","html-keyboard-response","126","156389","0.0-126.0","""event"",""trial"",""time""
""fullscreenenter"",""0"",""11794""
","
","
","""event"",""trial"",""time""
""fullscreenenter"",""0"",""11794""
","
","null","<p></p>","null","","","","","","","",""
"","image","127","158372","0.0-127.0","""event"",""trial"",""time""
""fullscreenenter"",""0"",""11794""
","
","
","""event"",""trial"",""time""
""fullscreenenter"",""0"",""11794""
","
","1981.4000000059605","run_exp/static/images/Set 6_rs/085a.jpg","86","","","","","","learn","SL",""
"","show_choice","128","158392","0.0-128.0","""event"",""trial"",""time""
""fullscreenenter"",""0"",""11794""
","
","
","""event"",""trial"",""time""
""fullscreenenter"",""0"",""11794""
","
","null","run_exp/static/images/Set 6_rs/085a.jpg","null","","","","","","learn","SL",""
"","html-keyboard-response","129","158897","0.0-129.0","""event"",""trial"",""time""
""fullscreenenter"",""0"",""11794""
","
","
","""event"",""trial"",""time""
""fullscreenenter"",""0"",""11794""
","
","null","<p></p>","null","","","","","","","",""
"","image","130","160818","0.0-130.0","""event"",""trial"",""time""
""fullscreenenter"",""0"",""11794""
","
","
","""event"",""trial"",""time""
""fullscreenenter"",""0"",""11794""
","
","1919.8999999910593","run_exp/static/images/Set 6_rs/166a.jpg","86","","","","","","learn","SR",""
"","show_choice","131","160900","0.0-131.0","""event"",""trial"",""time""
""fullscreenenter"",""0"",""11794""
","
","
","""event"",""trial"",""time""
""fullscreenenter"",""0"",""11794""
","
","null","run_exp/static/images/Set 6_rs/166a.jpg","null","","","","","","learn","SR",""
"","html-keyboard-response","132","161402","0.0-132.0","""event"",""trial"",""time""
""fullscreenenter"",""0"",""11794""
","
","
","""event"",""trial"",""time""
""fullscreenenter"",""0"",""11794""
","
","null","<p></p>","null","","","","","","","",""
"","image","133","162451","0.0-133.0","""event"",""trial"",""time""
""fullscreenenter"",""0"",""11794""
","
","
","""event"",""trial"",""time""
""fullscreenenter"",""0"",""11794""
","
","1047.8999999910593","run_exp/static/images/Set 6_rs/016a.jpg","86","","","","","","learn","SL",""
"","show_choice","134","163407","0.0-134.0","""event"",""trial"",""time""
""fullscreenenter"",""0"",""11794""
","
","
","""event"",""trial"",""time""
""fullscreenenter"",""0"",""11794""
","
","null","run_exp/static/images/Set 6_rs/016a.jpg","null","","","","","","learn","SL",""
"","html-keyboard-response","135","163912","0.0-135.0","""event"",""trial"",""time""
""fullscreenenter"",""0"",""11794""
","
","
","""event"",""trial"",""time""
""fullscreenenter"",""0"",""11794""
","
","null","<p></p>","null","","","","","","","",""
"","image","136","165205","0.0-136.0","""event"",""trial"",""time""
""fullscreenenter"",""0"",""11794""
","
","
","""event"",""trial"",""time""
""fullscreenenter"",""0"",""11794""
","
","1291.7000000029802","run_exp/static/images/Set 6_rs/071a.jpg","78","","","","","","learn","SL",""
"","show_choice","137","165918","0.0-137.0","""event"",""trial"",""time""
""fullscreenenter"",""0"",""11794""
","
","
","""event"",""trial"",""time""
""fullscreenenter"",""0"",""11794""
","
","null","run_exp/static/images/Set 6_rs/071a.jpg","null","","","","","","learn","SL",""
"","html-keyboard-response","138","166419","0.0-138.0","""event"",""trial"",""time""
""fullscreenenter"",""0"",""11794""
","
","
","""event"",""trial"",""time""
""fullscreenenter"",""0"",""11794""
","
","null","<p></p>","null","","","","","","","",""
"","image","139","167585","0.0-139.0","""event"",""trial"",""time""
""fullscreenenter"",""0"",""11794""
","
","
","""event"",""trial"",""time""
""fullscreenenter"",""0"",""11794""
","
","1164","run_exp/static/images/Set 6_rs/010a.jpg","86","","","","","","learn","SR",""
"","show_choice","140","168426","0.0-140.0","""event"",""trial"",""time""
""fullscreenenter"",""0"",""11794""
","
","
","""event"",""trial"",""time""
""fullscreenenter"",""0"",""11794""
","
","null","run_exp/static/images/Set 6_rs/010a.jpg","null","","","","","","learn","SR",""
"","html-keyboard-response","141","168931","0.0-141.0","""event"",""trial"",""time""
""fullscreenenter"",""0"",""11794""
","
","
","""event"",""trial"",""time""
""fullscreenenter"",""0"",""11794""
","
","null","<p></p>","null","","","","","","","",""
"","image","142","170357","0.0-142.0","""event"",""trial"",""time""
""fullscreenenter"",""0"",""11794""
","
","
","""event"",""trial"",""time""
""fullscreenenter"",""0"",""11794""
","
","1425.300000011921","run_exp/static/images/Set 6_rs/191a.jpg","78","","","","","","learn","SL",""
"","show_choice","143","170933","0.0-143.0","""event"",""trial"",""time""
""fullscreenenter"",""0"",""11794""
","
","
","""event"",""trial"",""time""
""fullscreenenter"",""0"",""11794""
","
","null","run_exp/static/images/Set 6_rs/191a.jpg","null","","","","","","learn","SL",""
"","html-keyboard-response","144","171436","0.0-144.0","""event"",""trial"",""time""
""fullscreenenter"",""0"",""11794""
","
","
","""event"",""trial"",""time""
""fullscreenenter"",""0"",""11794""
","
","null","<p></p>","null","","","","","","","",""
"","image","145","172430","0.0-145.0","""event"",""trial"",""time""
""fullscreenenter"",""0"",""11794""
","
","
","""event"",""trial"",""time""
""fullscreenenter"",""0"",""11794""
","
","992.1999999880791","run_exp/static/images/Set 6_rs/019a.jpg","86","","","","","","learn","SL",""
"","show_choice","146","173441","0.0-146.0","""event"",""trial"",""time""
""fullscreenenter"",""0"",""11794""
","
","
","""event"",""trial"",""time""
""fullscreenenter"",""0"",""11794""
","
","null","run_exp/static/images/Set 6_rs/019a.jpg","null","","","","","","learn","SL",""
"","html-keyboard-response","147","173946","0.0-147.0","""event"",""trial"",""time""
""fullscreenenter"",""0"",""11794""
","
","
","""event"",""trial"",""time""
""fullscreenenter"",""0"",""11794""
","
","null","<p></p>","null","","","","","","","",""
"","image","148","175005","0.0-148.0","""event"",""trial"",""time""
""fullscreenenter"",""0"",""11794""
","
","
","""event"",""trial"",""time""
""fullscreenenter"",""0"",""11794""
","
","1057.7000000029802","run_exp/static/images/Set 6_rs/169a.jpg","86","","","","","","learn","SR",""
"","show_choice","149","175949","0.0-149.0","""event"",""trial"",""time""
""fullscreenenter"",""0"",""11794""
","
","
","""event"",""trial"",""time""
""fullscreenenter"",""0"",""11794""
","
","null","run_exp/static/images/Set 6_rs/169a.jpg","null","","","","","","learn","SR",""
"","html-keyboard-response","150","176453","0.0-150.0","""event"",""trial"",""time""
""fullscreenenter"",""0"",""11794""
","
","
","""event"",""trial"",""time""
""fullscreenenter"",""0"",""11794""
","
","null","<p></p>","null","","","","","","","",""
"","image","151","178160","0.0-151.0","""event"",""trial"",""time""
""fullscreenenter"",""0"",""11794""
","
","
","""event"",""trial"",""time""
""fullscreenenter"",""0"",""11794""
","
","1705.2000000029802","run_exp/static/images/Set 6_rs/187a.jpg","86","","","","","","learn","SR",""
"","show_choice","152","178456","0.0-152.0","""event"",""trial"",""time""
""fullscreenenter"",""0"",""11794""
","
","
","""event"",""trial"",""time""
""fullscreenenter"",""0"",""11794""
","
","null","run_exp/static/images/Set 6_rs/187a.jpg","null","","","","","","learn","SR",""
"","html-keyboard-response","153","178958","0.0-153.0","""event"",""trial"",""time""
""fullscreenenter"",""0"",""11794""
","
","
","""event"",""trial"",""time""
""fullscreenenter"",""0"",""11794""
","
","null","<p></p>","null","","","","","","","",""
"","image","154","180870","0.0-154.0","""event"",""trial"",""time""
""fullscreenenter"",""0"",""11794""
","
","
","""event"",""trial"",""time""
""fullscreenenter"",""0"",""11794""
","
","1910.5999999940395","run_exp/static/images/Set 6_rs/050a.jpg","86","","","","","","learn","SL",""
"","show_choice","155","180960","0.0-155.0","""event"",""trial"",""time""
""fullscreenenter"",""0"",""11794""
","
","
","""event"",""trial"",""time""
""fullscreenenter"",""0"",""11794""
","
","null","run_exp/static/images/Set 6_rs/050a.jpg","null","","","","","","learn","SL",""
"","html-keyboard-response","156","181466","0.0-156.0","""event"",""trial"",""time""
""fullscreenenter"",""0"",""11794""
","
","
","""event"",""trial"",""time""
""fullscreenenter"",""0"",""11794""
","
","null","<p></p>","null","","","","","","","",""
"","image","157","183115","0.0-157.0","""event"",""trial"",""time""
""fullscreenenter"",""0"",""11794""
","
","
","""event"",""trial"",""time""
""fullscreenenter"",""0"",""11794""
","
","1648","run_exp/static/images/Set 6_rs/088a.jpg","86","","","","","","learn","SR",""
"","show_choice","158","183471","0.0-158.0","""event"",""trial"",""time""
""fullscreenenter"",""0"",""11794""
","
","
","""event"",""trial"",""time""
""fullscreenenter"",""0"",""11794""
","
","null","run_exp/static/images/Set 6_rs/088a.jpg","null","","","","","","learn","SR",""
"","html-keyboard-response","159","183976","0.0-159.0","""event"",""trial"",""time""
""fullscreenenter"",""0"",""11794""
","
","
","""event"",""trial"",""time""
""fullscreenenter"",""0"",""11794""
","
","null","<p></p>","null","","","","","","","",""
"","image","160","185392","0.0-160.0","""event"",""trial"",""time""
""fullscreenenter"",""0"",""11794""
","
","
","""event"",""trial"",""time""
""fullscreenenter"",""0"",""11794""
","
","1414.0999999940395","run_exp/static/images/Set 6_rs/121a.jpg","86","","","","","","learn","SR",""
"","show_choice","161","185980","0.0-161.0","""event"",""trial"",""time""
""fullscreenenter"",""0"",""11794""
","
","
","""event"",""trial"",""time""
""fullscreenenter"",""0"",""11794""
","
","null","run_exp/static/images/Set 6_rs/121a.jpg","null","","","","","","learn","SR",""
"","html-keyboard-response","162","186483","0.0-162.0","""event"",""trial"",""time""
""fullscreenenter"",""0"",""11794""
","
","
","""event"",""trial"",""time""
""fullscreenenter"",""0"",""11794""
","
","null","<p></p>","null","","","","","","","",""
"","image","163","187785","0.0-163.0","""event"",""trial"",""time""
""fullscreenenter"",""0"",""11794""
","
","
","""event"",""trial"",""time""
""fullscreenenter"",""0"",""11794""
","
","1299.8999999910593","run_exp/static/images/Set 6_rs/006a.jpg","86","","","","","","learn","SL",""
"","show_choice","164","188486","0.0-164.0","""event"",""trial"",""time""
""fullscreenenter"",""0"",""11794""
","
","
","""event"",""trial"",""time""
""fullscreenenter"",""0"",""11794""
","
","null","run_exp/static/images/Set 6_rs/006a.jpg","null","","","","","","learn","SL",""
"","html-keyboard-response","165","188991","0.0-165.0","""event"",""trial"",""time""
""fullscreenenter"",""0"",""11794""
","
","
","""event"",""trial"",""time""
""fullscreenenter"",""0"",""11794""
","
","null","<p></p>","null","","","","","","","",""
"","image","166","190171","0.0-166.0","""event"",""trial"",""time""
""fullscreenenter"",""0"",""11794""
","
","
","""event"",""trial"",""time""
""fullscreenenter"",""0"",""11794""
","
","1178.8999999910593","run_exp/static/images/Set 6_rs/007a.jpg","86","","","","","","learn","SR",""
"","show_choice","167","190996","0.0-167.0","""event"",""trial"",""time""
""fullscreenenter"",""0"",""11794""
","
","
","""event"",""trial"",""time""
""fullscreenenter"",""0"",""11794""
","
","null","run_exp/static/images/Set 6_rs/007a.jpg","null","","","","","","learn","SR",""
"","html-keyboard-response","168","191497","0.0-168.0","""event"",""trial"",""time""
""fullscreenenter"",""0"",""11794""
","
","
","""event"",""trial"",""time""
""fullscreenenter"",""0"",""11794""
","
","null","<p></p>","null","","","","","","","",""
"","image","169","192498","0.0-169.0","""event"",""trial"",""time""
""fullscreenenter"",""0"",""11794""
","
","
","""event"",""trial"",""time""
""fullscreenenter"",""0"",""11794""
","
","999.1999999880791","run_exp/static/images/Set 6_rs/108a.jpg","78","","","","","","learn","SR",""
"","show_choice","170","193499","0.0-170.0","""event"",""trial"",""time""
""fullscreenenter"",""0"",""11794""
","
","
","""event"",""trial"",""time""
""fullscreenenter"",""0"",""11794""
","
","null","run_exp/static/images/Set 6_rs/108a.jpg","null","","","","","","learn","SR",""
"","html-keyboard-response","171","194005","0.0-171.0","""event"",""trial"",""time""
""fullscreenenter"",""0"",""11794""
","
","
","""event"",""trial"",""time""
""fullscreenenter"",""0"",""11794""
","
","null","<p></p>","null","","","","","","","",""
"","image","172","195351","0.0-172.0","""event"",""trial"",""time""
""fullscreenenter"",""0"",""11794""
","
","
","""event"",""trial"",""time""
""fullscreenenter"",""0"",""11794""
","
","1344.2999999970198","run_exp/static/images/Set 6_rs/131a.jpg","86","","","","","","learn","SR",""
"","show_choice","173","196009","0.0-173.0","""event"",""trial"",""time""
""fullscreenenter"",""0"",""11794""
","
","
","""event"",""trial"",""time""
""fullscreenenter"",""0"",""11794""
","
","null","run_exp/static/images/Set 6_rs/131a.jpg","null","","","","","","learn","SR",""
"","html-keyboard-response","174","196513","0.0-174.0","""event"",""trial"",""time""
""fullscreenenter"",""0"",""11794""
","
","
","""event"",""trial"",""time""
""fullscreenenter"",""0"",""11794""
","
","null","<p></p>","null","","","","","","","",""
"","image","175","198333","0.0-175.0","""event"",""trial"",""time""
""fullscreenenter"",""0"",""11794""
","
","
","""event"",""trial"",""time""
""fullscreenenter"",""0"",""11794""
","
","1818.5","run_exp/static/images/Set 6_rs/129a.jpg","86","","","","","","learn","SL",""
"","show_choice","176","198515","0.0-176.0","""event"",""trial"",""time""
""fullscreenenter"",""0"",""11794""
","
","
","""event"",""trial"",""time""
""fullscreenenter"",""0"",""11794""
","
","null","run_exp/static/images/Set 6_rs/129a.jpg","null","","","","","","learn","SL",""
"","html-keyboard-response","177","199021","0.0-177.0","""event"",""trial"",""time""
""fullscreenenter"",""0"",""11794""
","
","
","""event"",""trial"",""time""
""fullscreenenter"",""0"",""11794""
","
","null","<p></p>","null","","","","","","","",""
"","image","178","200564","0.0-178.0","""event"",""trial"",""time""
""fullscreenenter"",""0"",""11794""
","
","
","""event"",""trial"",""time""
""fullscreenenter"",""0"",""11794""
","
","1540.9000000059605","run_exp/static/images/Set 6_rs/178a.jpg","78","","","","","","learn","SR",""
"","show_choice","179","201028","0.0-179.0","""event"",""trial"",""time""
""fullscreenenter"",""0"",""11794""
","
","
","""event"",""trial"",""time""
""fullscreenenter"",""0"",""11794""
","
","null","run_exp/static/images/Set 6_rs/178a.jpg","null","","","","","","learn","SR",""
"","html-keyboard-response","180","201532","0.0-180.0","""event"",""trial"",""time""
""fullscreenenter"",""0"",""11794""
","
","
","""event"",""trial"",""time""
""fullscreenenter"",""0"",""11794""
","
","null","<p></p>","null","","","","","","","",""
"","image","181","203054","0.0-181.0","""event"",""trial"",""time""
""fullscreenenter"",""0"",""11794""
","
","
","""event"",""trial"",""time""
""fullscreenenter"",""0"",""11794""
","
","1520.1000000089407","run_exp/static/images/Set 6_rs/057a.jpg","86","","","","","","learn","SL",""
"","show_choice","182","203535","0.0-182.0","""event"",""trial"",""time""
""fullscreenenter"",""0"",""11794""
","
","
","""event"",""trial"",""time""
""fullscreenenter"",""0"",""11794""
","
","null","run_exp/static/images/Set 6_rs/057a.jpg","null","","","","","","learn","SL",""
"","html-keyboard-response","183","204040","0.0-183.0","""event"",""trial"",""time""
""fullscreenenter"",""0"",""11794""
","
","
","""event"",""trial"",""time""
""fullscreenenter"",""0"",""11794""
","
","null","<p></p>","null","","","","","","","",""
"","image","184","204830","0.0-184.0","""event"",""trial"",""time""
""fullscreenenter"",""0"",""11794""
","
","
","""event"",""trial"",""time""
""fullscreenenter"",""0"",""11794""
","
","788.9000000059605","run_exp/static/images/Set 6_rs/154a.jpg","86","","","","","","learn","SR",""
"","show_choice","185","206047","0.0-185.0","""event"",""trial"",""time""
""fullscreenenter"",""0"",""11794""
","
","
","""event"",""trial"",""time""
""fullscreenenter"",""0"",""11794""
","
","null","run_exp/static/images/Set 6_rs/154a.jpg","null","","","","","","learn","SR",""
"","html-keyboard-response","186","206552","0.0-186.0","""event"",""trial"",""time""
""fullscreenenter"",""0"",""11794""
","
","
","""event"",""trial"",""time""
""fullscreenenter"",""0"",""11794""
","
","null","<p></p>","null","","","","","","","",""
"","image","187","207941","0.0-187.0","""event"",""trial"",""time""
""fullscreenenter"",""0"",""11794""
","
","
","""event"",""trial"",""time""
""fullscreenenter"",""0"",""11794""
","
","1388.5","run_exp/static/images/Set 6_rs/117a.jpg","86","","","","","","learn","SL",""
"","show_choice","188","208555","0.0-188.0","""event"",""trial"",""time""
""fullscreenenter"",""0"",""11794""
","
","
","""event"",""trial"",""time""
""fullscreenenter"",""0"",""11794""
","
","null","run_exp/static/images/Set 6_rs/117a.jpg","null","","","","","","learn","SL",""
"","html-keyboard-response","189","209057","0.0-189.0","""event"",""trial"",""time""
""fullscreenenter"",""0"",""11794""
","
","
","""event"",""trial"",""time""
""fullscreenenter"",""0"",""11794""
","
","null","<p></p>","null","","","","","","","",""
"","image","190","210734","0.0-190.0","""event"",""trial"",""time""
""fullscreenenter"",""0"",""11794""
","
","
","""event"",""trial"",""time""
""fullscreenenter"",""0"",""11794""
","
","1675.5","run_exp/static/images/Set 6_rs/150a.jpg","86","","","","","","learn","SR",""
"","show_choice","191","211063","0.0-191.0","""event"",""trial"",""time""
""fullscreenenter"",""0"",""11794""
","
","
","""event"",""trial"",""time""
""fullscreenenter"",""0"",""11794""
","
","null","run_exp/static/images/Set 6_rs/150a.jpg","null","","","","","","learn","SR",""
"","html-keyboard-response","192","211568","0.0-192.0","""event"",""trial"",""time""
""fullscreenenter"",""0"",""11794""
","
","
","""event"",""trial"",""time""
""fullscreenenter"",""0"",""11794""
","
","null","<p></p>","null","","","","","","","",""
"","image","193","212597","0.0-193.0","""event"",""trial"",""time""
""fullscreenenter"",""0"",""11794""
","
","
","""event"",""trial"",""time""
""fullscreenenter"",""0"",""11794""
","
","1028.5","run_exp/static/images/Set 6_rs/177a.jpg","78","","","","","","learn","SR",""
"","show_choice","194","213572","0.0-194.0","""event"",""trial"",""time""
""fullscreenenter"",""0"",""11794""
","
","
","""event"",""trial"",""time""
""fullscreenenter"",""0"",""11794""
","
","null","run_exp/static/images/Set 6_rs/177a.jpg","null","","","","","","learn","SR",""
"","html-keyboard-response","195","214076","0.0-195.0","""event"",""trial"",""time""
""fullscreenenter"",""0"",""11794""
","
","
","""event"",""trial"",""time""
""fullscreenenter"",""0"",""11794""
","
","null","<p></p>","null","","","","","","","",""
"","test_intro","196","251026","0.0-196.0","""event"",""trial"",""time""
""fullscreenenter"",""0"",""11794""
","
","
","""event"",""trial"",""time""
""fullscreenenter"",""0"",""11794""
","
","null","run_exp/static/audio/clip_2_memory.m4a","null","","","","","<div class='center'><p>Now, lets see how much you remember about the items you just saw.  For each item, you need to indicate if it was <b>old</b> by pressing the <b>v</b> key, <b>similar</b> by pressing the <b>b</b> key, or <b>new</b> by pressing the <b>n</b> key.</p><p>Old refers to an item that you saw before in the indoor/outdoor game that you just played, new refers to an item you have <b>not</b> seen before within the indoor/outdoor game, and similar refers to an item that is similar to an item youve seen before but is not exactly the same. </p><p>Before we begin, lets go over some brief demonstrations to make sure you understand.</p></div>","","",""
"","html-keyboard-response","197","259461","0.0-197.0","""event"",""trial"",""time""
""fullscreenenter"",""0"",""11794""
","
","
","""event"",""trial"",""time""
""fullscreenenter"",""0"",""11794""
","
","8433","<div class='center'><p>Now, lets see how much you remember about the items you just saw.  For each item, you need to indicate if it was <b>old</b> by pressing the <b>v</b> key, <b>similar</b> by pressing the <b>b</b> key, or <b>new</b> by pressing the <b>n</b> key.</p><p>Old refers to an item that you saw before in the indoor/outdoor game that you just played, new refers to an item you have <b>not</b> seen before within the indoor/outdoor game, and similar refers to an item that is similar to an item youve seen before but is not exactly the same. </p><p>Before we begin, lets go over some brief demonstrations to make sure you understand.</p><div><p><b>[Press the space bar to continue]</b></p></div>","32","","","","","","","",""
"","items","198","266968","0.0-198.0","""event"",""trial"",""time""
""fullscreenenter"",""0"",""11794""
","
","
","""event"",""trial"",""time""
""fullscreenenter"",""0"",""11794""
","
","null","run_exp/static/audio/clip_3_items.m4a","null","","","","","","","",""
"","mop","199","271473","0.0-199.0","""event"",""trial"",""time""
""fullscreenenter"",""0"",""11794""
","
","
","""event"",""trial"",""time""
""fullscreenenter"",""0"",""11794""
","
","null","run_exp/static/audio/clip_4_mop.m4a","null","","","","","","","",""
"","baseball","200","274980","0.0-200.0","""event"",""trial"",""time""
""fullscreenenter"",""0"",""11794""
","
","
","""event"",""trial"",""time""
""fullscreenenter"",""0"",""11794""
","
","null","run_exp/static/audio/clip_5_baseball.m4a","null","","","","","","","",""
"","trumpet","201","278483","0.0-201.0","""event"",""trial"",""time""
""fullscreenenter"",""0"",""11794""
","
","
","""event"",""trial"",""time""
""fullscreenenter"",""0"",""11794""
","
","null","run_exp/static/audio/clip_6_trumpet.m4a","null","","","","","","","",""
"","gummies","202","281989","0.0-202.0","""event"",""trial"",""time""
""fullscreenenter"",""0"",""11794""
","
","
","""event"",""trial"",""time""
""fullscreenenter"",""0"",""11794""
","
","null","run_exp/static/audio/clip_7_gummies.m4a","null","","","","","","","",""
"","osn","203","286491","0.0-203.0","""event"",""trial"",""time""
""fullscreenenter"",""0"",""11794""
","
","
","""event"",""trial"",""time""
""fullscreenenter"",""0"",""11794""
","
","null","run_exp/static/audio/clip_8_osn.m4a","null","","","","","","","",""
"","old_1","204","292993","0.0-204.0","""event"",""trial"",""time""
""fullscreenenter"",""0"",""11794""
","
","
","""event"",""trial"",""time""
""fullscreenenter"",""0"",""11794""
","
","null","run_exp/static/audio/clip_9_old_trumpet.m4a","null","","","","","","","",""
"","new_1","205","300499","0.0-205.0","""event"",""trial"",""time""
""fullscreenenter"",""0"",""11794""
","
","
","""event"",""trial"",""time""
""fullscreenenter"",""0"",""11794""
","
","null","run_exp/static/audio/clip_10_new_balloon.m4a","null","","","","","","","",""
"","similar_1a","206","305007","0.0-206.0","""event"",""trial"",""time""
""fullscreenenter"",""0"",""11794""
","
","
","""event"",""trial"",""time""
""fullscreenenter"",""0"",""11794""
","
","null","run_exp/static/audio/clip_11a_similar_mop.m4a","null","","","","","","","",""
"","similar_1b","207","311513","0.0-207.0","""event"",""trial"",""time""
""fullscreenenter"",""0"",""11794""
","
","
","""event"",""trial"",""time""
""fullscreenenter"",""0"",""11794""
","
","null","run_exp/static/audio/clip_11b_similar_mop.m4a","null","","","","","","","",""
"","new_2","208","315016","0.0-208.0","""event"",""trial"",""time""
""fullscreenenter"",""0"",""11794""
","
","
","""event"",""trial"",""time""
""fullscreenenter"",""0"",""11794""
","
","null","run_exp/static/audio/clip_12_new_stoplight.m4a","null","","","","","","","",""
"","old_2","209","318519","0.0-209.0","""event"",""trial"",""time""
""fullscreenenter"",""0"",""11794""
","
","
","""event"",""trial"",""time""
""fullscreenenter"",""0"",""11794""
","
","null","run_exp/static/audio/clip_13_old_baseball.m4a","null","","","","","","","",""
"","similar_2a","210","322021","0.0-210.0","""event"",""trial"",""time""
""fullscreenenter"",""0"",""11794""
","
","
","""event"",""trial"",""time""
""fullscreenenter"",""0"",""11794""
","
","null","run_exp/static/audio/clip_14a_similar_gummies.m4a","null","","","","","","","",""
"","similar_2b","211","329528","0.0-211.0","""event"",""trial"",""time""
""fullscreenenter"",""0"",""11794""
","
","
","""event"",""trial"",""time""
""fullscreenenter"",""0"",""11794""
","
","null","run_exp/static/audio/clip_14b_similar_gummies.m4a","null","","","","","","","",""
"","practice","212","371680","0.0-212.0","""event"",""trial"",""time""
""fullscreenenter"",""0"",""11794""
","
","
","""event"",""trial"",""time""
""fullscreenenter"",""0"",""11794""
","
","null","run_exp/static/audio/clip_15_practice.m4a","null","","","","","<div class='center'><p>Lets practice a little to make sure you understand the difference between new, similar, and old. Lets say you saw these three items in the indoor/outdoor game.</p><p> Try your best to remember these images because youll soon be tested on them in a practice game. In the practice game, youll be shown images and youll have to say if they are old (one of the three images belows), similar (similar to one of the images below but not exactly the same), or new (are not one of the images below nor similar to them).</p><p>Once you press the space bar youll be shown these images again but one at time. Then youll begin the practice game.</p><p><img src='run_exp/static/images/tutorial/test/three_indoor_outdoor.png' height='300'></p></div>","","",""
"","html-keyboard-response","213","372297","0.0-213.0","""event"",""trial"",""time""
""fullscreenenter"",""0"",""11794""
","
","
","""event"",""trial"",""time""
""fullscreenenter"",""0"",""11794""
","
","615.5","<div class='center'><p>Lets practice a little to make sure you understand the difference between new, similar, and old. Lets say you saw these three items in the indoor/outdoor game.</p><p> Try your best to remember these images because youll soon be tested on them in a practice game. In the practice game, youll be shown images and youll have to say if they are old (one of the three images belows), similar (similar to one of the images below but not exactly the same), or new (are not one of the images below nor similar to them).</p><p>Once you press the space bar youll be shown these images again but one at time. Then youll begin the practice game.</p><p><img src='run_exp/static/images/tutorial/test/three_indoor_outdoor.png' height='300'></p><div><p><b>[Press the space bar to continue]</b></p></div>","32","","","","","","","",""
"","planet","214","374302","0.0-214.0","""event"",""trial"",""time""
""fullscreenenter"",""0"",""11794""
","
","
","""event"",""trial"",""time""
""fullscreenenter"",""0"",""11794""
","
","null","run_exp/static/images/tutorial/test/008a.jpg","null","","","","","","","",""
"","boot","215","376308","0.0-215.0","""event"",""trial"",""time""
""fullscreenenter"",""0"",""11794""
","
","
","""event"",""trial"",""time""
""fullscreenenter"",""0"",""11794""
","
","null","run_exp/static/images/tutorial/test/011a.jpg","null","","","","","","","",""
"","lemon","216","378310","0.0-216.0","""event"",""trial"",""time""
""fullscreenenter"",""0"",""11794""
","
","
","""event"",""trial"",""time""
""fullscreenenter"",""0"",""11794""
","
","null","run_exp/static/images/tutorial/test/018a.jpg","null","","","","","","","",""
"","practice_q1","217","384426","0.0-217.0","""event"",""trial"",""time""
""fullscreenenter"",""0"",""11794""
","
","
","""event"",""trial"",""time""
""fullscreenenter"",""0"",""11794""
","
","6113.5","run_exp/static/audio/clip_16_practice_question.m4a","66","","","","","","","",""
"","incorrect_q1","218","387238","0.0-218.0-0.0","""event"",""trial"",""time""
""fullscreenenter"",""0"",""11794""
","
","
","""event"",""trial"",""time""
""fullscreenenter"",""0"",""11794""
","
","null","run_exp/static/audio/clip_18_incorrect_new.m4a","null","","","","","<div class='center'><p>Thats incorrect. Its new.</p></div>","","",""
"","html-keyboard-response","219","388252","0.0-218.0-1.0","""event"",""trial"",""time""
""fullscreenenter"",""0"",""11794""
","
","
","""event"",""trial"",""time""
""fullscreenenter"",""0"",""11794""
","
","1013.2000000029802","<div class='center'><p>Thats incorrect. Its new.</p><div><p><b>[Press the space bar to continue]</b></p></div>","32","","","","","","","",""
"","practice_q2","220","394196","0.0-218.0-2.0","""event"",""trial"",""time""
""fullscreenenter"",""0"",""11794""
","
","
","""event"",""trial"",""time""
""fullscreenenter"",""0"",""11794""
","
","5942.29999999702","run_exp/static/audio/clip_16_practice_question.m4a","86","","","","","","","",""
"","correct","221","396085","0.0-219.0-0.0","""event"",""trial"",""time""
""fullscreenenter"",""0"",""11794""
","
","
","""event"",""trial"",""time""
""fullscreenenter"",""0"",""11794""
","
","null","run_exp/static/audio/clip_17_correct.m4a","null","","","","","<div class='center'><p>That's correct!</p></div>","","",""
"","html-keyboard-response","222","396725","0.0-219.0-1.0","""event"",""trial"",""time""
""fullscreenenter"",""0"",""11794""
","
","
","""event"",""trial"",""time""
""fullscreenenter"",""0"",""11794""
","
","639.1999999880791","<div class='center'><p>That's correct!</p><div><p><b>[Press the space bar to continue]</b></p></div>","32","","","","","","","",""
"","practice_q3","223","400728","0.0-219.0-2.0","""event"",""trial"",""time""
""fullscreenenter"",""0"",""11794""
","
","
","""event"",""trial"",""time""
""fullscreenenter"",""0"",""11794""
","
","4000.0999999940395","run_exp/static/audio/clip_16_practice_question.m4a","66","","","","","","","",""
"","correct","224","402610","0.0-220.0-0.0","""event"",""trial"",""time""
""fullscreenenter"",""0"",""11794""
","
","
","""event"",""trial"",""time""
""fullscreenenter"",""0"",""11794""
","
","null","run_exp/static/audio/clip_17_correct.m4a","null","","","","","<div class='center'><p>That's correct!</p></div>","","",""
"","html-keyboard-response","225","403299","0.0-220.0-1.0","""event"",""trial"",""time""
""fullscreenenter"",""0"",""11794""
","
","
","""event"",""trial"",""time""
""fullscreenenter"",""0"",""11794""
","
","687.5","<div class='center'><p>That's correct!</p><div><p><b>[Press the space bar to continue]</b></p></div>","32","","","","","","","",""
"","repeat","226","408020","0.0-221.0-0.0","""event"",""trial"",""time""
""fullscreenenter"",""0"",""11794""
","
","
","""event"",""trial"",""time""
""fullscreenenter"",""0"",""11794""
","
","null","run_exp/static/audio/clip_21_practice_again.m4a","null","","","","","<div class='center'><p>Oops. you missed at least one of these questions. Let's try practicing again. </p></div>","","",""
"","html-keyboard-response","227","408535","0.0-221.0-1.0","""event"",""trial"",""time""
""fullscreenenter"",""0"",""11794""
","
","
","""event"",""trial"",""time""
""fullscreenenter"",""0"",""11794""
","
","513.2000000029802","<div class='center'><p>Oops. you missed at least one of these questions. Let's try practicing again. </p><div><p><b>[Press the space bar to continue]</b></p></div>","32","","","","","","","",""
"","practice_q1","228","411296","0.0-221.0-2.0","""event"",""trial"",""time""
""fullscreenenter"",""0"",""11794""
","
","
","""event"",""trial"",""time""
""fullscreenenter"",""0"",""11794""
","
","2758.9000000059605","run_exp/static/audio/clip_16_practice_question.m4a","78","","","","","","","",""
"","correct","229","413199","0.0-222.0-0.0","""event"",""trial"",""time""
""fullscreenenter"",""0"",""11794""
","
","
","""event"",""trial"",""time""
""fullscreenenter"",""0"",""11794""
","
","null","run_exp/static/audio/clip_17_correct.m4a","null","","","","","<div class='center'><p>That's correct!</p></div>","","",""
"","html-keyboard-response","230","414161","0.0-222.0-1.0","""event"",""trial"",""time""
""fullscreenenter"",""0"",""11794""
","
","
","""event"",""trial"",""time""
""fullscreenenter"",""0"",""11794""
","
","961.7999999970198","<div class='center'><p>That's correct!</p><div><p><b>[Press the space bar to continue]</b></p></div>","32","","","","","","","",""
"","practice_q2","231","415302","0.0-222.0-2.0","""event"",""trial"",""time""
""fullscreenenter"",""0"",""11794""
","
","
","""event"",""trial"",""time""
""fullscreenenter"",""0"",""11794""
","
","1139","run_exp/static/audio/clip_16_practice_question.m4a","86","","","","","","","",""
"","correct","232","417169","0.0-223.0-0.0","""event"",""trial"",""time""
""fullscreenenter"",""0"",""11794""
","
","
","""event"",""trial"",""time""
""fullscreenenter"",""0"",""11794""
","
","null","run_exp/static/audio/clip_17_correct.m4a","null","","","","","<div class='center'><p>That's correct!</p></div>","","",""
"","html-keyboard-response","233","417610","0.0-223.0-1.0","""event"",""trial"",""time""
""fullscreenenter"",""0"",""11794""
","
","
","""event"",""trial"",""time""
""fullscreenenter"",""0"",""11794""
","
","438.80000001192093","<div class='center'><p>That's correct!</p><div><p><b>[Press the space bar to continue]</b></p></div>","32","","","","","","","",""
"","practice_q3","234","418496","0.0-223.0-2.0","""event"",""trial"",""time""
""fullscreenenter"",""0"",""11794""
","
","
","""event"",""trial"",""time""
""fullscreenenter"",""0"",""11794""
","
","885","run_exp/static/audio/clip_16_practice_question.m4a","86","","","","","","","",""
"","incorrect_q3","235","421233","0.0-224.0-0.0","""event"",""trial"",""time""
""fullscreenenter"",""0"",""11794""
","
","
","""event"",""trial"",""time""
""fullscreenenter"",""0"",""11794""
","
","null","run_exp/static/audio/clip_20_incorrect_similar.m4a","null","","","","","<div class='center'><p>Thats incorrect. Its similar.</p><p><img src='run_exp/static/images/tutorial/test/boot_comparison.png' height='300'></p></div>","","",""
"","html-keyboard-response","236","422396","0.0-224.0-1.0","""event"",""trial"",""time""
""fullscreenenter"",""0"",""11794""
","
","
","""event"",""trial"",""time""
""fullscreenenter"",""0"",""11794""
","
","1161.2999999970198","<div class='center'><p>Thats incorrect. Its similar.</p><p><img src='run_exp/static/images/tutorial/test/boot_comparison.png' height='300'></p><div><p><b>[Press the space bar to continue]</b></p></div>","32","","","","","","","",""
"","repeat","237","427108","0.0-225.0-0.0","""event"",""trial"",""time""
""fullscreenenter"",""0"",""11794""
","
","
","""event"",""trial"",""time""
""fullscreenenter"",""0"",""11794""
","
","null","run_exp/static/audio/clip_21_practice_again.m4a","null","","","","","<div class='center'><p>Oops. you missed at least one of these questions. Let's try practicing again. </p></div>","","",""
"","html-keyboard-response","238","428081","0.0-225.0-1.0","""event"",""trial"",""time""
""fullscreenenter"",""0"",""11794""
","
","
","""event"",""trial"",""time""
""fullscreenenter"",""0"",""11794""
","
","971.5","<div class='center'><p>Oops. you missed at least one of these questions. Let's try practicing again. </p><div><p><b>[Press the space bar to continue]</b></p></div>","32","","","","","","","",""
"","practice_q1","239","431312","0.0-225.0-2.0","""event"",""trial"",""time""
""fullscreenenter"",""0"",""11794""
","
","
","""event"",""trial"",""time""
""fullscreenenter"",""0"",""11794""
","
","3229.2000000029802","run_exp/static/audio/clip_16_practice_question.m4a","78","","","","","","","",""
"","correct","240","433215","0.0-226.0-0.0","""event"",""trial"",""time""
""fullscreenenter"",""0"",""11794""
","
","
","""event"",""trial"",""time""
""fullscreenenter"",""0"",""11794""
","
","null","run_exp/static/audio/clip_17_correct.m4a","null","","","","","<div class='center'><p>That's correct!</p></div>","","",""
"","html-keyboard-response","241","433929","0.0-226.0-1.0","""event"",""trial"",""time""
""fullscreenenter"",""0"",""11794""
","
","
","""event"",""trial"",""time""
""fullscreenenter"",""0"",""11794""
","
","713.1000000089407","<div class='center'><p>That's correct!</p><div><p><b>[Press the space bar to continue]</b></p></div>","32","","","","","","","",""
"","practice_q2","242","435777","0.0-226.0-2.0","""event"",""trial"",""time""
""fullscreenenter"",""0"",""11794""
","
","
","""event"",""trial"",""time""
""fullscreenenter"",""0"",""11794""
","
","1846.5","run_exp/static/audio/clip_16_practice_question.m4a","86","","","","","","","",""
"","correct","243","437696","0.0-227.0-0.0","""event"",""trial"",""time""
""fullscreenenter"",""0"",""11794""
","
","
","""event"",""trial"",""time""
""fullscreenenter"",""0"",""11794""
","
","null","run_exp/static/audio/clip_17_correct.m4a","null","","","","","<div class='center'><p>That's correct!</p></div>","","",""
"","html-keyboard-response","244","438192","0.0-227.0-1.0","""event"",""trial"",""time""
""fullscreenenter"",""0"",""11794""
","
","
","""event"",""trial"",""time""
""fullscreenenter"",""0"",""11794""
","
","495","<div class='center'><p>That's correct!</p><div><p><b>[Press the space bar to continue]</b></p></div>","32","","","","","","","",""
"","practice_q3","245","439494","0.0-227.0-2.0","""event"",""trial"",""time""
""fullscreenenter"",""0"",""11794""
","
","
","""event"",""trial"",""time""
""fullscreenenter"",""0"",""11794""
","
","1300.7000000029802","run_exp/static/audio/clip_16_practice_question.m4a","66","","","","","","","",""
"","correct","246","441597","0.0-228.0-0.0","""event"",""trial"",""time""
""fullscreenenter"",""0"",""11794""
","
","
","""event"",""trial"",""time""
""fullscreenenter"",""0"",""11794""
","
","null","run_exp/static/audio/clip_17_correct.m4a","null","","","","","<div class='center'><p>That's correct!</p></div>","","",""
"","html-keyboard-response","247","442195","0.0-228.0-1.0","""event"",""trial"",""time""
""fullscreenenter"",""0"",""11794""
","
","
","""event"",""trial"",""time""
""fullscreenenter"",""0"",""11794""
","
","595.7000000029802","<div class='center'><p>That's correct!</p><div><p><b>[Press the space bar to continue]</b></p></div>","32","","","","","","","",""
"","begin_text","248","460662","0.0-229.0-0.0","""event"",""trial"",""time""
""fullscreenenter"",""0"",""11794""
","
","
","""event"",""trial"",""time""
""fullscreenenter"",""0"",""11794""
","
","null","run_exp/static/audio/clip_22_begin_test.m4a","null","","","","","<div class='center'><p>On to the real game where well test your memory of items from the indoor/outdoor game. For each item, you need to indicate if the item is <b>old</b> by pressing the <b>v</b> key, <b>similar</b> by pressing the <b>b</b> key, or <b>new</b> by pressing the <b>n</b> key. </p></div>","","",""
"","html-keyboard-response","249","461445","0.0-229.0-1.0","""event"",""trial"",""time""
""fullscreenenter"",""0"",""11794""
","
","
","""event"",""trial"",""time""
""fullscreenenter"",""0"",""11794""
","
","782.2999999970198","<div class='center'><p>On to the real game where well test your memory of items from the indoor/outdoor game. For each item, you need to indicate if the item is <b>old</b> by pressing the <b>v</b> key, <b>similar</b> by pressing the <b>b</b> key, or <b>new</b> by pressing the <b>n</b> key. </p><div><p><b>[Press the space bar to continue]</b></p></div>","32","","","","","","","",""
"","image","250","462815","0.0-230.0-0.0","""event"",""trial"",""time""
""fullscreenenter"",""0"",""11794""
","
","
","""event"",""trial"",""time""
""fullscreenenter"",""0"",""11794""
","
","1368.2999999970198","run_exp/static/images/Set 6_rs/097a.jpg","78","","","","","","test","TF","5"
"","show_choice","251","463317","0.0-230.0-1.0","""event"",""trial"",""time""
""fullscreenenter"",""0"",""11794""
","
","
","""event"",""trial"",""time""
""fullscreenenter"",""0"",""11794""
","
","null","run_exp/static/images/Set 6_rs/097a.jpg","null","","","","","","test","TF",""
"","html-keyboard-response","252","463820","0.0-230.0-2.0","""event"",""trial"",""time""
""fullscreenenter"",""0"",""11794""
","
","
","""event"",""trial"",""time""
""fullscreenenter"",""0"",""11794""
","
","null","<p></p>","null","","","","","","","",""
"","image","253","464918","0.0-231.0-0.0","""event"",""trial"",""time""
""fullscreenenter"",""0"",""11794""
","
","
","""event"",""trial"",""time""
""fullscreenenter"",""0"",""11794""
","
","1097.2000000029802","run_exp/static/images/Set 6_rs/178a.jpg","66","","","","","","test","TR","3"
"","show_choice","254","465421","0.0-231.0-1.0","""event"",""trial"",""time""
""fullscreenenter"",""0"",""11794""
","
","
","""event"",""trial"",""time""
""fullscreenenter"",""0"",""11794""
","
","null","run_exp/static/images/Set 6_rs/178a.jpg","null","","","","","","test","TR",""
"","html-keyboard-response","255","465923","0.0-231.0-2.0","""event"",""trial"",""time""
""fullscreenenter"",""0"",""11794""
","
","
","""event"",""trial"",""time""
""fullscreenenter"",""0"",""11794""
","
","null","<p></p>","null","","","","","","","",""
"","image","256","467159","0.0-232.0-0.0","""event"",""trial"",""time""
""fullscreenenter"",""0"",""11794""
","
","
","""event"",""trial"",""time""
""fullscreenenter"",""0"",""11794""
","
","1234.4000000059605","run_exp/static/images/Set 6_rs/021a.jpg","86","","","","","","test","TF","2"
"","show_choice","257","467662","0.0-232.0-1.0","""event"",""trial"",""time""
""fullscreenenter"",""0"",""11794""
","
","
","""event"",""trial"",""time""
""fullscreenenter"",""0"",""11794""
","
","null","run_exp/static/images/Set 6_rs/021a.jpg","null","","","","","","test","TF",""
"","html-keyboard-response","258","468168","0.0-232.0-2.0","""event"",""trial"",""time""
""fullscreenenter"",""0"",""11794""
","
","
","""event"",""trial"",""time""
""fullscreenenter"",""0"",""11794""
","
","null","<p></p>","null","","","","","","","",""
"","image","259","469402","0.0-233.0-0.0","""event"",""trial"",""time""
""fullscreenenter"",""0"",""11794""
","
","
","""event"",""trial"",""time""
""fullscreenenter"",""0"",""11794""
","
","1232.5999999940395","run_exp/static/images/Set 6_rs/007a.jpg","86","","","","","","test","TR","3"
"","show_choice","260","469903","0.0-233.0-1.0","""event"",""trial"",""time""
""fullscreenenter"",""0"",""11794""
","
","
","""event"",""trial"",""time""
""fullscreenenter"",""0"",""11794""
","
","null","run_exp/static/images/Set 6_rs/007a.jpg","null","","","","","","test","TR",""
"","html-keyboard-response","261","470407","0.0-233.0-2.0","""event"",""trial"",""time""
""fullscreenenter"",""0"",""11794""
","
","
","""event"",""trial"",""time""
""fullscreenenter"",""0"",""11794""
","
","null","<p></p>","null","","","","","","","",""
"","image","262","471712","0.0-234.0-0.0","""event"",""trial"",""time""
""fullscreenenter"",""0"",""11794""
","
","
","""event"",""trial"",""time""
""fullscreenenter"",""0"",""11794""
","
","1304.3999999910593","run_exp/static/images/Set 6_rs/012a.jpg","86","","","","","","test","TR","1"
"","show_choice","263","472215","0.0-234.0-1.0","""event"",""trial"",""time""
""fullscreenenter"",""0"",""11794""
","
","
","""event"",""trial"",""time""
""fullscreenenter"",""0"",""11794""
","
","null","run_exp/static/images/Set 6_rs/012a.jpg","null","","","","","","test","TR",""
"","html-keyboard-response","264","472717","0.0-234.0-2.0","""event"",""trial"",""time""
""fullscreenenter"",""0"",""11794""
","
","
","""event"",""trial"",""time""
""fullscreenenter"",""0"",""11794""
","
","null","<p></p>","null","","","","","","","",""
"","image","265","474035","0.0-235.0-0.0","""event"",""trial"",""time""
""fullscreenenter"",""0"",""11794""
","
","
","""event"",""trial"",""time""
""fullscreenenter"",""0"",""11794""
","
","1316.7000000029802","run_exp/static/images/Set 6_rs/140a.jpg","78","","","","","","test","TF","1"
"","show_choice","266","474540","0.0-235.0-1.0","""event"",""trial"",""time""
""fullscreenenter"",""0"",""11794""
","
","
","""event"",""trial"",""time""
""fullscreenenter"",""0"",""11794""
","
","null","run_exp/static/images/Set 6_rs/140a.jpg","null","","","","","","test","TF",""
"","html-keyboard-response","267","475042","0.0-235.0-2.0","""event"",""trial"",""time""
""fullscreenenter"",""0"",""11794""
","
","
","""event"",""trial"",""time""
""fullscreenenter"",""0"",""11794""
","
","null","<p></p>","null","","","","","","","",""
"","image","268","476426","0.0-236.0-0.0","""event"",""trial"",""time""
""fullscreenenter"",""0"",""11794""
","
","
","""event"",""trial"",""time""
""fullscreenenter"",""0"",""11794""
","
","1382.7000000029802","run_exp/static/images/Set 6_rs/089b.jpg","66","","","","","","test","TL","4"
"","show_choice","269","476931","0.0-236.0-1.0","""event"",""trial"",""time""
""fullscreenenter"",""0"",""11794""
","
","
","""event"",""trial"",""time""
""fullscreenenter"",""0"",""11794""
","
","null","run_exp/static/images/Set 6_rs/089b.jpg","null","","","","","","test","TL",""
"","html-keyboard-response","270","477436","0.0-236.0-2.0","""event"",""trial"",""time""
""fullscreenenter"",""0"",""11794""
","
","
","""event"",""trial"",""time""
""fullscreenenter"",""0"",""11794""
","
","null","<p></p>","null","","","","","","","",""
"","image","271","478777","0.0-237.0-0.0","""event"",""trial"",""time""
""fullscreenenter"",""0"",""11794""
","
","
","""event"",""trial"",""time""
""fullscreenenter"",""0"",""11794""
","
","1339.7999999970198","run_exp/static/images/Set 6_rs/176a.jpg","78","","","","","","test","TF","4"
"","show_choice","272","479282","0.0-237.0-1.0","""event"",""trial"",""time""
""fullscreenenter"",""0"",""11794""
","
","
","""event"",""trial"",""time""
""fullscreenenter"",""0"",""11794""
","
","null","run_exp/static/images/Set 6_rs/176a.jpg","null","","","","","","test","TF",""
"","html-keyboard-response","273","479786","0.0-237.0-2.0","""event"",""trial"",""time""
""fullscreenenter"",""0"",""11794""
","
","
","""event"",""trial"",""time""
""fullscreenenter"",""0"",""11794""
","
","null","<p></p>","null","","","","","","","",""
"","image","274","481092","0.0-238.0-0.0","""event"",""trial"",""time""
""fullscreenenter"",""0"",""11794""
","
","
","""event"",""trial"",""time""
""fullscreenenter"",""0"",""11794""
","
","1305.5999999940395","run_exp/static/images/Set 6_rs/171a.jpg","78","","","","","","test","TF","1"
"","show_choice","275","481596","0.0-238.0-1.0","""event"",""trial"",""time""
""fullscreenenter"",""0"",""11794""
","
","
","""event"",""trial"",""time""
""fullscreenenter"",""0"",""11794""
","
","null","run_exp/static/images/Set 6_rs/171a.jpg","null","","","","","","test","TF",""
"","html-keyboard-response","276","482097","0.0-238.0-2.0","""event"",""trial"",""time""
""fullscreenenter"",""0"",""11794""
","
","
","""event"",""trial"",""time""
""fullscreenenter"",""0"",""11794""
","
","null","<p></p>","null","","","","","","","",""
"","image","277","483154","0.0-239.0-0.0","""event"",""trial"",""time""
""fullscreenenter"",""0"",""11794""
","
","
","""event"",""trial"",""time""
""fullscreenenter"",""0"",""11794""
","
","1055.5999999940395","run_exp/static/images/Set 6_rs/005a.jpg","78","","","","","","test","TF","5"
"","show_choice","278","483659","0.0-239.0-1.0","""event"",""trial"",""time""
""fullscreenenter"",""0"",""11794""
","
","
","""event"",""trial"",""time""
""fullscreenenter"",""0"",""11794""
","
","null","run_exp/static/images/Set 6_rs/005a.jpg","null","","","","","","test","TF",""
"","html-keyboard-response","279","484165","0.0-239.0-2.0","""event"",""trial"",""time""
""fullscreenenter"",""0"",""11794""
","
","
","""event"",""trial"",""time""
""fullscreenenter"",""0"",""11794""
","
","null","<p></p>","null","","","","","","","",""
"","image","280","485207","0.0-240.0-0.0","""event"",""trial"",""time""
""fullscreenenter"",""0"",""11794""
","
","
","""event"",""trial"",""time""
""fullscreenenter"",""0"",""11794""
","
","1040.5","run_exp/static/images/Set 6_rs/095b.jpg","86","","","","","","test","TL","5"
"","show_choice","281","485709","0.0-240.0-1.0","""event"",""trial"",""time""
""fullscreenenter"",""0"",""11794""
","
","
","""event"",""trial"",""time""
""fullscreenenter"",""0"",""11794""
","
","null","run_exp/static/images/Set 6_rs/095b.jpg","null","","","","","","test","TL",""
"","html-keyboard-response","282","486212","0.0-240.0-2.0","""event"",""trial"",""time""
""fullscreenenter"",""0"",""11794""
","
","
","""event"",""trial"",""time""
""fullscreenenter"",""0"",""11794""
","
","null","<p></p>","null","","","","","","","",""
"","image","283","487541","0.0-241.0-0.0","""event"",""trial"",""time""
""fullscreenenter"",""0"",""11794""
","
","
","""event"",""trial"",""time""
""fullscreenenter"",""0"",""11794""
","
","1327.9000000059605","run_exp/static/images/Set 6_rs/010a.jpg","86","","","","","","test","TR","5"
"","show_choice","284","488044","0.0-241.0-1.0","""event"",""trial"",""time""
""fullscreenenter"",""0"",""11794""
","
","
","""event"",""trial"",""time""
""fullscreenenter"",""0"",""11794""
","
","null","run_exp/static/images/Set 6_rs/010a.jpg","null","","","","","","test","TR",""
"","html-keyboard-response","285","488546","0.0-241.0-2.0","""event"",""trial"",""time""
""fullscreenenter"",""0"",""11794""
","
","
","""event"",""trial"",""time""
""fullscreenenter"",""0"",""11794""
","
","null","<p></p>","null","","","","","","","",""
"","image","286","489640","0.0-242.0-0.0","""event"",""trial"",""time""
""fullscreenenter"",""0"",""11794""
","
","
","""event"",""trial"",""time""
""fullscreenenter"",""0"",""11794""
","
","1092.7000000029802","run_exp/static/images/Set 6_rs/057b.jpg","86","","","","","","test","TL","1"
"","show_choice","287","490142","0.0-242.0-1.0","""event"",""trial"",""time""
""fullscreenenter"",""0"",""11794""
","
","
","""event"",""trial"",""time""
""fullscreenenter"",""0"",""11794""
","
","null","run_exp/static/images/Set 6_rs/057b.jpg","null","","","","","","test","TL",""
"","html-keyboard-response","288","490645","0.0-242.0-2.0","""event"",""trial"",""time""
""fullscreenenter"",""0"",""11794""
","
","
","""event"",""trial"",""time""
""fullscreenenter"",""0"",""11794""
","
","null","<p></p>","null","","","","","","","",""
"","image","289","491753","0.0-243.0-0.0","""event"",""trial"",""time""
""fullscreenenter"",""0"",""11794""
","
","
","""event"",""trial"",""time""
""fullscreenenter"",""0"",""11794""
","
","1106.0999999940395","run_exp/static/images/Set 6_rs/170a.jpg","78","","","","","","test","TF","2"
"","show_choice","290","492255","0.0-243.0-1.0","""event"",""trial"",""time""
""fullscreenenter"",""0"",""11794""
","
","
","""event"",""trial"",""time""
""fullscreenenter"",""0"",""11794""
","
","null","run_exp/static/images/Set 6_rs/170a.jpg","null","","","","","","test","TF",""
"","html-keyboard-response","291","492758","0.0-243.0-2.0","""event"",""trial"",""time""
""fullscreenenter"",""0"",""11794""
","
","
","""event"",""trial"",""time""
""fullscreenenter"",""0"",""11794""
","
","null","<p></p>","null","","","","","","","",""
"","image","292","493789","0.0-244.0-0.0","""event"",""trial"",""time""
""fullscreenenter"",""0"",""11794""
","
","
","""event"",""trial"",""time""
""fullscreenenter"",""0"",""11794""
","
","1029.9000000059605","run_exp/static/images/Set 6_rs/112a.jpg","86","","","","","","test","TR","5"
"","show_choice","293","494292","0.0-244.0-1.0","""event"",""trial"",""time""
""fullscreenenter"",""0"",""11794""
","
","
","""event"",""trial"",""time""
""fullscreenenter"",""0"",""11794""
","
","null","run_exp/static/images/Set 6_rs/112a.jpg","null","","","","","","test","TR",""
"","html-keyboard-response","294","494794","0.0-244.0-2.0","""event"",""trial"",""time""
""fullscreenenter"",""0"",""11794""
","
","
","""event"",""trial"",""time""
""fullscreenenter"",""0"",""11794""
","
","null","<p></p>","null","","","","","","","",""
"","image","295","495870","0.0-245.0-0.0","""event"",""trial"",""time""
""fullscreenenter"",""0"",""11794""
","
","
","""event"",""trial"",""time""
""fullscreenenter"",""0"",""11794""
","
","1074.7000000029802","run_exp/static/images/Set 6_rs/126a.jpg","86","","","","","","test","TR","2"
"","show_choice","296","496372","0.0-245.0-1.0","""event"",""trial"",""time""
""fullscreenenter"",""0"",""11794""
","
","
","""event"",""trial"",""time""
""fullscreenenter"",""0"",""11794""
","
","null","run_exp/static/images/Set 6_rs/126a.jpg","null","","","","","","test","TR",""
"","html-keyboard-response","297","496876","0.0-245.0-2.0","""event"",""trial"",""time""
""fullscreenenter"",""0"",""11794""
","
","
","""event"",""trial"",""time""
""fullscreenenter"",""0"",""11794""
","
","null","<p></p>","null","","","","","","","",""
"","image","298","497655","0.0-246.0-0.0","""event"",""trial"",""time""
""fullscreenenter"",""0"",""11794""
","
","
","""event"",""trial"",""time""
""fullscreenenter"",""0"",""11794""
","
","777.8000000119209","run_exp/static/images/Set 6_rs/116b.jpg","86","","","","","","test","TL","2"
"","show_choice","299","498158","0.0-246.0-1.0","""event"",""trial"",""time""
""fullscreenenter"",""0"",""11794""
","
","
","""event"",""trial"",""time""
""fullscreenenter"",""0"",""11794""
","
","null","run_exp/static/images/Set 6_rs/116b.jpg","null","","","","","","test","TL",""
"","html-keyboard-response","300","498659","0.0-246.0-2.0","""event"",""trial"",""time""
""fullscreenenter"",""0"",""11794""
","
","
","""event"",""trial"",""time""
""fullscreenenter"",""0"",""11794""
","
","null","<p></p>","null","","","","","","","",""
"","image","301","499740","0.0-247.0-0.0","""event"",""trial"",""time""
""fullscreenenter"",""0"",""11794""
","
","
","""event"",""trial"",""time""
""fullscreenenter"",""0"",""11794""
","
","1079.8999999910593","run_exp/static/images/Set 6_rs/035a.jpg","78","","","","","","test","TF","4"
"","show_choice","302","500244","0.0-247.0-1.0","""event"",""trial"",""time""
""fullscreenenter"",""0"",""11794""
","
","
","""event"",""trial"",""time""
""fullscreenenter"",""0"",""11794""
","
","null","run_exp/static/images/Set 6_rs/035a.jpg","null","","","","","","test","TF",""
"","html-keyboard-response","303","500750","0.0-247.0-2.0","""event"",""trial"",""time""
""fullscreenenter"",""0"",""11794""
","
","
","""event"",""trial"",""time""
""fullscreenenter"",""0"",""11794""
","
","null","<p></p>","null","","","","","","","",""
"","image","304","502016","0.0-248.0-0.0","""event"",""trial"",""time""
""fullscreenenter"",""0"",""11794""
","
","
","""event"",""trial"",""time""
""fullscreenenter"",""0"",""11794""
","
","1264.3999999910593","run_exp/static/images/Set 6_rs/025b.jpg","66","","","","","","test","TL","5"
"","show_choice","305","502522","0.0-248.0-1.0","""event"",""trial"",""time""
""fullscreenenter"",""0"",""11794""
","
","
","""event"",""trial"",""time""
""fullscreenenter"",""0"",""11794""
","
","null","run_exp/static/images/Set 6_rs/025b.jpg","null","","","","","","test","TL",""
"","html-keyboard-response","306","503028","0.0-248.0-2.0","""event"",""trial"",""time""
""fullscreenenter"",""0"",""11794""
","
","
","""event"",""trial"",""time""
""fullscreenenter"",""0"",""11794""
","
","null","<p></p>","null","","","","","","","",""
"","image","307","504158","0.0-249.0-0.0","""event"",""trial"",""time""
""fullscreenenter"",""0"",""11794""
","
","
","""event"",""trial"",""time""
""fullscreenenter"",""0"",""11794""
","
","1129","run_exp/static/images/Set 6_rs/136a.jpg","78","","","","","","test","TF","4"
"","show_choice","308","504663","0.0-249.0-1.0","""event"",""trial"",""time""
""fullscreenenter"",""0"",""11794""
","
","
","""event"",""trial"",""time""
""fullscreenenter"",""0"",""11794""
","
","null","run_exp/static/images/Set 6_rs/136a.jpg","null","","","","","","test","TF",""
"","html-keyboard-response","309","505169","0.0-249.0-2.0","""event"",""trial"",""time""
""fullscreenenter"",""0"",""11794""
","
","
","""event"",""trial"",""time""
""fullscreenenter"",""0"",""11794""
","
","null","<p></p>","null","","","","","","","",""
"","image","310","506437","0.0-250.0-0.0","""event"",""trial"",""time""
""fullscreenenter"",""0"",""11794""
","
","
","""event"",""trial"",""time""
""fullscreenenter"",""0"",""11794""
","
","1266","run_exp/static/images/Set 6_rs/065a.jpg","78","","","","","","test","TF","3"
"","show_choice","311","506939","0.0-250.0-1.0","""event"",""trial"",""time""
""fullscreenenter"",""0"",""11794""
","
","
","""event"",""trial"",""time""
""fullscreenenter"",""0"",""11794""
","
","null","run_exp/static/images/Set 6_rs/065a.jpg","null","","","","","","test","TF",""
"","html-keyboard-response","312","507445","0.0-250.0-2.0","""event"",""trial"",""time""
""fullscreenenter"",""0"",""11794""
","
","
","""event"",""trial"",""time""
""fullscreenenter"",""0"",""11794""
","
","null","<p></p>","null","","","","","","","",""
"","image","313","508401","0.0-251.0-0.0","""event"",""trial"",""time""
""fullscreenenter"",""0"",""11794""
","
","
","""event"",""trial"",""time""
""fullscreenenter"",""0"",""11794""
","
","954.0999999940395","run_exp/static/images/Set 6_rs/150a.jpg","86","","","","","","test","TR","1"
"","show_choice","314","508903","0.0-251.0-1.0","""event"",""trial"",""time""
""fullscreenenter"",""0"",""11794""
","
","
","""event"",""trial"",""time""
""fullscreenenter"",""0"",""11794""
","
","null","run_exp/static/images/Set 6_rs/150a.jpg","null","","","","","","test","TR",""
"","html-keyboard-response","315","509409","0.0-251.0-2.0","""event"",""trial"",""time""
""fullscreenenter"",""0"",""11794""
","
","
","""event"",""trial"",""time""
""fullscreenenter"",""0"",""11794""
","
","null","<p></p>","null","","","","","","","",""
"","image","316","510726","0.0-252.0-0.0","""event"",""trial"",""time""
""fullscreenenter"",""0"",""11794""
","
","
","""event"",""trial"",""time""
""fullscreenenter"",""0"",""11794""
","
","1315.2999999970198","run_exp/static/images/Set 6_rs/047a.jpg","78","","","","","","test","TF","3"
"","show_choice","317","511231","0.0-252.0-1.0","""event"",""trial"",""time""
""fullscreenenter"",""0"",""11794""
","
","
","""event"",""trial"",""time""
""fullscreenenter"",""0"",""11794""
","
","null","run_exp/static/images/Set 6_rs/047a.jpg","null","","","","","","test","TF",""
"","html-keyboard-response","318","511737","0.0-252.0-2.0","""event"",""trial"",""time""
""fullscreenenter"",""0"",""11794""
","
","
","""event"",""trial"",""time""
""fullscreenenter"",""0"",""11794""
","
","null","<p></p>","null","","","","","","","",""
"","image","319","512912","0.0-253.0-0.0","""event"",""trial"",""time""
""fullscreenenter"",""0"",""11794""
","
","
","""event"",""trial"",""time""
""fullscreenenter"",""0"",""11794""
","
","1173.2000000029802","run_exp/static/images/Set 6_rs/052a.jpg","78","","","","","","test","TF","1"
"","show_choice","320","513417","0.0-253.0-1.0","""event"",""trial"",""time""
""fullscreenenter"",""0"",""11794""
","
","
","""event"",""trial"",""time""
""fullscreenenter"",""0"",""11794""
","
","null","run_exp/static/images/Set 6_rs/052a.jpg","null","","","","","","test","TF",""
"","html-keyboard-response","321","513923","0.0-253.0-2.0","""event"",""trial"",""time""
""fullscreenenter"",""0"",""11794""
","
","
","""event"",""trial"",""time""
""fullscreenenter"",""0"",""11794""
","
","null","<p></p>","null","","","","","","","",""
"","image","322","514851","0.0-254.0-0.0","""event"",""trial"",""time""
""fullscreenenter"",""0"",""11794""
","
","
","""event"",""trial"",""time""
""fullscreenenter"",""0"",""11794""
","
","926.7000000029802","run_exp/static/images/Set 6_rs/055b.jpg","86","","","","","","test","TL","4"
"","show_choice","323","515357","0.0-254.0-1.0","""event"",""trial"",""time""
""fullscreenenter"",""0"",""11794""
","
","
","""event"",""trial"",""time""
""fullscreenenter"",""0"",""11794""
","
","null","run_exp/static/images/Set 6_rs/055b.jpg","null","","","","","","test","TL",""
"","html-keyboard-response","324","515861","0.0-254.0-2.0","""event"",""trial"",""time""
""fullscreenenter"",""0"",""11794""
","
","
","""event"",""trial"",""time""
""fullscreenenter"",""0"",""11794""
","
","null","<p></p>","null","","","","","","","",""
"","image","325","517236","0.0-255.0-0.0","""event"",""trial"",""time""
""fullscreenenter"",""0"",""11794""
","
","
","""event"",""trial"",""time""
""fullscreenenter"",""0"",""11794""
","
","1373.2999999970198","run_exp/static/images/Set 6_rs/061a.jpg","86","","","","","","test","TR","5"
"","show_choice","326","517741","0.0-255.0-1.0","""event"",""trial"",""time""
""fullscreenenter"",""0"",""11794""
","
","
","""event"",""trial"",""time""
""fullscreenenter"",""0"",""11794""
","
","null","run_exp/static/images/Set 6_rs/061a.jpg","null","","","","","","test","TR",""
"","html-keyboard-response","327","518244","0.0-255.0-2.0","""event"",""trial"",""time""
""fullscreenenter"",""0"",""11794""
","
","
","""event"",""trial"",""time""
""fullscreenenter"",""0"",""11794""
","
","null","<p></p>","null","","","","","","","",""
"","image","328","519685","0.0-256.0-0.0","""event"",""trial"",""time""
""fullscreenenter"",""0"",""11794""
","
","
","""event"",""trial"",""time""
""fullscreenenter"",""0"",""11794""
","
","1439.5","run_exp/static/images/Set 6_rs/149a.jpg","66","","","","","","test","TF","1"
"","show_choice","329","520189","0.0-256.0-1.0","""event"",""trial"",""time""
""fullscreenenter"",""0"",""11794""
","
","
","""event"",""trial"",""time""
""fullscreenenter"",""0"",""11794""
","
","null","run_exp/static/images/Set 6_rs/149a.jpg","null","","","","","","test","TF",""
"","html-keyboard-response","330","520690","0.0-256.0-2.0","""event"",""trial"",""time""
""fullscreenenter"",""0"",""11794""
","
","
","""event"",""trial"",""time""
""fullscreenenter"",""0"",""11794""
","
","null","<p></p>","null","","","","","","","",""
"","image","331","522292","0.0-257.0-0.0","""event"",""trial"",""time""
""fullscreenenter"",""0"",""11794""
","
","
","""event"",""trial"",""time""
""fullscreenenter"",""0"",""11794""
","
","1600.6000000089407","run_exp/static/images/Set 6_rs/187a.jpg","78","","","","","","test","TR","3"
"","show_choice","332","522794","0.0-257.0-1.0","""event"",""trial"",""time""
""fullscreenenter"",""0"",""11794""
","
","
","""event"",""trial"",""time""
""fullscreenenter"",""0"",""11794""
","
","null","run_exp/static/images/Set 6_rs/187a.jpg","null","","","","","","test","TR",""
