"success","trial_type","trial_index","time_elapsed","internal_node_id","rt","stimulus","key_press","subject_id","participant_id","age","gender","prompt","phase","condition","lure_bin"
"true","fullscreen","0","3101","0.0-0.0","","","","","","","","","","",""
"","pavlovia","1","3105","0.0-1.0","","","","","","","","","","",""
"","welcome","2","38870","0.0-2.0","null","run_exp/static/audio/clip_1_welcome.m4a","null","67","521","10","male","<div class='center'><p>This is your last game of the experiment! First, you'll be shown pictures of items one at a time. For each picture, you have to decide if the item is typically found indoors or outdoors.</p><p>If you think it's usually found indoors, then press <b>v</b> key on your keyboard. If you think it's usually found outdoors, then press the <b>n</b> key.There will be reminders on the screen to help you remember which keys to press. </p><p>If you're not sure whether the item is an indoor item or outdoor item, go ahead and take a guess but try your best not to skip that choice. </p></div>","","",""
"","html-keyboard-response","3","39764","0.0-3.0","892.8000000007451","<div class='center'><p>This is your last game of the experiment! First, you'll be shown pictures of items one at a time. For each picture, you have to decide if the item is typically found indoors or outdoors.</p><p>If you think it's usually found indoors, then press <b>v</b> key on your keyboard. If you think it's usually found outdoors, then press the <b>n</b> key.There will be reminders on the screen to help you remember which keys to press. </p><p>If you're not sure whether the item is an indoor item or outdoor item, go ahead and take a guess but try your best not to skip that choice. </p><div><p><b>[Press the space bar to continue]</b></p></div>","32","","","","","","","",""
"","image","4","41771","0.0-4.0","null","run_exp/static/images/Set 6_rs/089a.jpg","null","","","","","","learn","SL",""
"","show_choice","5","43773","0.0-5.0","null","run_exp/static/images/blank.png","null","","","","","","learn","SL",""
"","html-keyboard-response","6","44279","0.0-6.0","null","<p></p>","null","","","","","","","",""
"","image","7","45364","0.0-7.0","1083.9000000022352","run_exp/static/images/Set 6_rs/064a.jpg","86","","","","","","learn","SR",""
"","show_choice","8","46285","0.0-8.0","null","run_exp/static/images/Set 6_rs/064a.jpg","null","","","","","","learn","SR",""
"","html-keyboard-response","9","46789","0.0-9.0","null","<p></p>","null","","","","","","","",""
"","image","10","47780","0.0-10.0","990.3999999985099","run_exp/static/images/Set 6_rs/150a.jpg","86","","","","","","learn","SR",""
"","show_choice","11","48794","0.0-11.0","null","run_exp/static/images/Set 6_rs/150a.jpg","null","","","","","","learn","SR",""
"","html-keyboard-response","12","49299","0.0-12.0","null","<p></p>","null","","","","","","","",""
"","image","13","50884","0.0-13.0","1583.3999999985099","run_exp/static/images/Set 6_rs/075a.jpg","78","","","","","","learn","SR",""
"","show_choice","14","51304","0.0-14.0","null","run_exp/static/images/Set 6_rs/075a.jpg","null","","","","","","learn","SR",""
"","html-keyboard-response","15","51805","0.0-15.0","null","<p></p>","null","","","","","","","",""
"","image","16","53107","0.0-16.0","1301.199999999255","run_exp/static/images/Set 6_rs/016a.jpg","86","","","","","","learn","SL",""
"","show_choice","17","53808","0.0-17.0","null","run_exp/static/images/Set 6_rs/016a.jpg","null","","","","","","learn","SL",""
"","html-keyboard-response","18","54311","0.0-18.0","null","<p></p>","null","","","","","","","",""
"","image","19","55812","0.0-19.0","1500.5","run_exp/static/images/Set 6_rs/085a.jpg","78","","","","","","learn","SL",""
"","show_choice","20","56317","0.0-20.0","null","run_exp/static/images/Set 6_rs/085a.jpg","null","","","","","","learn","SL",""
"","html-keyboard-response","21","56823","0.0-21.0","null","<p></p>","null","","","","","","","",""
"","image","22","58325","0.0-22.0","1500.6000000014901","run_exp/static/images/Set 6_rs/108a.jpg","86","","","","","","learn","SR",""
"","show_choice","23","58829","0.0-23.0","null","run_exp/static/images/Set 6_rs/108a.jpg","null","","","","","","learn","SR",""
"","html-keyboard-response","24","59332","0.0-24.0","null","<p></p>","null","","","","","","","",""
"","image","25","60260","0.0-25.0","928","run_exp/static/images/Set 6_rs/181a.jpg","78","","","","","","learn","SL",""
"","show_choice","26","61334","0.0-26.0","null","run_exp/static/images/Set 6_rs/181a.jpg","null","","","","","","learn","SL",""
"","html-keyboard-response","27","61837","0.0-27.0","null","<p></p>","null","","","","","","","",""
"","image","28","63172","0.0-28.0","1334.1000000014901","run_exp/static/images/Set 6_rs/166a.jpg","78","","","","","","learn","SR",""
"","show_choice","29","63843","0.0-29.0","null","run_exp/static/images/Set 6_rs/166a.jpg","null","","","","","","learn","SR",""
"","html-keyboard-response","30","64349","0.0-30.0","null","<p></p>","null","","","","","","","",""
"","image","31","65293","0.0-31.0","942.2999999970198","run_exp/static/images/Set 6_rs/017a.jpg","86","","","","","","learn","SL",""
"","show_choice","32","66353","0.0-32.0","null","run_exp/static/images/Set 6_rs/017a.jpg","null","","","","","","learn","SL",""
"","html-keyboard-response","33","66858","0.0-33.0","null","<p></p>","null","","","","","","","",""
"","image","34","67580","0.0-34.0","721.1999999992549","run_exp/static/images/Set 6_rs/123a.jpg","86","","","","","","learn","SL",""
"","show_choice","35","68865","0.0-35.0","null","run_exp/static/images/Set 6_rs/123a.jpg","null","","","","","","learn","SL",""
"","html-keyboard-response","36","69371","0.0-36.0","null","<p></p>","null","","","","","","","",""
"","image","37","70909","0.0-37.0","1537.300000000745","run_exp/static/images/Set 6_rs/148a.jpg","86","","","","","","learn","SR",""
"","show_choice","38","71374","0.0-38.0","null","run_exp/static/images/Set 6_rs/148a.jpg","null","","","","","","learn","SR",""
"","html-keyboard-response","39","71876","0.0-39.0","null","<p></p>","null","","","","","","","",""
"","image","40","73261","0.0-40.0","1383.5","run_exp/static/images/Set 6_rs/134a.jpg","86","","","","","","learn","SR",""
"","show_choice","41","73879","0.0-41.0","null","run_exp/static/images/Set 6_rs/134a.jpg","null","","","","","","learn","SR",""
"","html-keyboard-response","42","74385","0.0-42.0","null","<p></p>","null","","","","","","","",""
"","image","43","75365","0.0-43.0","978.6999999992549","run_exp/static/images/Set 6_rs/169a.jpg","78","","","","","","learn","SR",""
"","show_choice","44","76387","0.0-44.0","null","run_exp/static/images/Set 6_rs/169a.jpg","null","","","","","","learn","SR",""
"","html-keyboard-response","45","76890","0.0-45.0","null","<p></p>","null","","","","","","","",""
"","image","46","77941","0.0-46.0","1049.6000000014901","run_exp/static/images/Set 6_rs/062a.jpg","86","","","","","","learn","SL",""
"","show_choice","47","78892","0.0-47.0","null","run_exp/static/images/Set 6_rs/062a.jpg","null","","","","","","learn","SL",""
"","html-keyboard-response","48","79396","0.0-48.0","null","<p></p>","null","","","","","","","",""
"","image","49","80157","0.0-49.0","760.2000000029802","run_exp/static/images/Set 6_rs/116a.jpg","78","","","","","","learn","SL",""
"","show_choice","50","81402","0.0-50.0","null","run_exp/static/images/Set 6_rs/116a.jpg","null","","","","","","learn","SL",""
"","html-keyboard-response","51","81908","0.0-51.0","null","<p></p>","null","","","","","","","",""
"","image","52","82853","0.0-52.0","944.8000000007451","run_exp/static/images/Set 6_rs/095a.jpg","86","","","","","","learn","SL",""
"","show_choice","53","83909","0.0-53.0","null","run_exp/static/images/Set 6_rs/095a.jpg","null","","","","","","learn","SL",""
"","html-keyboard-response","54","84415","0.0-54.0","null","<p></p>","null","","","","","","","",""
"","image","55","85277","0.0-55.0","860.9000000022352","run_exp/static/images/Set 6_rs/007a.jpg","86","","","","","","learn","SR",""
"","show_choice","56","86417","0.0-56.0","null","run_exp/static/images/Set 6_rs/007a.jpg","null","","","","","","learn","SR",""
"","html-keyboard-response","57","86923","0.0-57.0","null","<p></p>","null","","","","","","","",""
"","image","58","87757","0.0-58.0","833.1999999992549","run_exp/static/images/Set 6_rs/036a.jpg","78","","","","","","learn","SL",""
"","show_choice","59","88927","0.0-59.0","null","run_exp/static/images/Set 6_rs/036a.jpg","null","","","","","","learn","SL",""
"","html-keyboard-response","60","89432","0.0-60.0","null","<p></p>","null","","","","","","","",""
"","image","61","91121","0.0-61.0","1688.2000000029802","run_exp/static/images/Set 6_rs/138a.jpg","78","","","","","","learn","SL",""
"","show_choice","62","91438","0.0-62.0","null","run_exp/static/images/Set 6_rs/138a.jpg","null","","","","","","learn","SL",""
"","html-keyboard-response","63","91941","0.0-63.0","null","<p></p>","null","","","","","","","",""
"","image","64","93010","0.0-64.0","1068.300000000745","run_exp/static/images/Set 6_rs/141a.jpg","86","","","","","","learn","SR",""
"","show_choice","65","93947","0.0-65.0","null","run_exp/static/images/Set 6_rs/141a.jpg","null","","","","","","learn","SR",""
"","html-keyboard-response","66","94451","0.0-66.0","null","<p></p>","null","","","","","","","",""
"","image","67","95418","0.0-67.0","965.6000000014901","run_exp/static/images/Set 6_rs/060a.jpg","78","","","","","","learn","SL",""
"","show_choice","68","96458","0.0-68.0","null","run_exp/static/images/Set 6_rs/060a.jpg","null","","","","","","learn","SL",""
"","html-keyboard-response","69","96960","0.0-69.0","null","<p></p>","null","","","","","","","",""
"","image","70","98522","0.0-70.0","1561.4000000022352","run_exp/static/images/Set 6_rs/132a.jpg","78","","","","","","learn","SR",""
"","show_choice","71","98966","0.0-71.0","null","run_exp/static/images/Set 6_rs/132a.jpg","null","","","","","","learn","SR",""
"","html-keyboard-response","72","99472","0.0-72.0","null","<p></p>","null","","","","","","","",""
"","image","73","100834","0.0-73.0","1361.5","run_exp/static/images/Set 6_rs/168a.jpg","86","","","","","","learn","SL",""
"","show_choice","74","101478","0.0-74.0","null","run_exp/static/images/Set 6_rs/168a.jpg","null","","","","","","learn","SL",""
"","html-keyboard-response","75","101984","0.0-75.0","null","<p></p>","null","","","","","","","",""
"","image","76","103506","0.0-76.0","1521.800000000745","run_exp/static/images/Set 6_rs/167a.jpg","86","","","","","","learn","SL",""
"","show_choice","77","103990","0.0-77.0","null","run_exp/static/images/Set 6_rs/167a.jpg","null","","","","","","learn","SL",""
"","html-keyboard-response","78","104496","0.0-78.0","null","<p></p>","null","","","","","","","",""
"","image","79","105666","0.0-79.0","1169.5","run_exp/static/images/Set 6_rs/112a.jpg","86","","","","","","learn","SR",""
"","show_choice","80","106502","0.0-80.0","null","run_exp/static/images/Set 6_rs/112a.jpg","null","","","","","","learn","SR",""
"","html-keyboard-response","81","107007","0.0-81.0","null","<p></p>","null","","","","","","","",""
"","image","82","108394","0.0-82.0","1386.0999999977648","run_exp/static/images/Set 6_rs/066a.jpg","86","","","","","","learn","SL",""
"","show_choice","83","109013","0.0-83.0","null","run_exp/static/images/Set 6_rs/066a.jpg","null","","","","","","learn","SL",""
"","html-keyboard-response","84","109519","0.0-84.0","null","<p></p>","null","","","","","","","",""
"","image","85","110706","0.0-85.0","1186.199999999255","run_exp/static/images/Set 6_rs/071a.jpg","78","","","","","","learn","SL",""
"","show_choice","86","111525","0.0-86.0","null","run_exp/static/images/Set 6_rs/071a.jpg","null","","","","","","learn","SL",""
"","html-keyboard-response","87","112029","0.0-87.0","null","<p></p>","null","","","","","","","",""
"","image","88","113579","0.0-88.0","1548.300000000745","run_exp/static/images/Set 6_rs/024a.jpg","86","","","","","","learn","SR",""
"","show_choice","89","114034","0.0-89.0","null","run_exp/static/images/Set 6_rs/024a.jpg","null","","","","","","learn","SR",""
"","html-keyboard-response","90","114540","0.0-90.0","null","<p></p>","null","","","","","","","",""
"","image","91","115994","0.0-91.0","1453.6000000014901","run_exp/static/images/Set 6_rs/061a.jpg","78","","","","","","learn","SR",""
"","show_choice","92","116547","0.0-92.0","null","run_exp/static/images/Set 6_rs/061a.jpg","null","","","","","","learn","SR",""
"","html-keyboard-response","93","117050","0.0-93.0","null","<p></p>","null","","","","","","","",""
"","image","94","117866","0.0-94.0","815.9000000022352","run_exp/static/images/Set 6_rs/154a.jpg","86","","","","","","learn","SR",""
"","show_choice","95","119056","0.0-95.0","null","run_exp/static/images/Set 6_rs/154a.jpg","null","","","","","","learn","SR",""
"","html-keyboard-response","96","119560","0.0-96.0","null","<p></p>","null","","","","","","","",""
"","image","97","120970","0.0-97.0","1408.6000000014901","run_exp/static/images/Set 6_rs/129a.jpg","86","","","","","","learn","SL",""
"","show_choice","98","121567","0.0-98.0","null","run_exp/static/images/Set 6_rs/129a.jpg","null","","","","","","learn","SL",""
"","html-keyboard-response","99","122072","0.0-99.0","null","<p></p>","null","","","","","","","",""
"","image","100","123491","0.0-100.0","1417.800000000745","run_exp/static/images/Set 6_rs/045a.jpg","86","","","","","","learn","SR",""
"","show_choice","101","124078","0.0-101.0","null","run_exp/static/images/Set 6_rs/045a.jpg","null","","","","","","learn","SR",""
"","html-keyboard-response","102","124579","0.0-102.0","null","<p></p>","null","","","","","","","",""
"","image","103","126090","0.0-103.0","1510.4000000022352","run_exp/static/images/Set 6_rs/076a.jpg","78","","","","","","learn","SR",""
"","show_choice","104","126582","0.0-104.0","null","run_exp/static/images/Set 6_rs/076a.jpg","null","","","","","","learn","SR",""
"","html-keyboard-response","105","127084","0.0-105.0","null","<p></p>","null","","","","","","","",""
"","image","106","128299","0.0-106.0","1213.3999999985099","run_exp/static/images/Set 6_rs/010a.jpg","86","","","","","","learn","SR",""
"","show_choice","107","129086","0.0-107.0","null","run_exp/static/images/Set 6_rs/010a.jpg","null","","","","","","learn","SR",""
"","html-keyboard-response","108","129592","0.0-108.0","null","<p></p>","null","","","","","","","",""
"","image","109","131122","0.0-109.0","1529.699999999255","run_exp/static/images/Set 6_rs/187a.jpg","86","","","","","","learn","SR",""
"","show_choice","110","131598","0.0-110.0","null","run_exp/static/images/Set 6_rs/187a.jpg","null","","","","","","learn","SR",""
"","html-keyboard-response","111","132104","0.0-111.0","null","<p></p>","null","","","","","","","",""
"","image","112","133979","0.0-112.0","1873.9000000022352","run_exp/static/images/Set 6_rs/025a.jpg","78","","","","","","learn","SL",""
"","show_choice","113","134108","0.0-113.0","null","run_exp/static/images/Set 6_rs/025a.jpg","null","","","","","","learn","SL",""
"","html-keyboard-response","114","134612","0.0-114.0","null","<p></p>","null","","","","","","","",""
"","image","115","135458","0.0-115.0","845.5","run_exp/static/images/Set 6_rs/152a.jpg","78","","","","","","learn","SR",""
"","show_choice","116","136618","0.0-116.0","null","run_exp/static/images/Set 6_rs/152a.jpg","null","","","","","","learn","SR",""
"","html-keyboard-response","117","137119","0.0-117.0","null","<p></p>","null","","","","","","","",""
"","image","118","137963","0.0-118.0","842.8999999985099","run_exp/static/images/Set 6_rs/079a.jpg","86","","","","","","learn","SL",""
"","show_choice","119","139125","0.0-119.0","null","run_exp/static/images/Set 6_rs/079a.jpg","null","","","","","","learn","SL",""
"","html-keyboard-response","120","139631","0.0-120.0","null","<p></p>","null","","","","","","","",""
"","image","121","140795","0.0-121.0","1163.5","run_exp/static/images/Set 6_rs/008a.jpg","78","","","","","","learn","SL",""
"","show_choice","122","141637","0.0-122.0","null","run_exp/static/images/Set 6_rs/008a.jpg","null","","","","","","learn","SL",""
"","html-keyboard-response","123","142138","0.0-123.0","null","<p></p>","null","","","","","","","",""
"","image","124","142947","0.0-124.0","808.5","run_exp/static/images/Set 6_rs/172a.jpg","86","","","","","","learn","SR",""
"","show_choice","125","144143","0.0-125.0","null","run_exp/static/images/Set 6_rs/172a.jpg","null","","","","","","learn","SR",""
"","html-keyboard-response","126","144646","0.0-126.0","null","<p></p>","null","","","","","","","",""
"","image","127","144843","0.0-127.0","196.5","run_exp/static/images/Set 6_rs/006a.jpg","78","","","","","","learn","SL",""
"","show_choice","128","146647","0.0-128.0","null","run_exp/static/images/Set 6_rs/006a.jpg","null","","","","","","learn","SL",""
"","html-keyboard-response","129","147153","0.0-129.0","null","<p></p>","null","","","","","","","",""
"","image","130","148514","0.0-130.0","1360.4000000022352","run_exp/static/images/Set 6_rs/131a.jpg","86","","","","","","learn","SR",""
"","show_choice","131","149159","0.0-131.0","null","run_exp/static/images/Set 6_rs/131a.jpg","null","","","","","","learn","SR",""
"","html-keyboard-response","132","149665","0.0-132.0","null","<p></p>","null","","","","","","","",""
"","image","133","151194","0.0-133.0","1528.199999999255","run_exp/static/images/Set 6_rs/012a.jpg","86","","","","","","learn","SR",""
"","show_choice","134","151671","0.0-134.0","null","run_exp/static/images/Set 6_rs/012a.jpg","null","","","","","","learn","SR",""
"","html-keyboard-response","135","152177","0.0-135.0","null","<p></p>","null","","","","","","","",""
"","image","136","153242","0.0-136.0","1064.1000000014901","run_exp/static/images/Set 6_rs/178a.jpg","78","","","","","","learn","SR",""
"","show_choice","137","154183","0.0-137.0","null","run_exp/static/images/Set 6_rs/178a.jpg","null","","","","","","learn","SR",""
"","html-keyboard-response","138","154688","0.0-138.0","null","<p></p>","null","","","","","","","",""
"","image","139","155737","0.0-139.0","1048.4000000022352","run_exp/static/images/Set 6_rs/073a.jpg","86","","","","","","learn","SL",""
"","show_choice","140","156694","0.0-140.0","null","run_exp/static/images/Set 6_rs/073a.jpg","null","","","","","","learn","SL",""
"","html-keyboard-response","141","157200","0.0-141.0","null","<p></p>","null","","","","","","","",""
"","image","142","159074","0.0-142.0","1873.2999999970198","run_exp/static/images/Set 6_rs/121a.jpg","86","","","","","","learn","SR",""
"","show_choice","143","159206","0.0-143.0","null","run_exp/static/images/Set 6_rs/121a.jpg","null","","","","","","learn","SR",""
"","html-keyboard-response","144","159710","0.0-144.0","null","<p></p>","null","","","","","","","",""
"","image","145","161434","0.0-145.0","1723.2999999970198","run_exp/static/images/Set 6_rs/117a.jpg","86","","","","","","learn","SL",""
"","show_choice","146","161711","0.0-146.0","null","run_exp/static/images/Set 6_rs/117a.jpg","null","","","","","","learn","SL",""
"","html-keyboard-response","147","162215","0.0-147.0","null","<p></p>","null","","","","","","","",""
"","image","148","163802","0.0-148.0","1586.5","run_exp/static/images/Set 6_rs/023a.jpg","86","","","","","","learn","SR",""
"","show_choice","149","164221","0.0-149.0","null","run_exp/static/images/Set 6_rs/023a.jpg","null","","","","","","learn","SR",""
"","html-keyboard-response","150","164727","0.0-150.0","null","<p></p>","null","","","","","","","",""
"","image","151","165874","0.0-151.0","1146.8999999985099","run_exp/static/images/Set 6_rs/067a.jpg","86","","","","","","learn","SL",""
"","show_choice","152","166729","0.0-152.0","null","run_exp/static/images/Set 6_rs/067a.jpg","null","","","","","","learn","SL",""
"","html-keyboard-response","153","167230","0.0-153.0","null","<p></p>","null","","","","","","","",""
"","image","154","168186","0.0-154.0","955.6999999992549","run_exp/static/images/Set 6_rs/126a.jpg","78","","","","","","learn","SR",""
"","show_choice","155","169236","0.0-155.0","null","run_exp/static/images/Set 6_rs/126a.jpg","null","","","","","","learn","SR",""
"","html-keyboard-response","156","169742","0.0-156.0","null","<p></p>","null","","","","","","","",""
"","image","157","171011","0.0-157.0","1267.7000000029802","run_exp/static/images/Set 6_rs/177a.jpg","78","","","","","","learn","SR",""
"","show_choice","158","171747","0.0-158.0","null","run_exp/static/images/Set 6_rs/177a.jpg","null","","","","","","learn","SR",""
"","html-keyboard-response","159","172252","0.0-159.0","null","<p></p>","null","","","","","","","",""
"","image","160","173554","0.0-160.0","1301.2999999970198","run_exp/static/images/Set 6_rs/074a.jpg","78","","","","","","learn","SL",""
"","show_choice","161","174254","0.0-161.0","null","run_exp/static/images/Set 6_rs/074a.jpg","null","","","","","","learn","SL",""
"","html-keyboard-response","162","174760","0.0-162.0","null","<p></p>","null","","","","","","","",""
"","image","163","175642","0.0-163.0","881.7999999970198","run_exp/static/images/Set 6_rs/111a.jpg","86","","","","","","learn","SL",""
"","show_choice","164","176761","0.0-164.0","null","run_exp/static/images/Set 6_rs/111a.jpg","null","","","","","","learn","SL",""
"","html-keyboard-response","165","177267","0.0-165.0","null","<p></p>","null","","","","","","","",""
"","image","166","178283","0.0-166.0","1014.5","run_exp/static/images/Set 6_rs/186a.jpg","86","","","","","","learn","SR",""
"","show_choice","167","179273","0.0-167.0","null","run_exp/static/images/Set 6_rs/186a.jpg","null","","","","","","learn","SR",""
"","html-keyboard-response","168","179779","0.0-168.0","null","<p></p>","null","","","","","","","",""
"","image","169","180691","0.0-169.0","910.3000000007451","run_exp/static/images/Set 6_rs/144a.jpg","86","","","","","","learn","SL",""
"","show_choice","170","181786","0.0-170.0","null","run_exp/static/images/Set 6_rs/144a.jpg","null","","","","","","learn","SL",""
"","html-keyboard-response","171","182291","0.0-171.0","null","<p></p>","null","","","","","","","",""
"","image","172","183619","0.0-172.0","1327","run_exp/static/images/Set 6_rs/122a.jpg","86","","","","","","learn","SR",""
"","show_choice","173","184297","0.0-173.0","null","run_exp/static/images/Set 6_rs/122a.jpg","null","","","","","","learn","SR",""
"","html-keyboard-response","174","184803","0.0-174.0","null","<p></p>","null","","","","","","","",""
"","image","175","185651","0.0-175.0","846.6999999992549","run_exp/static/images/Set 6_rs/191a.jpg","78","","","","","","learn","SL",""
"","show_choice","176","186809","0.0-176.0","null","run_exp/static/images/Set 6_rs/191a.jpg","null","","","","","","learn","SL",""
"","html-keyboard-response","177","187313","0.0-177.0","null","<p></p>","null","","","","","","","",""
"","image","178","188266","0.0-178.0","951.6000000014901","run_exp/static/images/Set 6_rs/091a.jpg","86","","","","","","learn","SL",""
"","show_choice","179","189319","0.0-179.0","null","run_exp/static/images/Set 6_rs/091a.jpg","null","","","","","","learn","SL",""
"","html-keyboard-response","180","189823","0.0-180.0","null","<p></p>","null","","","","","","","",""
"","image","181","190851","0.0-181.0","1027.2000000029802","run_exp/static/images/Set 6_rs/019a.jpg","86","","","","","","learn","SL",""
"","show_choice","182","191828","0.0-182.0","null","run_exp/static/images/Set 6_rs/019a.jpg","null","","","","","","learn","SL",""
"","html-keyboard-response","183","192329","0.0-183.0","null","<p></p>","null","","","","","","","",""
"","image","184","193451","0.0-184.0","1120.5999999977648","run_exp/static/images/Set 6_rs/057a.jpg","86","","","","","","learn","SL",""
"","show_choice","185","194331","0.0-185.0","null","run_exp/static/images/Set 6_rs/057a.jpg","null","","","","","","learn","SL",""
"","html-keyboard-response","186","194832","0.0-186.0","null","<p></p>","null","","","","","","","",""
"","image","187","195948","0.0-187.0","1115.1000000014901","run_exp/static/images/Set 6_rs/063a.jpg","86","","","","","","learn","SR",""
"","show_choice","188","196837","0.0-188.0","null","run_exp/static/images/Set 6_rs/063a.jpg","null","","","","","","learn","SR",""
"","html-keyboard-response","189","197337","0.0-189.0","null","<p></p>","null","","","","","","","",""
"","image","190","198651","0.0-190.0","1312.5999999977648","run_exp/static/images/Set 6_rs/055a.jpg","78","","","","","","learn","SL",""
"","show_choice","191","199341","0.0-191.0","null","run_exp/static/images/Set 6_rs/055a.jpg","null","","","","","","learn","SL",""
"","html-keyboard-response","192","199845","0.0-192.0","null","<p></p>","null","","","","","","","",""
"","image","193","200803","0.0-193.0","957.3000000007451","run_exp/static/images/Set 6_rs/088a.jpg","86","","","","","","learn","SR",""
"","show_choice","194","201851","0.0-194.0","null","run_exp/static/images/Set 6_rs/088a.jpg","null","","","","","","learn","SR",""
"","html-keyboard-response","195","202357","0.0-195.0","null","<p></p>","null","","","","","","","",""
"","test_intro","196","243887","0.0-196.0","null","run_exp/static/audio/clip_2_memory.m4a","null","","","","","<div class='center'><p>Now, let’s see how much you remember about the items you just saw.  For each item, you need to indicate if it was <b>old</b> by pressing the <b>v</b> key, <b>similar</b> by pressing the <b>b</b> key, or <b>new</b> by pressing the <b>n</b> key.</p><p>Old refers to an item that you saw before in the indoor/outdoor game that you just played, new refers to an item you have <b>not</b> seen before within the indoor/outdoor game, and similar refers to an item that is similar to an item you’ve seen before but is not exactly the same. </p><p>Before we begin, let’s go over some brief demonstrations to make sure you understand.</p></div>","","",""
"","html-keyboard-response","197","244492","0.0-197.0","604.1999999992549","<div class='center'><p>Now, let’s see how much you remember about the items you just saw.  For each item, you need to indicate if it was <b>old</b> by pressing the <b>v</b> key, <b>similar</b> by pressing the <b>b</b> key, or <b>new</b> by pressing the <b>n</b> key.</p><p>Old refers to an item that you saw before in the indoor/outdoor game that you just played, new refers to an item you have <b>not</b> seen before within the indoor/outdoor game, and similar refers to an item that is similar to an item you’ve seen before but is not exactly the same. </p><p>Before we begin, let’s go over some brief demonstrations to make sure you understand.</p><div><p><b>[Press the space bar to continue]</b></p></div>","32","","","","","","","",""
"","items","198","251995","0.0-198.0","null","run_exp/static/audio/clip_3_items.m4a","null","","","","","","","",""
"","mop","199","256501","0.0-199.0","null","run_exp/static/audio/clip_4_mop.m4a","null","","","","","","","",""
"","baseball","200","260008","0.0-200.0","null","run_exp/static/audio/clip_5_baseball.m4a","null","","","","","","","",""
"","trumpet","201","263514","0.0-201.0","null","run_exp/static/audio/clip_6_trumpet.m4a","null","","","","","","","",""
"","gummies","202","267016","0.0-202.0","null","run_exp/static/audio/clip_7_gummies.m4a","null","","","","","","","",""
"","osn","203","271519","0.0-203.0","null","run_exp/static/audio/clip_8_osn.m4a","null","","","","","","","",""
"","old_1","204","278021","0.0-204.0","null","run_exp/static/audio/clip_9_old_trumpet.m4a","null","","","","","","","",""
"","new_1","205","285528","0.0-205.0","null","run_exp/static/audio/clip_10_new_balloon.m4a","null","","","","","","","",""
"","similar_1a","206","290032","0.0-206.0","null","run_exp/static/audio/clip_11a_similar_mop.m4a","null","","","","","","","",""
"","similar_1b","207","296539","0.0-207.0","null","run_exp/static/audio/clip_11b_similar_mop.m4a","null","","","","","","","",""
"","new_2","208","300045","0.0-208.0","null","run_exp/static/audio/clip_12_new_stoplight.m4a","null","","","","","","","",""
"","old_2","209","303549","0.0-209.0","null","run_exp/static/audio/clip_13_old_baseball.m4a","null","","","","","","","",""
"","similar_2a","210","307057","0.0-210.0","null","run_exp/static/audio/clip_14a_similar_gummies.m4a","null","","","","","","","",""
"","similar_2b","211","314561","0.0-211.0","null","run_exp/static/audio/clip_14b_similar_gummies.m4a","null","","","","","","","",""
"","practice","212","330291","0.0-212.0","null","run_exp/static/audio/clip_15_practice.m4a","null","","","","","<div class='center'><p>Ok, let’s practice a little to make sure you understand the difference between new, similar, and old. Let’s say you saw these three items in the indoor/outdoor game. Study these because you’ll be tested on them soon in this practice game. </p><p><img src='run_exp/static/images/tutorial/test/three_indoor_outdoor.png' height='300'></p></div>","","",""
"","html-keyboard-response","213","331747","0.0-213.0","1455.0999999977648","<div class='center'><p>Ok, let’s practice a little to make sure you understand the difference between new, similar, and old. Let’s say you saw these three items in the indoor/outdoor game. Study these because you’ll be tested on them soon in this practice game. </p><p><img src='run_exp/static/images/tutorial/test/three_indoor_outdoor.png' height='300'></p><div><p><b>[Press the space bar to continue]</b></p></div>","32","","","","","","","",""
"","practice_q1","214","333908","0.0-214.0","2159.5","run_exp/static/audio/clip_16_practice_question.m4a","78","","","","","","","",""
"","correct","215","335794","0.0-215.0-0.0","null","run_exp/static/audio/clip_17_correct.m4a","null","","","","","<div class='center'><p>That's correct!</p></div>","","",""
"","html-keyboard-response","216","336771","0.0-215.0-1.0","976.3999999985099","<div class='center'><p>That's correct!</p><div><p><b>[Press the space bar to continue]</b></p></div>","32","","","","","","","",""
"","practice_q2","217","338524","0.0-215.0-2.0","1751","run_exp/static/audio/clip_16_practice_question.m4a","86","","","","","","","",""
"","correct","218","340392","0.0-216.0-0.0","null","run_exp/static/audio/clip_17_correct.m4a","null","","","","","<div class='center'><p>That's correct!</p></div>","","",""
"","html-keyboard-response","219","341084","0.0-216.0-1.0","691.1999999992549","<div class='center'><p>That's correct!</p><div><p><b>[Press the space bar to continue]</b></p></div>","32","","","","","","","",""
"","practice_q3","220","342356","0.0-216.0-2.0","1271.1000000014901","run_exp/static/audio/clip_16_practice_question.m4a","66","","","","","","","",""
"","correct","221","344386","0.0-217.0-0.0","null","run_exp/static/audio/clip_17_correct.m4a","null","","","","","<div class='center'><p>That's correct!</p></div>","","",""
"","html-keyboard-response","222","345092","0.0-217.0-1.0","704.8999999985099","<div class='center'><p>That's correct!</p><div><p><b>[Press the space bar to continue]</b></p></div>","32","","","","","","","",""
"","begin_text","223","360152","0.0-218.0-0.0","null","run_exp/static/audio/clip_22_begin_test.m4a","null","","","","","<div class='center'><p>Now it’s your turn. For each item, you need to indicate if the item is <b>old</b> by pressing the <b>v</b> key, <b>similar</b> by pressing the <b>b</b> key, or <b>new</b> by pressing the <b>n</b> key. </p></div>","","",""
"","html-keyboard-response","224","360797","0.0-218.0-1.0","643.1999999992549","<div class='center'><p>Now it’s your turn. For each item, you need to indicate if the item is <b>old</b> by pressing the <b>v</b> key, <b>similar</b> by pressing the <b>b</b> key, or <b>new</b> by pressing the <b>n</b> key. </p><div><p><b>[Press the space bar to continue]</b></p></div>","32","","","","","","","",""
"","image","225","362661","0.0-219.0-0.0","1862.6000000014901","run_exp/static/images/Set 6_rs/111b.jpg","78","","","","","","test","TL","3"
"","show_choice","226","363162","0.0-219.0-1.0","null","run_exp/static/images/Set 6_rs/111b.jpg","null","","","","","","test","TL",""
"","html-keyboard-response","227","363664","0.0-219.0-2.0","null","<p></p>","null","","","","","","","",""
"","image","228","364892","0.0-220.0-0.0","1226.800000000745","run_exp/static/images/Set 6_rs/052a.jpg","78","","","","","","test","TF","1"
"","show_choice","229","365393","0.0-220.0-1.0","null","run_exp/static/images/Set 6_rs/052a.jpg","null","","","","","","test","TF",""
"","html-keyboard-response","230","365896","0.0-220.0-2.0","null","<p></p>","null","","","","","","","",""
"","image","231","367005","0.0-221.0-0.0","1107.300000000745","run_exp/static/images/Set 6_rs/015a.jpg","78","","","","","","test","TF","4"
"","show_choice","232","367509","0.0-221.0-1.0","null","run_exp/static/images/Set 6_rs/015a.jpg","null","","","","","","test","TF",""
"","html-keyboard-response","233","368013","0.0-221.0-2.0","null","<p></p>","null","","","","","","","",""
"","image","234","369565","0.0-222.0-0.0","1550.9000000022352","run_exp/static/images/Set 6_rs/006b.jpg","86","","","","","","test","TL","2"
"","show_choice","235","370067","0.0-222.0-1.0","null","run_exp/static/images/Set 6_rs/006b.jpg","null","","","","","","test","TL",""
"","html-keyboard-response","236","370572","0.0-222.0-2.0","null","<p></p>","null","","","","","","","",""
"","image","237","371853","0.0-223.0-0.0","1280.4000000022352","run_exp/static/images/Set 6_rs/019b.jpg","86","","","","","","test","TL","2"
"","show_choice","238","372358","0.0-223.0-1.0","null","run_exp/static/images/Set 6_rs/019b.jpg","null","","","","","","test","TL",""
"","html-keyboard-response","239","372860","0.0-223.0-2.0","null","<p></p>","null","","","","","","","",""
"","image","240","374421","0.0-224.0-0.0","1560.1000000014901","run_exp/static/images/Set 6_rs/047a.jpg","66","","","","","","test","TF","3"
"","show_choice","241","374926","0.0-224.0-1.0","null","run_exp/static/images/Set 6_rs/047a.jpg","null","","","","","","test","TF",""
"","html-keyboard-response","242","375432","0.0-224.0-2.0","null","<p></p>","null","","","","","","","",""
"","image","243","376757","0.0-225.0-0.0","1323.9000000022352","run_exp/static/images/Set 6_rs/028a.jpg","66","","","","","","test","TF","1"
"","show_choice","244","377262","0.0-225.0-1.0","null","run_exp/static/images/Set 6_rs/028a.jpg","null","","","","","","test","TF",""
"","html-keyboard-response","245","377764","0.0-225.0-2.0","null","<p></p>","null","","","","","","","",""
"","image","246","379205","0.0-226.0-0.0","1439.199999999255","run_exp/static/images/Set 6_rs/064a.jpg","86","","","","","","test","TR","5"
"","show_choice","247","379706","0.0-226.0-1.0","null","run_exp/static/images/Set 6_rs/064a.jpg","null","","","","","","test","TR",""
"","html-keyboard-response","248","380207","0.0-226.0-2.0","null","<p></p>","null","","","","","","","",""
"","image","249","382309","0.0-227.0-0.0","2100.800000000745","run_exp/static/images/Set 6_rs/017b.jpg","86","","","","","","test","TL","3"
"","show_choice","250","382815","0.0-227.0-1.0","null","run_exp/static/images/Set 6_rs/017b.jpg","null","","","","","","test","TL",""
"","html-keyboard-response","251","383316","0.0-227.0-2.0","null","<p></p>","null","","","","","","","",""
"","image","252","384717","0.0-228.0-0.0","1399.5999999977648","run_exp/static/images/Set 6_rs/079b.jpg","66","","","","","","test","TL","5"
"","show_choice","253","385218","0.0-228.0-1.0","null","run_exp/static/images/Set 6_rs/079b.jpg","null","","","","","","test","TL",""
"","html-keyboard-response","254","385724","0.0-228.0-2.0","null","<p></p>","null","","","","","","","",""
"","image","255","386893","0.0-229.0-0.0","1167.800000000745","run_exp/static/images/Set 6_rs/091b.jpg","78","","","","","","test","TL","3"
"","show_choice","256","387397","0.0-229.0-1.0","null","run_exp/static/images/Set 6_rs/091b.jpg","null","","","","","","test","TL",""
"","html-keyboard-response","257","387903","0.0-229.0-2.0","null","<p></p>","null","","","","","","","",""
"","image","258","389341","0.0-230.0-0.0","1437","run_exp/static/images/Set 6_rs/088a.jpg","86","","","","","","test","TR","2"
"","show_choice","259","389844","0.0-230.0-1.0","null","run_exp/static/images/Set 6_rs/088a.jpg","null","","","","","","test","TR",""
"","html-keyboard-response","260","390346","0.0-230.0-2.0","null","<p></p>","null","","","","","","","",""
"","image","261","391893","0.0-231.0-0.0","1546.199999999255","run_exp/static/images/Set 6_rs/170a.jpg","78","","","","","","test","TF","2"
"","show_choice","262","392398","0.0-231.0-1.0","null","run_exp/static/images/Set 6_rs/170a.jpg","null","","","","","","test","TF",""
"","html-keyboard-response","263","392904","0.0-231.0-2.0","null","<p></p>","null","","","","","","","",""
"","image","264","394470","0.0-232.0-0.0","1564.1000000014901","run_exp/static/images/Set 6_rs/132a.jpg","86","","","","","","test","TR","5"
"","show_choice","265","394972","0.0-232.0-1.0","null","run_exp/static/images/Set 6_rs/132a.jpg","null","","","","","","test","TR",""
"","html-keyboard-response","266","395477","0.0-232.0-2.0","null","<p></p>","null","","","","","","","",""
"","image","267","397229","0.0-233.0-0.0","1751.300000000745","run_exp/static/images/Set 6_rs/035a.jpg","78","","","","","","test","TF","4"
"","show_choice","268","397732","0.0-233.0-1.0","null","run_exp/static/images/Set 6_rs/035a.jpg","null","","","","","","test","TF",""
"","html-keyboard-response","269","398233","0.0-233.0-2.0","null","<p></p>","null","","","","","","","",""
"","image","270","399461","0.0-234.0-0.0","1227","run_exp/static/images/Set 6_rs/016b.jpg","86","","","","","","test","TL","1"
"","show_choice","271","399966","0.0-234.0-1.0","null","run_exp/static/images/Set 6_rs/016b.jpg","null","","","","","","test","TL",""
"","html-keyboard-response","272","400471","0.0-234.0-2.0","null","<p></p>","null","","","","","","","",""
"","image","273","401981","0.0-235.0-0.0","1509.4000000022352","run_exp/static/images/Set 6_rs/090a.jpg","78","","","","","","test","TF","5"
"","show_choice","274","402487","0.0-235.0-1.0","null","run_exp/static/images/Set 6_rs/090a.jpg","null","","","","","","test","TF",""
"","html-keyboard-response","275","402988","0.0-235.0-2.0","null","<p></p>","null","","","","","","","",""
"","image","276","404197","0.0-236.0-0.0","1208.5999999977648","run_exp/static/images/Set 6_rs/023a.jpg","86","","","","","","test","TR","3"
"","show_choice","277","404703","0.0-236.0-1.0","null","run_exp/static/images/Set 6_rs/023a.jpg","null","","","","","","test","TR",""
"","html-keyboard-response","278","405204","0.0-236.0-2.0","null","<p></p>","null","","","","","","","",""
"","image","279","406286","0.0-237.0-0.0","1081","run_exp/static/images/Set 6_rs/076a.jpg","86","","","","","","test","TR","4"
"","show_choice","280","406791","0.0-237.0-1.0","null","run_exp/static/images/Set 6_rs/076a.jpg","null","","","","","","test","TR",""
"","html-keyboard-response","281","407297","0.0-237.0-2.0","null","<p></p>","null","","","","","","","",""
"","image","282","408509","0.0-238.0-0.0","1211.3999999985099","run_exp/static/images/Set 6_rs/121a.jpg","86","","","","","","test","TR","4"
"","show_choice","283","409010","0.0-238.0-1.0","null","run_exp/static/images/Set 6_rs/121a.jpg","null","","","","","","test","TR",""
"","html-keyboard-response","284","409516","0.0-238.0-2.0","null","<p></p>","null","","","","","","","",""
"","image","285","411326","0.0-239.0-0.0","1808.699999999255","run_exp/static/images/Set 6_rs/152a.jpg","86","","","","","","test","TR","2"
"","show_choice","286","411831","0.0-239.0-1.0","null","run_exp/static/images/Set 6_rs/152a.jpg","null","","","","","","test","TR",""
"","html-keyboard-response","287","412332","0.0-239.0-2.0","null","<p></p>","null","","","","","","","",""
"","image","288","414502","0.0-240.0-0.0","2168.5","run_exp/static/images/Set 6_rs/140a.jpg","78","","","","","","test","TF","1"
"","show_choice","289","415007","0.0-240.0-1.0","null","run_exp/static/images/Set 6_rs/140a.jpg","null","","","","","","test","TF",""
"","html-keyboard-response","290","415509","0.0-240.0-2.0","null","<p></p>","null","","","","","","","",""
"","image","291","416847","0.0-241.0-0.0","1335.9000000022352","run_exp/static/images/Set 6_rs/116b.jpg","66","","","","","","test","TL","2"
"","show_choice","292","417348","0.0-241.0-1.0","null","run_exp/static/images/Set 6_rs/116b.jpg","null","","","","","","test","TL",""
"","html-keyboard-response","293","417853","0.0-241.0-2.0","null","<p></p>","null","","","","","","","",""
"","image","294","419998","0.0-242.0-0.0","2143.89999999851","run_exp/static/images/Set 6_rs/100a.jpg","78","","","","","","test","TF","2"
"","show_choice","295","420503","0.0-242.0-1.0","null","run_exp/static/images/Set 6_rs/100a.jpg","null","","","","","","test","TF",""
"","html-keyboard-response","296","421004","0.0-242.0-2.0","null","<p></p>","null","","","","","","","",""
"","image","297","422494","0.0-243.0-0.0","1488.699999999255","run_exp/static/images/Set 6_rs/085b.jpg","66","","","","","","test","TL","1"
"","show_choice","298","422999","0.0-243.0-1.0","null","run_exp/static/images/Set 6_rs/085b.jpg","null","","","","","","test","TL",""
"","html-keyboard-response","299","423503","0.0-243.0-2.0","null","<p></p>","null","","","","","","","",""
"","image","300","424822","0.0-244.0-0.0","1317.800000000745","run_exp/static/images/Set 6_rs/008b.jpg","66","","","","","","test","TL","2"
"","show_choice","301","425323","0.0-244.0-1.0","null","run_exp/static/images/Set 6_rs/008b.jpg","null","","","","","","test","TL",""
"","html-keyboard-response","302","425829","0.0-244.0-2.0","null","<p></p>","null","","","","","","","",""
"","image","303","427358","0.0-245.0-0.0","1527.8999999985099","run_exp/static/images/Set 6_rs/022a.jpg","78","","","","","","test","TF","4"
"","show_choice","304","427863","0.0-245.0-1.0","null","run_exp/static/images/Set 6_rs/022a.jpg","null","","","","","","test","TF",""
"","html-keyboard-response","305","428365","0.0-245.0-2.0","null","<p></p>","null","","","","","","","",""
"","image","306","430166","0.0-246.0-0.0","1800.5","run_exp/static/images/Set 6_rs/122a.jpg","66","","","","","","test","TR","5"
"","show_choice","307","430668","0.0-246.0-1.0","null","run_exp/static/images/Set 6_rs/122a.jpg","null","","","","","","test","TR",""
"","html-keyboard-response","308","431174","0.0-246.0-2.0","null","<p></p>","null","","","","","","","",""
"","image","309","433214","0.0-247.0-0.0","2039.3999999985099","run_exp/static/images/Set 6_rs/055b.jpg","78","","","","","","test","TL","4"
"","show_choice","310","433718","0.0-247.0-1.0","null","run_exp/static/images/Set 6_rs/055b.jpg","null","","","","","","test","TL",""
"","html-keyboard-response","311","434219","0.0-247.0-2.0","null","<p></p>","null","","","","","","","",""
"","image","312","435463","0.0-248.0-0.0","1243","run_exp/static/images/Set 6_rs/010a.jpg","86","","","","","","test","TR","5"
"","show_choice","313","435968","0.0-248.0-1.0","null","run_exp/static/images/Set 6_rs/010a.jpg","null","","","","","","test","TR",""
"","html-keyboard-response","314","436469","0.0-248.0-2.0","null","<p></p>","null","","","","","","","",""
"","image","315","438119","0.0-249.0-0.0","1648.5999999977648","run_exp/static/images/Set 6_rs/172a.jpg","66","","","","","","test","TR","1"
"","show_choice","316","438624","0.0-249.0-1.0","null","run_exp/static/images/Set 6_rs/172a.jpg","null","","","","","","test","TR",""
"","html-keyboard-response","317","439130","0.0-249.0-2.0","null","<p></p>","null","","","","","","","",""
"","image","318","441014","0.0-250.0-0.0","1883.5","run_exp/static/images/Set 6_rs/065a.jpg","78","","","","","","test","TF","3"
"","show_choice","319","441516","0.0-250.0-1.0","null","run_exp/static/images/Set 6_rs/065a.jpg","null","","","","","","test","TF",""
"","html-keyboard-response","320","442022","0.0-250.0-2.0","null","<p></p>","null","","","","","","","",""
"","image","321","443246","0.0-251.0-0.0","1223.800000000745","run_exp/static/images/Set 6_rs/062b.jpg","86","","","","","","test","TL","1"
"","show_choice","322","443751","0.0-251.0-1.0","null","run_exp/static/images/Set 6_rs/062b.jpg","null","","","","","","test","TL",""
"","html-keyboard-response","323","444254","0.0-251.0-2.0","null","<p></p>","null","","","","","","","",""
"","image","324","446135","0.0-252.0-0.0","1879.8999999985099","run_exp/static/images/Set 6_rs/123b.jpg","66","","","","","","test","TL","2"
"","show_choice","325","446640","0.0-252.0-1.0","null","run_exp/static/images/Set 6_rs/123b.jpg","null","","","","","","test","TL",""
"","html-keyboard-response","326","447141","0.0-252.0-2.0","null","<p></p>","null","","","","","","","",""
"","image","327","448806","0.0-253.0-0.0","1664.3999999985099","run_exp/static/images/Set 6_rs/189a.jpg","78","","","","","","test","TF","5"
"","show_choice","328","449310","0.0-253.0-1.0","null","run_exp/static/images/Set 6_rs/189a.jpg","null","","","","","","test","TF",""
"","html-keyboard-response","329","449816","0.0-253.0-2.0","null","<p></p>","null","","","","","","","",""
"","image","330","452159","0.0-254.0-0.0","2341.39999999851","run_exp/static/images/Set 6_rs/129b.jpg","66","","","","","","test","TL","1"
"","show_choice","331","452664","0.0-254.0-1.0","null","run_exp/static/images/Set 6_rs/129b.jpg","null","","","","","","test","TL",""
"","html-keyboard-response","332","453165","0.0-254.0-2.0","null","<p></p>","null","","","","","","","",""
"","image","333","454279","0.0-255.0-0.0","1112.699999999255","run_exp/static/images/Set 6_rs/186a.jpg","86","","","","","","test","TR","5"
"","show_choice","334","454782","0.0-255.0-1.0","null","run_exp/static/images/Set 6_rs/186a.jpg","null","","","","","","test","TR",""
"","html-keyboard-response","335","455286","0.0-255.0-2.0","null","<p></p>","null","","","","","","","",""
"","image","336","456543","0.0-256.0-0.0","1256.199999999255","run_exp/static/images/Set 6_rs/036b.jpg","78","","","","","","test","TL","4"
"","show_choice","337","457046","0.0-256.0-1.0","null","run_exp/static/images/Set 6_rs/036b.jpg","null","","","","","","test","TL",""
"","html-keyboard-response","338","457549","0.0-256.0-2.0","null","<p></p>","null","","","","","","","",""
"","image","339","459175","0.0-257.0-0.0","1625","run_exp/static/images/Set 6_rs/007a.jpg","66","","","","","","test","TR","3"
"","show_choice","340","459680","0.0-257.0-1.0","null","run_exp/static/images/Set 6_rs/007a.jpg","null","","","","","","test","TR",""
"","html-keyboard-response","341","460183","0.0-257.0-2.0","null","<p></p>","null","","","","","","","",""
"","image","342","462567","0.0-258.0-0.0","2382.900000002235","run_exp/static/images/Set 6_rs/141a.jpg","66","","","","","","test","TR","2"
"","show_choice","343","463072","0.0-258.0-1.0","null","run_exp/static/images/Set 6_rs/141a.jpg","null","","","","","","test","TR",""
"","html-keyboard-response","344","463573","0.0-258.0-2.0","null","<p></p>","null","","","","","","","",""
"","image","345","464759","0.0-259.0-0.0","1184.5999999977648","run_exp/static/images/Set 6_rs/109a.jpg","78","","","","","","test","TF","5"
"","show_choice","346","465263","0.0-259.0-1.0","null","run_exp/static/images/Set 6_rs/109a.jpg","null","","","","","","test","TF",""
"","html-keyboard-response","347","465769","0.0-259.0-2.0","null","<p></p>","null","","","","","","","",""
"","image","348","466895","0.0-260.0-0.0","1125.0999999977648","run_exp/static/images/Set 6_rs/063a.jpg","86","","","","","","test","TR","2"
"","show_choice","349","467400","0.0-260.0-1.0","null","run_exp/static/images/Set 6_rs/063a.jpg","null","","","","","","test","TR",""
"","html-keyboard-response","350","467906","0.0-260.0-2.0","null","<p></p>","null","","","","","","","",""
"","image","351","469343","0.0-261.0-0.0","1436.199999999255","run_exp/static/images/Set 6_rs/074b.jpg","66","","","","","","test","TL","4"
"","show_choice","352","469845","0.0-261.0-1.0","null","run_exp/static/images/Set 6_rs/074b.jpg","null","","","","","","test","TL",""
"","html-keyboard-response","353","470349","0.0-261.0-2.0","null","<p></p>","null","","","","","","","",""
"","image","354","472287","0.0-262.0-0.0","1937.4000000022352","run_exp/static/images/Set 6_rs/095b.jpg","66","","","","","","test","TL","5"
"","show_choice","355","472789","0.0-262.0-1.0","null","run_exp/static/images/Set 6_rs/095b.jpg","null","","","","","","test","TL",""
"","html-keyboard-response","356","473291","0.0-262.0-2.0","null","<p></p>","null","","","","","","","",""
"","image","357","476009","0.0-263.0-0.0","2716.89999999851","run_exp/static/images/Set 6_rs/171a.jpg","86","","","","","","test","TF","1"
"","show_choice","358","476511","0.0-263.0-1.0","null","run_exp/static/images/Set 6_rs/171a.jpg","null","","","","","","test","TF",""
"","html-keyboard-response","359","477015","0.0-263.0-2.0","null","<p></p>","null","","","","","","","",""
"","image","360","478303","0.0-264.0-0.0","1287.2000000029802","run_exp/static/images/Set 6_rs/138b.jpg","78","","","","","","test","TL","1"
"","show_choice","361","478805","0.0-264.0-1.0","null","run_exp/static/images/Set 6_rs/138b.jpg","null","","","","","","test","TL",""
"","html-keyboard-response","362","479307","0.0-264.0-2.0","null","<p></p>","null","","","","","","","",""
"","image","363","481608","0.0-265.0-0.0","2299.5","run_exp/static/images/Set 6_rs/154a.jpg","78","","","","","","test","TR","3"
"","show_choice","364","482110","0.0-265.0-1.0","null","run_exp/static/images/Set 6_rs/154a.jpg","null","","","","","","test","TR",""
"","html-keyboard-response","365","482611","0.0-265.0-2.0","null","<p></p>","null","","","","","","","",""
"","image","366","483921","0.0-266.0-0.0","1308.6000000014901","run_exp/static/images/Set 6_rs/012a.jpg","86","","","","","","test","TR","1"
"","show_choice","367","484423","0.0-266.0-1.0","null","run_exp/static/images/Set 6_rs/012a.jpg","null","","","","","","test","TR",""
"","html-keyboard-response","368","484929","0.0-266.0-2.0","null","<p></p>","null","","","","","","","",""
"","image","369","486561","0.0-267.0-0.0","1629.9000000022352","run_exp/static/images/Set 6_rs/149a.jpg","78","","","","","","test","TF","1"
"","show_choice","370","487062","0.0-267.0-1.0","null","run_exp/static/images/Set 6_rs/149a.jpg","null","","","","","","test","TF",""
"","html-keyboard-response","371","487566","0.0-267.0-2.0","null","<p></p>","null","","","","","","","",""
"","image","372","489072","0.0-268.0-0.0","1505","run_exp/static/images/Set 6_rs/089b.jpg","78","","","","","","test","TL","4"
"","show_choice","373","489577","0.0-268.0-1.0","null","run_exp/static/images/Set 6_rs/089b.jpg","null","","","","","","test","TL",""
"","html-keyboard-response","374","490078","0.0-268.0-2.0","null","<p></p>","null","","","","","","","",""
"","image","375","491465","0.0-269.0-0.0","1386.699999999255","run_exp/static/images/Set 6_rs/131a.jpg","86","","","","","","test","TR","5"
"","show_choice","376","491967","0.0-269.0-1.0","null","run_exp/static/images/Set 6_rs/131a.jpg","null","","","","","","test","TR",""
"","html-keyboard-response","377","492468","0.0-269.0-2.0","null","<p></p>","null","","","","","","","",""
"","image","378","494032","0.0-270.0-0.0","1563.0999999977648","run_exp/static/images/Set 6_rs/188a.jpg","78","","","","","","test","TF","3"
"","show_choice","379","494534","0.0-270.0-1.0","null","run_exp/static/images/Set 6_rs/188a.jpg","null","","","","","","test","TF",""
"","html-keyboard-response","380","495038","0.0-270.0-2.0","null","<p></p>","null","","","","","","","",""
"","image","381","497360","0.0-271.0-0.0","2320","run_exp/static/images/Set 6_rs/168b.jpg","78","","","","","","test","TL","3"
"","show_choice","382","497862","0.0-271.0-1.0","null","run_exp/static/images/Set 6_rs/168b.jpg","null","","","","","","test","TL",""
"","html-keyboard-response","383","498363","0.0-271.0-2.0","null","<p></p>","null","","","","","","","",""
"","image","384","500672","0.0-272.0-0.0","2307.300000000745","run_exp/static/images/Set 6_rs/167b.jpg","66","","","","","","test","TL","2"
"","show_choice","385","501174","0.0-272.0-1.0","null","run_exp/static/images/Set 6_rs/167b.jpg","null","","","","","","test","TL",""
"","html-keyboard-response","386","501679","0.0-272.0-2.0","null","<p></p>","null","","","","","","","",""
"","image","387","503671","0.0-273.0-0.0","1991.800000000745","run_exp/static/images/Set 6_rs/077a.jpg","78","","","","","","test","TF","3"
"","show_choice","388","504173","0.0-273.0-1.0","null","run_exp/static/images/Set 6_rs/077a.jpg","null","","","","","","test","TF",""
"","html-keyboard-response","389","504678","0.0-273.0-2.0","null","<p></p>","null","","","","","","","",""
"","image","390","506128","0.0-274.0-0.0","1449.3999999985099","run_exp/static/images/Set 6_rs/025b.jpg","66","","","","","","test","TL","5"
"","show_choice","391","506631","0.0-274.0-1.0","null","run_exp/static/images/Set 6_rs/025b.jpg","null","","","","","","test","TL",""
"","html-keyboard-response","392","507132","0.0-274.0-2.0","null","<p></p>","null","","","","","","","",""
"","image","393","508912","0.0-275.0-0.0","1779.199999999255","run_exp/static/images/Set 6_rs/134a.jpg","86","","","","","","test","TR","3"
"","show_choice","394","509418","0.0-275.0-1.0","null","run_exp/static/images/Set 6_rs/134a.jpg","null","","","","","","test","TR",""
"","html-keyboard-response","395","509923","0.0-275.0-2.0","null","<p></p>","null","","","","","","","",""
"","image","396","511360","0.0-276.0-0.0","1435.6000000014901","run_exp/static/images/Set 6_rs/126a.jpg","86","","","","","","test","TR","2"
"","show_choice","397","511862","0.0-276.0-1.0","null","run_exp/static/images/Set 6_rs/126a.jpg","null","","","","","","test","TR",""
"","html-keyboard-response","398","512364","0.0-276.0-2.0","null","<p></p>","null","","","","","","","",""
"","image","399","513408","0.0-277.0-0.0","1042.8999999985099","run_exp/static/images/Set 6_rs/190a.jpg","78","","","","","","test","TF","3"
"","show_choice","400","513914","0.0-277.0-1.0","null","run_exp/static/images/Set 6_rs/190a.jpg","null","","","","","","test","TF",""
"","html-keyboard-response","401","514420","0.0-277.0-2.0","null","<p></p>","null","","","","","","","",""
"","image","402","515641","0.0-278.0-0.0","1219.8999999985099","run_exp/static/images/Set 6_rs/078a.jpg","78","","","","","","test","TF","1"
"","show_choice","403","516144","0.0-278.0-1.0","null","run_exp/static/images/Set 6_rs/078a.jpg","null","","","","","","test","TF",""
"","html-keyboard-response","404","516648","0.0-278.0-2.0","null","<p></p>","null","","","","","","","",""
"","image","405","517825","0.0-279.0-0.0","1175.2999999970198","run_exp/static/images/Set 6_rs/150a.jpg","66","","","","","","test","TR","1"
"","show_choice","406","518330","0.0-279.0-1.0","null","run_exp/static/images/Set 6_rs/150a.jpg","null","","","","","","test","TR",""
"","html-keyboard-response","407","518836","0.0-279.0-2.0","null","<p></p>","null","","","","","","","",""
"","image","408","520689","0.0-280.0-0.0","1851.5999999977648","run_exp/static/images/Set 6_rs/191b.jpg","78","","","","","","test","TL","2"
"","show_choice","409","521194","0.0-280.0-1.0","null","run_exp/static/images/Set 6_rs/191b.jpg","null","","","","","","test","TL",""
"","html-keyboard-response","410","521695","0.0-280.0-2.0","null","<p></p>","null","","","","","","","",""
"","image","411","523073","0.0-281.0-0.0","1376.5","run_exp/static/images/Set 6_rs/067b.jpg","78","","","","","","test","TL","5"
"","show_choice","412","523578","0.0-281.0-1.0","null","run_exp/static/images/Set 6_rs/067b.jpg","null","","","","","","test","TL",""
"","html-keyboard-response","413","524084","0.0-281.0-2.0","null","<p></p>","null","","","","","","","",""
"","image","414","525513","0.0-282.0-0.0","1427.800000000745","run_exp/static/images/Set 6_rs/057b.jpg","86","","","","","","test","TL","1"
"","show_choice","415","526018","0.0-282.0-1.0","null","run_exp/static/images/Set 6_rs/057b.jpg","null","","","","","","test","TL",""
"","html-keyboard-response","416","526520","0.0-282.0-2.0","null","<p></p>","null","","","","","","","",""
"","image","417","528593","0.0-283.0-0.0","2072","run_exp/static/images/Set 6_rs/166a.jpg","86","","","","","","test","TR","1"
"","show_choice","418","529096","0.0-283.0-1.0","null","run_exp/static/images/Set 6_rs/166a.jpg","null","","","","","","test","TR",""
"","html-keyboard-response","419","529597","0.0-283.0-2.0","null","<p></p>","null","","","","","","","",""
"","image","420","532531","0.0-284.0-0.0","2932.199999999255","run_exp/static/images/Set 6_rs/136a.jpg","78","","","","","","test","TF","4"
"","show_choice","421","533036","0.0-284.0-1.0","null","run_exp/static/images/Set 6_rs/136a.jpg","null","","","","","","test","TF",""
"","html-keyboard-response","422","533538","0.0-284.0-2.0","null","<p></p>","null","","","","","","","",""
"","image","423","535123","0.0-285.0-0.0","1583.800000000745","run_exp/static/images/Set 6_rs/148a.jpg","86","","","","","","test","TR","2"
"","show_choice","424","535628","0.0-285.0-1.0","null","run_exp/static/images/Set 6_rs/148a.jpg","null","","","","","","test","TR",""
"","html-keyboard-response","425","536129","0.0-285.0-2.0","null","<p></p>","null","","","","","","","",""
"","image","426","537387","0.0-286.0-0.0","1256.7000000029802","run_exp/static/images/Set 6_rs/177a.jpg","86","","","","","","test","TR","5"
"","show_choice","427","537892","0.0-286.0-1.0","null","run_exp/static/images/Set 6_rs/177a.jpg","null","","","","","","test","TR",""
"","html-keyboard-response","428","538398","0.0-286.0-2.0","null","<p></p>","null","","","","","","","",""
"","image","429","539771","0.0-287.0-0.0","1371.9000000022352","run_exp/static/images/Set 6_rs/118a.jpg","78","","","","","","test","TF","5"
"","show_choice","430","540276","0.0-287.0-1.0","null","run_exp/static/images/Set 6_rs/118a.jpg","null","","","","","","test","TF",""
"","html-keyboard-response","431","540778","0.0-287.0-2.0","null","<p></p>","null","","","","","","","",""
"","image","432","542227","0.0-288.0-0.0","1448.0999999977648","run_exp/static/images/Set 6_rs/071b.jpg","66","","","","","","test","TL","4"
"","show_choice","433","542729","0.0-288.0-1.0","null","run_exp/static/images/Set 6_rs/071b.jpg","null","","","","","","test","TL",""
"","html-keyboard-response","434","543231","0.0-288.0-2.0","null","<p></p>","null","","","","","","","",""
"","image","435","544947","0.0-289.0-0.0","1715","run_exp/static/images/Set 6_rs/181b.jpg","66","","","","","","test","TL","1"
"","show_choice","436","545452","0.0-289.0-1.0","null","run_exp/static/images/Set 6_rs/181b.jpg","null","","","","","","test","TL",""
"","html-keyboard-response","437","545954","0.0-289.0-2.0","null","<p></p>","null","","","","","","","",""
"","image","438","547675","0.0-290.0-0.0","1720.5","run_exp/static/images/Set 6_rs/097a.jpg","78","","","","","","test","TF","5"
"","show_choice","439","548179","0.0-290.0-1.0","null","run_exp/static/images/Set 6_rs/097a.jpg","null","","","","","","test","TF",""
"","html-keyboard-response","440","548683","0.0-290.0-2.0","null","<p></p>","null","","","","","","","",""
"","image","441","550660","0.0-291.0-0.0","1975.699999999255","run_exp/static/images/Set 6_rs/105a.jpg","78","","","","","","test","TF","5"
"","show_choice","442","551161","0.0-291.0-1.0","null","run_exp/static/images/Set 6_rs/105a.jpg","null","","","","","","test","TF",""
"","html-keyboard-response","443","551665","0.0-291.0-2.0","null","<p></p>","null","","","","","","","",""
"","image","444","553211","0.0-292.0-0.0","1545.1000000014901","run_exp/static/images/Set 6_rs/021a.jpg","78","","","","","","test","TF","2"
"","show_choice","445","553717","0.0-292.0-1.0","null","run_exp/static/images/Set 6_rs/021a.jpg","null","","","","","","test","TF",""
"","html-keyboard-response","446","554219","0.0-292.0-2.0","null","<p></p>","null","","","","","","","",""
"","image","447","555692","0.0-293.0-0.0","1471.800000000745","run_exp/static/images/Set 6_rs/086a.jpg","78","","","","","","test","TF","1"
"","show_choice","448","556195","0.0-293.0-1.0","null","run_exp/static/images/Set 6_rs/086a.jpg","null","","","","","","test","TF",""
"","html-keyboard-response","449","556699","0.0-293.0-2.0","null","<p></p>","null","","","","","","","",""
"","image","450","558420","0.0-294.0-0.0","1719.4000000022352","run_exp/static/images/Set 6_rs/075a.jpg","66","","","","","","test","TR","1"
"","show_choice","451","558925","0.0-294.0-1.0","null","run_exp/static/images/Set 6_rs/075a.jpg","null","","","","","","test","TR",""
"","html-keyboard-response","452","559427","0.0-294.0-2.0","null","<p></p>","null","","","","","","","",""
"","image","453","560892","0.0-295.0-0.0","1463.7999999970198","run_exp/static/images/Set 6_rs/144b.jpg","86","","","","","","test","TL","4"
"","show_choice","454","561393","0.0-295.0-1.0","null","run_exp/static/images/Set 6_rs/144b.jpg","null","","","","","","test","TL",""
"","html-keyboard-response","455","561896","0.0-295.0-2.0","null","<p></p>","null","","","","","","","",""
"","image","456","563444","0.0-296.0-0.0","1547.0999999977648","run_exp/static/images/Set 6_rs/073b.jpg","78","","","","","","test","TL","3"
"","show_choice","457","563949","0.0-296.0-1.0","null","run_exp/static/images/Set 6_rs/073b.jpg","null","","","","","","test","TL",""
"","html-keyboard-response","458","564451","0.0-296.0-2.0","null","<p></p>","null","","","","","","","",""
"","image","459","566556","0.0-297.0-0.0","2103.5","run_exp/static/images/Set 6_rs/178a.jpg","66","","","","","","test","TR","3"
"","show_choice","460","567061","0.0-297.0-1.0","null","run_exp/static/images/Set 6_rs/178a.jpg","null","","","","","","test","TR",""
"","html-keyboard-response","461","567562","0.0-297.0-2.0","null","<p></p>","null","","","","","","","",""
"","image","462","570569","0.0-298.0-0.0","null","run_exp/static/images/Set 6_rs/169a.jpg","null","","","","","","test","TR","4"
"","show_choice","463","571075","0.0-298.0-1.0","null","run_exp/static/images/Set 6_rs/169a.jpg","null","","","","","","test","TR",""
"","html-keyboard-response","464","571576","0.0-298.0-2.0","null","<p></p>","null","","","","","","","",""
"","image","465","572794","0.0-299.0-0.0","1216.300000000745","run_exp/static/images/Set 6_rs/066b.jpg","86","","","","","","test","TL","5"
"","show_choice","466","573295","0.0-299.0-1.0","null","run_exp/static/images/Set 6_rs/066b.jpg","null","","","","","","test","TL",""
"","html-keyboard-response","467","573797","0.0-299.0-2.0","null","<p></p>","null","","","","","","","",""
"","image","468","574874","0.0-300.0-0.0","1075.0999999977648","run_exp/static/images/Set 6_rs/117b.jpg","86","","","","","","test","TL","5"
"","show_choice","469","575377","0.0-300.0-1.0","null","run_exp/static/images/Set 6_rs/117b.jpg","null","","","","","","test","TL",""
"","html-keyboard-response","470","575883","0.0-300.0-2.0","null","<p></p>","null","","","","","","","",""
"","image","471","577002","0.0-301.0-0.0","1117.7000000029802","run_exp/static/images/Set 6_rs/056a.jpg","78","","","","","","test","TF","3"
"","show_choice","472","577507","0.0-301.0-1.0","null","run_exp/static/images/Set 6_rs/056a.jpg","null","","","","","","test","TF",""
"","html-keyboard-response","473","578013","0.0-301.0-2.0","null","<p></p>","null","","","","","","","",""
"","image","474","579442","0.0-302.0-0.0","1427.800000000745","run_exp/static/images/Set 6_rs/187a.jpg","66","","","","","","test","TR","3"
"","show_choice","475","579947","0.0-302.0-1.0","null","run_exp/static/images/Set 6_rs/187a.jpg","null","","","","","","test","TR",""
"","html-keyboard-response","476","580453","0.0-302.0-2.0","null","<p></p>","null","","","","","","","",""
"","image","477","582002","0.0-303.0-0.0","1547.800000000745","run_exp/static/images/Set 6_rs/133a.jpg","78","","","","","","test","TF","4"
"","show_choice","478","582507","0.0-303.0-1.0","null","run_exp/static/images/Set 6_rs/133a.jpg","null","","","","","","test","TF",""
"","html-keyboard-response","479","583009","0.0-303.0-2.0","null","<p></p>","null","","","","","","","",""
"","image","480","584586","0.0-304.0-0.0","1575.8999999985099","run_exp/static/images/Set 6_rs/112a.jpg","86","","","","","","test","TR","5"
"","show_choice","481","585087","0.0-304.0-1.0","null","run_exp/static/images/Set 6_rs/112a.jpg","null","","","","","","test","TR",""
"","html-keyboard-response","482","585589","0.0-304.0-2.0","null","<p></p>","null","","","","","","","",""
"","image","483","587290","0.0-305.0-0.0","1699.6000000014901","run_exp/static/images/Set 6_rs/011a.jpg","78","","","","","","test","TF","3"
"","show_choice","484","587791","0.0-305.0-1.0","null","run_exp/static/images/Set 6_rs/011a.jpg","null","","","","","","test","TF",""
"","html-keyboard-response","485","588294","0.0-305.0-2.0","null","<p></p>","null","","","","","","","",""
"","image","486","589898","0.0-306.0-0.0","1602.9000000022352","run_exp/static/images/Set 6_rs/061a.jpg","86","","","","","","test","TR","5"
"","show_choice","487","590403","0.0-306.0-1.0","null","run_exp/static/images/Set 6_rs/061a.jpg","null","","","","","","test","TR",""
"","html-keyboard-response","488","590909","0.0-306.0-2.0","null","<p></p>","null","","","","","","","",""
"","image","489","592154","0.0-307.0-0.0","1243.800000000745","run_exp/static/images/Set 6_rs/045a.jpg","86","","","","","","test","TR","2"
"","show_choice","490","592659","0.0-307.0-1.0","null","run_exp/static/images/Set 6_rs/045a.jpg","null","","","","","","test","TR",""
"","html-keyboard-response","491","593165","0.0-307.0-2.0","null","<p></p>","null","","","","","","","",""
"","image","492","595010","0.0-308.0-0.0","1844","run_exp/static/images/Set 6_rs/024a.jpg","78","","","","","","test","TR","5"
"","show_choice","493","595516","0.0-308.0-1.0","null","run_exp/static/images/Set 6_rs/024a.jpg","null","","","","","","test","TR",""
"","html-keyboard-response","494","596017","0.0-308.0-2.0","null","<p></p>","null","","","","","","","",""
"","image","495","597234","0.0-309.0-0.0","1216.199999999255","run_exp/static/images/Set 6_rs/108a.jpg","86","","","","","","test","TR","5"
"","show_choice","496","597739","0.0-309.0-1.0","null","run_exp/static/images/Set 6_rs/108a.jpg","null","","","","","","test","TR",""
"","html-keyboard-response","497","598242","0.0-309.0-2.0","null","<p></p>","null","","","","","","","",""
"","image","498","599354","0.0-310.0-0.0","1111.1000000014901","run_exp/static/images/Set 6_rs/176a.jpg","78","","","","","","test","TF","4"
"","show_choice","499","599859","0.0-310.0-1.0","null","run_exp/static/images/Set 6_rs/176a.jpg","null","","","","","","test","TF",""
"","html-keyboard-response","500","600364","0.0-310.0-2.0","null","<p></p>","null","","","","","","","",""
"","image","501","601418","0.0-311.0-0.0","1053.300000000745","run_exp/static/images/Set 6_rs/048a.jpg","86","","","","","","test","TF","4"
"","show_choice","502","601923","0.0-311.0-1.0","null","run_exp/static/images/Set 6_rs/048a.jpg","null","","","","","","test","TF",""
"","html-keyboard-response","503","602429","0.0-311.0-2.0","null","<p></p>","null","","","","","","","",""
"","image","504","604099","0.0-312.0-0.0","1668","run_exp/static/images/Set 6_rs/060b.jpg","66","","","","","","test","TL","3"
"","show_choice","505","604600","0.0-312.0-1.0","null","run_exp/static/images/Set 6_rs/060b.jpg","null","","","","","","test","TL",""
"","html-keyboard-response","506","605105","0.0-312.0-2.0","null","<p></p>","null","","","","","","","",""
"","image","507","607480","0.0-313.0-0.0","2374.800000000745","run_exp/static/images/Set 6_rs/001a.jpg","78","","","","","","test","TF","1"
"","show_choice","508","607986","0.0-313.0-1.0","null","run_exp/static/images/Set 6_rs/001a.jpg","null","","","","","","test","TF",""
"","html-keyboard-response","509","608487","0.0-313.0-2.0","null","<p></p>","null","","","","","","","",""
"","image","510","609784","0.0-314.0-0.0","1296.300000000745","run_exp/static/images/Set 6_rs/155a.jpg","78","","","","","","test","TF","4"
"","show_choice","511","610290","0.0-314.0-1.0","null","run_exp/static/images/Set 6_rs/155a.jpg","null","","","","","","test","TF",""
"","html-keyboard-response","512","610795","0.0-314.0-2.0","null","<p></p>","null","","","","","","","",""
"","all_done","513","617884","0.0-315.0-0.0","null","run_exp/static/audio/clip_23_all_done.m4a","null","","","","","<div class='center'><p>You are finished with all three parts of the experiment! You can press the space bar to end the game now. </p></div>","","",""
"","html-keyboard-response","514","618671","0.0-315.0-1.0","786.4000000022352","<div class='center'><p>You are finished with all three parts of the experiment! You can press the space bar to end the game now. </p><div><p><b>[Press the space bar to continue]</b></p></div>","32","","","","","","","",""
