"success","trial_type","trial_index","time_elapsed","internal_node_id","interactions","blur_events","focus_events","fullscreenenter_events","fullscreenexit_events","rt","stimulus","key_press","subject_id","participant_id","age","gender","prompt","phase","condition","lure_bin"
"true","fullscreen","0","6720","0.0-0.0","""event"",""trial"",""time""
""fullscreenenter"",""0"",""5768""
","
","
","""event"",""trial"",""time""
""fullscreenenter"",""0"",""5768""
","
","","","","","","","","","","",""
"","pavlovia","1","6726","0.0-1.0","""event"",""trial"",""time""
""fullscreenenter"",""0"",""5768""
","
","
","""event"",""trial"",""time""
""fullscreenenter"",""0"",""5768""
","
","","","","","","","","","","",""
"","welcome","2","41597","0.0-2.0","""event"",""trial"",""time""
""fullscreenenter"",""0"",""5768""
","
","
","""event"",""trial"",""time""
""fullscreenenter"",""0"",""5768""
","
","null","run_exp/static/audio/clip_1_welcome.m4a","null","549","936","11","Female","<div class='center'><p>Welcome to the third part of the study! First, you'll be shown pictures of items one at a time. For each picture, you have to decide if the item is typically found indoors or outdoors.</p><p>If you think it's usually found indoors, then press <b>v</b> key on your keyboard. If you think it's usually found outdoors, then press the <b>n</b> key.There will be reminders on the screen to help you remember which keys to press. </p><p>If you're not sure whether the item is an indoor item or an outdoor item, go ahead and take a guess but try your best not to skip that choice. </p></div>","","",""
"","html-keyboard-response","3","42509","0.0-3.0","""event"",""trial"",""time""
""fullscreenenter"",""0"",""5768""
","
","
","""event"",""trial"",""time""
""fullscreenenter"",""0"",""5768""
","
","904.7999999998137","<div class='center'><p>Welcome to the third part of the study! First, you'll be shown pictures of items one at a time. For each picture, you have to decide if the item is typically found indoors or outdoors.</p><p>If you think it's usually found indoors, then press <b>v</b> key on your keyboard. If you think it's usually found outdoors, then press the <b>n</b> key.There will be reminders on the screen to help you remember which keys to press. </p><p>If you're not sure whether the item is an indoor item or an outdoor item, go ahead and take a guess but try your best not to skip that choice. </p><div><p><b>[Press the space bar to continue]</b></p></div>","32","","","","","","","",""
"","image","4","44534","0.0-4.0","""event"",""trial"",""time""
""fullscreenenter"",""0"",""5768""
","
","
","""event"",""trial"",""time""
""fullscreenenter"",""0"",""5768""
","
","null","run_exp/static/images/Set 6_rs/191a.jpg","null","","","","","","learn","SL",""
"","show_choice","5","46544","0.0-5.0","""event"",""trial"",""time""
""fullscreenenter"",""0"",""5768""
","
","
","""event"",""trial"",""time""
""fullscreenenter"",""0"",""5768""
","
","null","run_exp/static/images/blank.png","null","","","","","","learn","SL",""
"","html-keyboard-response","6","47063","0.0-6.0","""event"",""trial"",""time""
""fullscreenenter"",""0"",""5768""
","
","
","""event"",""trial"",""time""
""fullscreenenter"",""0"",""5768""
","
","null","<p></p>","null","","","","","","","",""
"","image","7","48425","0.0-7.0","""event"",""trial"",""time""
""fullscreenenter"",""0"",""5768""
","
","
","""event"",""trial"",""time""
""fullscreenenter"",""0"",""5768""
","
","1359.5","run_exp/static/images/Set 6_rs/075a.jpg","86","","","","","","learn","SR",""
"","show_choice","8","49084","0.0-8.0","""event"",""trial"",""time""
""fullscreenenter"",""0"",""5768""
","
","
","""event"",""trial"",""time""
""fullscreenenter"",""0"",""5768""
","
","null","run_exp/static/images/Set 6_rs/075a.jpg","null","","","","","","learn","SR",""
"","html-keyboard-response","9","49594","0.0-9.0","""event"",""trial"",""time""
""fullscreenenter"",""0"",""5768""
","
","
","""event"",""trial"",""time""
""fullscreenenter"",""0"",""5768""
","
","null","<p></p>","null","","","","","","","",""
"","image","10","50497","0.0-10.0","""event"",""trial"",""time""
""fullscreenenter"",""0"",""5768""
","
","
","""event"",""trial"",""time""
""fullscreenenter"",""0"",""5768""
","
","898.1999999999534","run_exp/static/images/Set 6_rs/167a.jpg","78","","","","","","learn","SL",""
"","show_choice","11","51613","0.0-11.0","""event"",""trial"",""time""
""fullscreenenter"",""0"",""5768""
","
","
","""event"",""trial"",""time""
""fullscreenenter"",""0"",""5768""
","
","null","run_exp/static/images/Set 6_rs/167a.jpg","null","","","","","","learn","SL",""
"","html-keyboard-response","12","52128","0.0-12.0","""event"",""trial"",""time""
""fullscreenenter"",""0"",""5768""
","
","
","""event"",""trial"",""time""
""fullscreenenter"",""0"",""5768""
","
","null","<p></p>","null","","","","","","","",""
"","image","13","53730","0.0-13.0","""event"",""trial"",""time""
""fullscreenenter"",""0"",""5768""
","
","
","""event"",""trial"",""time""
""fullscreenenter"",""0"",""5768""
","
","1595.3999999999069","run_exp/static/images/Set 6_rs/085a.jpg","78","","","","","","learn","SL",""
"","show_choice","14","54151","0.0-14.0","""event"",""trial"",""time""
""fullscreenenter"",""0"",""5768""
","
","
","""event"",""trial"",""time""
""fullscreenenter"",""0"",""5768""
","
","null","run_exp/static/images/Set 6_rs/085a.jpg","null","","","","","","learn","SL",""
"","html-keyboard-response","15","54656","0.0-15.0","""event"",""trial"",""time""
""fullscreenenter"",""0"",""5768""
","
","
","""event"",""trial"",""time""
""fullscreenenter"",""0"",""5768""
","
","null","<p></p>","null","","","","","","","",""
"","image","16","56402","0.0-16.0","""event"",""trial"",""time""
""fullscreenenter"",""0"",""5768""
","
","
","""event"",""trial"",""time""
""fullscreenenter"",""0"",""5768""
","
","1741.8000000000466","run_exp/static/images/Set 6_rs/187a.jpg","86","","","","","","learn","SR",""
"","show_choice","17","56666","0.0-17.0","""event"",""trial"",""time""
""fullscreenenter"",""0"",""5768""
","
","
","""event"",""trial"",""time""
""fullscreenenter"",""0"",""5768""
","
","null","run_exp/static/images/Set 6_rs/187a.jpg","null","","","","","","learn","SR",""
"","html-keyboard-response","18","57184","0.0-18.0","""event"",""trial"",""time""
""fullscreenenter"",""0"",""5768""
","
","
","""event"",""trial"",""time""
""fullscreenenter"",""0"",""5768""
","
","null","<p></p>","null","","","","","","","",""
"","image","19","58911","0.0-19.0","""event"",""trial"",""time""
""fullscreenenter"",""0"",""5768""
","
","
","""event"",""trial"",""time""
""fullscreenenter"",""0"",""5768""
","
","1723.6999999999534","run_exp/static/images/Set 6_rs/122a.jpg","86","","","","","","learn","SR",""
"","show_choice","20","59191","0.0-20.0","""event"",""trial"",""time""
""fullscreenenter"",""0"",""5768""
","
","
","""event"",""trial"",""time""
""fullscreenenter"",""0"",""5768""
","
","null","run_exp/static/images/Set 6_rs/122a.jpg","null","","","","","","learn","SR",""
"","html-keyboard-response","21","59699","0.0-21.0","""event"",""trial"",""time""
""fullscreenenter"",""0"",""5768""
","
","
","""event"",""trial"",""time""
""fullscreenenter"",""0"",""5768""
","
","null","<p></p>","null","","","","","","","",""
"","image","22","61029","0.0-22.0","""event"",""trial"",""time""
""fullscreenenter"",""0"",""5768""
","
","
","""event"",""trial"",""time""
""fullscreenenter"",""0"",""5768""
","
","1326.1999999999534","run_exp/static/images/Set 6_rs/063a.jpg","86","","","","","","learn","SR",""
"","show_choice","23","61713","0.0-23.0","""event"",""trial"",""time""
""fullscreenenter"",""0"",""5768""
","
","
","""event"",""trial"",""time""
""fullscreenenter"",""0"",""5768""
","
","null","run_exp/static/images/Set 6_rs/063a.jpg","null","","","","","","learn","SR",""
"","html-keyboard-response","24","62228","0.0-24.0","""event"",""trial"",""time""
""fullscreenenter"",""0"",""5768""
","
","
","""event"",""trial"",""time""
""fullscreenenter"",""0"",""5768""
","
","null","<p></p>","null","","","","","","","",""
"","image","25","63181","0.0-25.0","""event"",""trial"",""time""
""fullscreenenter"",""0"",""5768""
","
","
","""event"",""trial"",""time""
""fullscreenenter"",""0"",""5768""
","
","949.3000000000466","run_exp/static/images/Set 6_rs/070a.jpg","86","","","","","","learn","SR",""
"","show_choice","26","64247","0.0-26.0","""event"",""trial"",""time""
""fullscreenenter"",""0"",""5768""
","
","
","""event"",""trial"",""time""
""fullscreenenter"",""0"",""5768""
","
","null","run_exp/static/images/Set 6_rs/070a.jpg","null","","","","","","learn","SR",""
"","html-keyboard-response","27","64765","0.0-27.0","""event"",""trial"",""time""
""fullscreenenter"",""0"",""5768""
","
","
","""event"",""trial"",""time""
""fullscreenenter"",""0"",""5768""
","
","null","<p></p>","null","","","","","","","",""
"","image","28","65698","0.0-28.0","""event"",""trial"",""time""
""fullscreenenter"",""0"",""5768""
","
","
","""event"",""trial"",""time""
""fullscreenenter"",""0"",""5768""
","
","930.0999999998603","run_exp/static/images/Set 6_rs/166a.jpg","78","","","","","","learn","SR",""
"","show_choice","29","66777","0.0-29.0","""event"",""trial"",""time""
""fullscreenenter"",""0"",""5768""
","
","
","""event"",""trial"",""time""
""fullscreenenter"",""0"",""5768""
","
","null","run_exp/static/images/Set 6_rs/166a.jpg","null","","","","","","learn","SR",""
"","html-keyboard-response","30","67294","0.0-30.0","""event"",""trial"",""time""
""fullscreenenter"",""0"",""5768""
","
","
","""event"",""trial"",""time""
""fullscreenenter"",""0"",""5768""
","
","null","<p></p>","null","","","","","","","",""
"","image","31","68522","0.0-31.0","""event"",""trial"",""time""
""fullscreenenter"",""0"",""5768""
","
","
","""event"",""trial"",""time""
""fullscreenenter"",""0"",""5768""
","
","1224.3999999999069","run_exp/static/images/Set 6_rs/112a.jpg","86","","","","","","learn","SR",""
"","show_choice","32","69308","0.0-32.0","""event"",""trial"",""time""
""fullscreenenter"",""0"",""5768""
","
","
","""event"",""trial"",""time""
""fullscreenenter"",""0"",""5768""
","
","null","run_exp/static/images/Set 6_rs/112a.jpg","null","","","","","","learn","SR",""
"","html-keyboard-response","33","69819","0.0-33.0","""event"",""trial"",""time""
""fullscreenenter"",""0"",""5768""
","
","
","""event"",""trial"",""time""
""fullscreenenter"",""0"",""5768""
","
","null","<p></p>","null","","","","","","","",""
"","image","34","71236","0.0-34.0","""event"",""trial"",""time""
""fullscreenenter"",""0"",""5768""
","
","
","""event"",""trial"",""time""
""fullscreenenter"",""0"",""5768""
","
","1413.4000000001397","run_exp/static/images/Set 6_rs/168a.jpg","86","","","","","","learn","SL",""
"","show_choice","35","71834","0.0-35.0","""event"",""trial"",""time""
""fullscreenenter"",""0"",""5768""
","
","
","""event"",""trial"",""time""
""fullscreenenter"",""0"",""5768""
","
","null","run_exp/static/images/Set 6_rs/168a.jpg","null","","","","","","learn","SL",""
"","html-keyboard-response","36","72339","0.0-36.0","""event"",""trial"",""time""
""fullscreenenter"",""0"",""5768""
","
","
","""event"",""trial"",""time""
""fullscreenenter"",""0"",""5768""
","
","null","<p></p>","null","","","","","","","",""
"","image","37","73595","0.0-37.0","""event"",""trial"",""time""
""fullscreenenter"",""0"",""5768""
","
","
","""event"",""trial"",""time""
""fullscreenenter"",""0"",""5768""
","
","1252.5","run_exp/static/images/Set 6_rs/061a.jpg","86","","","","","","learn","SR",""
"","show_choice","38","74354","0.0-38.0","""event"",""trial"",""time""
""fullscreenenter"",""0"",""5768""
","
","
","""event"",""trial"",""time""
""fullscreenenter"",""0"",""5768""
","
","null","run_exp/static/images/Set 6_rs/061a.jpg","null","","","","","","learn","SR",""
"","html-keyboard-response","39","74867","0.0-39.0","""event"",""trial"",""time""
""fullscreenenter"",""0"",""5768""
","
","
","""event"",""trial"",""time""
""fullscreenenter"",""0"",""5768""
","
","null","<p></p>","null","","","","","","","",""
"","image","40","75870","0.0-40.0","""event"",""trial"",""time""
""fullscreenenter"",""0"",""5768""
","
","
","""event"",""trial"",""time""
""fullscreenenter"",""0"",""5768""
","
","999.6000000000931","run_exp/static/images/Set 6_rs/014a.jpg","86","","","","","","learn","SL",""
"","show_choice","41","76874","0.0-41.0","""event"",""trial"",""time""
""fullscreenenter"",""0"",""5768""
","
","
","""event"",""trial"",""time""
""fullscreenenter"",""0"",""5768""
","
","null","run_exp/static/images/Set 6_rs/014a.jpg","null","","","","","","learn","SL",""
"","html-keyboard-response","42","77377","0.0-42.0","""event"",""trial"",""time""
""fullscreenenter"",""0"",""5768""
","
","
","""event"",""trial"",""time""
""fullscreenenter"",""0"",""5768""
","
","null","<p></p>","null","","","","","","","",""
"","image","43","78146","0.0-43.0","""event"",""trial"",""time""
""fullscreenenter"",""0"",""5768""
","
","
","""event"",""trial"",""time""
""fullscreenenter"",""0"",""5768""
","
","764.6999999999534","run_exp/static/images/Set 6_rs/050a.jpg","86","","","","","","learn","SL",""
"","show_choice","44","79386","0.0-44.0","""event"",""trial"",""time""
""fullscreenenter"",""0"",""5768""
","
","
","""event"",""trial"",""time""
""fullscreenenter"",""0"",""5768""
","
","null","run_exp/static/images/Set 6_rs/050a.jpg","null","","","","","","learn","SL",""
"","html-keyboard-response","45","79893","0.0-45.0","""event"",""trial"",""time""
""fullscreenenter"",""0"",""5768""
","
","
","""event"",""trial"",""time""
""fullscreenenter"",""0"",""5768""
","
","null","<p></p>","null","","","","","","","",""
"","image","46","80731","0.0-46.0","""event"",""trial"",""time""
""fullscreenenter"",""0"",""5768""
","
","
","""event"",""trial"",""time""
""fullscreenenter"",""0"",""5768""
","
","834.1000000000931","run_exp/static/images/Set 6_rs/091a.jpg","78","","","","","","learn","SL",""
"","show_choice","47","81909","0.0-47.0","""event"",""trial"",""time""
""fullscreenenter"",""0"",""5768""
","
","
","""event"",""trial"",""time""
""fullscreenenter"",""0"",""5768""
","
","null","run_exp/static/images/Set 6_rs/091a.jpg","null","","","","","","learn","SL",""
"","html-keyboard-response","48","82421","0.0-48.0","""event"",""trial"",""time""
""fullscreenenter"",""0"",""5768""
","
","
","""event"",""trial"",""time""
""fullscreenenter"",""0"",""5768""
","
","null","<p></p>","null","","","","","","","",""
"","image","49","83129","0.0-49.0","""event"",""trial"",""time""
""fullscreenenter"",""0"",""5768""
","
","
","""event"",""trial"",""time""
""fullscreenenter"",""0"",""5768""
","
","703.5","run_exp/static/images/Set 6_rs/055a.jpg","86","","","","","","learn","SL",""
"","show_choice","50","84436","0.0-50.0","""event"",""trial"",""time""
""fullscreenenter"",""0"",""5768""
","
","
","""event"",""trial"",""time""
""fullscreenenter"",""0"",""5768""
","
","null","run_exp/static/images/Set 6_rs/055a.jpg","null","","","","","","learn","SL",""
"","html-keyboard-response","51","84953","0.0-51.0","""event"",""trial"",""time""
""fullscreenenter"",""0"",""5768""
","
","
","""event"",""trial"",""time""
""fullscreenenter"",""0"",""5768""
","
","null","<p></p>","null","","","","","","","",""
"","image","52","85883","0.0-52.0","""event"",""trial"",""time""
""fullscreenenter"",""0"",""5768""
","
","
","""event"",""trial"",""time""
""fullscreenenter"",""0"",""5768""
","
","926.5","run_exp/static/images/Set 6_rs/024a.jpg","86","","","","","","learn","SR",""
"","show_choice","53","86960","0.0-53.0","""event"",""trial"",""time""
""fullscreenenter"",""0"",""5768""
","
","
","""event"",""trial"",""time""
""fullscreenenter"",""0"",""5768""
","
","null","run_exp/static/images/Set 6_rs/024a.jpg","null","","","","","","learn","SR",""
"","html-keyboard-response","54","87471","0.0-54.0","""event"",""trial"",""time""
""fullscreenenter"",""0"",""5768""
","
","
","""event"",""trial"",""time""
""fullscreenenter"",""0"",""5768""
","
","null","<p></p>","null","","","","","","","",""
"","image","55","88241","0.0-55.0","""event"",""trial"",""time""
""fullscreenenter"",""0"",""5768""
","
","
","""event"",""trial"",""time""
""fullscreenenter"",""0"",""5768""
","
","766.6000000000931","run_exp/static/images/Set 6_rs/017a.jpg","78","","","","","","learn","SL",""
"","show_choice","56","89487","0.0-56.0","""event"",""trial"",""time""
""fullscreenenter"",""0"",""5768""
","
","
","""event"",""trial"",""time""
""fullscreenenter"",""0"",""5768""
","
","null","run_exp/static/images/Set 6_rs/017a.jpg","null","","","","","","learn","SL",""
"","html-keyboard-response","57","90001","0.0-57.0","""event"",""trial"",""time""
""fullscreenenter"",""0"",""5768""
","
","
","""event"",""trial"",""time""
""fullscreenenter"",""0"",""5768""
","
","null","<p></p>","null","","","","","","","",""
"","image","58","90614","0.0-58.0","""event"",""trial"",""time""
""fullscreenenter"",""0"",""5768""
","
","
","""event"",""trial"",""time""
""fullscreenenter"",""0"",""5768""
","
","609.0999999998603","run_exp/static/images/Set 6_rs/172a.jpg","78","","","","","","learn","SR",""
"","show_choice","59","92019","0.0-59.0","""event"",""trial"",""time""
""fullscreenenter"",""0"",""5768""
","
","
","""event"",""trial"",""time""
""fullscreenenter"",""0"",""5768""
","
","null","run_exp/static/images/Set 6_rs/172a.jpg","null","","","","","","learn","SR",""
"","html-keyboard-response","60","92531","0.0-60.0","""event"",""trial"",""time""
""fullscreenenter"",""0"",""5768""
","
","
","""event"",""trial"",""time""
""fullscreenenter"",""0"",""5768""
","
","null","<p></p>","null","","","","","","","",""
"","image","61","93319","0.0-61.0","""event"",""trial"",""time""
""fullscreenenter"",""0"",""5768""
","
","
","""event"",""trial"",""time""
""fullscreenenter"",""0"",""5768""
","
","783.6999999999534","run_exp/static/images/Set 6_rs/123a.jpg","78","","","","","","learn","SL",""
"","show_choice","62","94544","0.0-62.0","""event"",""trial"",""time""
""fullscreenenter"",""0"",""5768""
","
","
","""event"",""trial"",""time""
""fullscreenenter"",""0"",""5768""
","
","null","run_exp/static/images/Set 6_rs/123a.jpg","null","","","","","","learn","SL",""
"","html-keyboard-response","63","95050","0.0-63.0","""event"",""trial"",""time""
""fullscreenenter"",""0"",""5768""
","
","
","""event"",""trial"",""time""
""fullscreenenter"",""0"",""5768""
","
","null","<p></p>","null","","","","","","","",""
"","image","64","95817","0.0-64.0","""event"",""trial"",""time""
""fullscreenenter"",""0"",""5768""
","
","
","""event"",""trial"",""time""
""fullscreenenter"",""0"",""5768""
","
","763.6999999999534","run_exp/static/images/Set 6_rs/177a.jpg","78","","","","","","learn","SR",""
"","show_choice","65","97058","0.0-65.0","""event"",""trial"",""time""
""fullscreenenter"",""0"",""5768""
","
","
","""event"",""trial"",""time""
""fullscreenenter"",""0"",""5768""
","
","null","run_exp/static/images/Set 6_rs/177a.jpg","null","","","","","","learn","SR",""
"","html-keyboard-response","66","97563","0.0-66.0","""event"",""trial"",""time""
""fullscreenenter"",""0"",""5768""
","
","
","""event"",""trial"",""time""
""fullscreenenter"",""0"",""5768""
","
","null","<p></p>","null","","","","","","","",""
"","image","67","98269","0.0-67.0","""event"",""trial"",""time""
""fullscreenenter"",""0"",""5768""
","
","
","""event"",""trial"",""time""
""fullscreenenter"",""0"",""5768""
","
","701.6000000000931","run_exp/static/images/Set 6_rs/138a.jpg","78","","","","","","learn","SL",""
"","show_choice","68","99580","0.0-68.0","""event"",""trial"",""time""
""fullscreenenter"",""0"",""5768""
","
","
","""event"",""trial"",""time""
""fullscreenenter"",""0"",""5768""
","
","null","run_exp/static/images/Set 6_rs/138a.jpg","null","","","","","","learn","SL",""
"","html-keyboard-response","69","100085","0.0-69.0","""event"",""trial"",""time""
""fullscreenenter"",""0"",""5768""
","
","
","""event"",""trial"",""time""
""fullscreenenter"",""0"",""5768""
","
","null","<p></p>","null","","","","","","","",""
"","image","70","101497","0.0-70.0","""event"",""trial"",""time""
""fullscreenenter"",""0"",""5768""
","
","
","""event"",""trial"",""time""
""fullscreenenter"",""0"",""5768""
","
","1408.6999999999534","run_exp/static/images/Set 6_rs/131a.jpg","86","","","","","","learn","SR",""
"","show_choice","71","102098","0.0-71.0","""event"",""trial"",""time""
""fullscreenenter"",""0"",""5768""
","
","
","""event"",""trial"",""time""
""fullscreenenter"",""0"",""5768""
","
","null","run_exp/static/images/Set 6_rs/131a.jpg","null","","","","","","learn","SR",""
"","html-keyboard-response","72","102607","0.0-72.0","""event"",""trial"",""time""
""fullscreenenter"",""0"",""5768""
","
","
","""event"",""trial"",""time""
""fullscreenenter"",""0"",""5768""
","
","null","<p></p>","null","","","","","","","",""
"","image","73","103751","0.0-73.0","""event"",""trial"",""time""
""fullscreenenter"",""0"",""5768""
","
","
","""event"",""trial"",""time""
""fullscreenenter"",""0"",""5768""
","
","1139.8000000000466","run_exp/static/images/Set 6_rs/071a.jpg","78","","","","","","learn","SL",""
"","show_choice","74","104630","0.0-74.0","""event"",""trial"",""time""
""fullscreenenter"",""0"",""5768""
","
","
","""event"",""trial"",""time""
""fullscreenenter"",""0"",""5768""
","
","null","run_exp/static/images/Set 6_rs/071a.jpg","null","","","","","","learn","SL",""
"","html-keyboard-response","75","105143","0.0-75.0","""event"",""trial"",""time""
""fullscreenenter"",""0"",""5768""
","
","
","""event"",""trial"",""time""
""fullscreenenter"",""0"",""5768""
","
","null","<p></p>","null","","","","","","","",""
"","image","76","106732","0.0-76.0","""event"",""trial"",""time""
""fullscreenenter"",""0"",""5768""
","
","
","""event"",""trial"",""time""
""fullscreenenter"",""0"",""5768""
","
","1585.3000000000466","run_exp/static/images/Set 6_rs/154a.jpg","86","","","","","","learn","SR",""
"","show_choice","77","107158","0.0-77.0","""event"",""trial"",""time""
""fullscreenenter"",""0"",""5768""
","
","
","""event"",""trial"",""time""
""fullscreenenter"",""0"",""5768""
","
","null","run_exp/static/images/Set 6_rs/154a.jpg","null","","","","","","learn","SR",""
"","html-keyboard-response","78","107662","0.0-78.0","""event"",""trial"",""time""
""fullscreenenter"",""0"",""5768""
","
","
","""event"",""trial"",""time""
""fullscreenenter"",""0"",""5768""
","
","null","<p></p>","null","","","","","","","",""
"","image","79","109281","0.0-79.0","""event"",""trial"",""time""
""fullscreenenter"",""0"",""5768""
","
","
","""event"",""trial"",""time""
""fullscreenenter"",""0"",""5768""
","
","1615.3999999999069","run_exp/static/images/Set 6_rs/066a.jpg","78","","","","","","learn","SL",""
"","show_choice","80","109681","0.0-80.0","""event"",""trial"",""time""
""fullscreenenter"",""0"",""5768""
","
","
","""event"",""trial"",""time""
""fullscreenenter"",""0"",""5768""
","
","null","run_exp/static/images/Set 6_rs/066a.jpg","null","","","","","","learn","SL",""
"","html-keyboard-response","81","110185","0.0-81.0","""event"",""trial"",""time""
""fullscreenenter"",""0"",""5768""
","
","
","""event"",""trial"",""time""
""fullscreenenter"",""0"",""5768""
","
","null","<p></p>","null","","","","","","","",""
"","image","82","111274","0.0-82.0","""event"",""trial"",""time""
""fullscreenenter"",""0"",""5768""
","
","
","""event"",""trial"",""time""
""fullscreenenter"",""0"",""5768""
","
","1085.4000000001397","run_exp/static/images/Set 6_rs/117a.jpg","86","","","","","","learn","SL",""
"","show_choice","83","112203","0.0-83.0","""event"",""trial"",""time""
""fullscreenenter"",""0"",""5768""
","
","
","""event"",""trial"",""time""
""fullscreenenter"",""0"",""5768""
","
","null","run_exp/static/images/Set 6_rs/117a.jpg","null","","","","","","learn","SL",""
"","html-keyboard-response","84","112708","0.0-84.0","""event"",""trial"",""time""
""fullscreenenter"",""0"",""5768""
","
","
","""event"",""trial"",""time""
""fullscreenenter"",""0"",""5768""
","
","null","<p></p>","null","","","","","","","",""
"","image","85","114265","0.0-85.0","""event"",""trial"",""time""
""fullscreenenter"",""0"",""5768""
","
","
","""event"",""trial"",""time""
""fullscreenenter"",""0"",""5768""
","
","1555.0999999998603","run_exp/static/images/Set 6_rs/076a.jpg","86","","","","","","learn","SR",""
"","show_choice","86","114721","0.0-86.0","""event"",""trial"",""time""
""fullscreenenter"",""0"",""5768""
","
","
","""event"",""trial"",""time""
""fullscreenenter"",""0"",""5768""
","
","null","run_exp/static/images/Set 6_rs/076a.jpg","null","","","","","","learn","SR",""
"","html-keyboard-response","87","115228","0.0-87.0","""event"",""trial"",""time""
""fullscreenenter"",""0"",""5768""
","
","
","""event"",""trial"",""time""
""fullscreenenter"",""0"",""5768""
","
","null","<p></p>","null","","","","","","","",""
"","image","88","116985","0.0-88.0","""event"",""trial"",""time""
""fullscreenenter"",""0"",""5768""
","
","
","""event"",""trial"",""time""
""fullscreenenter"",""0"",""5768""
","
","1755.3999999999069","run_exp/static/images/Set 6_rs/144a.jpg","86","","","","","","learn","SL",""
"","show_choice","89","117234","0.0-89.0","""event"",""trial"",""time""
""fullscreenenter"",""0"",""5768""
","
","
","""event"",""trial"",""time""
""fullscreenenter"",""0"",""5768""
","
","null","run_exp/static/images/Set 6_rs/144a.jpg","null","","","","","","learn","SL",""
"","html-keyboard-response","90","117745","0.0-90.0","""event"",""trial"",""time""
""fullscreenenter"",""0"",""5768""
","
","
","""event"",""trial"",""time""
""fullscreenenter"",""0"",""5768""
","
","null","<p></p>","null","","","","","","","",""
"","image","91","119000","0.0-91.0","""event"",""trial"",""time""
""fullscreenenter"",""0"",""5768""
","
","
","""event"",""trial"",""time""
""fullscreenenter"",""0"",""5768""
","
","1251.5999999998603","run_exp/static/images/Set 6_rs/132a.jpg","86","","","","","","learn","SR",""
"","show_choice","92","119764","0.0-92.0","""event"",""trial"",""time""
""fullscreenenter"",""0"",""5768""
","
","
","""event"",""trial"",""time""
""fullscreenenter"",""0"",""5768""
","
","null","run_exp/static/images/Set 6_rs/132a.jpg","null","","","","","","learn","SR",""
"","html-keyboard-response","93","120275","0.0-93.0","""event"",""trial"",""time""
""fullscreenenter"",""0"",""5768""
","
","
","""event"",""trial"",""time""
""fullscreenenter"",""0"",""5768""
","
","null","<p></p>","null","","","","","","","",""
"","image","94","121533","0.0-94.0","""event"",""trial"",""time""
""fullscreenenter"",""0"",""5768""
","
","
","""event"",""trial"",""time""
""fullscreenenter"",""0"",""5768""
","
","1255.1999999999534","run_exp/static/images/Set 6_rs/008a.jpg","78","","","","","","learn","SL",""
"","show_choice","95","122285","0.0-95.0","""event"",""trial"",""time""
""fullscreenenter"",""0"",""5768""
","
","
","""event"",""trial"",""time""
""fullscreenenter"",""0"",""5768""
","
","null","run_exp/static/images/Set 6_rs/008a.jpg","null","","","","","","learn","SL",""
"","html-keyboard-response","96","122793","0.0-96.0","""event"",""trial"",""time""
""fullscreenenter"",""0"",""5768""
","
","
","""event"",""trial"",""time""
""fullscreenenter"",""0"",""5768""
","
","null","<p></p>","null","","","","","","","",""
"","image","97","123553","0.0-97.0","""event"",""trial"",""time""
""fullscreenenter"",""0"",""5768""
","
","
","""event"",""trial"",""time""
""fullscreenenter"",""0"",""5768""
","
","757.9000000001397","run_exp/static/images/Set 6_rs/178a.jpg","86","","","","","","learn","SR",""
"","show_choice","98","124811","0.0-98.0","""event"",""trial"",""time""
""fullscreenenter"",""0"",""5768""
","
","
","""event"",""trial"",""time""
""fullscreenenter"",""0"",""5768""
","
","null","run_exp/static/images/Set 6_rs/178a.jpg","null","","","","","","learn","SR",""
"","html-keyboard-response","99","125315","0.0-99.0","""event"",""trial"",""time""
""fullscreenenter"",""0"",""5768""
","
","
","""event"",""trial"",""time""
""fullscreenenter"",""0"",""5768""
","
","null","<p></p>","null","","","","","","","",""
"","image","100","126460","0.0-100.0","""event"",""trial"",""time""
""fullscreenenter"",""0"",""5768""
","
","
","""event"",""trial"",""time""
""fullscreenenter"",""0"",""5768""
","
","1142.3999999999069","run_exp/static/images/Set 6_rs/169a.jpg","86","","","","","","learn","SR",""
"","show_choice","101","127325","0.0-101.0","""event"",""trial"",""time""
""fullscreenenter"",""0"",""5768""
","
","
","""event"",""trial"",""time""
""fullscreenenter"",""0"",""5768""
","
","null","run_exp/static/images/Set 6_rs/169a.jpg","null","","","","","","learn","SR",""
"","html-keyboard-response","102","127843","0.0-102.0","""event"",""trial"",""time""
""fullscreenenter"",""0"",""5768""
","
","
","""event"",""trial"",""time""
""fullscreenenter"",""0"",""5768""
","
","null","<p></p>","null","","","","","","","",""
"","image","103","129449","0.0-103.0","""event"",""trial"",""time""
""fullscreenenter"",""0"",""5768""
","
","
","""event"",""trial"",""time""
""fullscreenenter"",""0"",""5768""
","
","1603.4000000001397","run_exp/static/images/Set 6_rs/088a.jpg","78","","","","","","learn","SR",""
"","show_choice","104","129855","0.0-104.0","""event"",""trial"",""time""
""fullscreenenter"",""0"",""5768""
","
","
","""event"",""trial"",""time""
""fullscreenenter"",""0"",""5768""
","
","null","run_exp/static/images/Set 6_rs/088a.jpg","null","","","","","","learn","SR",""
"","html-keyboard-response","105","130366","0.0-105.0","""event"",""trial"",""time""
""fullscreenenter"",""0"",""5768""
","
","
","""event"",""trial"",""time""
""fullscreenenter"",""0"",""5768""
","
","null","<p></p>","null","","","","","","","",""
"","image","106","132314","0.0-106.0","""event"",""trial"",""time""
""fullscreenenter"",""0"",""5768""
","
","
","""event"",""trial"",""time""
""fullscreenenter"",""0"",""5768""
","
","1943.5","run_exp/static/images/Set 6_rs/121a.jpg","86","","","","","","learn","SR",""
"","show_choice","107","132378","0.0-107.0","""event"",""trial"",""time""
""fullscreenenter"",""0"",""5768""
","
","
","""event"",""trial"",""time""
""fullscreenenter"",""0"",""5768""
","
","null","run_exp/static/images/Set 6_rs/121a.jpg","null","","","","","","learn","SR",""
"","html-keyboard-response","108","132894","0.0-108.0","""event"",""trial"",""time""
""fullscreenenter"",""0"",""5768""
","
","
","""event"",""trial"",""time""
""fullscreenenter"",""0"",""5768""
","
","null","<p></p>","null","","","","","","","",""
"","image","109","133777","0.0-109.0","""event"",""trial"",""time""
""fullscreenenter"",""0"",""5768""
","
","
","""event"",""trial"",""time""
""fullscreenenter"",""0"",""5768""
","
","879.8999999999069","run_exp/static/images/Set 6_rs/152a.jpg","78","","","","","","learn","SR",""
"","show_choice","110","134910","0.0-110.0","""event"",""trial"",""time""
""fullscreenenter"",""0"",""5768""
","
","
","""event"",""trial"",""time""
""fullscreenenter"",""0"",""5768""
","
","null","run_exp/static/images/Set 6_rs/152a.jpg","null","","","","","","learn","SR",""
"","html-keyboard-response","111","135415","0.0-111.0","""event"",""trial"",""time""
""fullscreenenter"",""0"",""5768""
","
","
","""event"",""trial"",""time""
""fullscreenenter"",""0"",""5768""
","
","null","<p></p>","null","","","","","","","",""
"","image","112","136495","0.0-112.0","""event"",""trial"",""time""
""fullscreenenter"",""0"",""5768""
","
","
","""event"",""trial"",""time""
""fullscreenenter"",""0"",""5768""
","
","1077","run_exp/static/images/Set 6_rs/134a.jpg","86","","","","","","learn","SR",""
"","show_choice","113","137433","0.0-113.0","""event"",""trial"",""time""
""fullscreenenter"",""0"",""5768""
","
","
","""event"",""trial"",""time""
""fullscreenenter"",""0"",""5768""
","
","null","run_exp/static/images/Set 6_rs/134a.jpg","null","","","","","","learn","SR",""
"","html-keyboard-response","114","137950","0.0-114.0","""event"",""trial"",""time""
""fullscreenenter"",""0"",""5768""
","
","
","""event"",""trial"",""time""
""fullscreenenter"",""0"",""5768""
","
","null","<p></p>","null","","","","","","","",""
"","image","115","139617","0.0-115.0","""event"",""trial"",""time""
""fullscreenenter"",""0"",""5768""
","
","
","""event"",""trial"",""time""
""fullscreenenter"",""0"",""5768""
","
","1663.5","run_exp/static/images/Set 6_rs/025a.jpg","78","","","","","","learn","SL",""
"","show_choice","116","139959","0.0-116.0","""event"",""trial"",""time""
""fullscreenenter"",""0"",""5768""
","
","
","""event"",""trial"",""time""
""fullscreenenter"",""0"",""5768""
","
","null","run_exp/static/images/Set 6_rs/025a.jpg","null","","","","","","learn","SL",""
"","html-keyboard-response","117","140470","0.0-117.0","""event"",""trial"",""time""
""fullscreenenter"",""0"",""5768""
","
","
","""event"",""trial"",""time""
""fullscreenenter"",""0"",""5768""
","
","null","<p></p>","null","","","","","","","",""
"","image","118","141950","0.0-118.0","""event"",""trial"",""time""
""fullscreenenter"",""0"",""5768""
","
","
","""event"",""trial"",""time""
""fullscreenenter"",""0"",""5768""
","
","1476.5","run_exp/static/images/Set 6_rs/126a.jpg","78","","","","","","learn","SR",""
"","show_choice","119","142478","0.0-119.0","""event"",""trial"",""time""
""fullscreenenter"",""0"",""5768""
","
","
","""event"",""trial"",""time""
""fullscreenenter"",""0"",""5768""
","
","null","run_exp/static/images/Set 6_rs/126a.jpg","null","","","","","","learn","SR",""
"","html-keyboard-response","120","142982","0.0-120.0","""event"",""trial"",""time""
""fullscreenenter"",""0"",""5768""
","
","
","""event"",""trial"",""time""
""fullscreenenter"",""0"",""5768""
","
","null","<p></p>","null","","","","","","","",""
"","image","121","144402","0.0-121.0","""event"",""trial"",""time""
""fullscreenenter"",""0"",""5768""
","
","
","""event"",""trial"",""time""
""fullscreenenter"",""0"",""5768""
","
","1415.6000000000931","run_exp/static/images/Set 6_rs/095a.jpg","86","","","","","","learn","SL",""
"","show_choice","122","144993","0.0-122.0","""event"",""trial"",""time""
""fullscreenenter"",""0"",""5768""
","
","
","""event"",""trial"",""time""
""fullscreenenter"",""0"",""5768""
","
","null","run_exp/static/images/Set 6_rs/095a.jpg","null","","","","","","learn","SL",""
"","html-keyboard-response","123","145506","0.0-123.0","""event"",""trial"",""time""
""fullscreenenter"",""0"",""5768""
","
","
","""event"",""trial"",""time""
""fullscreenenter"",""0"",""5768""
","
","null","<p></p>","null","","","","","","","",""
"","image","124","146808","0.0-124.0","""event"",""trial"",""time""
""fullscreenenter"",""0"",""5768""
","
","
","""event"",""trial"",""time""
""fullscreenenter"",""0"",""5768""
","
","1297.8999999999069","run_exp/static/images/Set 6_rs/062a.jpg","78","","","","","","learn","SL",""
"","show_choice","125","147523","0.0-125.0","""event"",""trial"",""time""
""fullscreenenter"",""0"",""5768""
","
","
","""event"",""trial"",""time""
""fullscreenenter"",""0"",""5768""
","
","null","run_exp/static/images/Set 6_rs/062a.jpg","null","","","","","","learn","SL",""
"","html-keyboard-response","126","148028","0.0-126.0","""event"",""trial"",""time""
""fullscreenenter"",""0"",""5768""
","
","
","""event"",""trial"",""time""
""fullscreenenter"",""0"",""5768""
","
","null","<p></p>","null","","","","","","","",""
"","image","127","149550","0.0-127.0","""event"",""trial"",""time""
""fullscreenenter"",""0"",""5768""
","
","
","""event"",""trial"",""time""
""fullscreenenter"",""0"",""5768""
","
","1517.3999999999069","run_exp/static/images/Set 6_rs/129a.jpg","86","","","","","","learn","SL",""
"","show_choice","128","150041","0.0-128.0","""event"",""trial"",""time""
""fullscreenenter"",""0"",""5768""
","
","
","""event"",""trial"",""time""
""fullscreenenter"",""0"",""5768""
","
","null","run_exp/static/images/Set 6_rs/129a.jpg","null","","","","","","learn","SL",""
"","html-keyboard-response","129","150551","0.0-129.0","""event"",""trial"",""time""
""fullscreenenter"",""0"",""5768""
","
","
","""event"",""trial"",""time""
""fullscreenenter"",""0"",""5768""
","
","null","<p></p>","null","","","","","","","",""
"","image","130","152562","0.0-130.0","""event"",""trial"",""time""
""fullscreenenter"",""0"",""5768""
","
","
","""event"",""trial"",""time""
""fullscreenenter"",""0"",""5768""
","
","null","run_exp/static/images/Set 6_rs/023a.jpg","null","","","","","","learn","SR",""
"","show_choice","131","154577","0.0-131.0","""event"",""trial"",""time""
""fullscreenenter"",""0"",""5768""
","
","
","""event"",""trial"",""time""
""fullscreenenter"",""0"",""5768""
","
","null","run_exp/static/images/blank.png","null","","","","","","learn","SR",""
"","html-keyboard-response","132","155084","0.0-132.0","""event"",""trial"",""time""
""fullscreenenter"",""0"",""5768""
","
","
","""event"",""trial"",""time""
""fullscreenenter"",""0"",""5768""
","
","null","<p></p>","null","","","","","","","",""
"","image","133","156153","0.0-133.0","""event"",""trial"",""time""
""fullscreenenter"",""0"",""5768""
","
","
","""event"",""trial"",""time""
""fullscreenenter"",""0"",""5768""
","
","1064.8999999999069","run_exp/static/images/Set 6_rs/074a.jpg","78","","","","","","learn","SL",""
"","show_choice","134","157102","0.0-134.0","""event"",""trial"",""time""
""fullscreenenter"",""0"",""5768""
","
","
","""event"",""trial"",""time""
""fullscreenenter"",""0"",""5768""
","
","null","run_exp/static/images/Set 6_rs/074a.jpg","null","","","","","","learn","SL",""
"","html-keyboard-response","135","157608","0.0-135.0","""event"",""trial"",""time""
""fullscreenenter"",""0"",""5768""
","
","
","""event"",""trial"",""time""
""fullscreenenter"",""0"",""5768""
","
","null","<p></p>","null","","","","","","","",""
"","image","136","158684","0.0-136.0","""event"",""trial"",""time""
""fullscreenenter"",""0"",""5768""
","
","
","""event"",""trial"",""time""
""fullscreenenter"",""0"",""5768""
","
","1072.6999999999534","run_exp/static/images/Set 6_rs/111a.jpg","86","","","","","","learn","SL",""
"","show_choice","137","159620","0.0-137.0","""event"",""trial"",""time""
""fullscreenenter"",""0"",""5768""
","
","
","""event"",""trial"",""time""
""fullscreenenter"",""0"",""5768""
","
","null","run_exp/static/images/Set 6_rs/111a.jpg","null","","","","","","learn","SL",""
"","html-keyboard-response","138","160126","0.0-138.0","""event"",""trial"",""time""
""fullscreenenter"",""0"",""5768""
","
","
","""event"",""trial"",""time""
""fullscreenenter"",""0"",""5768""
","
","null","<p></p>","null","","","","","","","",""
"","image","139","161395","0.0-139.0","""event"",""trial"",""time""
""fullscreenenter"",""0"",""5768""
","
","
","""event"",""trial"",""time""
""fullscreenenter"",""0"",""5768""
","
","1265.6999999999534","run_exp/static/images/Set 6_rs/012a.jpg","86","","","","","","learn","SR",""
"","show_choice","140","162143","0.0-140.0","""event"",""trial"",""time""
""fullscreenenter"",""0"",""5768""
","
","
","""event"",""trial"",""time""
""fullscreenenter"",""0"",""5768""
","
","null","run_exp/static/images/Set 6_rs/012a.jpg","null","","","","","","learn","SR",""
"","html-keyboard-response","141","162648","0.0-141.0","""event"",""trial"",""time""
""fullscreenenter"",""0"",""5768""
","
","
","""event"",""trial"",""time""
""fullscreenenter"",""0"",""5768""
","
","null","<p></p>","null","","","","","","","",""
"","image","142","163803","0.0-142.0","""event"",""trial"",""time""
""fullscreenenter"",""0"",""5768""
","
","
","""event"",""trial"",""time""
""fullscreenenter"",""0"",""5768""
","
","1150.9000000001397","run_exp/static/images/Set 6_rs/150a.jpg","78","","","","","","learn","SR",""
"","show_choice","143","164665","0.0-143.0","""event"",""trial"",""time""
""fullscreenenter"",""0"",""5768""
","
","
","""event"",""trial"",""time""
""fullscreenenter"",""0"",""5768""
","
","null","run_exp/static/images/Set 6_rs/150a.jpg","null","","","","","","learn","SR",""
"","html-keyboard-response","144","165173","0.0-144.0","""event"",""trial"",""time""
""fullscreenenter"",""0"",""5768""
","
","
","""event"",""trial"",""time""
""fullscreenenter"",""0"",""5768""
","
","null","<p></p>","null","","","","","","","",""
"","image","145","166277","0.0-145.0","""event"",""trial"",""time""
""fullscreenenter"",""0"",""5768""
","
","
","""event"",""trial"",""time""
""fullscreenenter"",""0"",""5768""
","
","1101","run_exp/static/images/Set 6_rs/089a.jpg","86","","","","","","learn","SL",""
"","show_choice","146","167184","0.0-146.0","""event"",""trial"",""time""
""fullscreenenter"",""0"",""5768""
","
","
","""event"",""trial"",""time""
""fullscreenenter"",""0"",""5768""
","
","null","run_exp/static/images/Set 6_rs/089a.jpg","null","","","","","","learn","SL",""
"","html-keyboard-response","147","167695","0.0-147.0","""event"",""trial"",""time""
""fullscreenenter"",""0"",""5768""
","
","
","""event"",""trial"",""time""
""fullscreenenter"",""0"",""5768""
","
","null","<p></p>","null","","","","","","","",""
"","image","148","168507","0.0-148.0","""event"",""trial"",""time""
""fullscreenenter"",""0"",""5768""
","
","
","""event"",""trial"",""time""
""fullscreenenter"",""0"",""5768""
","
","807.3000000000466","run_exp/static/images/Set 6_rs/057a.jpg","86","","","","","","learn","SL",""
"","show_choice","149","169717","0.0-149.0","""event"",""trial"",""time""
""fullscreenenter"",""0"",""5768""
","
","
","""event"",""trial"",""time""
""fullscreenenter"",""0"",""5768""
","
","null","run_exp/static/images/Set 6_rs/057a.jpg","null","","","","","","learn","SL",""
"","html-keyboard-response","150","170221","0.0-150.0","""event"",""trial"",""time""
""fullscreenenter"",""0"",""5768""
","
","
","""event"",""trial"",""time""
""fullscreenenter"",""0"",""5768""
","
","null","<p></p>","null","","","","","","","",""
"","image","151","171488","0.0-151.0","""event"",""trial"",""time""
""fullscreenenter"",""0"",""5768""
","
","
","""event"",""trial"",""time""
""fullscreenenter"",""0"",""5768""
","
","1263.6999999999534","run_exp/static/images/Set 6_rs/007a.jpg","86","","","","","","learn","SR",""
"","show_choice","152","172229","0.0-152.0","""event"",""trial"",""time""
""fullscreenenter"",""0"",""5768""
","
","
","""event"",""trial"",""time""
""fullscreenenter"",""0"",""5768""
","
","null","run_exp/static/images/Set 6_rs/007a.jpg","null","","","","","","learn","SR",""
"","html-keyboard-response","153","172732","0.0-153.0","""event"",""trial"",""time""
""fullscreenenter"",""0"",""5768""
","
","
","""event"",""trial"",""time""
""fullscreenenter"",""0"",""5768""
","
","null","<p></p>","null","","","","","","","",""
"","image","154","173719","0.0-154.0","""event"",""trial"",""time""
""fullscreenenter"",""0"",""5768""
","
","
","""event"",""trial"",""time""
""fullscreenenter"",""0"",""5768""
","
","983.9000000001397","run_exp/static/images/Set 6_rs/006a.jpg","86","","","","","","learn","SL",""
"","show_choice","155","174741","0.0-155.0","""event"",""trial"",""time""
""fullscreenenter"",""0"",""5768""
","
","
","""event"",""trial"",""time""
""fullscreenenter"",""0"",""5768""
","
","null","run_exp/static/images/Set 6_rs/006a.jpg","null","","","","","","learn","SL",""
"","html-keyboard-response","156","175250","0.0-156.0","""event"",""trial"",""time""
""fullscreenenter"",""0"",""5768""
","
","
","""event"",""trial"",""time""
""fullscreenenter"",""0"",""5768""
","
","null","<p></p>","null","","","","","","","",""
"","image","157","176185","0.0-157.0","""event"",""trial"",""time""
""fullscreenenter"",""0"",""5768""
","
","
","""event"",""trial"",""time""
""fullscreenenter"",""0"",""5768""
","
","931.0999999998603","run_exp/static/images/Set 6_rs/016a.jpg","86","","","","","","learn","SL",""
"","show_choice","158","177263","0.0-158.0","""event"",""trial"",""time""
""fullscreenenter"",""0"",""5768""
","
","
","""event"",""trial"",""time""
""fullscreenenter"",""0"",""5768""
","
","null","run_exp/static/images/Set 6_rs/016a.jpg","null","","","","","","learn","SL",""
"","html-keyboard-response","159","177769","0.0-159.0","""event"",""trial"",""time""
""fullscreenenter"",""0"",""5768""
","
","
","""event"",""trial"",""time""
""fullscreenenter"",""0"",""5768""
","
","null","<p></p>","null","","","","","","","",""
"","image","160","178667","0.0-160.0","""event"",""trial"",""time""
""fullscreenenter"",""0"",""5768""
","
","
","""event"",""trial"",""time""
""fullscreenenter"",""0"",""5768""
","
","894.1999999999534","run_exp/static/images/Set 6_rs/186a.jpg","86","","","","","","learn","SR",""
"","show_choice","161","179779","0.0-161.0","""event"",""trial"",""time""
""fullscreenenter"",""0"",""5768""
","
","
","""event"",""trial"",""time""
""fullscreenenter"",""0"",""5768""
","
","null","run_exp/static/images/Set 6_rs/186a.jpg","null","","","","","","learn","SR",""
"","html-keyboard-response","162","180298","0.0-162.0","""event"",""trial"",""time""
""fullscreenenter"",""0"",""5768""
","
","
","""event"",""trial"",""time""
""fullscreenenter"",""0"",""5768""
","
","null","<p></p>","null","","","","","","","",""
"","image","163","181274","0.0-163.0","""event"",""trial"",""time""
""fullscreenenter"",""0"",""5768""
","
","
","""event"",""trial"",""time""
""fullscreenenter"",""0"",""5768""
","
","972.5","run_exp/static/images/Set 6_rs/079a.jpg","86","","","","","","learn","SL",""
"","show_choice","164","182315","0.0-164.0","""event"",""trial"",""time""
""fullscreenenter"",""0"",""5768""
","
","
","""event"",""trial"",""time""
""fullscreenenter"",""0"",""5768""
","
","null","run_exp/static/images/Set 6_rs/079a.jpg","null","","","","","","learn","SL",""
"","html-keyboard-response","165","182818","0.0-165.0","""event"",""trial"",""time""
""fullscreenenter"",""0"",""5768""
","
","
","""event"",""trial"",""time""
""fullscreenenter"",""0"",""5768""
","
","null","<p></p>","null","","","","","","","",""
"","image","166","184010","0.0-166.0","""event"",""trial"",""time""
""fullscreenenter"",""0"",""5768""
","
","
","""event"",""trial"",""time""
""fullscreenenter"",""0"",""5768""
","
","1187.6999999999534","run_exp/static/images/Set 6_rs/064a.jpg","78","","","","","","learn","SR",""
"","show_choice","167","184830","0.0-167.0","""event"",""trial"",""time""
""fullscreenenter"",""0"",""5768""
","
","
","""event"",""trial"",""time""
""fullscreenenter"",""0"",""5768""
","
","null","run_exp/static/images/Set 6_rs/064a.jpg","null","","","","","","learn","SR",""
"","html-keyboard-response","168","185335","0.0-168.0","""event"",""trial"",""time""
""fullscreenenter"",""0"",""5768""
","
","
","""event"",""trial"",""time""
""fullscreenenter"",""0"",""5768""
","
","null","<p></p>","null","","","","","","","",""
"","image","169","186117","0.0-169.0","""event"",""trial"",""time""
""fullscreenenter"",""0"",""5768""
","
","
","""event"",""trial"",""time""
""fullscreenenter"",""0"",""5768""
","
","778.1999999999534","run_exp/static/images/Set 6_rs/141a.jpg","78","","","","","","learn","SR",""
"","show_choice","170","187353","0.0-170.0","""event"",""trial"",""time""
""fullscreenenter"",""0"",""5768""
","
","
","""event"",""trial"",""time""
""fullscreenenter"",""0"",""5768""
","
","null","run_exp/static/images/Set 6_rs/141a.jpg","null","","","","","","learn","SR",""
"","html-keyboard-response","171","187861","0.0-171.0","""event"",""trial"",""time""
""fullscreenenter"",""0"",""5768""
","
","
","""event"",""trial"",""time""
""fullscreenenter"",""0"",""5768""
","
","null","<p></p>","null","","","","","","","",""
"","image","172","189023","0.0-172.0","""event"",""trial"",""time""
""fullscreenenter"",""0"",""5768""
","
","
","""event"",""trial"",""time""
""fullscreenenter"",""0"",""5768""
","
","1160","run_exp/static/images/Set 6_rs/010a.jpg","86","","","","","","learn","SR",""
"","show_choice","173","189868","0.0-173.0","""event"",""trial"",""time""
""fullscreenenter"",""0"",""5768""
","
","
","""event"",""trial"",""time""
""fullscreenenter"",""0"",""5768""
","
","null","run_exp/static/images/Set 6_rs/010a.jpg","null","","","","","","learn","SR",""
"","html-keyboard-response","174","190378","0.0-174.0","""event"",""trial"",""time""
""fullscreenenter"",""0"",""5768""
","
","
","""event"",""trial"",""time""
""fullscreenenter"",""0"",""5768""
","
","null","<p></p>","null","","","","","","","",""
"","image","175","191725","0.0-175.0","""event"",""trial"",""time""
""fullscreenenter"",""0"",""5768""
","
","
","""event"",""trial"",""time""
""fullscreenenter"",""0"",""5768""
","
","1343.6000000000931","run_exp/static/images/Set 6_rs/181a.jpg","78","","","","","","learn","SL",""
"","show_choice","176","192384","0.0-176.0","""event"",""trial"",""time""
""fullscreenenter"",""0"",""5768""
","
","
","""event"",""trial"",""time""
""fullscreenenter"",""0"",""5768""
","
","null","run_exp/static/images/Set 6_rs/181a.jpg","null","","","","","","learn","SL",""
"","html-keyboard-response","177","192889","0.0-177.0","""event"",""trial"",""time""
""fullscreenenter"",""0"",""5768""
","
","
","""event"",""trial"",""time""
""fullscreenenter"",""0"",""5768""
","
","null","<p></p>","null","","","","","","","",""
"","image","178","193819","0.0-178.0","""event"",""trial"",""time""
""fullscreenenter"",""0"",""5768""
","
","
","""event"",""trial"",""time""
""fullscreenenter"",""0"",""5768""
","
","927.3999999999069","run_exp/static/images/Set 6_rs/116a.jpg","78","","","","","","learn","SL",""
"","show_choice","179","194904","0.0-179.0","""event"",""trial"",""time""
""fullscreenenter"",""0"",""5768""
","
","
","""event"",""trial"",""time""
""fullscreenenter"",""0"",""5768""
","
","null","run_exp/static/images/Set 6_rs/116a.jpg","null","","","","","","learn","SL",""
"","html-keyboard-response","180","195406","0.0-180.0","""event"",""trial"",""time""
""fullscreenenter"",""0"",""5768""
","
","
","""event"",""trial"",""time""
""fullscreenenter"",""0"",""5768""
","
","null","<p></p>","null","","","","","","","",""
"","image","181","196836","0.0-181.0","""event"",""trial"",""time""
""fullscreenenter"",""0"",""5768""
","
","
","""event"",""trial"",""time""
""fullscreenenter"",""0"",""5768""
","
","1425.3999999999069","run_exp/static/images/Set 6_rs/036a.jpg","86","","","","","","learn","SL",""
"","show_choice","182","197417","0.0-182.0","""event"",""trial"",""time""
""fullscreenenter"",""0"",""5768""
","
","
","""event"",""trial"",""time""
""fullscreenenter"",""0"",""5768""
","
","null","run_exp/static/images/Set 6_rs/036a.jpg","null","","","","","","learn","SL",""
"","html-keyboard-response","183","197925","0.0-183.0","""event"",""trial"",""time""
""fullscreenenter"",""0"",""5768""
","
","
","""event"",""trial"",""time""
""fullscreenenter"",""0"",""5768""
","
","null","<p></p>","null","","","","","","","",""
"","image","184","198921","0.0-184.0","""event"",""trial"",""time""
""fullscreenenter"",""0"",""5768""
","
","
","""event"",""trial"",""time""
""fullscreenenter"",""0"",""5768""
","
","992.0999999998603","run_exp/static/images/Set 6_rs/045a.jpg","86","","","","","","learn","SR",""
"","show_choice","185","199935","0.0-185.0","""event"",""trial"",""time""
""fullscreenenter"",""0"",""5768""
","
","
","""event"",""trial"",""time""
""fullscreenenter"",""0"",""5768""
","
","null","run_exp/static/images/Set 6_rs/045a.jpg","null","","","","","","learn","SR",""
"","html-keyboard-response","186","200445","0.0-186.0","""event"",""trial"",""time""
""fullscreenenter"",""0"",""5768""
","
","
","""event"",""trial"",""time""
""fullscreenenter"",""0"",""5768""
","
","null","<p></p>","null","","","","","","","",""
"","image","187","201360","0.0-187.0","""event"",""trial"",""time""
""fullscreenenter"",""0"",""5768""
","
","
","""event"",""trial"",""time""
""fullscreenenter"",""0"",""5768""
","
","911.8999999999069","run_exp/static/images/Set 6_rs/073a.jpg","86","","","","","","learn","SL",""
"","show_choice","188","202458","0.0-188.0","""event"",""trial"",""time""
""fullscreenenter"",""0"",""5768""
","
","
","""event"",""trial"",""time""
""fullscreenenter"",""0"",""5768""
","
","null","run_exp/static/images/Set 6_rs/073a.jpg","null","","","","","","learn","SL",""
"","html-keyboard-response","189","202973","0.0-189.0","""event"",""trial"",""time""
""fullscreenenter"",""0"",""5768""
","
","
","""event"",""trial"",""time""
""fullscreenenter"",""0"",""5768""
","
","null","<p></p>","null","","","","","","","",""
"","image","190","203976","0.0-190.0","""event"",""trial"",""time""
""fullscreenenter"",""0"",""5768""
","
","
","""event"",""trial"",""time""
""fullscreenenter"",""0"",""5768""
","
","1002","run_exp/static/images/Set 6_rs/019a.jpg","86","","","","","","learn","SL",""
"","show_choice","191","204984","0.0-191.0","""event"",""trial"",""time""
""fullscreenenter"",""0"",""5768""
","
","
","""event"",""trial"",""time""
""fullscreenenter"",""0"",""5768""
","
","null","run_exp/static/images/Set 6_rs/019a.jpg","null","","","","","","learn","SL",""
"","html-keyboard-response","192","205500","0.0-192.0","""event"",""trial"",""time""
""fullscreenenter"",""0"",""5768""
","
","
","""event"",""trial"",""time""
""fullscreenenter"",""0"",""5768""
","
","null","<p></p>","null","","","","","","","",""
"","image","193","206823","0.0-193.0","""event"",""trial"",""time""
""fullscreenenter"",""0"",""5768""
","
","
","""event"",""trial"",""time""
""fullscreenenter"",""0"",""5768""
","
","1320.1999999999534","run_exp/static/images/Set 6_rs/108a.jpg","86","","","","","","learn","SR",""
"","show_choice","194","207512","0.0-194.0","""event"",""trial"",""time""
""fullscreenenter"",""0"",""5768""
","
","
","""event"",""trial"",""time""
""fullscreenenter"",""0"",""5768""
","
","null","run_exp/static/images/Set 6_rs/108a.jpg","null","","","","","","learn","SR",""
"","html-keyboard-response","195","208028","0.0-195.0","""event"",""trial"",""time""
""fullscreenenter"",""0"",""5768""
","
","
","""event"",""trial"",""time""
""fullscreenenter"",""0"",""5768""
","
","null","<p></p>","null","","","","","","","",""
"","test_intro","196","245117","0.0-196.0","""event"",""trial"",""time""
""fullscreenenter"",""0"",""5768""
","
","
","""event"",""trial"",""time""
""fullscreenenter"",""0"",""5768""
","
","null","run_exp/static/audio/clip_2_memory.m4a","null","","","","","<div class='center'><p>Now, lets see how much you remember about the items you just saw.  For each item, you need to indicate if it was <b>old</b> by pressing the <b>v</b> key, <b>similar</b> by pressing the <b>b</b> key, or <b>new</b> by pressing the <b>n</b> key.</p><p>Old refers to an item that you saw before in the indoor/outdoor game that you just played, new refers to an item you have <b>not</b> seen before within the indoor/outdoor game, and similar refers to an item that is similar to an item youve seen before but is not exactly the same. </p><p>Before we begin, lets go over some brief demonstrations to make sure you understand.</p></div>","","",""
"","html-keyboard-response","197","245985","0.0-197.0","""event"",""trial"",""time""
""fullscreenenter"",""0"",""5768""
","
","
","""event"",""trial"",""time""
""fullscreenenter"",""0"",""5768""
","
","859.3999999999069","<div class='center'><p>Now, lets see how much you remember about the items you just saw.  For each item, you need to indicate if it was <b>old</b> by pressing the <b>v</b> key, <b>similar</b> by pressing the <b>b</b> key, or <b>new</b> by pressing the <b>n</b> key.</p><p>Old refers to an item that you saw before in the indoor/outdoor game that you just played, new refers to an item you have <b>not</b> seen before within the indoor/outdoor game, and similar refers to an item that is similar to an item youve seen before but is not exactly the same. </p><p>Before we begin, lets go over some brief demonstrations to make sure you understand.</p><div><p><b>[Press the space bar to continue]</b></p></div>","32","","","","","","","",""
"","items","198","253504","0.0-198.0","""event"",""trial"",""time""
""fullscreenenter"",""0"",""5768""
","
","
","""event"",""trial"",""time""
""fullscreenenter"",""0"",""5768""
","
","null","run_exp/static/audio/clip_3_items.m4a","null","","","","","","","",""
"","mop","199","258025","0.0-199.0","""event"",""trial"",""time""
""fullscreenenter"",""0"",""5768""
","
","
","""event"",""trial"",""time""
""fullscreenenter"",""0"",""5768""
","
","null","run_exp/static/audio/clip_4_mop.m4a","null","","","","","","","",""
"","baseball","200","261535","0.0-200.0","""event"",""trial"",""time""
""fullscreenenter"",""0"",""5768""
","
","
","""event"",""trial"",""time""
""fullscreenenter"",""0"",""5768""
","
","null","run_exp/static/audio/clip_5_baseball.m4a","null","","","","","","","",""
"","trumpet","201","265059","0.0-201.0","""event"",""trial"",""time""
""fullscreenenter"",""0"",""5768""
","
","
","""event"",""trial"",""time""
""fullscreenenter"",""0"",""5768""
","
","null","run_exp/static/audio/clip_6_trumpet.m4a","null","","","","","","","",""
"","gummies","202","268576","0.0-202.0","""event"",""trial"",""time""
""fullscreenenter"",""0"",""5768""
","
","
","""event"",""trial"",""time""
""fullscreenenter"",""0"",""5768""
","
","null","run_exp/static/audio/clip_7_gummies.m4a","null","","","","","","","",""
"","osn","203","273105","0.0-203.0","""event"",""trial"",""time""
""fullscreenenter"",""0"",""5768""
","
","
","""event"",""trial"",""time""
""fullscreenenter"",""0"",""5768""
","
","null","run_exp/static/audio/clip_8_osn.m4a","null","","","","","","","",""
"","old_1","204","279625","0.0-204.0","""event"",""trial"",""time""
""fullscreenenter"",""0"",""5768""
","
","
","""event"",""trial"",""time""
""fullscreenenter"",""0"",""5768""
","
","null","run_exp/static/audio/clip_9_old_trumpet.m4a","null","","","","","","","",""
"","new_1","205","287135","0.0-205.0","""event"",""trial"",""time""
""fullscreenenter"",""0"",""5768""
","
","
","""event"",""trial"",""time""
""fullscreenenter"",""0"",""5768""
","
","null","run_exp/static/audio/clip_10_new_balloon.m4a","null","","","","","","","",""
"","similar_1a","206","291653","0.0-206.0","""event"",""trial"",""time""
""fullscreenenter"",""0"",""5768""
","
","
","""event"",""trial"",""time""
""fullscreenenter"",""0"",""5768""
","
","null","run_exp/static/audio/clip_11a_similar_mop.m4a","null","","","","","","","",""
"","similar_1b","207","298173","0.0-207.0","""event"",""trial"",""time""
""fullscreenenter"",""0"",""5768""
","
","
","""event"",""trial"",""time""
""fullscreenenter"",""0"",""5768""
","
","null","run_exp/static/audio/clip_11b_similar_mop.m4a","null","","","","","","","",""
"","new_2","208","301693","0.0-208.0","""event"",""trial"",""time""
""fullscreenenter"",""0"",""5768""
","
","
","""event"",""trial"",""time""
""fullscreenenter"",""0"",""5768""
","
","null","run_exp/static/audio/clip_12_new_stoplight.m4a","null","","","","","","","",""
"","old_2","209","305213","0.0-209.0","""event"",""trial"",""time""
""fullscreenenter"",""0"",""5768""
","
","
","""event"",""trial"",""time""
""fullscreenenter"",""0"",""5768""
","
","null","run_exp/static/audio/clip_13_old_baseball.m4a","null","","","","","","","",""
"","similar_2a","210","308723","0.0-210.0","""event"",""trial"",""time""
""fullscreenenter"",""0"",""5768""
","
","
","""event"",""trial"",""time""
""fullscreenenter"",""0"",""5768""
","
","null","run_exp/static/audio/clip_14a_similar_gummies.m4a","null","","","","","","","",""
"","similar_2b","211","316229","0.0-211.0","""event"",""trial"",""time""
""fullscreenenter"",""0"",""5768""
","
","
","""event"",""trial"",""time""
""fullscreenenter"",""0"",""5768""
","
","null","run_exp/static/audio/clip_14b_similar_gummies.m4a","null","","","","","","","",""
"","practice","212","358356","0.0-212.0","""event"",""trial"",""time""
""fullscreenenter"",""0"",""5768""
","
","
","""event"",""trial"",""time""
""fullscreenenter"",""0"",""5768""
","
","null","run_exp/static/audio/clip_15_practice.m4a","null","","","","","<div class='center'><p>Lets practice a little to make sure you understand the difference between new, similar, and old. Lets say you saw these three items in the indoor/outdoor game.</p><p> Try your best to remember these images because youll soon be tested on them in a practice game. In the practice game, youll be shown images and youll have to say if they are old (one of the three images belows), similar (similar to one of the images below but not exactly the same), or new (are not one of the images below nor similar to them).</p><p>Once you press the space bar youll be shown these images again but one at time. Then youll begin the practice game.</p><p><img src='run_exp/static/images/tutorial/test/three_indoor_outdoor.png' height='300'></p></div>","","",""
"","html-keyboard-response","213","359161","0.0-213.0","""event"",""trial"",""time""
""fullscreenenter"",""0"",""5768""
","
","
","""event"",""trial"",""time""
""fullscreenenter"",""0"",""5768""
","
","802.2999999998137","<div class='center'><p>Lets practice a little to make sure you understand the difference between new, similar, and old. Lets say you saw these three items in the indoor/outdoor game.</p><p> Try your best to remember these images because youll soon be tested on them in a practice game. In the practice game, youll be shown images and youll have to say if they are old (one of the three images belows), similar (similar to one of the images below but not exactly the same), or new (are not one of the images below nor similar to them).</p><p>Once you press the space bar youll be shown these images again but one at time. Then youll begin the practice game.</p><p><img src='run_exp/static/images/tutorial/test/three_indoor_outdoor.png' height='300'></p><div><p><b>[Press the space bar to continue]</b></p></div>","32","","","","","","","",""
"","planet","214","361169","0.0-214.0","""event"",""trial"",""time""
""fullscreenenter"",""0"",""5768""
","
","
","""event"",""trial"",""time""
""fullscreenenter"",""0"",""5768""
","
","null","run_exp/static/images/tutorial/test/008a.jpg","null","","","","","","","",""
"","boot","215","363178","0.0-215.0","""event"",""trial"",""time""
""fullscreenenter"",""0"",""5768""
","
","
","""event"",""trial"",""time""
""fullscreenenter"",""0"",""5768""
","
","null","run_exp/static/images/tutorial/test/011a.jpg","null","","","","","","","",""
"","lemon","216","365194","0.0-216.0","""event"",""trial"",""time""
""fullscreenenter"",""0"",""5768""
","
","
","""event"",""trial"",""time""
""fullscreenenter"",""0"",""5768""
","
","null","run_exp/static/images/tutorial/test/018a.jpg","null","","","","","","","",""
"","practice_q1","217","371122","0.0-217.0","""event"",""trial"",""time""
""fullscreenenter"",""0"",""5768""
","
","
","""event"",""trial"",""time""
""fullscreenenter"",""0"",""5768""
","
","5922.299999999814","run_exp/static/audio/clip_16_practice_question.m4a","78","","","","","","","",""
"","correct","218","373035","0.0-218.0-0.0","""event"",""trial"",""time""
""fullscreenenter"",""0"",""5768""
","
","
","""event"",""trial"",""time""
""fullscreenenter"",""0"",""5768""
","
","null","run_exp/static/audio/clip_17_correct.m4a","null","","","","","<div class='center'><p>That's correct!</p></div>","","",""
"","html-keyboard-response","219","373980","0.0-218.0-1.0","""event"",""trial"",""time""
""fullscreenenter"",""0"",""5768""
","
","
","""event"",""trial"",""time""
""fullscreenenter"",""0"",""5768""
","
","942.3999999999069","<div class='center'><p>That's correct!</p><div><p><b>[Press the space bar to continue]</b></p></div>","32","","","","","","","",""
"","practice_q2","220","379397","0.0-218.0-2.0","""event"",""trial"",""time""
""fullscreenenter"",""0"",""5768""
","
","
","""event"",""trial"",""time""
""fullscreenenter"",""0"",""5768""
","
","5407.899999999907","run_exp/static/audio/clip_16_practice_question.m4a","86","","","","","","","",""
"","correct","221","381295","0.0-219.0-0.0","""event"",""trial"",""time""
""fullscreenenter"",""0"",""5768""
","
","
","""event"",""trial"",""time""
""fullscreenenter"",""0"",""5768""
","
","null","run_exp/static/audio/clip_17_correct.m4a","null","","","","","<div class='center'><p>That's correct!</p></div>","","",""
"","html-keyboard-response","222","382466","0.0-219.0-1.0","""event"",""trial"",""time""
""fullscreenenter"",""0"",""5768""
","
","
","""event"",""trial"",""time""
""fullscreenenter"",""0"",""5768""
","
","1169","<div class='center'><p>That's correct!</p><div><p><b>[Press the space bar to continue]</b></p></div>","32","","","","","","","",""
"","practice_q3","223","387305","0.0-219.0-2.0","""event"",""trial"",""time""
""fullscreenenter"",""0"",""5768""
","
","
","""event"",""trial"",""time""
""fullscreenenter"",""0"",""5768""
","
","4832.899999999907","run_exp/static/audio/clip_16_practice_question.m4a","66","","","","","","","",""
"","correct","224","389535","0.0-220.0-0.0","""event"",""trial"",""time""
""fullscreenenter"",""0"",""5768""
","
","
","""event"",""trial"",""time""
""fullscreenenter"",""0"",""5768""
","
","null","run_exp/static/audio/clip_17_correct.m4a","null","","","","","<div class='center'><p>That's correct!</p></div>","","",""
"","html-keyboard-response","225","390566","0.0-220.0-1.0","""event"",""trial"",""time""
""fullscreenenter"",""0"",""5768""
","
","
","""event"",""trial"",""time""
""fullscreenenter"",""0"",""5768""
","
","1026.6000000000931","<div class='center'><p>That's correct!</p><div><p><b>[Press the space bar to continue]</b></p></div>","32","","","","","","","",""
"","begin_text","226","409054","0.0-221.0-0.0","""event"",""trial"",""time""
""fullscreenenter"",""0"",""5768""
","
","
","""event"",""trial"",""time""
""fullscreenenter"",""0"",""5768""
","
","null","run_exp/static/audio/clip_22_begin_test.m4a","null","","","","","<div class='center'><p>On to the real game where well test your memory of items from the indoor/outdoor game. For each item, you need to indicate if the item is <b>old</b> by pressing the <b>v</b> key, <b>similar</b> by pressing the <b>b</b> key, or <b>new</b> by pressing the <b>n</b> key. </p></div>","","",""
"","html-keyboard-response","227","409676","0.0-221.0-1.0","""event"",""trial"",""time""
""fullscreenenter"",""0"",""5768""
","
","
","""event"",""trial"",""time""
""fullscreenenter"",""0"",""5768""
","
","617.6000000000931","<div class='center'><p>On to the real game where well test your memory of items from the indoor/outdoor game. For each item, you need to indicate if the item is <b>old</b> by pressing the <b>v</b> key, <b>similar</b> by pressing the <b>b</b> key, or <b>new</b> by pressing the <b>n</b> key. </p><div><p><b>[Press the space bar to continue]</b></p></div>","32","","","","","","","",""
"","image","228","411332","0.0-222.0-0.0","""event"",""trial"",""time""
""fullscreenenter"",""0"",""5768""
","
","
","""event"",""trial"",""time""
""fullscreenenter"",""0"",""5768""
","
","1652.6000000000931","run_exp/static/images/Set 6_rs/121a.jpg","86","","","","","","test","TR","4"
"","show_choice","229","411853","0.0-222.0-1.0","""event"",""trial"",""time""
""fullscreenenter"",""0"",""5768""
","
","
","""event"",""trial"",""time""
""fullscreenenter"",""0"",""5768""
","
","null","run_exp/static/images/Set 6_rs/121a.jpg","null","","","","","","test","TR",""
"","html-keyboard-response","230","412363","0.0-222.0-2.0","""event"",""trial"",""time""
""fullscreenenter"",""0"",""5768""
","
","
","""event"",""trial"",""time""
""fullscreenenter"",""0"",""5768""
","
","null","<p></p>","null","","","","","","","",""
"","image","231","414135","0.0-223.0-0.0","""event"",""trial"",""time""
""fullscreenenter"",""0"",""5768""
","
","
","""event"",""trial"",""time""
""fullscreenenter"",""0"",""5768""
","
","1770","run_exp/static/images/Set 6_rs/073b.jpg","78","","","","","","test","TL","3"
"","show_choice","232","414643","0.0-223.0-1.0","""event"",""trial"",""time""
""fullscreenenter"",""0"",""5768""
","
","
","""event"",""trial"",""time""
""fullscreenenter"",""0"",""5768""
","
","null","run_exp/static/images/Set 6_rs/073b.jpg","null","","","","","","test","TL",""
"","html-keyboard-response","233","415153","0.0-223.0-2.0","""event"",""trial"",""time""
""fullscreenenter"",""0"",""5768""
","
","
","""event"",""trial"",""time""
""fullscreenenter"",""0"",""5768""
","
","null","<p></p>","null","","","","","","","",""
"","image","234","416371","0.0-224.0-0.0","""event"",""trial"",""time""
""fullscreenenter"",""0"",""5768""
","
","
","""event"",""trial"",""time""
""fullscreenenter"",""0"",""5768""
","
","1216.1000000000931","run_exp/static/images/Set 6_rs/169a.jpg","86","","","","","","test","TR","4"
"","show_choice","235","416893","0.0-224.0-1.0","""event"",""trial"",""time""
""fullscreenenter"",""0"",""5768""
","
","
","""event"",""trial"",""time""
""fullscreenenter"",""0"",""5768""
","
","null","run_exp/static/images/Set 6_rs/169a.jpg","null","","","","","","test","TR",""
"","html-keyboard-response","236","417413","0.0-224.0-2.0","""event"",""trial"",""time""
""fullscreenenter"",""0"",""5768""
","
","
","""event"",""trial"",""time""
""fullscreenenter"",""0"",""5768""
","
","null","<p></p>","null","","","","","","","",""
"","image","237","418443","0.0-225.0-0.0","""event"",""trial"",""time""
""fullscreenenter"",""0"",""5768""
","
","
","""event"",""trial"",""time""
""fullscreenenter"",""0"",""5768""
","
","1027.8000000002794","run_exp/static/images/Set 6_rs/045a.jpg","86","","","","","","test","TR","2"
"","show_choice","238","418953","0.0-225.0-1.0","""event"",""trial"",""time""
""fullscreenenter"",""0"",""5768""
","
","
","""event"",""trial"",""time""
""fullscreenenter"",""0"",""5768""
","
","null","run_exp/static/images/Set 6_rs/045a.jpg","null","","","","","","test","TR",""
"","html-keyboard-response","239","419458","0.0-225.0-2.0","""event"",""trial"",""time""
""fullscreenenter"",""0"",""5768""
","
","
","""event"",""trial"",""time""
""fullscreenenter"",""0"",""5768""
","
","null","<p></p>","null","","","","","","","",""
"","image","240","420547","0.0-226.0-0.0","""event"",""trial"",""time""
""fullscreenenter"",""0"",""5768""
","
","
","""event"",""trial"",""time""
""fullscreenenter"",""0"",""5768""
","
","1085.9000000003725","run_exp/static/images/Set 6_rs/066b.jpg","66","","","","","","test","TL","5"
"","show_choice","241","421055","0.0-226.0-1.0","""event"",""trial"",""time""
""fullscreenenter"",""0"",""5768""
","
","
","""event"",""trial"",""time""
""fullscreenenter"",""0"",""5768""
","
","null","run_exp/static/images/Set 6_rs/066b.jpg","null","","","","","","test","TL",""
"","html-keyboard-response","242","421573","0.0-226.0-2.0","""event"",""trial"",""time""
""fullscreenenter"",""0"",""5768""
","
","
","""event"",""trial"",""time""
""fullscreenenter"",""0"",""5768""
","
","null","<p></p>","null","","","","","","","",""
"","image","243","422765","0.0-227.0-0.0","""event"",""trial"",""time""
""fullscreenenter"",""0"",""5768""
","
","
","""event"",""trial"",""time""
""fullscreenenter"",""0"",""5768""
","
","1188","run_exp/static/images/Set 6_rs/138b.jpg","86","","","","","","test","TL","1"
"","show_choice","244","423277","0.0-227.0-1.0","""event"",""trial"",""time""
""fullscreenenter"",""0"",""5768""
","
","
","""event"",""trial"",""time""
""fullscreenenter"",""0"",""5768""
","
","null","run_exp/static/images/Set 6_rs/138b.jpg","null","","","","","","test","TL",""
"","html-keyboard-response","245","423779","0.0-227.0-2.0","""event"",""trial"",""time""
""fullscreenenter"",""0"",""5768""
","
","
","""event"",""trial"",""time""
""fullscreenenter"",""0"",""5768""
","
","null","<p></p>","null","","","","","","","",""
"","image","246","424915","0.0-228.0-0.0","""event"",""trial"",""time""
""fullscreenenter"",""0"",""5768""
","
","
","""event"",""trial"",""time""
""fullscreenenter"",""0"",""5768""
","
","1132.9000000003725","run_exp/static/images/Set 6_rs/036b.jpg","66","","","","","","test","TL","4"
"","show_choice","247","425424","0.0-228.0-1.0","""event"",""trial"",""time""
""fullscreenenter"",""0"",""5768""
","
","
","""event"",""trial"",""time""
""fullscreenenter"",""0"",""5768""
","
","null","run_exp/static/images/Set 6_rs/036b.jpg","null","","","","","","test","TL",""
"","html-keyboard-response","248","425940","0.0-228.0-2.0","""event"",""trial"",""time""
""fullscreenenter"",""0"",""5768""
","
","
","""event"",""trial"",""time""
""fullscreenenter"",""0"",""5768""
","
","null","<p></p>","null","","","","","","","",""
"","image","249","426977","0.0-229.0-0.0","""event"",""trial"",""time""
""fullscreenenter"",""0"",""5768""
","
","
","""event"",""trial"",""time""
""fullscreenenter"",""0"",""5768""
","
","1033.2999999998137","run_exp/static/images/Set 6_rs/023a.jpg","86","","","","","","test","TR","3"
"","show_choice","250","427492","0.0-229.0-1.0","""event"",""trial"",""time""
""fullscreenenter"",""0"",""5768""
","
","
","""event"",""trial"",""time""
""fullscreenenter"",""0"",""5768""
","
","null","run_exp/static/images/Set 6_rs/023a.jpg","null","","","","","","test","TR",""
"","html-keyboard-response","251","427994","0.0-229.0-2.0","""event"",""trial"",""time""
""fullscreenenter"",""0"",""5768""
","
","
","""event"",""trial"",""time""
""fullscreenenter"",""0"",""5768""
","
","null","<p></p>","null","","","","","","","",""
"","image","252","429005","0.0-230.0-0.0","""event"",""trial"",""time""
""fullscreenenter"",""0"",""5768""
","
","
","""event"",""trial"",""time""
""fullscreenenter"",""0"",""5768""
","
","1008.1999999997206","run_exp/static/images/Set 6_rs/117b.jpg","86","","","","","","test","TL","5"
"","show_choice","253","429510","0.0-230.0-1.0","""event"",""trial"",""time""
""fullscreenenter"",""0"",""5768""
","
","
","""event"",""trial"",""time""
""fullscreenenter"",""0"",""5768""
","
","null","run_exp/static/images/Set 6_rs/117b.jpg","null","","","","","","test","TL",""
"","html-keyboard-response","254","430017","0.0-230.0-2.0","""event"",""trial"",""time""
""fullscreenenter"",""0"",""5768""
","
","
","""event"",""trial"",""time""
""fullscreenenter"",""0"",""5768""
","
","null","<p></p>","null","","","","","","","",""
"","image","255","430832","0.0-231.0-0.0","""event"",""trial"",""time""
""fullscreenenter"",""0"",""5768""
","
","
","""event"",""trial"",""time""
""fullscreenenter"",""0"",""5768""
","
","810.8999999999069","run_exp/static/images/Set 6_rs/005a.jpg","66","","","","","","test","TF","5"
"","show_choice","256","431338","0.0-231.0-1.0","""event"",""trial"",""time""
""fullscreenenter"",""0"",""5768""
","
","
","""event"",""trial"",""time""
""fullscreenenter"",""0"",""5768""
","
","null","run_exp/static/images/Set 6_rs/005a.jpg","null","","","","","","test","TF",""
"","html-keyboard-response","257","431853","0.0-231.0-2.0","""event"",""trial"",""time""
""fullscreenenter"",""0"",""5768""
","
","
","""event"",""trial"",""time""
""fullscreenenter"",""0"",""5768""
","
","null","<p></p>","null","","","","","","","",""
"","image","258","433084","0.0-232.0-0.0","""event"",""trial"",""time""
""fullscreenenter"",""0"",""5768""
","
","
","""event"",""trial"",""time""
""fullscreenenter"",""0"",""5768""
","
","1227.7000000001863","run_exp/static/images/Set 6_rs/090a.jpg","78","","","","","","test","TF","5"
"","show_choice","259","433598","0.0-232.0-1.0","""event"",""trial"",""time""
""fullscreenenter"",""0"",""5768""
","
","
","""event"",""trial"",""time""
""fullscreenenter"",""0"",""5768""
","
","null","run_exp/static/images/Set 6_rs/090a.jpg","null","","","","","","test","TF",""
"","html-keyboard-response","260","434111","0.0-232.0-2.0","""event"",""trial"",""time""
""fullscreenenter"",""0"",""5768""
","
","
","""event"",""trial"",""time""
""fullscreenenter"",""0"",""5768""
","
","null","<p></p>","null","","","","","","","",""
"","image","261","435356","0.0-233.0-0.0","""event"",""trial"",""time""
""fullscreenenter"",""0"",""5768""
","
","
","""event"",""trial"",""time""
""fullscreenenter"",""0"",""5768""
","
","1242.7000000001863","run_exp/static/images/Set 6_rs/152a.jpg","86","","","","","","test","TR","2"
"","show_choice","262","435869","0.0-233.0-1.0","""event"",""trial"",""time""
""fullscreenenter"",""0"",""5768""
","
","
","""event"",""trial"",""time""
""fullscreenenter"",""0"",""5768""
","
","null","run_exp/static/images/Set 6_rs/152a.jpg","null","","","","","","test","TR",""
"","html-keyboard-response","263","436375","0.0-233.0-2.0","""event"",""trial"",""time""
""fullscreenenter"",""0"",""5768""
","
","
","""event"",""trial"",""time""
""fullscreenenter"",""0"",""5768""
","
","null","<p></p>","null","","","","","","","",""
"","image","264","438015","0.0-234.0-0.0","""event"",""trial"",""time""
""fullscreenenter"",""0"",""5768""
","
","
","""event"",""trial"",""time""
""fullscreenenter"",""0"",""5768""
","
","1637.7999999998137","run_exp/static/images/Set 6_rs/015a.jpg","78","","","","","","test","TF","4"
"","show_choice","265","438524","0.0-234.0-1.0","""event"",""trial"",""time""
""fullscreenenter"",""0"",""5768""
","
","
","""event"",""trial"",""time""
""fullscreenenter"",""0"",""5768""
","
","null","run_exp/static/images/Set 6_rs/015a.jpg","null","","","","","","test","TF",""
"","html-keyboard-response","266","439033","0.0-234.0-2.0","""event"",""trial"",""time""
""fullscreenenter"",""0"",""5768""
","
","
","""event"",""trial"",""time""
""fullscreenenter"",""0"",""5768""
","
","null","<p></p>","null","","","","","","","",""
"","image","267","440109","0.0-235.0-0.0","""event"",""trial"",""time""
""fullscreenenter"",""0"",""5768""
","
","
","""event"",""trial"",""time""
""fullscreenenter"",""0"",""5768""
","
","1072","run_exp/static/images/Set 6_rs/063a.jpg","86","","","","","","test","TR","2"
"","show_choice","268","440623","0.0-235.0-1.0","""event"",""trial"",""time""
""fullscreenenter"",""0"",""5768""
","
","
","""event"",""trial"",""time""
""fullscreenenter"",""0"",""5768""
","
","null","run_exp/static/images/Set 6_rs/063a.jpg","null","","","","","","test","TR",""
"","html-keyboard-response","269","441139","0.0-235.0-2.0","""event"",""trial"",""time""
""fullscreenenter"",""0"",""5768""
","
","
","""event"",""trial"",""time""
""fullscreenenter"",""0"",""5768""
","
","null","<p></p>","null","","","","","","","",""
"","image","270","442587","0.0-236.0-0.0","""event"",""trial"",""time""
""fullscreenenter"",""0"",""5768""
","
","
","""event"",""trial"",""time""
""fullscreenenter"",""0"",""5768""
","
","1444.4000000003725","run_exp/static/images/Set 6_rs/131a.jpg","86","","","","","","test","TR","5"
"","show_choice","271","443091","0.0-236.0-1.0","""event"",""trial"",""time""
""fullscreenenter"",""0"",""5768""
","
","
","""event"",""trial"",""time""
""fullscreenenter"",""0"",""5768""
","
","null","run_exp/static/images/Set 6_rs/131a.jpg","null","","","","","","test","TR",""
"","html-keyboard-response","272","443607","0.0-236.0-2.0","""event"",""trial"",""time""
""fullscreenenter"",""0"",""5768""
","
","
","""event"",""trial"",""time""
""fullscreenenter"",""0"",""5768""
","
","null","<p></p>","null","","","","","","","",""
"","image","273","444650","0.0-237.0-0.0","""event"",""trial"",""time""
""fullscreenenter"",""0"",""5768""
","
","
","""event"",""trial"",""time""
""fullscreenenter"",""0"",""5768""
","
","1038.5","run_exp/static/images/Set 6_rs/028a.jpg","78","","","","","","test","TF","1"
"","show_choice","274","445164","0.0-237.0-1.0","""event"",""trial"",""time""
""fullscreenenter"",""0"",""5768""
","
","
","""event"",""trial"",""time""
""fullscreenenter"",""0"",""5768""
","
","null","run_exp/static/images/Set 6_rs/028a.jpg","null","","","","","","test","TF",""
"","html-keyboard-response","275","445670","0.0-237.0-2.0","""event"",""trial"",""time""
""fullscreenenter"",""0"",""5768""
","
","
","""event"",""trial"",""time""
""fullscreenenter"",""0"",""5768""
","
","null","<p></p>","null","","","","","","","",""
"","image","276","446561","0.0-238.0-0.0","""event"",""trial"",""time""
""fullscreenenter"",""0"",""5768""
","
","
","""event"",""trial"",""time""
""fullscreenenter"",""0"",""5768""
","
","887.1000000000931","run_exp/static/images/Set 6_rs/021a.jpg","66","","","","","","test","TF","2"
"","show_choice","277","447076","0.0-238.0-1.0","""event"",""trial"",""time""
""fullscreenenter"",""0"",""5768""
","
","
","""event"",""trial"",""time""
""fullscreenenter"",""0"",""5768""
","
","null","run_exp/static/images/Set 6_rs/021a.jpg","null","","","","","","test","TF",""
"","html-keyboard-response","278","447586","0.0-238.0-2.0","""event"",""trial"",""time""
""fullscreenenter"",""0"",""5768""
","
","
","""event"",""trial"",""time""
""fullscreenenter"",""0"",""5768""
","
","null","<p></p>","null","","","","","","","",""
"","image","279","448538","0.0-239.0-0.0","""event"",""trial"",""time""
""fullscreenenter"",""0"",""5768""
","
","
","""event"",""trial"",""time""
""fullscreenenter"",""0"",""5768""
","
","949.1000000000931","run_exp/static/images/Set 6_rs/155a.jpg","78","","","","","","test","TF","4"
"","show_choice","280","449054","0.0-239.0-1.0","""event"",""trial"",""time""
""fullscreenenter"",""0"",""5768""
","
","
","""event"",""trial"",""time""
""fullscreenenter"",""0"",""5768""
","
","null","run_exp/static/images/Set 6_rs/155a.jpg","null","","","","","","test","TF",""
"","html-keyboard-response","281","449563","0.0-239.0-2.0","""event"",""trial"",""time""
""fullscreenenter"",""0"",""5768""
","
","
","""event"",""trial"",""time""
""fullscreenenter"",""0"",""5768""
","
","null","<p></p>","null","","","","","","","",""
"","image","282","450385","0.0-240.0-0.0","""event"",""trial"",""time""
""fullscreenenter"",""0"",""5768""
","
","
","""event"",""trial"",""time""
""fullscreenenter"",""0"",""5768""
","
","818.5999999996275","run_exp/static/images/Set 6_rs/052a.jpg","78","","","","","","test","TF","1"
"","show_choice","283","450897","0.0-240.0-1.0","""event"",""trial"",""time""
""fullscreenenter"",""0"",""5768""
","
","
","""event"",""trial"",""time""
""fullscreenenter"",""0"",""5768""
","
","null","run_exp/static/images/Set 6_rs/052a.jpg","null","","","","","","test","TF",""
"","html-keyboard-response","284","451400","0.0-240.0-2.0","""event"",""trial"",""time""
""fullscreenenter"",""0"",""5768""
","
","
","""event"",""trial"",""time""
""fullscreenenter"",""0"",""5768""
","
","null","<p></p>","null","","","","","","","",""
"","image","285","452485","0.0-241.0-0.0","""event"",""trial"",""time""
""fullscreenenter"",""0"",""5768""
","
","
","""event"",""trial"",""time""
""fullscreenenter"",""0"",""5768""
","
","1082.1000000000931","run_exp/static/images/Set 6_rs/061a.jpg","86","","","","","","test","TR","5"
"","show_choice","286","453000","0.0-241.0-1.0","""event"",""trial"",""time""
""fullscreenenter"",""0"",""5768""
","
","
","""event"",""trial"",""time""
""fullscreenenter"",""0"",""5768""
","
","null","run_exp/static/images/Set 6_rs/061a.jpg","null","","","","","","test","TR",""
"","html-keyboard-response","287","453513","0.0-241.0-2.0","""event"",""trial"",""time""
""fullscreenenter"",""0"",""5768""
","
","
","""event"",""trial"",""time""
""fullscreenenter"",""0"",""5768""
","
","null","<p></p>","null","","","","","","","",""
"","image","288","454684","0.0-242.0-0.0","""event"",""trial"",""time""
""fullscreenenter"",""0"",""5768""
","
","
","""event"",""trial"",""time""
""fullscreenenter"",""0"",""5768""
","
","1167.8999999999069","run_exp/static/images/Set 6_rs/166a.jpg","86","","","","","","test","TR","1"
"","show_choice","289","455189","0.0-242.0-1.0","""event"",""trial"",""time""
""fullscreenenter"",""0"",""5768""
","
","
","""event"",""trial"",""time""
""fullscreenenter"",""0"",""5768""
","
","null","run_exp/static/images/Set 6_rs/166a.jpg","null","","","","","","test","TR",""
"","html-keyboard-response","290","455697","0.0-242.0-2.0","""event"",""trial"",""time""
""fullscreenenter"",""0"",""5768""
","
","
","""event"",""trial"",""time""
""fullscreenenter"",""0"",""5768""
","
","null","<p></p>","null","","","","","","","",""
"","image","291","456520","0.0-243.0-0.0","""event"",""trial"",""time""
""fullscreenenter"",""0"",""5768""
","
","
","""event"",""trial"",""time""
""fullscreenenter"",""0"",""5768""
","
","819.1000000000931","run_exp/static/images/Set 6_rs/014b.jpg","86","","","","","","test","TL","5"
"","show_choice","292","457028","0.0-243.0-1.0","""event"",""trial"",""time""
""fullscreenenter"",""0"",""5768""
","
","
","""event"",""trial"",""time""
""fullscreenenter"",""0"",""5768""
","
","null","run_exp/static/images/Set 6_rs/014b.jpg","null","","","","","","test","TL",""
"","html-keyboard-response","293","457535","0.0-243.0-2.0","""event"",""trial"",""time""
""fullscreenenter"",""0"",""5768""
","
","
","""event"",""trial"",""time""
""fullscreenenter"",""0"",""5768""
","
","null","<p></p>","null","","","","","","","",""
"","image","294","458490","0.0-244.0-0.0","""event"",""trial"",""time""
""fullscreenenter"",""0"",""5768""
","
","
","""event"",""trial"",""time""
""fullscreenenter"",""0"",""5768""
","
","952.8999999999069","run_exp/static/images/Set 6_rs/085b.jpg","86","","","","","","test","TL","1"
"","show_choice","295","458994","0.0-244.0-1.0","""event"",""trial"",""time""
""fullscreenenter"",""0"",""5768""
","
","
","""event"",""trial"",""time""
""fullscreenenter"",""0"",""5768""
","
","null","run_exp/static/images/Set 6_rs/085b.jpg","null","","","","","","test","TL",""
"","html-keyboard-response","296","459503","0.0-244.0-2.0","""event"",""trial"",""time""
""fullscreenenter"",""0"",""5768""
","
","
","""event"",""trial"",""time""
""fullscreenenter"",""0"",""5768""
","
","null","<p></p>","null","","","","","","","",""
"","image","297","460513","0.0-245.0-0.0","""event"",""trial"",""time""
""fullscreenenter"",""0"",""5768""
","
","
","""event"",""trial"",""time""
""fullscreenenter"",""0"",""5768""
","
","1006.2999999998137","run_exp/static/images/Set 6_rs/050b.jpg","86","","","","","","test","TL","3"
"","show_choice","298","461017","0.0-245.0-1.0","""event"",""trial"",""time""
""fullscreenenter"",""0"",""5768""
","
","
","""event"",""trial"",""time""
""fullscreenenter"",""0"",""5768""
","
","null","run_exp/static/images/Set 6_rs/050b.jpg","null","","","","","","test","TL",""
"","html-keyboard-response","299","461536","0.0-245.0-2.0","""event"",""trial"",""time""
""fullscreenenter"",""0"",""5768""
","
","
","""event"",""trial"",""time""
""fullscreenenter"",""0"",""5768""
","
","null","<p></p>","null","","","","","","","",""
"","image","300","462599","0.0-246.0-0.0","""event"",""trial"",""time""
""fullscreenenter"",""0"",""5768""
","
","
","""event"",""trial"",""time""
""fullscreenenter"",""0"",""5768""
","
","1059.6000000000931","run_exp/static/images/Set 6_rs/089b.jpg","66","","","","","","test","TL","4"
"","show_choice","301","463112","0.0-246.0-1.0","""event"",""trial"",""time""
""fullscreenenter"",""0"",""5768""
","
","
","""event"",""trial"",""time""
""fullscreenenter"",""0"",""5768""
","
","null","run_exp/static/images/Set 6_rs/089b.jpg","null","","","","","","test","TL",""
"","html-keyboard-response","302","463622","0.0-246.0-2.0","""event"",""trial"",""time""
""fullscreenenter"",""0"",""5768""
","
","
","""event"",""trial"",""time""
""fullscreenenter"",""0"",""5768""
","
","null","<p></p>","null","","","","","","","",""
"","image","303","464561","0.0-247.0-0.0","""event"",""trial"",""time""
""fullscreenenter"",""0"",""5768""
","
","
","""event"",""trial"",""time""
""fullscreenenter"",""0"",""5768""
","
","934.8000000002794","run_exp/static/images/Set 6_rs/097a.jpg","66","","","","","","test","TF","5"
"","show_choice","304","465081","0.0-247.0-1.0","""event"",""trial"",""time""
""fullscreenenter"",""0"",""5768""
","
","
","""event"",""trial"",""time""
""fullscreenenter"",""0"",""5768""
","
","null","run_exp/static/images/Set 6_rs/097a.jpg","null","","","","","","test","TF",""
"","html-keyboard-response","305","465588","0.0-247.0-2.0","""event"",""trial"",""time""
""fullscreenenter"",""0"",""5768""
","
","
","""event"",""trial"",""time""
""fullscreenenter"",""0"",""5768""
","
","null","<p></p>","null","","","","","","","",""
"","image","306","466622","0.0-248.0-0.0","""event"",""trial"",""time""
""fullscreenenter"",""0"",""5768""
","
","
","""event"",""trial"",""time""
""fullscreenenter"",""0"",""5768""
","
","1031.1000000000931","run_exp/static/images/Set 6_rs/055b.jpg","78","","","","","","test","TL","4"
"","show_choice","307","467133","0.0-248.0-1.0","""event"",""trial"",""time""
""fullscreenenter"",""0"",""5768""
","
","
","""event"",""trial"",""time""
""fullscreenenter"",""0"",""5768""
","
","null","run_exp/static/images/Set 6_rs/055b.jpg","null","","","","","","test","TL",""
"","html-keyboard-response","308","467649","0.0-248.0-2.0","""event"",""trial"",""time""
""fullscreenenter"",""0"",""5768""
","
","
","""event"",""trial"",""time""
""fullscreenenter"",""0"",""5768""
","
","null","<p></p>","null","","","","","","","",""
"","image","309","468994","0.0-249.0-0.0","""event"",""trial"",""time""
""fullscreenenter"",""0"",""5768""
","
","
","""event"",""trial"",""time""
""fullscreenenter"",""0"",""5768""
","
","1339.9000000003725","run_exp/static/images/Set 6_rs/064a.jpg","66","","","","","","test","TR","5"
"","show_choice","310","469507","0.0-249.0-1.0","""event"",""trial"",""time""
""fullscreenenter"",""0"",""5768""
","
","
","""event"",""trial"",""time""
""fullscreenenter"",""0"",""5768""
","
","null","run_exp/static/images/Set 6_rs/064a.jpg","null","","","","","","test","TR",""
"","html-keyboard-response","311","470016","0.0-249.0-2.0","""event"",""trial"",""time""
""fullscreenenter"",""0"",""5768""
","
","
","""event"",""trial"",""time""
""fullscreenenter"",""0"",""5768""
","
","null","<p></p>","null","","","","","","","",""
"","image","312","470949","0.0-250.0-0.0","""event"",""trial"",""time""
""fullscreenenter"",""0"",""5768""
","
","
","""event"",""trial"",""time""
""fullscreenenter"",""0"",""5768""
","
","929.3000000002794","run_exp/static/images/Set 6_rs/077a.jpg","78","","","","","","test","TF","3"
"","show_choice","313","471455","0.0-250.0-1.0","""event"",""trial"",""time""
""fullscreenenter"",""0"",""5768""
","
","
","""event"",""trial"",""time""
""fullscreenenter"",""0"",""5768""
","
","null","run_exp/static/images/Set 6_rs/077a.jpg","null","","","","","","test","TF",""
"","html-keyboard-response","314","471958","0.0-250.0-2.0","""event"",""trial"",""time""
""fullscreenenter"",""0"",""5768""
","
","
","""event"",""trial"",""time""
""fullscreenenter"",""0"",""5768""
","
","null","<p></p>","null","","","","","","","",""
"","image","315","472956","0.0-251.0-0.0","""event"",""trial"",""time""
""fullscreenenter"",""0"",""5768""
","
","
","""event"",""trial"",""time""
""fullscreenenter"",""0"",""5768""
","
","996.6000000000931","run_exp/static/images/Set 6_rs/172a.jpg","86","","","","","","test","TR","1"
"","show_choice","316","473459","0.0-251.0-1.0","""event"",""trial"",""time""
""fullscreenenter"",""0"",""5768""
","
","
","""event"",""trial"",""time""
""fullscreenenter"",""0"",""5768""
","
","null","run_exp/static/images/Set 6_rs/172a.jpg","null","","","","","","test","TR",""
"","html-keyboard-response","317","473973","0.0-251.0-2.0","""event"",""trial"",""time""
""fullscreenenter"",""0"",""5768""
","
","
","""event"",""trial"",""time""
""fullscreenenter"",""0"",""5768""
","
","null","<p></p>","null","","","","","","","",""
"","image","318","475527","0.0-252.0-0.0","""event"",""trial"",""time""
""fullscreenenter"",""0"",""5768""
","
","
","""event"",""trial"",""time""
""fullscreenenter"",""0"",""5768""
","
","1550.1000000000931","run_exp/static/images/Set 6_rs/136a.jpg","78","","","","","","test","TF","4"
"","show_choice","319","476034","0.0-252.0-1.0","""event"",""trial"",""time""
""fullscreenenter"",""0"",""5768""
","
","
","""event"",""trial"",""time""
""fullscreenenter"",""0"",""5768""
","
","null","run_exp/static/images/Set 6_rs/136a.jpg","null","","","","","","test","TF",""
"","html-keyboard-response","320","476551","0.0-252.0-2.0","""event"",""trial"",""time""
""fullscreenenter"",""0"",""5768""
","
","
","""event"",""trial"",""time""
""fullscreenenter"",""0"",""5768""
","
","null","<p></p>","null","","","","","","","",""
"","image","321","477593","0.0-253.0-0.0","""event"",""trial"",""time""
""fullscreenenter"",""0"",""5768""
","
","
","""event"",""trial"",""time""
""fullscreenenter"",""0"",""5768""
","
","1039.0999999996275","run_exp/static/images/Set 6_rs/056a.jpg","78","","","","","","test","TF","3"
"","show_choice","322","478098","0.0-253.0-1.0","""event"",""trial"",""time""
""fullscreenenter"",""0"",""5768""
","
","
","""event"",""trial"",""time""
""fullscreenenter"",""0"",""5768""
","
","null","run_exp/static/images/Set 6_rs/056a.jpg","null","","","","","","test","TF",""
"","html-keyboard-response","323","478614","0.0-253.0-2.0","""event"",""trial"",""time""
""fullscreenenter"",""0"",""5768""
","
","
","""event"",""trial"",""time""
""fullscreenenter"",""0"",""5768""
","
","null","<p></p>","null","","","","","","","",""
"","image","324","479641","0.0-254.0-0.0","""event"",""trial"",""time""
""fullscreenenter"",""0"",""5768""
","
","
","""event"",""trial"",""time""
""fullscreenenter"",""0"",""5768""
","
","1022.8999999999069","run_exp/static/images/Set 6_rs/140a.jpg","78","","","","","","test","TF","1"
"","show_choice","325","480152","0.0-254.0-1.0","""event"",""trial"",""time""
""fullscreenenter"",""0"",""5768""
","
","
","""event"",""trial"",""time""
""fullscreenenter"",""0"",""5768""
","
","null","run_exp/static/images/Set 6_rs/140a.jpg","null","","","","","","test","TF",""
"","html-keyboard-response","326","480667","0.0-254.0-2.0","""event"",""trial"",""time""
""fullscreenenter"",""0"",""5768""
","
","
","""event"",""trial"",""time""
""fullscreenenter"",""0"",""5768""
","
","null","<p></p>","null","","","","","","","",""
"","image","327","481818","0.0-255.0-0.0","""event"",""trial"",""time""
""fullscreenenter"",""0"",""5768""
","
","
","""event"",""trial"",""time""
""fullscreenenter"",""0"",""5768""
","
","1146.8999999999069","run_exp/static/images/Set 6_rs/071b.jpg","66","","","","","","test","TL","4"
"","show_choice","328","482327","0.0-255.0-1.0","""event"",""trial"",""time""
""fullscreenenter"",""0"",""5768""
","
","
","""event"",""trial"",""time""
""fullscreenenter"",""0"",""5768""
","
","null","run_exp/static/images/Set 6_rs/071b.jpg","null","","","","","","test","TL",""
"","html-keyboard-response","329","482835","0.0-255.0-2.0","""event"",""trial"",""time""
""fullscreenenter"",""0"",""5768""
","
","
","""event"",""trial"",""time""
""fullscreenenter"",""0"",""5768""
","
","null","<p></p>","null","","","","","","","",""
"","image","330","483622","0.0-256.0-0.0","""event"",""trial"",""time""
""fullscreenenter"",""0"",""5768""
","
","
","""event"",""trial"",""time""
""fullscreenenter"",""0"",""5768""
","
","784.7000000001863","run_exp/static/images/Set 6_rs/047a.jpg","78","","","","","","test","TF","3"
"","show_choice","331","484130","0.0-256.0-1.0","""event"",""trial"",""time""
""fullscreenenter"",""0"",""5768""
","
","
","""event"",""trial"",""time""
""fullscreenenter"",""0"",""5768""
","
","null","run_exp/static/images/Set 6_rs/047a.jpg","null","","","","","","test","TF",""
"","html-keyboard-response","332","484633","0.0-256.0-2.0","""event"",""trial"",""time""
""fullscreenenter"",""0"",""5768""
","
","
","""event"",""trial"",""time""
""fullscreenenter"",""0"",""5768""
","
","null","<p></p>","null","","","","","","","",""
"","image","333","485453","0.0-257.0-0.0","""event"",""trial"",""time""
""fullscreenenter"",""0"",""5768""
","
","
","""event"",""trial"",""time""
""fullscreenenter"",""0"",""5768""
","
","815.8000000002794","run_exp/static/images/Set 6_rs/178a.jpg","78","","","","","","test","TR","3"
"","show_choice","334","485971","0.0-257.0-1.0","""event"",""trial"",""time""
""fullscreenenter"",""0"",""5768""
","
","
","""event"",""trial"",""time""
""fullscreenenter"",""0"",""5768""
","
","null","run_exp/static/images/Set 6_rs/178a.jpg","null","","","","","","test","TR",""
"","html-keyboard-response","335","486483","0.0-257.0-2.0","""event"",""trial"",""time""
""fullscreenenter"",""0"",""5768""
","
","
","""event"",""trial"",""time""
""fullscreenenter"",""0"",""5768""
","
","null","<p></p>","null","","","","","","","",""
"","image","336","487275","0.0-258.0-0.0","""event"",""trial"",""time""
""fullscreenenter"",""0"",""5768""
","
","
","""event"",""trial"",""time""
""fullscreenenter"",""0"",""5768""
","
","785.5","run_exp/static/images/Set 6_rs/095b.jpg","66","","","","","","test","TL","5"
"","show_choice","337","487788","0.0-258.0-1.0","""event"",""trial"",""time""
""fullscreenenter"",""0"",""5768""
","
","
","""event"",""trial"",""time""
""fullscreenenter"",""0"",""5768""
","
","null","run_exp/static/images/Set 6_rs/095b.jpg","null","","","","","","test","TL",""
"","html-keyboard-response","338","488298","0.0-258.0-2.0","""event"",""trial"",""time""
""fullscreenenter"",""0"",""5768""
","
","
","""event"",""trial"",""time""
""fullscreenenter"",""0"",""5768""
","
","null","<p></p>","null","","","","","","","",""
"","image","339","489101","0.0-259.0-0.0","""event"",""trial"",""time""
""fullscreenenter"",""0"",""5768""
","
","
","""event"",""trial"",""time""
""fullscreenenter"",""0"",""5768""
","
","799.1999999997206","run_exp/static/images/Set 6_rs/141a.jpg","66","","","","","","test","TR","2"
"","show_choice","340","489614","0.0-259.0-1.0","""event"",""trial"",""time""
""fullscreenenter"",""0"",""5768""
","
","
","""event"",""trial"",""time""
""fullscreenenter"",""0"",""5768""
","
","null","run_exp/static/images/Set 6_rs/141a.jpg","null","","","","","","test","TR",""
