"success","trial_type","trial_index","time_elapsed","internal_node_id","interactions","blur_events","focus_events","fullscreenenter_events","fullscreenexit_events","rt","stimulus","key_press","subject_id","participant_id","age","gender","prompt","phase","condition","lure_bin"
"true","fullscreen","0","2182","0.0-0.0","""event"",""trial"",""time""
""fullscreenenter"",""0"",""1203""
","
","
","""event"",""trial"",""time""
""fullscreenenter"",""0"",""1203""
","
","","","","","","","","","","",""
"","pavlovia","1","2189","0.0-1.0","""event"",""trial"",""time""
""fullscreenenter"",""0"",""1203""
""fullscreenexit"",""2"",""5327""
""blur"",""2"",""6610""
""focus"",""2"",""8004""
""blur"",""2"",""15263""
""focus"",""2"",""16092""
","""event"",""trial"",""time""
""blur"",""2"",""6610""
""blur"",""2"",""15263""
","""event"",""trial"",""time""
""focus"",""2"",""8004""
""focus"",""2"",""16092""
","""event"",""trial"",""time""
""fullscreenenter"",""0"",""1203""
","""event"",""trial"",""time""
""fullscreenexit"",""2"",""5327""
","","","","","","","","","","",""
"","welcome","2","37267","0.0-2.0","""event"",""trial"",""time""
""fullscreenenter"",""0"",""1203""
""fullscreenexit"",""2"",""5327""
""blur"",""2"",""6610""
""focus"",""2"",""8004""
""blur"",""2"",""15263""
""focus"",""2"",""16092""
","""event"",""trial"",""time""
""blur"",""2"",""6610""
""blur"",""2"",""15263""
","""event"",""trial"",""time""
""focus"",""2"",""8004""
""focus"",""2"",""16092""
","""event"",""trial"",""time""
""fullscreenenter"",""0"",""1203""
","""event"",""trial"",""time""
""fullscreenexit"",""2"",""5327""
","null","run_exp/static/audio/clip_1_welcome.m4a","null","2183","2148","19","Male","<div class='center'><p>Welcome to the third part of the study! First, you'll be shown pictures of items one at a time. For each picture, you have to decide if the item is typically found indoors or outdoors.</p><p>If you think it's usually found indoors, then press <b>v</b> key on your keyboard. If you think it's usually found outdoors, then press the <b>n</b> key.There will be reminders on the screen to help you remember which keys to press. </p><p>If you're not sure whether the item is an indoor item or an outdoor item, go ahead and take a guess but try your best not to skip that choice. </p></div>","","",""
"","html-keyboard-response","3","51906","0.0-3.0","""event"",""trial"",""time""
""fullscreenenter"",""0"",""1203""
""fullscreenexit"",""2"",""5327""
""blur"",""2"",""6610""
""focus"",""2"",""8004""
""blur"",""2"",""15263""
""focus"",""2"",""16092""
","""event"",""trial"",""time""
""blur"",""2"",""6610""
""blur"",""2"",""15263""
","""event"",""trial"",""time""
""focus"",""2"",""8004""
""focus"",""2"",""16092""
","""event"",""trial"",""time""
""fullscreenenter"",""0"",""1203""
","""event"",""trial"",""time""
""fullscreenexit"",""2"",""5327""
","14634.700000017881","<div class='center'><p>Welcome to the third part of the study! First, you'll be shown pictures of items one at a time. For each picture, you have to decide if the item is typically found indoors or outdoors.</p><p>If you think it's usually found indoors, then press <b>v</b> key on your keyboard. If you think it's usually found outdoors, then press the <b>n</b> key.There will be reminders on the screen to help you remember which keys to press. </p><p>If you're not sure whether the item is an indoor item or an outdoor item, go ahead and take a guess but try your best not to skip that choice. </p><div><p><b>[Press the space bar to continue]</b></p></div>","32","","","","","","","",""
"","image","4","53413","0.0-4.0","""event"",""trial"",""time""
""fullscreenenter"",""0"",""1203""
""fullscreenexit"",""2"",""5327""
""blur"",""2"",""6610""
""focus"",""2"",""8004""
""blur"",""2"",""15263""
""focus"",""2"",""16092""
","""event"",""trial"",""time""
""blur"",""2"",""6610""
""blur"",""2"",""15263""
","""event"",""trial"",""time""
""focus"",""2"",""8004""
""focus"",""2"",""16092""
","""event"",""trial"",""time""
""fullscreenenter"",""0"",""1203""
","""event"",""trial"",""time""
""fullscreenexit"",""2"",""5327""
","1504.2000000178814","run_exp/static/images/Set 6_rs/036a.jpg","86","","","","","","learn","SL",""
"","show_choice","5","53916","0.0-5.0","""event"",""trial"",""time""
""fullscreenenter"",""0"",""1203""
""fullscreenexit"",""2"",""5327""
""blur"",""2"",""6610""
""focus"",""2"",""8004""
""blur"",""2"",""15263""
""focus"",""2"",""16092""
","""event"",""trial"",""time""
""blur"",""2"",""6610""
""blur"",""2"",""15263""
","""event"",""trial"",""time""
""focus"",""2"",""8004""
""focus"",""2"",""16092""
","""event"",""trial"",""time""
""fullscreenenter"",""0"",""1203""
","""event"",""trial"",""time""
""fullscreenexit"",""2"",""5327""
","null","run_exp/static/images/Set 6_rs/036a.jpg","null","","","","","","learn","SL",""
"","html-keyboard-response","6","54431","0.0-6.0","""event"",""trial"",""time""
""fullscreenenter"",""0"",""1203""
""fullscreenexit"",""2"",""5327""
""blur"",""2"",""6610""
""focus"",""2"",""8004""
""blur"",""2"",""15263""
""focus"",""2"",""16092""
","""event"",""trial"",""time""
""blur"",""2"",""6610""
""blur"",""2"",""15263""
","""event"",""trial"",""time""
""focus"",""2"",""8004""
""focus"",""2"",""16092""
","""event"",""trial"",""time""
""fullscreenenter"",""0"",""1203""
","""event"",""trial"",""time""
""fullscreenexit"",""2"",""5327""
","null","<p></p>","null","","","","","","","",""
"","image","7","55498","0.0-7.0","""event"",""trial"",""time""
""fullscreenenter"",""0"",""1203""
""fullscreenexit"",""2"",""5327""
""blur"",""2"",""6610""
""focus"",""2"",""8004""
""blur"",""2"",""15263""
""focus"",""2"",""16092""
","""event"",""trial"",""time""
""blur"",""2"",""6610""
""blur"",""2"",""15263""
","""event"",""trial"",""time""
""focus"",""2"",""8004""
""focus"",""2"",""16092""
","""event"",""trial"",""time""
""fullscreenenter"",""0"",""1203""
","""event"",""trial"",""time""
""fullscreenexit"",""2"",""5327""
","1064.699999988079","run_exp/static/images/Set 6_rs/152a.jpg","86","","","","","","learn","SR",""
"","show_choice","8","56436","0.0-8.0","""event"",""trial"",""time""
""fullscreenenter"",""0"",""1203""
""fullscreenexit"",""2"",""5327""
""blur"",""2"",""6610""
""focus"",""2"",""8004""
""blur"",""2"",""15263""
""focus"",""2"",""16092""
","""event"",""trial"",""time""
""blur"",""2"",""6610""
""blur"",""2"",""15263""
","""event"",""trial"",""time""
""focus"",""2"",""8004""
""focus"",""2"",""16092""
","""event"",""trial"",""time""
""fullscreenenter"",""0"",""1203""
","""event"",""trial"",""time""
""fullscreenexit"",""2"",""5327""
","null","run_exp/static/images/Set 6_rs/152a.jpg","null","","","","","","learn","SR",""
"","html-keyboard-response","9","56943","0.0-9.0","""event"",""trial"",""time""
""fullscreenenter"",""0"",""1203""
""fullscreenexit"",""2"",""5327""
""blur"",""2"",""6610""
""focus"",""2"",""8004""
""blur"",""2"",""15263""
""focus"",""2"",""16092""
","""event"",""trial"",""time""
""blur"",""2"",""6610""
""blur"",""2"",""15263""
","""event"",""trial"",""time""
""focus"",""2"",""8004""
""focus"",""2"",""16092""
","""event"",""trial"",""time""
""fullscreenenter"",""0"",""1203""
","""event"",""trial"",""time""
""fullscreenexit"",""2"",""5327""
","null","<p></p>","null","","","","","","","",""
"","image","10","58094","0.0-10.0","""event"",""trial"",""time""
""fullscreenenter"",""0"",""1203""
""fullscreenexit"",""2"",""5327""
""blur"",""2"",""6610""
""focus"",""2"",""8004""
""blur"",""2"",""15263""
""focus"",""2"",""16092""
","""event"",""trial"",""time""
""blur"",""2"",""6610""
""blur"",""2"",""15263""
","""event"",""trial"",""time""
""focus"",""2"",""8004""
""focus"",""2"",""16092""
","""event"",""trial"",""time""
""fullscreenenter"",""0"",""1203""
","""event"",""trial"",""time""
""fullscreenexit"",""2"",""5327""
","1137.8999999761581","run_exp/static/images/Set 6_rs/016a.jpg","86","","","","","","learn","SL",""
"","show_choice","11","58973","0.0-11.0","""event"",""trial"",""time""
""fullscreenenter"",""0"",""1203""
""fullscreenexit"",""2"",""5327""
""blur"",""2"",""6610""
""focus"",""2"",""8004""
""blur"",""2"",""15263""
""focus"",""2"",""16092""
","""event"",""trial"",""time""
""blur"",""2"",""6610""
""blur"",""2"",""15263""
","""event"",""trial"",""time""
""focus"",""2"",""8004""
""focus"",""2"",""16092""
","""event"",""trial"",""time""
""fullscreenenter"",""0"",""1203""
","""event"",""trial"",""time""
""fullscreenexit"",""2"",""5327""
","null","run_exp/static/images/Set 6_rs/016a.jpg","null","","","","","","learn","SL",""
"","html-keyboard-response","12","59475","0.0-12.0","""event"",""trial"",""time""
""fullscreenenter"",""0"",""1203""
""fullscreenexit"",""2"",""5327""
""blur"",""2"",""6610""
""focus"",""2"",""8004""
""blur"",""2"",""15263""
""focus"",""2"",""16092""
","""event"",""trial"",""time""
""blur"",""2"",""6610""
""blur"",""2"",""15263""
","""event"",""trial"",""time""
""focus"",""2"",""8004""
""focus"",""2"",""16092""
","""event"",""trial"",""time""
""fullscreenenter"",""0"",""1203""
","""event"",""trial"",""time""
""fullscreenexit"",""2"",""5327""
","null","<p></p>","null","","","","","","","",""
"","image","13","60817","0.0-13.0","""event"",""trial"",""time""
""fullscreenenter"",""0"",""1203""
""fullscreenexit"",""2"",""5327""
""blur"",""2"",""6610""
""focus"",""2"",""8004""
""blur"",""2"",""15263""
""focus"",""2"",""16092""
","""event"",""trial"",""time""
""blur"",""2"",""6610""
""blur"",""2"",""15263""
","""event"",""trial"",""time""
""focus"",""2"",""8004""
""focus"",""2"",""16092""
","""event"",""trial"",""time""
""fullscreenenter"",""0"",""1203""
","""event"",""trial"",""time""
""fullscreenexit"",""2"",""5327""
","1340.2999999821186","run_exp/static/images/Set 6_rs/123a.jpg","78","","","","","","learn","SL",""
"","show_choice","14","61490","0.0-14.0","""event"",""trial"",""time""
""fullscreenenter"",""0"",""1203""
""fullscreenexit"",""2"",""5327""
""blur"",""2"",""6610""
""focus"",""2"",""8004""
""blur"",""2"",""15263""
""focus"",""2"",""16092""
","""event"",""trial"",""time""
""blur"",""2"",""6610""
""blur"",""2"",""15263""
","""event"",""trial"",""time""
""focus"",""2"",""8004""
""focus"",""2"",""16092""
","""event"",""trial"",""time""
""fullscreenenter"",""0"",""1203""
","""event"",""trial"",""time""
""fullscreenexit"",""2"",""5327""
","null","run_exp/static/images/Set 6_rs/123a.jpg","null","","","","","","learn","SL",""
"","html-keyboard-response","15","61998","0.0-15.0","""event"",""trial"",""time""
""fullscreenenter"",""0"",""1203""
""fullscreenexit"",""2"",""5327""
""blur"",""2"",""6610""
""focus"",""2"",""8004""
""blur"",""2"",""15263""
""focus"",""2"",""16092""
","""event"",""trial"",""time""
""blur"",""2"",""6610""
""blur"",""2"",""15263""
","""event"",""trial"",""time""
""focus"",""2"",""8004""
""focus"",""2"",""16092""
","""event"",""trial"",""time""
""fullscreenenter"",""0"",""1203""
","""event"",""trial"",""time""
""fullscreenexit"",""2"",""5327""
","null","<p></p>","null","","","","","","","",""
"","image","16","63341","0.0-16.0","""event"",""trial"",""time""
""fullscreenenter"",""0"",""1203""
""fullscreenexit"",""2"",""5327""
""blur"",""2"",""6610""
""focus"",""2"",""8004""
""blur"",""2"",""15263""
""focus"",""2"",""16092""
","""event"",""trial"",""time""
""blur"",""2"",""6610""
""blur"",""2"",""15263""
","""event"",""trial"",""time""
""focus"",""2"",""8004""
""focus"",""2"",""16092""
","""event"",""trial"",""time""
""fullscreenenter"",""0"",""1203""
","""event"",""trial"",""time""
""fullscreenexit"",""2"",""5327""
","1340.699999988079","run_exp/static/images/Set 6_rs/150a.jpg","86","","","","","","learn","SR",""
"","show_choice","17","64012","0.0-17.0","""event"",""trial"",""time""
""fullscreenenter"",""0"",""1203""
""fullscreenexit"",""2"",""5327""
""blur"",""2"",""6610""
""focus"",""2"",""8004""
""blur"",""2"",""15263""
""focus"",""2"",""16092""
","""event"",""trial"",""time""
""blur"",""2"",""6610""
""blur"",""2"",""15263""
","""event"",""trial"",""time""
""focus"",""2"",""8004""
""focus"",""2"",""16092""
","""event"",""trial"",""time""
""fullscreenenter"",""0"",""1203""
","""event"",""trial"",""time""
""fullscreenexit"",""2"",""5327""
","null","run_exp/static/images/Set 6_rs/150a.jpg","null","","","","","","learn","SR",""
"","html-keyboard-response","18","64525","0.0-18.0","""event"",""trial"",""time""
""fullscreenenter"",""0"",""1203""
""fullscreenexit"",""2"",""5327""
""blur"",""2"",""6610""
""focus"",""2"",""8004""
""blur"",""2"",""15263""
""focus"",""2"",""16092""
","""event"",""trial"",""time""
""blur"",""2"",""6610""
""blur"",""2"",""15263""
","""event"",""trial"",""time""
""focus"",""2"",""8004""
""focus"",""2"",""16092""
","""event"",""trial"",""time""
""fullscreenenter"",""0"",""1203""
","""event"",""trial"",""time""
""fullscreenexit"",""2"",""5327""
","null","<p></p>","null","","","","","","","",""
"","image","19","65599","0.0-19.0","""event"",""trial"",""time""
""fullscreenenter"",""0"",""1203""
""fullscreenexit"",""2"",""5327""
""blur"",""2"",""6610""
""focus"",""2"",""8004""
""blur"",""2"",""15263""
""focus"",""2"",""16092""
","""event"",""trial"",""time""
""blur"",""2"",""6610""
""blur"",""2"",""15263""
","""event"",""trial"",""time""
""focus"",""2"",""8004""
""focus"",""2"",""16092""
","""event"",""trial"",""time""
""fullscreenenter"",""0"",""1203""
","""event"",""trial"",""time""
""fullscreenexit"",""2"",""5327""
","1071.800000011921","run_exp/static/images/Set 6_rs/091a.jpg","86","","","","","","learn","SL",""
"","show_choice","20","66537","0.0-20.0","""event"",""trial"",""time""
""fullscreenenter"",""0"",""1203""
""fullscreenexit"",""2"",""5327""
""blur"",""2"",""6610""
""focus"",""2"",""8004""
""blur"",""2"",""15263""
""focus"",""2"",""16092""
","""event"",""trial"",""time""
""blur"",""2"",""6610""
""blur"",""2"",""15263""
","""event"",""trial"",""time""
""focus"",""2"",""8004""
""focus"",""2"",""16092""
","""event"",""trial"",""time""
""fullscreenenter"",""0"",""1203""
","""event"",""trial"",""time""
""fullscreenexit"",""2"",""5327""
","null","run_exp/static/images/Set 6_rs/091a.jpg","null","","","","","","learn","SL",""
"","html-keyboard-response","21","67047","0.0-21.0","""event"",""trial"",""time""
""fullscreenenter"",""0"",""1203""
""fullscreenexit"",""2"",""5327""
""blur"",""2"",""6610""
""focus"",""2"",""8004""
""blur"",""2"",""15263""
""focus"",""2"",""16092""
","""event"",""trial"",""time""
""blur"",""2"",""6610""
""blur"",""2"",""15263""
","""event"",""trial"",""time""
""focus"",""2"",""8004""
""focus"",""2"",""16092""
","""event"",""trial"",""time""
""fullscreenenter"",""0"",""1203""
","""event"",""trial"",""time""
""fullscreenexit"",""2"",""5327""
","null","<p></p>","null","","","","","","","",""
"","image","22","69050","0.0-22.0","""event"",""trial"",""time""
""fullscreenenter"",""0"",""1203""
""fullscreenexit"",""2"",""5327""
""blur"",""2"",""6610""
""focus"",""2"",""8004""
""blur"",""2"",""15263""
""focus"",""2"",""16092""
","""event"",""trial"",""time""
""blur"",""2"",""6610""
""blur"",""2"",""15263""
","""event"",""trial"",""time""
""focus"",""2"",""8004""
""focus"",""2"",""16092""
","""event"",""trial"",""time""
""fullscreenenter"",""0"",""1203""
","""event"",""trial"",""time""
""fullscreenexit"",""2"",""5327""
","null","run_exp/static/images/Set 6_rs/117a.jpg","null","","","","","","learn","SL",""
"","show_choice","23","71056","0.0-23.0","""event"",""trial"",""time""
""fullscreenenter"",""0"",""1203""
""fullscreenexit"",""2"",""5327""
""blur"",""2"",""6610""
""focus"",""2"",""8004""
""blur"",""2"",""15263""
""focus"",""2"",""16092""
","""event"",""trial"",""time""
""blur"",""2"",""6610""
""blur"",""2"",""15263""
","""event"",""trial"",""time""
""focus"",""2"",""8004""
""focus"",""2"",""16092""
","""event"",""trial"",""time""
""fullscreenenter"",""0"",""1203""
","""event"",""trial"",""time""
""fullscreenexit"",""2"",""5327""
","null","run_exp/static/images/blank.png","null","","","","","","learn","SL",""
"","html-keyboard-response","24","71565","0.0-24.0","""event"",""trial"",""time""
""fullscreenenter"",""0"",""1203""
""fullscreenexit"",""2"",""5327""
""blur"",""2"",""6610""
""focus"",""2"",""8004""
""blur"",""2"",""15263""
""focus"",""2"",""16092""
","""event"",""trial"",""time""
""blur"",""2"",""6610""
""blur"",""2"",""15263""
","""event"",""trial"",""time""
""focus"",""2"",""8004""
""focus"",""2"",""16092""
","""event"",""trial"",""time""
""fullscreenenter"",""0"",""1203""
","""event"",""trial"",""time""
""fullscreenexit"",""2"",""5327""
","null","<p></p>","null","","","","","","","",""
"","image","25","72337","0.0-25.0","""event"",""trial"",""time""
""fullscreenenter"",""0"",""1203""
""fullscreenexit"",""2"",""5327""
""blur"",""2"",""6610""
""focus"",""2"",""8004""
""blur"",""2"",""15263""
""focus"",""2"",""16092""
","""event"",""trial"",""time""
""blur"",""2"",""6610""
""blur"",""2"",""15263""
","""event"",""trial"",""time""
""focus"",""2"",""8004""
""focus"",""2"",""16092""
","""event"",""trial"",""time""
""fullscreenenter"",""0"",""1203""
","""event"",""trial"",""time""
""fullscreenexit"",""2"",""5327""
","770.1999999880791","run_exp/static/images/Set 6_rs/141a.jpg","86","","","","","","learn","SR",""
"","show_choice","26","73575","0.0-26.0","""event"",""trial"",""time""
""fullscreenenter"",""0"",""1203""
""fullscreenexit"",""2"",""5327""
""blur"",""2"",""6610""
""focus"",""2"",""8004""
""blur"",""2"",""15263""
""focus"",""2"",""16092""
","""event"",""trial"",""time""
""blur"",""2"",""6610""
""blur"",""2"",""15263""
","""event"",""trial"",""time""
""focus"",""2"",""8004""
""focus"",""2"",""16092""
","""event"",""trial"",""time""
""fullscreenenter"",""0"",""1203""
","""event"",""trial"",""time""
""fullscreenexit"",""2"",""5327""
","null","run_exp/static/images/Set 6_rs/141a.jpg","null","","","","","","learn","SR",""
"","html-keyboard-response","27","74081","0.0-27.0","""event"",""trial"",""time""
""fullscreenenter"",""0"",""1203""
""fullscreenexit"",""2"",""5327""
""blur"",""2"",""6610""
""focus"",""2"",""8004""
""blur"",""2"",""15263""
""focus"",""2"",""16092""
","""event"",""trial"",""time""
""blur"",""2"",""6610""
""blur"",""2"",""15263""
","""event"",""trial"",""time""
""focus"",""2"",""8004""
""focus"",""2"",""16092""
","""event"",""trial"",""time""
""fullscreenenter"",""0"",""1203""
","""event"",""trial"",""time""
""fullscreenexit"",""2"",""5327""
","null","<p></p>","null","","","","","","","",""
"","image","28","75508","0.0-28.0","""event"",""trial"",""time""
""fullscreenenter"",""0"",""1203""
""fullscreenexit"",""2"",""5327""
""blur"",""2"",""6610""
""focus"",""2"",""8004""
""blur"",""2"",""15263""
""focus"",""2"",""16092""
","""event"",""trial"",""time""
""blur"",""2"",""6610""
""blur"",""2"",""15263""
","""event"",""trial"",""time""
""focus"",""2"",""8004""
""focus"",""2"",""16092""
","""event"",""trial"",""time""
""fullscreenenter"",""0"",""1203""
","""event"",""trial"",""time""
""fullscreenexit"",""2"",""5327""
","1425.0999999940395","run_exp/static/images/Set 6_rs/191a.jpg","86","","","","","","learn","SL",""
"","show_choice","29","76099","0.0-29.0","""event"",""trial"",""time""
""fullscreenenter"",""0"",""1203""
""fullscreenexit"",""2"",""5327""
""blur"",""2"",""6610""
""focus"",""2"",""8004""
""blur"",""2"",""15263""
""focus"",""2"",""16092""
","""event"",""trial"",""time""
""blur"",""2"",""6610""
""blur"",""2"",""15263""
","""event"",""trial"",""time""
""focus"",""2"",""8004""
""focus"",""2"",""16092""
","""event"",""trial"",""time""
""fullscreenenter"",""0"",""1203""
","""event"",""trial"",""time""
""fullscreenexit"",""2"",""5327""
","null","run_exp/static/images/Set 6_rs/191a.jpg","null","","","","","","learn","SL",""
"","html-keyboard-response","30","76607","0.0-30.0","""event"",""trial"",""time""
""fullscreenenter"",""0"",""1203""
""fullscreenexit"",""2"",""5327""
""blur"",""2"",""6610""
""focus"",""2"",""8004""
""blur"",""2"",""15263""
""focus"",""2"",""16092""
","""event"",""trial"",""time""
""blur"",""2"",""6610""
""blur"",""2"",""15263""
","""event"",""trial"",""time""
""focus"",""2"",""8004""
""focus"",""2"",""16092""
","""event"",""trial"",""time""
""fullscreenenter"",""0"",""1203""
","""event"",""trial"",""time""
""fullscreenexit"",""2"",""5327""
","null","<p></p>","null","","","","","","","",""
"","image","31","77890","0.0-31.0","""event"",""trial"",""time""
""fullscreenenter"",""0"",""1203""
""fullscreenexit"",""2"",""5327""
""blur"",""2"",""6610""
""focus"",""2"",""8004""
""blur"",""2"",""15263""
""focus"",""2"",""16092""
","""event"",""trial"",""time""
""blur"",""2"",""6610""
""blur"",""2"",""15263""
","""event"",""trial"",""time""
""focus"",""2"",""8004""
""focus"",""2"",""16092""
","""event"",""trial"",""time""
""fullscreenenter"",""0"",""1203""
","""event"",""trial"",""time""
""fullscreenexit"",""2"",""5327""
","1281.5","run_exp/static/images/Set 6_rs/108a.jpg","78","","","","","","learn","SR",""
"","show_choice","32","78617","0.0-32.0","""event"",""trial"",""time""
""fullscreenenter"",""0"",""1203""
""fullscreenexit"",""2"",""5327""
""blur"",""2"",""6610""
""focus"",""2"",""8004""
""blur"",""2"",""15263""
""focus"",""2"",""16092""
","""event"",""trial"",""time""
""blur"",""2"",""6610""
""blur"",""2"",""15263""
","""event"",""trial"",""time""
""focus"",""2"",""8004""
""focus"",""2"",""16092""
","""event"",""trial"",""time""
""fullscreenenter"",""0"",""1203""
","""event"",""trial"",""time""
""fullscreenexit"",""2"",""5327""
","null","run_exp/static/images/Set 6_rs/108a.jpg","null","","","","","","learn","SR",""
"","html-keyboard-response","33","79132","0.0-33.0","""event"",""trial"",""time""
""fullscreenenter"",""0"",""1203""
""fullscreenexit"",""2"",""5327""
""blur"",""2"",""6610""
""focus"",""2"",""8004""
""blur"",""2"",""15263""
""focus"",""2"",""16092""
","""event"",""trial"",""time""
""blur"",""2"",""6610""
""blur"",""2"",""15263""
","""event"",""trial"",""time""
""focus"",""2"",""8004""
""focus"",""2"",""16092""
","""event"",""trial"",""time""
""fullscreenenter"",""0"",""1203""
","""event"",""trial"",""time""
""fullscreenexit"",""2"",""5327""
","null","<p></p>","null","","","","","","","",""
"","image","34","80100","0.0-34.0","""event"",""trial"",""time""
""fullscreenenter"",""0"",""1203""
""fullscreenexit"",""2"",""5327""
""blur"",""2"",""6610""
""focus"",""2"",""8004""
""blur"",""2"",""15263""
""focus"",""2"",""16092""
","""event"",""trial"",""time""
""blur"",""2"",""6610""
""blur"",""2"",""15263""
","""event"",""trial"",""time""
""focus"",""2"",""8004""
""focus"",""2"",""16092""
","""event"",""trial"",""time""
""fullscreenenter"",""0"",""1203""
","""event"",""trial"",""time""
""fullscreenexit"",""2"",""5327""
","966.1999999880791","run_exp/static/images/Set 6_rs/111a.jpg","86","","","","","","learn","SL",""
"","show_choice","35","81143","0.0-35.0","""event"",""trial"",""time""
""fullscreenenter"",""0"",""1203""
""fullscreenexit"",""2"",""5327""
""blur"",""2"",""6610""
""focus"",""2"",""8004""
""blur"",""2"",""15263""
""focus"",""2"",""16092""
","""event"",""trial"",""time""
""blur"",""2"",""6610""
""blur"",""2"",""15263""
","""event"",""trial"",""time""
""focus"",""2"",""8004""
""focus"",""2"",""16092""
","""event"",""trial"",""time""
""fullscreenenter"",""0"",""1203""
","""event"",""trial"",""time""
""fullscreenexit"",""2"",""5327""
","null","run_exp/static/images/Set 6_rs/111a.jpg","null","","","","","","learn","SL",""
"","html-keyboard-response","36","81658","0.0-36.0","""event"",""trial"",""time""
""fullscreenenter"",""0"",""1203""
""fullscreenexit"",""2"",""5327""
""blur"",""2"",""6610""
""focus"",""2"",""8004""
""blur"",""2"",""15263""
""focus"",""2"",""16092""
","""event"",""trial"",""time""
""blur"",""2"",""6610""
""blur"",""2"",""15263""
","""event"",""trial"",""time""
""focus"",""2"",""8004""
""focus"",""2"",""16092""
","""event"",""trial"",""time""
""fullscreenenter"",""0"",""1203""
","""event"",""trial"",""time""
""fullscreenexit"",""2"",""5327""
","null","<p></p>","null","","","","","","","",""
"","image","37","82879","0.0-37.0","""event"",""trial"",""time""
""fullscreenenter"",""0"",""1203""
""fullscreenexit"",""2"",""5327""
""blur"",""2"",""6610""
""focus"",""2"",""8004""
""blur"",""2"",""15263""
""focus"",""2"",""16092""
","""event"",""trial"",""time""
""blur"",""2"",""6610""
""blur"",""2"",""15263""
","""event"",""trial"",""time""
""focus"",""2"",""8004""
""focus"",""2"",""16092""
","""event"",""trial"",""time""
""fullscreenenter"",""0"",""1203""
","""event"",""trial"",""time""
""fullscreenexit"",""2"",""5327""
","1219.800000011921","run_exp/static/images/Set 6_rs/134a.jpg","86","","","","","","learn","SR",""
"","show_choice","38","83662","0.0-38.0","""event"",""trial"",""time""
""fullscreenenter"",""0"",""1203""
""fullscreenexit"",""2"",""5327""
""blur"",""2"",""6610""
""focus"",""2"",""8004""
""blur"",""2"",""15263""
""focus"",""2"",""16092""
","""event"",""trial"",""time""
""blur"",""2"",""6610""
""blur"",""2"",""15263""
","""event"",""trial"",""time""
""focus"",""2"",""8004""
""focus"",""2"",""16092""
","""event"",""trial"",""time""
""fullscreenenter"",""0"",""1203""
","""event"",""trial"",""time""
""fullscreenexit"",""2"",""5327""
","null","run_exp/static/images/Set 6_rs/134a.jpg","null","","","","","","learn","SR",""
"","html-keyboard-response","39","84168","0.0-39.0","""event"",""trial"",""time""
""fullscreenenter"",""0"",""1203""
""fullscreenexit"",""2"",""5327""
""blur"",""2"",""6610""
""focus"",""2"",""8004""
""blur"",""2"",""15263""
""focus"",""2"",""16092""
","""event"",""trial"",""time""
""blur"",""2"",""6610""
""blur"",""2"",""15263""
","""event"",""trial"",""time""
""focus"",""2"",""8004""
""focus"",""2"",""16092""
","""event"",""trial"",""time""
""fullscreenenter"",""0"",""1203""
","""event"",""trial"",""time""
""fullscreenexit"",""2"",""5327""
","null","<p></p>","null","","","","","","","",""
"","image","40","85242","0.0-40.0","""event"",""trial"",""time""
""fullscreenenter"",""0"",""1203""
""fullscreenexit"",""2"",""5327""
""blur"",""2"",""6610""
""focus"",""2"",""8004""
""blur"",""2"",""15263""
""focus"",""2"",""16092""
","""event"",""trial"",""time""
""blur"",""2"",""6610""
""blur"",""2"",""15263""
","""event"",""trial"",""time""
""focus"",""2"",""8004""
""focus"",""2"",""16092""
","""event"",""trial"",""time""
""fullscreenenter"",""0"",""1203""
","""event"",""trial"",""time""
""fullscreenexit"",""2"",""5327""
","1073.300000011921","run_exp/static/images/Set 6_rs/085a.jpg","86","","","","","","learn","SL",""
"","show_choice","41","86178","0.0-41.0","""event"",""trial"",""time""
""fullscreenenter"",""0"",""1203""
""fullscreenexit"",""2"",""5327""
""blur"",""2"",""6610""
""focus"",""2"",""8004""
""blur"",""2"",""15263""
""focus"",""2"",""16092""
","""event"",""trial"",""time""
""blur"",""2"",""6610""
""blur"",""2"",""15263""
","""event"",""trial"",""time""
""focus"",""2"",""8004""
""focus"",""2"",""16092""
","""event"",""trial"",""time""
""fullscreenenter"",""0"",""1203""
","""event"",""trial"",""time""
""fullscreenexit"",""2"",""5327""
","null","run_exp/static/images/Set 6_rs/085a.jpg","null","","","","","","learn","SL",""
"","html-keyboard-response","42","86693","0.0-42.0","""event"",""trial"",""time""
""fullscreenenter"",""0"",""1203""
""fullscreenexit"",""2"",""5327""
""blur"",""2"",""6610""
""focus"",""2"",""8004""
""blur"",""2"",""15263""
""focus"",""2"",""16092""
","""event"",""trial"",""time""
""blur"",""2"",""6610""
""blur"",""2"",""15263""
","""event"",""trial"",""time""
""focus"",""2"",""8004""
""focus"",""2"",""16092""
","""event"",""trial"",""time""
""fullscreenenter"",""0"",""1203""
","""event"",""trial"",""time""
""fullscreenexit"",""2"",""5327""
","null","<p></p>","null","","","","","","","",""
"","image","43","87515","0.0-43.0","""event"",""trial"",""time""
""fullscreenenter"",""0"",""1203""
""fullscreenexit"",""2"",""5327""
""blur"",""2"",""6610""
""focus"",""2"",""8004""
""blur"",""2"",""15263""
""focus"",""2"",""16092""
","""event"",""trial"",""time""
""blur"",""2"",""6610""
""blur"",""2"",""15263""
","""event"",""trial"",""time""
""focus"",""2"",""8004""
""focus"",""2"",""16092""
","""event"",""trial"",""time""
""fullscreenenter"",""0"",""1203""
","""event"",""trial"",""time""
""fullscreenexit"",""2"",""5327""
","819.8000000119209","run_exp/static/images/Set 6_rs/186a.jpg","86","","","","","","learn","SR",""
"","show_choice","44","88702","0.0-44.0","""event"",""trial"",""time""
""fullscreenenter"",""0"",""1203""
""fullscreenexit"",""2"",""5327""
""blur"",""2"",""6610""
""focus"",""2"",""8004""
""blur"",""2"",""15263""
""focus"",""2"",""16092""
","""event"",""trial"",""time""
""blur"",""2"",""6610""
""blur"",""2"",""15263""
","""event"",""trial"",""time""
""focus"",""2"",""8004""
""focus"",""2"",""16092""
","""event"",""trial"",""time""
""fullscreenenter"",""0"",""1203""
","""event"",""trial"",""time""
""fullscreenexit"",""2"",""5327""
","null","run_exp/static/images/Set 6_rs/186a.jpg","null","","","","","","learn","SR",""
"","html-keyboard-response","45","89217","0.0-45.0","""event"",""trial"",""time""
""fullscreenenter"",""0"",""1203""
""fullscreenexit"",""2"",""5327""
""blur"",""2"",""6610""
""focus"",""2"",""8004""
""blur"",""2"",""15263""
""focus"",""2"",""16092""
","""event"",""trial"",""time""
""blur"",""2"",""6610""
""blur"",""2"",""15263""
","""event"",""trial"",""time""
""focus"",""2"",""8004""
""focus"",""2"",""16092""
","""event"",""trial"",""time""
""fullscreenenter"",""0"",""1203""
","""event"",""trial"",""time""
""fullscreenexit"",""2"",""5327""
","null","<p></p>","null","","","","","","","",""
"","image","46","90274","0.0-46.0","""event"",""trial"",""time""
""fullscreenenter"",""0"",""1203""
""fullscreenexit"",""2"",""5327""
""blur"",""2"",""6610""
""focus"",""2"",""8004""
""blur"",""2"",""15263""
""focus"",""2"",""16092""
","""event"",""trial"",""time""
""blur"",""2"",""6610""
""blur"",""2"",""15263""
","""event"",""trial"",""time""
""focus"",""2"",""8004""
""focus"",""2"",""16092""
","""event"",""trial"",""time""
""fullscreenenter"",""0"",""1203""
","""event"",""trial"",""time""
""fullscreenexit"",""2"",""5327""
","1055.4000000059605","run_exp/static/images/Set 6_rs/089a.jpg","86","","","","","","learn","SL",""
"","show_choice","47","91231","0.0-47.0","""event"",""trial"",""time""
""fullscreenenter"",""0"",""1203""
""fullscreenexit"",""2"",""5327""
""blur"",""2"",""6610""
""focus"",""2"",""8004""
""blur"",""2"",""15263""
""focus"",""2"",""16092""
","""event"",""trial"",""time""
""blur"",""2"",""6610""
""blur"",""2"",""15263""
","""event"",""trial"",""time""
""focus"",""2"",""8004""
""focus"",""2"",""16092""
","""event"",""trial"",""time""
""fullscreenenter"",""0"",""1203""
","""event"",""trial"",""time""
""fullscreenexit"",""2"",""5327""
","null","run_exp/static/images/Set 6_rs/089a.jpg","null","","","","","","learn","SL",""
"","html-keyboard-response","48","91744","0.0-48.0","""event"",""trial"",""time""
""fullscreenenter"",""0"",""1203""
""fullscreenexit"",""2"",""5327""
""blur"",""2"",""6610""
""focus"",""2"",""8004""
""blur"",""2"",""15263""
""focus"",""2"",""16092""
","""event"",""trial"",""time""
""blur"",""2"",""6610""
""blur"",""2"",""15263""
","""event"",""trial"",""time""
""focus"",""2"",""8004""
""focus"",""2"",""16092""
","""event"",""trial"",""time""
""fullscreenenter"",""0"",""1203""
","""event"",""trial"",""time""
""fullscreenexit"",""2"",""5327""
","null","<p></p>","null","","","","","","","",""
"","image","49","92535","0.0-49.0","""event"",""trial"",""time""
""fullscreenenter"",""0"",""1203""
""fullscreenexit"",""2"",""5327""
""blur"",""2"",""6610""
""focus"",""2"",""8004""
""blur"",""2"",""15263""
""focus"",""2"",""16092""
","""event"",""trial"",""time""
""blur"",""2"",""6610""
""blur"",""2"",""15263""
","""event"",""trial"",""time""
""focus"",""2"",""8004""
""focus"",""2"",""16092""
","""event"",""trial"",""time""
""fullscreenenter"",""0"",""1203""
","""event"",""trial"",""time""
""fullscreenexit"",""2"",""5327""
","799.5999999940395","run_exp/static/images/Set 6_rs/126a.jpg","78","","","","","","learn","SR",""
"","show_choice","50","93743","0.0-50.0","""event"",""trial"",""time""
""fullscreenenter"",""0"",""1203""
""fullscreenexit"",""2"",""5327""
""blur"",""2"",""6610""
""focus"",""2"",""8004""
""blur"",""2"",""15263""
""focus"",""2"",""16092""
","""event"",""trial"",""time""
""blur"",""2"",""6610""
""blur"",""2"",""15263""
","""event"",""trial"",""time""
""focus"",""2"",""8004""
""focus"",""2"",""16092""
","""event"",""trial"",""time""
""fullscreenenter"",""0"",""1203""
","""event"",""trial"",""time""
""fullscreenexit"",""2"",""5327""
","null","run_exp/static/images/Set 6_rs/126a.jpg","null","","","","","","learn","SR",""
"","html-keyboard-response","51","94250","0.0-51.0","""event"",""trial"",""time""
""fullscreenenter"",""0"",""1203""
""fullscreenexit"",""2"",""5327""
""blur"",""2"",""6610""
""focus"",""2"",""8004""
""blur"",""2"",""15263""
""focus"",""2"",""16092""
","""event"",""trial"",""time""
""blur"",""2"",""6610""
""blur"",""2"",""15263""
","""event"",""trial"",""time""
""focus"",""2"",""8004""
""focus"",""2"",""16092""
","""event"",""trial"",""time""
""fullscreenenter"",""0"",""1203""
","""event"",""trial"",""time""
""fullscreenexit"",""2"",""5327""
","null","<p></p>","null","","","","","","","",""
"","image","52","94916","0.0-52.0","""event"",""trial"",""time""
""fullscreenenter"",""0"",""1203""
""fullscreenexit"",""2"",""5327""
""blur"",""2"",""6610""
""focus"",""2"",""8004""
""blur"",""2"",""15263""
""focus"",""2"",""16092""
","""event"",""trial"",""time""
""blur"",""2"",""6610""
""blur"",""2"",""15263""
","""event"",""trial"",""time""
""focus"",""2"",""8004""
""focus"",""2"",""16092""
","""event"",""trial"",""time""
""fullscreenenter"",""0"",""1203""
","""event"",""trial"",""time""
""fullscreenexit"",""2"",""5327""
","664.2000000178814","run_exp/static/images/Set 6_rs/177a.jpg","78","","","","","","learn","SR",""
"","show_choice","53","96258","0.0-53.0","""event"",""trial"",""time""
""fullscreenenter"",""0"",""1203""
""fullscreenexit"",""2"",""5327""
""blur"",""2"",""6610""
""focus"",""2"",""8004""
""blur"",""2"",""15263""
""focus"",""2"",""16092""
","""event"",""trial"",""time""
""blur"",""2"",""6610""
""blur"",""2"",""15263""
","""event"",""trial"",""time""
""focus"",""2"",""8004""
""focus"",""2"",""16092""
","""event"",""trial"",""time""
""fullscreenenter"",""0"",""1203""
","""event"",""trial"",""time""
""fullscreenexit"",""2"",""5327""
","null","run_exp/static/images/Set 6_rs/177a.jpg","null","","","","","","learn","SR",""
"","html-keyboard-response","54","96762","0.0-54.0","""event"",""trial"",""time""
""fullscreenenter"",""0"",""1203""
""fullscreenexit"",""2"",""5327""
""blur"",""2"",""6610""
""focus"",""2"",""8004""
""blur"",""2"",""15263""
""focus"",""2"",""16092""
","""event"",""trial"",""time""
""blur"",""2"",""6610""
""blur"",""2"",""15263""
","""event"",""trial"",""time""
""focus"",""2"",""8004""
""focus"",""2"",""16092""
","""event"",""trial"",""time""
""fullscreenenter"",""0"",""1203""
","""event"",""trial"",""time""
""fullscreenexit"",""2"",""5327""
","null","<p></p>","null","","","","","","","",""
"","image","55","97958","0.0-55.0","""event"",""trial"",""time""
""fullscreenenter"",""0"",""1203""
""fullscreenexit"",""2"",""5327""
""blur"",""2"",""6610""
""focus"",""2"",""8004""
""blur"",""2"",""15263""
""focus"",""2"",""16092""
","""event"",""trial"",""time""
""blur"",""2"",""6610""
""blur"",""2"",""15263""
","""event"",""trial"",""time""
""focus"",""2"",""8004""
""focus"",""2"",""16092""
","""event"",""trial"",""time""
""fullscreenenter"",""0"",""1203""
","""event"",""trial"",""time""
""fullscreenexit"",""2"",""5327""
","1194.9000000059605","run_exp/static/images/Set 6_rs/129a.jpg","86","","","","","","learn","SL",""
"","show_choice","56","98767","0.0-56.0","""event"",""trial"",""time""
""fullscreenenter"",""0"",""1203""
""fullscreenexit"",""2"",""5327""
""blur"",""2"",""6610""
""focus"",""2"",""8004""
""blur"",""2"",""15263""
""focus"",""2"",""16092""
","""event"",""trial"",""time""
""blur"",""2"",""6610""
""blur"",""2"",""15263""
","""event"",""trial"",""time""
""focus"",""2"",""8004""
""focus"",""2"",""16092""
","""event"",""trial"",""time""
""fullscreenenter"",""0"",""1203""
","""event"",""trial"",""time""
""fullscreenexit"",""2"",""5327""
","null","run_exp/static/images/Set 6_rs/129a.jpg","null","","","","","","learn","SL",""
"","html-keyboard-response","57","99273","0.0-57.0","""event"",""trial"",""time""
""fullscreenenter"",""0"",""1203""
""fullscreenexit"",""2"",""5327""
""blur"",""2"",""6610""
""focus"",""2"",""8004""
""blur"",""2"",""15263""
""focus"",""2"",""16092""
","""event"",""trial"",""time""
""blur"",""2"",""6610""
""blur"",""2"",""15263""
","""event"",""trial"",""time""
""focus"",""2"",""8004""
""focus"",""2"",""16092""
","""event"",""trial"",""time""
""fullscreenenter"",""0"",""1203""
","""event"",""trial"",""time""
""fullscreenexit"",""2"",""5327""
","null","<p></p>","null","","","","","","","",""
"","image","58","100732","0.0-58.0","""event"",""trial"",""time""
""fullscreenenter"",""0"",""1203""
""fullscreenexit"",""2"",""5327""
""blur"",""2"",""6610""
""focus"",""2"",""8004""
""blur"",""2"",""15263""
""focus"",""2"",""16092""
","""event"",""trial"",""time""
""blur"",""2"",""6610""
""blur"",""2"",""15263""
","""event"",""trial"",""time""
""focus"",""2"",""8004""
""focus"",""2"",""16092""
","""event"",""trial"",""time""
""fullscreenenter"",""0"",""1203""
","""event"",""trial"",""time""
""fullscreenexit"",""2"",""5327""
","1457.1000000238419","run_exp/static/images/Set 6_rs/122a.jpg","86","","","","","","learn","SR",""
"","show_choice","59","101279","0.0-59.0","""event"",""trial"",""time""
""fullscreenenter"",""0"",""1203""
""fullscreenexit"",""2"",""5327""
""blur"",""2"",""6610""
""focus"",""2"",""8004""
""blur"",""2"",""15263""
""focus"",""2"",""16092""
","""event"",""trial"",""time""
""blur"",""2"",""6610""
""blur"",""2"",""15263""
","""event"",""trial"",""time""
""focus"",""2"",""8004""
""focus"",""2"",""16092""
","""event"",""trial"",""time""
""fullscreenenter"",""0"",""1203""
","""event"",""trial"",""time""
""fullscreenexit"",""2"",""5327""
","null","run_exp/static/images/Set 6_rs/122a.jpg","null","","","","","","learn","SR",""
"","html-keyboard-response","60","101788","0.0-60.0","""event"",""trial"",""time""
""fullscreenenter"",""0"",""1203""
""fullscreenexit"",""2"",""5327""
""blur"",""2"",""6610""
""focus"",""2"",""8004""
""blur"",""2"",""15263""
""focus"",""2"",""16092""
","""event"",""trial"",""time""
""blur"",""2"",""6610""
""blur"",""2"",""15263""
","""event"",""trial"",""time""
""focus"",""2"",""8004""
""focus"",""2"",""16092""
","""event"",""trial"",""time""
""fullscreenenter"",""0"",""1203""
","""event"",""trial"",""time""
""fullscreenexit"",""2"",""5327""
","null","<p></p>","null","","","","","","","",""
"","image","61","103035","0.0-61.0","""event"",""trial"",""time""
""fullscreenenter"",""0"",""1203""
""fullscreenexit"",""2"",""5327""
""blur"",""2"",""6610""
""focus"",""2"",""8004""
""blur"",""2"",""15263""
""focus"",""2"",""16092""
","""event"",""trial"",""time""
""blur"",""2"",""6610""
""blur"",""2"",""15263""
","""event"",""trial"",""time""
""focus"",""2"",""8004""
""focus"",""2"",""16092""
","""event"",""trial"",""time""
""fullscreenenter"",""0"",""1203""
","""event"",""trial"",""time""
""fullscreenexit"",""2"",""5327""
","1245.300000011921","run_exp/static/images/Set 6_rs/131a.jpg","78","","","","","","learn","SR",""
"","show_choice","62","103801","0.0-62.0","""event"",""trial"",""time""
""fullscreenenter"",""0"",""1203""
""fullscreenexit"",""2"",""5327""
""blur"",""2"",""6610""
""focus"",""2"",""8004""
""blur"",""2"",""15263""
""focus"",""2"",""16092""
","""event"",""trial"",""time""
""blur"",""2"",""6610""
""blur"",""2"",""15263""
","""event"",""trial"",""time""
""focus"",""2"",""8004""
""focus"",""2"",""16092""
","""event"",""trial"",""time""
""fullscreenenter"",""0"",""1203""
","""event"",""trial"",""time""
""fullscreenexit"",""2"",""5327""
","null","run_exp/static/images/Set 6_rs/131a.jpg","null","","","","","","learn","SR",""
"","html-keyboard-response","63","104312","0.0-63.0","""event"",""trial"",""time""
""fullscreenenter"",""0"",""1203""
""fullscreenexit"",""2"",""5327""
""blur"",""2"",""6610""
""focus"",""2"",""8004""
""blur"",""2"",""15263""
""focus"",""2"",""16092""
","""event"",""trial"",""time""
""blur"",""2"",""6610""
""blur"",""2"",""15263""
","""event"",""trial"",""time""
""focus"",""2"",""8004""
""focus"",""2"",""16092""
","""event"",""trial"",""time""
""fullscreenenter"",""0"",""1203""
","""event"",""trial"",""time""
""fullscreenexit"",""2"",""5327""
","null","<p></p>","null","","","","","","","",""
"","image","64","105438","0.0-64.0","""event"",""trial"",""time""
""fullscreenenter"",""0"",""1203""
""fullscreenexit"",""2"",""5327""
""blur"",""2"",""6610""
""focus"",""2"",""8004""
""blur"",""2"",""15263""
""focus"",""2"",""16092""
","""event"",""trial"",""time""
""blur"",""2"",""6610""
""blur"",""2"",""15263""
","""event"",""trial"",""time""
""focus"",""2"",""8004""
""focus"",""2"",""16092""
","""event"",""trial"",""time""
""fullscreenenter"",""0"",""1203""
","""event"",""trial"",""time""
""fullscreenexit"",""2"",""5327""
","1124.2000000178814","run_exp/static/images/Set 6_rs/064a.jpg","86","","","","","","learn","SR",""
"","show_choice","65","106322","0.0-65.0","""event"",""trial"",""time""
""fullscreenenter"",""0"",""1203""
""fullscreenexit"",""2"",""5327""
""blur"",""2"",""6610""
""focus"",""2"",""8004""
""blur"",""2"",""15263""
""focus"",""2"",""16092""
","""event"",""trial"",""time""
""blur"",""2"",""6610""
""blur"",""2"",""15263""
","""event"",""trial"",""time""
""focus"",""2"",""8004""
""focus"",""2"",""16092""
","""event"",""trial"",""time""
""fullscreenenter"",""0"",""1203""
","""event"",""trial"",""time""
""fullscreenexit"",""2"",""5327""
","null","run_exp/static/images/Set 6_rs/064a.jpg","null","","","","","","learn","SR",""
"","html-keyboard-response","66","106828","0.0-66.0","""event"",""trial"",""time""
""fullscreenenter"",""0"",""1203""
""fullscreenexit"",""2"",""5327""
""blur"",""2"",""6610""
""focus"",""2"",""8004""
""blur"",""2"",""15263""
""focus"",""2"",""16092""
","""event"",""trial"",""time""
""blur"",""2"",""6610""
""blur"",""2"",""15263""
","""event"",""trial"",""time""
""focus"",""2"",""8004""
""focus"",""2"",""16092""
","""event"",""trial"",""time""
""fullscreenenter"",""0"",""1203""
","""event"",""trial"",""time""
""fullscreenexit"",""2"",""5327""
","null","<p></p>","null","","","","","","","",""
"","image","67","108012","0.0-67.0","""event"",""trial"",""time""
""fullscreenenter"",""0"",""1203""
""fullscreenexit"",""2"",""5327""
""blur"",""2"",""6610""
""focus"",""2"",""8004""
""blur"",""2"",""15263""
""focus"",""2"",""16092""
","""event"",""trial"",""time""
""blur"",""2"",""6610""
""blur"",""2"",""15263""
","""event"",""trial"",""time""
""focus"",""2"",""8004""
""focus"",""2"",""16092""
","""event"",""trial"",""time""
""fullscreenenter"",""0"",""1203""
","""event"",""trial"",""time""
""fullscreenexit"",""2"",""5327""
","1183.199999988079","run_exp/static/images/Set 6_rs/178a.jpg","78","","","","","","learn","SR",""
"","show_choice","68","108842","0.0-68.0","""event"",""trial"",""time""
""fullscreenenter"",""0"",""1203""
""fullscreenexit"",""2"",""5327""
""blur"",""2"",""6610""
""focus"",""2"",""8004""
""blur"",""2"",""15263""
""focus"",""2"",""16092""
","""event"",""trial"",""time""
""blur"",""2"",""6610""
""blur"",""2"",""15263""
","""event"",""trial"",""time""
""focus"",""2"",""8004""
""focus"",""2"",""16092""
","""event"",""trial"",""time""
""fullscreenenter"",""0"",""1203""
","""event"",""trial"",""time""
""fullscreenexit"",""2"",""5327""
","null","run_exp/static/images/Set 6_rs/178a.jpg","null","","","","","","learn","SR",""
"","html-keyboard-response","69","109346","0.0-69.0","""event"",""trial"",""time""
""fullscreenenter"",""0"",""1203""
""fullscreenexit"",""2"",""5327""
""blur"",""2"",""6610""
""focus"",""2"",""8004""
""blur"",""2"",""15263""
""focus"",""2"",""16092""
","""event"",""trial"",""time""
""blur"",""2"",""6610""
""blur"",""2"",""15263""
","""event"",""trial"",""time""
""focus"",""2"",""8004""
""focus"",""2"",""16092""
","""event"",""trial"",""time""
""fullscreenenter"",""0"",""1203""
","""event"",""trial"",""time""
""fullscreenexit"",""2"",""5327""
","null","<p></p>","null","","","","","","","",""
"","image","70","110147","0.0-70.0","""event"",""trial"",""time""
""fullscreenenter"",""0"",""1203""
""fullscreenexit"",""2"",""5327""
""blur"",""2"",""6610""
""focus"",""2"",""8004""
""blur"",""2"",""15263""
""focus"",""2"",""16092""
","""event"",""trial"",""time""
""blur"",""2"",""6610""
""blur"",""2"",""15263""
","""event"",""trial"",""time""
""focus"",""2"",""8004""
""focus"",""2"",""16092""
","""event"",""trial"",""time""
""fullscreenenter"",""0"",""1203""
","""event"",""trial"",""time""
""fullscreenexit"",""2"",""5327""
","799.4000000059605","run_exp/static/images/Set 6_rs/007a.jpg","86","","","","","","learn","SR",""
"","show_choice","71","111355","0.0-71.0","""event"",""trial"",""time""
""fullscreenenter"",""0"",""1203""
""fullscreenexit"",""2"",""5327""
""blur"",""2"",""6610""
""focus"",""2"",""8004""
""blur"",""2"",""15263""
""focus"",""2"",""16092""
","""event"",""trial"",""time""
""blur"",""2"",""6610""
""blur"",""2"",""15263""
","""event"",""trial"",""time""
""focus"",""2"",""8004""
""focus"",""2"",""16092""
","""event"",""trial"",""time""
""fullscreenenter"",""0"",""1203""
","""event"",""trial"",""time""
""fullscreenexit"",""2"",""5327""
","null","run_exp/static/images/Set 6_rs/007a.jpg","null","","","","","","learn","SR",""
"","html-keyboard-response","72","111867","0.0-72.0","""event"",""trial"",""time""
""fullscreenenter"",""0"",""1203""
""fullscreenexit"",""2"",""5327""
""blur"",""2"",""6610""
""focus"",""2"",""8004""
""blur"",""2"",""15263""
""focus"",""2"",""16092""
","""event"",""trial"",""time""
""blur"",""2"",""6610""
""blur"",""2"",""15263""
","""event"",""trial"",""time""
""focus"",""2"",""8004""
""focus"",""2"",""16092""
","""event"",""trial"",""time""
""fullscreenenter"",""0"",""1203""
","""event"",""trial"",""time""
""fullscreenexit"",""2"",""5327""
","null","<p></p>","null","","","","","","","",""
"","image","73","112796","0.0-73.0","""event"",""trial"",""time""
""fullscreenenter"",""0"",""1203""
""fullscreenexit"",""2"",""5327""
""blur"",""2"",""6610""
""focus"",""2"",""8004""
""blur"",""2"",""15263""
""focus"",""2"",""16092""
","""event"",""trial"",""time""
""blur"",""2"",""6610""
""blur"",""2"",""15263""
","""event"",""trial"",""time""
""focus"",""2"",""8004""
""focus"",""2"",""16092""
","""event"",""trial"",""time""
""fullscreenenter"",""0"",""1203""
","""event"",""trial"",""time""
""fullscreenexit"",""2"",""5327""
","927.7000000178814","run_exp/static/images/Set 6_rs/023a.jpg","86","","","","","","learn","SR",""
"","show_choice","74","113877","0.0-74.0","""event"",""trial"",""time""
""fullscreenenter"",""0"",""1203""
""fullscreenexit"",""2"",""5327""
""blur"",""2"",""6610""
""focus"",""2"",""8004""
""blur"",""2"",""15263""
""focus"",""2"",""16092""
","""event"",""trial"",""time""
""blur"",""2"",""6610""
""blur"",""2"",""15263""
","""event"",""trial"",""time""
""focus"",""2"",""8004""
""focus"",""2"",""16092""
","""event"",""trial"",""time""
""fullscreenenter"",""0"",""1203""
","""event"",""trial"",""time""
""fullscreenexit"",""2"",""5327""
","null","run_exp/static/images/Set 6_rs/023a.jpg","null","","","","","","learn","SR",""
"","html-keyboard-response","75","114385","0.0-75.0","""event"",""trial"",""time""
""fullscreenenter"",""0"",""1203""
""fullscreenexit"",""2"",""5327""
""blur"",""2"",""6610""
""focus"",""2"",""8004""
""blur"",""2"",""15263""
""focus"",""2"",""16092""
","""event"",""trial"",""time""
""blur"",""2"",""6610""
""blur"",""2"",""15263""
","""event"",""trial"",""time""
""focus"",""2"",""8004""
""focus"",""2"",""16092""
","""event"",""trial"",""time""
""fullscreenenter"",""0"",""1203""
","""event"",""trial"",""time""
""fullscreenexit"",""2"",""5327""
","null","<p></p>","null","","","","","","","",""
"","image","76","115578","0.0-76.0","""event"",""trial"",""time""
""fullscreenenter"",""0"",""1203""
""fullscreenexit"",""2"",""5327""
""blur"",""2"",""6610""
""focus"",""2"",""8004""
""blur"",""2"",""15263""
""focus"",""2"",""16092""
","""event"",""trial"",""time""
""blur"",""2"",""6610""
""blur"",""2"",""15263""
","""event"",""trial"",""time""
""focus"",""2"",""8004""
""focus"",""2"",""16092""
","""event"",""trial"",""time""
""fullscreenenter"",""0"",""1203""
","""event"",""trial"",""time""
""fullscreenexit"",""2"",""5327""
","1191.800000011921","run_exp/static/images/Set 6_rs/050a.jpg","78","","","","","","learn","SL",""
"","show_choice","77","116391","0.0-77.0","""event"",""trial"",""time""
""fullscreenenter"",""0"",""1203""
""fullscreenexit"",""2"",""5327""
""blur"",""2"",""6610""
""focus"",""2"",""8004""
""blur"",""2"",""15263""
""focus"",""2"",""16092""
","""event"",""trial"",""time""
""blur"",""2"",""6610""
""blur"",""2"",""15263""
","""event"",""trial"",""time""
""focus"",""2"",""8004""
""focus"",""2"",""16092""
","""event"",""trial"",""time""
""fullscreenenter"",""0"",""1203""
","""event"",""trial"",""time""
""fullscreenexit"",""2"",""5327""
","null","run_exp/static/images/Set 6_rs/050a.jpg","null","","","","","","learn","SL",""
"","html-keyboard-response","78","116899","0.0-78.0","""event"",""trial"",""time""
""fullscreenenter"",""0"",""1203""
""fullscreenexit"",""2"",""5327""
""blur"",""2"",""6610""
""focus"",""2"",""8004""
""blur"",""2"",""15263""
""focus"",""2"",""16092""
","""event"",""trial"",""time""
""blur"",""2"",""6610""
""blur"",""2"",""15263""
","""event"",""trial"",""time""
""focus"",""2"",""8004""
""focus"",""2"",""16092""
","""event"",""trial"",""time""
""fullscreenenter"",""0"",""1203""
","""event"",""trial"",""time""
""fullscreenexit"",""2"",""5327""
","null","<p></p>","null","","","","","","","",""
"","image","79","117932","0.0-79.0","""event"",""trial"",""time""
""fullscreenenter"",""0"",""1203""
""fullscreenexit"",""2"",""5327""
""blur"",""2"",""6610""
""focus"",""2"",""8004""
""blur"",""2"",""15263""
""focus"",""2"",""16092""
","""event"",""trial"",""time""
""blur"",""2"",""6610""
""blur"",""2"",""15263""
","""event"",""trial"",""time""
""focus"",""2"",""8004""
""focus"",""2"",""16092""
","""event"",""trial"",""time""
""fullscreenenter"",""0"",""1203""
","""event"",""trial"",""time""
""fullscreenexit"",""2"",""5327""
","1030.800000011921","run_exp/static/images/Set 6_rs/079a.jpg","86","","","","","","learn","SL",""
"","show_choice","80","118915","0.0-80.0","""event"",""trial"",""time""
""fullscreenenter"",""0"",""1203""
""fullscreenexit"",""2"",""5327""
""blur"",""2"",""6610""
""focus"",""2"",""8004""
""blur"",""2"",""15263""
""focus"",""2"",""16092""
","""event"",""trial"",""time""
""blur"",""2"",""6610""
""blur"",""2"",""15263""
","""event"",""trial"",""time""
""focus"",""2"",""8004""
""focus"",""2"",""16092""
","""event"",""trial"",""time""
""fullscreenenter"",""0"",""1203""
","""event"",""trial"",""time""
""fullscreenexit"",""2"",""5327""
","null","run_exp/static/images/Set 6_rs/079a.jpg","null","","","","","","learn","SL",""
"","html-keyboard-response","81","119438","0.0-81.0","""event"",""trial"",""time""
""fullscreenenter"",""0"",""1203""
""fullscreenexit"",""2"",""5327""
""blur"",""2"",""6610""
""focus"",""2"",""8004""
""blur"",""2"",""15263""
""focus"",""2"",""16092""
","""event"",""trial"",""time""
""blur"",""2"",""6610""
""blur"",""2"",""15263""
","""event"",""trial"",""time""
""focus"",""2"",""8004""
""focus"",""2"",""16092""
","""event"",""trial"",""time""
""fullscreenenter"",""0"",""1203""
","""event"",""trial"",""time""
""fullscreenexit"",""2"",""5327""
","null","<p></p>","null","","","","","","","",""
"","image","82","120423","0.0-82.0","""event"",""trial"",""time""
""fullscreenenter"",""0"",""1203""
""fullscreenexit"",""2"",""5327""
""blur"",""2"",""6610""
""focus"",""2"",""8004""
""blur"",""2"",""15263""
""focus"",""2"",""16092""
","""event"",""trial"",""time""
""blur"",""2"",""6610""
""blur"",""2"",""15263""
","""event"",""trial"",""time""
""focus"",""2"",""8004""
""focus"",""2"",""16092""
","""event"",""trial"",""time""
""fullscreenenter"",""0"",""1203""
","""event"",""trial"",""time""
""fullscreenexit"",""2"",""5327""
","984","run_exp/static/images/Set 6_rs/074a.jpg","86","","","","","","learn","SL",""
"","show_choice","83","121445","0.0-83.0","""event"",""trial"",""time""
""fullscreenenter"",""0"",""1203""
""fullscreenexit"",""2"",""5327""
""blur"",""2"",""6610""
""focus"",""2"",""8004""
""blur"",""2"",""15263""
""focus"",""2"",""16092""
","""event"",""trial"",""time""
""blur"",""2"",""6610""
""blur"",""2"",""15263""
","""event"",""trial"",""time""
""focus"",""2"",""8004""
""focus"",""2"",""16092""
","""event"",""trial"",""time""
""fullscreenenter"",""0"",""1203""
","""event"",""trial"",""time""
""fullscreenexit"",""2"",""5327""
","null","run_exp/static/images/Set 6_rs/074a.jpg","null","","","","","","learn","SL",""
"","html-keyboard-response","84","121960","0.0-84.0","""event"",""trial"",""time""
""fullscreenenter"",""0"",""1203""
""fullscreenexit"",""2"",""5327""
""blur"",""2"",""6610""
""focus"",""2"",""8004""
""blur"",""2"",""15263""
""focus"",""2"",""16092""
","""event"",""trial"",""time""
""blur"",""2"",""6610""
""blur"",""2"",""15263""
","""event"",""trial"",""time""
""focus"",""2"",""8004""
""focus"",""2"",""16092""
","""event"",""trial"",""time""
""fullscreenenter"",""0"",""1203""
","""event"",""trial"",""time""
""fullscreenexit"",""2"",""5327""
","null","<p></p>","null","","","","","","","",""
"","image","85","123126","0.0-85.0","""event"",""trial"",""time""
""fullscreenenter"",""0"",""1203""
""fullscreenexit"",""2"",""5327""
""blur"",""2"",""6610""
""focus"",""2"",""8004""
""blur"",""2"",""15263""
""focus"",""2"",""16092""
","""event"",""trial"",""time""
""blur"",""2"",""6610""
""blur"",""2"",""15263""
","""event"",""trial"",""time""
""focus"",""2"",""8004""
""focus"",""2"",""16092""
","""event"",""trial"",""time""
""fullscreenenter"",""0"",""1203""
","""event"",""trial"",""time""
""fullscreenexit"",""2"",""5327""
","1164","run_exp/static/images/Set 6_rs/121a.jpg","78","","","","","","learn","SR",""
"","show_choice","86","123973","0.0-86.0","""event"",""trial"",""time""
""fullscreenenter"",""0"",""1203""
""fullscreenexit"",""2"",""5327""
""blur"",""2"",""6610""
""focus"",""2"",""8004""
""blur"",""2"",""15263""
""focus"",""2"",""16092""
","""event"",""trial"",""time""
""blur"",""2"",""6610""
""blur"",""2"",""15263""
","""event"",""trial"",""time""
""focus"",""2"",""8004""
""focus"",""2"",""16092""
","""event"",""trial"",""time""
""fullscreenenter"",""0"",""1203""
","""event"",""trial"",""time""
""fullscreenexit"",""2"",""5327""
","null","run_exp/static/images/Set 6_rs/121a.jpg","null","","","","","","learn","SR",""
"","html-keyboard-response","87","124479","0.0-87.0","""event"",""trial"",""time""
""fullscreenenter"",""0"",""1203""
""fullscreenexit"",""2"",""5327""
""blur"",""2"",""6610""
""focus"",""2"",""8004""
""blur"",""2"",""15263""
""focus"",""2"",""16092""
","""event"",""trial"",""time""
""blur"",""2"",""6610""
""blur"",""2"",""15263""
","""event"",""trial"",""time""
""focus"",""2"",""8004""
""focus"",""2"",""16092""
","""event"",""trial"",""time""
""fullscreenenter"",""0"",""1203""
","""event"",""trial"",""time""
""fullscreenexit"",""2"",""5327""
","null","<p></p>","null","","","","","","","",""
"","image","88","125399","0.0-88.0","""event"",""trial"",""time""
""fullscreenenter"",""0"",""1203""
""fullscreenexit"",""2"",""5327""
""blur"",""2"",""6610""
""focus"",""2"",""8004""
""blur"",""2"",""15263""
""focus"",""2"",""16092""
","""event"",""trial"",""time""
""blur"",""2"",""6610""
""blur"",""2"",""15263""
","""event"",""trial"",""time""
""focus"",""2"",""8004""
""focus"",""2"",""16092""
","""event"",""trial"",""time""
""fullscreenenter"",""0"",""1203""
","""event"",""trial"",""time""
""fullscreenexit"",""2"",""5327""
","917.7999999821186","run_exp/static/images/Set 6_rs/073a.jpg","86","","","","","","learn","SL",""
"","show_choice","89","126492","0.0-89.0","""event"",""trial"",""time""
""fullscreenenter"",""0"",""1203""
""fullscreenexit"",""2"",""5327""
""blur"",""2"",""6610""
""focus"",""2"",""8004""
""blur"",""2"",""15263""
""focus"",""2"",""16092""
","""event"",""trial"",""time""
""blur"",""2"",""6610""
""blur"",""2"",""15263""
","""event"",""trial"",""time""
""focus"",""2"",""8004""
""focus"",""2"",""16092""
","""event"",""trial"",""time""
""fullscreenenter"",""0"",""1203""
","""event"",""trial"",""time""
""fullscreenexit"",""2"",""5327""
","null","run_exp/static/images/Set 6_rs/073a.jpg","null","","","","","","learn","SL",""
"","html-keyboard-response","90","126994","0.0-90.0","""event"",""trial"",""time""
""fullscreenenter"",""0"",""1203""
""fullscreenexit"",""2"",""5327""
""blur"",""2"",""6610""
""focus"",""2"",""8004""
""blur"",""2"",""15263""
""focus"",""2"",""16092""
","""event"",""trial"",""time""
""blur"",""2"",""6610""
""blur"",""2"",""15263""
","""event"",""trial"",""time""
""focus"",""2"",""8004""
""focus"",""2"",""16092""
","""event"",""trial"",""time""
""fullscreenenter"",""0"",""1203""
","""event"",""trial"",""time""
""fullscreenexit"",""2"",""5327""
","null","<p></p>","null","","","","","","","",""
"","image","91","128194","0.0-91.0","""event"",""trial"",""time""
""fullscreenenter"",""0"",""1203""
""fullscreenexit"",""2"",""5327""
""blur"",""2"",""6610""
""focus"",""2"",""8004""
""blur"",""2"",""15263""
""focus"",""2"",""16092""
","""event"",""trial"",""time""
""blur"",""2"",""6610""
""blur"",""2"",""15263""
","""event"",""trial"",""time""
""focus"",""2"",""8004""
""focus"",""2"",""16092""
","""event"",""trial"",""time""
""fullscreenenter"",""0"",""1203""
","""event"",""trial"",""time""
""fullscreenexit"",""2"",""5327""
","1199.1000000238419","run_exp/static/images/Set 6_rs/116a.jpg","78","","","","","","learn","SL",""
"","show_choice","92","129011","0.0-92.0","""event"",""trial"",""time""
""fullscreenenter"",""0"",""1203""
""fullscreenexit"",""2"",""5327""
""blur"",""2"",""6610""
""focus"",""2"",""8004""
""blur"",""2"",""15263""
""focus"",""2"",""16092""
","""event"",""trial"",""time""
""blur"",""2"",""6610""
""blur"",""2"",""15263""
","""event"",""trial"",""time""
""focus"",""2"",""8004""
""focus"",""2"",""16092""
","""event"",""trial"",""time""
""fullscreenenter"",""0"",""1203""
","""event"",""trial"",""time""
""fullscreenexit"",""2"",""5327""
","null","run_exp/static/images/Set 6_rs/116a.jpg","null","","","","","","learn","SL",""
"","html-keyboard-response","93","129520","0.0-93.0","""event"",""trial"",""time""
""fullscreenenter"",""0"",""1203""
""fullscreenexit"",""2"",""5327""
""blur"",""2"",""6610""
""focus"",""2"",""8004""
""blur"",""2"",""15263""
""focus"",""2"",""16092""
","""event"",""trial"",""time""
""blur"",""2"",""6610""
""blur"",""2"",""15263""
","""event"",""trial"",""time""
""focus"",""2"",""8004""
""focus"",""2"",""16092""
","""event"",""trial"",""time""
""fullscreenenter"",""0"",""1203""
","""event"",""trial"",""time""
""fullscreenexit"",""2"",""5327""
","null","<p></p>","null","","","","","","","",""
"","image","94","130648","0.0-94.0","""event"",""trial"",""time""
""fullscreenenter"",""0"",""1203""
""fullscreenexit"",""2"",""5327""
""blur"",""2"",""6610""
""focus"",""2"",""8004""
""blur"",""2"",""15263""
""focus"",""2"",""16092""
","""event"",""trial"",""time""
""blur"",""2"",""6610""
""blur"",""2"",""15263""
","""event"",""trial"",""time""
""focus"",""2"",""8004""
""focus"",""2"",""16092""
","""event"",""trial"",""time""
""fullscreenenter"",""0"",""1203""
","""event"",""trial"",""time""
""fullscreenexit"",""2"",""5327""
","1126.4000000059605","run_exp/static/images/Set 6_rs/061a.jpg","78","","","","","","learn","SR",""
"","show_choice","95","131524","0.0-95.0","""event"",""trial"",""time""
""fullscreenenter"",""0"",""1203""
""fullscreenexit"",""2"",""5327""
""blur"",""2"",""6610""
""focus"",""2"",""8004""
""blur"",""2"",""15263""
""focus"",""2"",""16092""
","""event"",""trial"",""time""
""blur"",""2"",""6610""
""blur"",""2"",""15263""
","""event"",""trial"",""time""
""focus"",""2"",""8004""
""focus"",""2"",""16092""
","""event"",""trial"",""time""
""fullscreenenter"",""0"",""1203""
","""event"",""trial"",""time""
""fullscreenexit"",""2"",""5327""
","null","run_exp/static/images/Set 6_rs/061a.jpg","null","","","","","","learn","SR",""
"","html-keyboard-response","96","132037","0.0-96.0","""event"",""trial"",""time""
""fullscreenenter"",""0"",""1203""
""fullscreenexit"",""2"",""5327""
""blur"",""2"",""6610""
""focus"",""2"",""8004""
""blur"",""2"",""15263""
""focus"",""2"",""16092""
","""event"",""trial"",""time""
""blur"",""2"",""6610""
""blur"",""2"",""15263""
","""event"",""trial"",""time""
""focus"",""2"",""8004""
""focus"",""2"",""16092""
","""event"",""trial"",""time""
""fullscreenenter"",""0"",""1203""
","""event"",""trial"",""time""
""fullscreenexit"",""2"",""5327""
","null","<p></p>","null","","","","","","","",""
"","image","97","133174","0.0-97.0","""event"",""trial"",""time""
""fullscreenenter"",""0"",""1203""
""fullscreenexit"",""2"",""5327""
""blur"",""2"",""6610""
""focus"",""2"",""8004""
""blur"",""2"",""15263""
""focus"",""2"",""16092""
","""event"",""trial"",""time""
""blur"",""2"",""6610""
""blur"",""2"",""15263""
","""event"",""trial"",""time""
""focus"",""2"",""8004""
""focus"",""2"",""16092""
","""event"",""trial"",""time""
""fullscreenenter"",""0"",""1203""
","""event"",""trial"",""time""
""fullscreenexit"",""2"",""5327""
","1135.300000011921","run_exp/static/images/Set 6_rs/138a.jpg","78","","","","","","learn","SL",""
"","show_choice","98","134048","0.0-98.0","""event"",""trial"",""time""
""fullscreenenter"",""0"",""1203""
""fullscreenexit"",""2"",""5327""
""blur"",""2"",""6610""
""focus"",""2"",""8004""
""blur"",""2"",""15263""
""focus"",""2"",""16092""
","""event"",""trial"",""time""
""blur"",""2"",""6610""
""blur"",""2"",""15263""
","""event"",""trial"",""time""
""focus"",""2"",""8004""
""focus"",""2"",""16092""
","""event"",""trial"",""time""
""fullscreenenter"",""0"",""1203""
","""event"",""trial"",""time""
""fullscreenexit"",""2"",""5327""
","null","run_exp/static/images/Set 6_rs/138a.jpg","null","","","","","","learn","SL",""
"","html-keyboard-response","99","134553","0.0-99.0","""event"",""trial"",""time""
""fullscreenenter"",""0"",""1203""
""fullscreenexit"",""2"",""5327""
""blur"",""2"",""6610""
""focus"",""2"",""8004""
""blur"",""2"",""15263""
""focus"",""2"",""16092""
","""event"",""trial"",""time""
""blur"",""2"",""6610""
""blur"",""2"",""15263""
","""event"",""trial"",""time""
""focus"",""2"",""8004""
""focus"",""2"",""16092""
","""event"",""trial"",""time""
""fullscreenenter"",""0"",""1203""
","""event"",""trial"",""time""
""fullscreenexit"",""2"",""5327""
","null","<p></p>","null","","","","","","","",""
"","image","100","135542","0.0-100.0","""event"",""trial"",""time""
""fullscreenenter"",""0"",""1203""
""fullscreenexit"",""2"",""5327""
""blur"",""2"",""6610""
""focus"",""2"",""8004""
""blur"",""2"",""15263""
""focus"",""2"",""16092""
","""event"",""trial"",""time""
""blur"",""2"",""6610""
""blur"",""2"",""15263""
","""event"",""trial"",""time""
""focus"",""2"",""8004""
""focus"",""2"",""16092""
","""event"",""trial"",""time""
""fullscreenenter"",""0"",""1203""
","""event"",""trial"",""time""
""fullscreenexit"",""2"",""5327""
","987.6999999880791","run_exp/static/images/Set 6_rs/132a.jpg","78","","","","","","learn","SR",""
"","show_choice","101","136558","0.0-101.0","""event"",""trial"",""time""
""fullscreenenter"",""0"",""1203""
""fullscreenexit"",""2"",""5327""
""blur"",""2"",""6610""
""focus"",""2"",""8004""
""blur"",""2"",""15263""
""focus"",""2"",""16092""
","""event"",""trial"",""time""
""blur"",""2"",""6610""
""blur"",""2"",""15263""
","""event"",""trial"",""time""
""focus"",""2"",""8004""
""focus"",""2"",""16092""
","""event"",""trial"",""time""
""fullscreenenter"",""0"",""1203""
","""event"",""trial"",""time""
""fullscreenexit"",""2"",""5327""
","null","run_exp/static/images/Set 6_rs/132a.jpg","null","","","","","","learn","SR",""
"","html-keyboard-response","102","137061","0.0-102.0","""event"",""trial"",""time""
""fullscreenenter"",""0"",""1203""
""fullscreenexit"",""2"",""5327""
""blur"",""2"",""6610""
""focus"",""2"",""8004""
""blur"",""2"",""15263""
""focus"",""2"",""16092""
","""event"",""trial"",""time""
""blur"",""2"",""6610""
""blur"",""2"",""15263""
","""event"",""trial"",""time""
""focus"",""2"",""8004""
""focus"",""2"",""16092""
","""event"",""trial"",""time""
""fullscreenenter"",""0"",""1203""
","""event"",""trial"",""time""
""fullscreenexit"",""2"",""5327""
","null","<p></p>","null","","","","","","","",""
"","image","103","137845","0.0-103.0","""event"",""trial"",""time""
""fullscreenenter"",""0"",""1203""
""fullscreenexit"",""2"",""5327""
""blur"",""2"",""6610""
""focus"",""2"",""8004""
""blur"",""2"",""15263""
""focus"",""2"",""16092""
","""event"",""trial"",""time""
""blur"",""2"",""6610""
""blur"",""2"",""15263""
","""event"",""trial"",""time""
""focus"",""2"",""8004""
""focus"",""2"",""16092""
","""event"",""trial"",""time""
""fullscreenenter"",""0"",""1203""
","""event"",""trial"",""time""
""fullscreenexit"",""2"",""5327""
","782.1999999880791","run_exp/static/images/Set 6_rs/112a.jpg","86","","","","","","learn","SR",""
"","show_choice","104","139067","0.0-104.0","""event"",""trial"",""time""
""fullscreenenter"",""0"",""1203""
""fullscreenexit"",""2"",""5327""
""blur"",""2"",""6610""
""focus"",""2"",""8004""
""blur"",""2"",""15263""
""focus"",""2"",""16092""
","""event"",""trial"",""time""
""blur"",""2"",""6610""
""blur"",""2"",""15263""
","""event"",""trial"",""time""
""focus"",""2"",""8004""
""focus"",""2"",""16092""
","""event"",""trial"",""time""
""fullscreenenter"",""0"",""1203""
","""event"",""trial"",""time""
""fullscreenexit"",""2"",""5327""
","null","run_exp/static/images/Set 6_rs/112a.jpg","null","","","","","","learn","SR",""
"","html-keyboard-response","105","139569","0.0-105.0","""event"",""trial"",""time""
""fullscreenenter"",""0"",""1203""
""fullscreenexit"",""2"",""5327""
""blur"",""2"",""6610""
""focus"",""2"",""8004""
""blur"",""2"",""15263""
""focus"",""2"",""16092""
","""event"",""trial"",""time""
""blur"",""2"",""6610""
""blur"",""2"",""15263""
","""event"",""trial"",""time""
""focus"",""2"",""8004""
""focus"",""2"",""16092""
","""event"",""trial"",""time""
""fullscreenenter"",""0"",""1203""
","""event"",""trial"",""time""
""fullscreenexit"",""2"",""5327""
","null","<p></p>","null","","","","","","","",""
"","image","106","140573","0.0-106.0","""event"",""trial"",""time""
""fullscreenenter"",""0"",""1203""
""fullscreenexit"",""2"",""5327""
""blur"",""2"",""6610""
""focus"",""2"",""8004""
""blur"",""2"",""15263""
""focus"",""2"",""16092""
","""event"",""trial"",""time""
""blur"",""2"",""6610""
""blur"",""2"",""15263""
","""event"",""trial"",""time""
""focus"",""2"",""8004""
""focus"",""2"",""16092""
","""event"",""trial"",""time""
""fullscreenenter"",""0"",""1203""
","""event"",""trial"",""time""
""fullscreenexit"",""2"",""5327""
","1002.5","run_exp/static/images/Set 6_rs/088a.jpg","86","","","","","","learn","SR",""
"","show_choice","107","141579","0.0-107.0","""event"",""trial"",""time""
""fullscreenenter"",""0"",""1203""
""fullscreenexit"",""2"",""5327""
""blur"",""2"",""6610""
""focus"",""2"",""8004""
""blur"",""2"",""15263""
""focus"",""2"",""16092""
","""event"",""trial"",""time""
""blur"",""2"",""6610""
""blur"",""2"",""15263""
","""event"",""trial"",""time""
""focus"",""2"",""8004""
""focus"",""2"",""16092""
","""event"",""trial"",""time""
""fullscreenenter"",""0"",""1203""
","""event"",""trial"",""time""
""fullscreenexit"",""2"",""5327""
","null","run_exp/static/images/Set 6_rs/088a.jpg","null","","","","","","learn","SR",""
"","html-keyboard-response","108","142091","0.0-108.0","""event"",""trial"",""time""
""fullscreenenter"",""0"",""1203""
""fullscreenexit"",""2"",""5327""
""blur"",""2"",""6610""
""focus"",""2"",""8004""
""blur"",""2"",""15263""
""focus"",""2"",""16092""
","""event"",""trial"",""time""
""blur"",""2"",""6610""
""blur"",""2"",""15263""
","""event"",""trial"",""time""
""focus"",""2"",""8004""
""focus"",""2"",""16092""
","""event"",""trial"",""time""
""fullscreenenter"",""0"",""1203""
","""event"",""trial"",""time""
""fullscreenexit"",""2"",""5327""
","null","<p></p>","null","","","","","","","",""
"","image","109","143044","0.0-109.0","""event"",""trial"",""time""
""fullscreenenter"",""0"",""1203""
""fullscreenexit"",""2"",""5327""
""blur"",""2"",""6610""
""focus"",""2"",""8004""
""blur"",""2"",""15263""
""focus"",""2"",""16092""
","""event"",""trial"",""time""
""blur"",""2"",""6610""
""blur"",""2"",""15263""
","""event"",""trial"",""time""
""focus"",""2"",""8004""
""focus"",""2"",""16092""
","""event"",""trial"",""time""
""fullscreenenter"",""0"",""1203""
","""event"",""trial"",""time""
""fullscreenexit"",""2"",""5327""
","952","run_exp/static/images/Set 6_rs/169a.jpg","78","","","","","","learn","SR",""
"","show_choice","110","144105","0.0-110.0","""event"",""trial"",""time""
""fullscreenenter"",""0"",""1203""
""fullscreenexit"",""2"",""5327""
""blur"",""2"",""6610""
""focus"",""2"",""8004""
""blur"",""2"",""15263""
""focus"",""2"",""16092""
","""event"",""trial"",""time""
""blur"",""2"",""6610""
""blur"",""2"",""15263""
","""event"",""trial"",""time""
""focus"",""2"",""8004""
""focus"",""2"",""16092""
","""event"",""trial"",""time""
""fullscreenenter"",""0"",""1203""
","""event"",""trial"",""time""
""fullscreenexit"",""2"",""5327""
","null","run_exp/static/images/Set 6_rs/169a.jpg","null","","","","","","learn","SR",""
"","html-keyboard-response","111","144611","0.0-111.0","""event"",""trial"",""time""
""fullscreenenter"",""0"",""1203""
""fullscreenexit"",""2"",""5327""
""blur"",""2"",""6610""
""focus"",""2"",""8004""
""blur"",""2"",""15263""
""focus"",""2"",""16092""
","""event"",""trial"",""time""
""blur"",""2"",""6610""
""blur"",""2"",""15263""
","""event"",""trial"",""time""
""focus"",""2"",""8004""
""focus"",""2"",""16092""
","""event"",""trial"",""time""
""fullscreenenter"",""0"",""1203""
","""event"",""trial"",""time""
""fullscreenexit"",""2"",""5327""
","null","<p></p>","null","","","","","","","",""
"","image","112","145578","0.0-112.0","""event"",""trial"",""time""
""fullscreenenter"",""0"",""1203""
""fullscreenexit"",""2"",""5327""
""blur"",""2"",""6610""
""focus"",""2"",""8004""
""blur"",""2"",""15263""
""focus"",""2"",""16092""
","""event"",""trial"",""time""
""blur"",""2"",""6610""
""blur"",""2"",""15263""
","""event"",""trial"",""time""
""focus"",""2"",""8004""
""focus"",""2"",""16092""
","""event"",""trial"",""time""
""fullscreenenter"",""0"",""1203""
","""event"",""trial"",""time""
""fullscreenexit"",""2"",""5327""
","965.0999999940395","run_exp/static/images/Set 6_rs/019a.jpg","86","","","","","","learn","SL",""
"","show_choice","113","146623","0.0-113.0","""event"",""trial"",""time""
""fullscreenenter"",""0"",""1203""
""fullscreenexit"",""2"",""5327""
""blur"",""2"",""6610""
""focus"",""2"",""8004""
""blur"",""2"",""15263""
""focus"",""2"",""16092""
","""event"",""trial"",""time""
""blur"",""2"",""6610""
""blur"",""2"",""15263""
","""event"",""trial"",""time""
""focus"",""2"",""8004""
""focus"",""2"",""16092""
","""event"",""trial"",""time""
""fullscreenenter"",""0"",""1203""
","""event"",""trial"",""time""
""fullscreenexit"",""2"",""5327""
","null","run_exp/static/images/Set 6_rs/019a.jpg","null","","","","","","learn","SL",""
"","html-keyboard-response","114","147132","0.0-114.0","""event"",""trial"",""time""
""fullscreenenter"",""0"",""1203""
""fullscreenexit"",""2"",""5327""
""blur"",""2"",""6610""
""focus"",""2"",""8004""
""blur"",""2"",""15263""
""focus"",""2"",""16092""
","""event"",""trial"",""time""
""blur"",""2"",""6610""
""blur"",""2"",""15263""
","""event"",""trial"",""time""
""focus"",""2"",""8004""
""focus"",""2"",""16092""
","""event"",""trial"",""time""
""fullscreenenter"",""0"",""1203""
","""event"",""trial"",""time""
""fullscreenexit"",""2"",""5327""
","null","<p></p>","null","","","","","","","",""
"","image","115","148096","0.0-115.0","""event"",""trial"",""time""
""fullscreenenter"",""0"",""1203""
""fullscreenexit"",""2"",""5327""
""blur"",""2"",""6610""
""focus"",""2"",""8004""
""blur"",""2"",""15263""
""focus"",""2"",""16092""
","""event"",""trial"",""time""
""blur"",""2"",""6610""
""blur"",""2"",""15263""
","""event"",""trial"",""time""
""focus"",""2"",""8004""
""focus"",""2"",""16092""
","""event"",""trial"",""time""
""fullscreenenter"",""0"",""1203""
","""event"",""trial"",""time""
""fullscreenexit"",""2"",""5327""
","961.9000000059605","run_exp/static/images/Set 6_rs/024a.jpg","86","","","","","","learn","SR",""
"","show_choice","116","149145","0.0-116.0","""event"",""trial"",""time""
""fullscreenenter"",""0"",""1203""
""fullscreenexit"",""2"",""5327""
""blur"",""2"",""6610""
""focus"",""2"",""8004""
""blur"",""2"",""15263""
""focus"",""2"",""16092""
","""event"",""trial"",""time""
""blur"",""2"",""6610""
""blur"",""2"",""15263""
","""event"",""trial"",""time""
""focus"",""2"",""8004""
""focus"",""2"",""16092""
","""event"",""trial"",""time""
""fullscreenenter"",""0"",""1203""
","""event"",""trial"",""time""
""fullscreenexit"",""2"",""5327""
","null","run_exp/static/images/Set 6_rs/024a.jpg","null","","","","","","learn","SR",""
"","html-keyboard-response","117","149651","0.0-117.0","""event"",""trial"",""time""
""fullscreenenter"",""0"",""1203""
""fullscreenexit"",""2"",""5327""
""blur"",""2"",""6610""
""focus"",""2"",""8004""
""blur"",""2"",""15263""
""focus"",""2"",""16092""
","""event"",""trial"",""time""
""blur"",""2"",""6610""
""blur"",""2"",""15263""
","""event"",""trial"",""time""
""focus"",""2"",""8004""
""focus"",""2"",""16092""
","""event"",""trial"",""time""
""fullscreenenter"",""0"",""1203""
","""event"",""trial"",""time""
""fullscreenexit"",""2"",""5327""
","null","<p></p>","null","","","","","","","",""
"","image","118","150708","0.0-118.0","""event"",""trial"",""time""
""fullscreenenter"",""0"",""1203""
""fullscreenexit"",""2"",""5327""
""blur"",""2"",""6610""
""focus"",""2"",""8004""
""blur"",""2"",""15263""
""focus"",""2"",""16092""
","""event"",""trial"",""time""
""blur"",""2"",""6610""
""blur"",""2"",""15263""
","""event"",""trial"",""time""
""focus"",""2"",""8004""
""focus"",""2"",""16092""
","""event"",""trial"",""time""
""fullscreenenter"",""0"",""1203""
","""event"",""trial"",""time""
""fullscreenexit"",""2"",""5327""
","1054.800000011921","run_exp/static/images/Set 6_rs/166a.jpg","78","","","","","","learn","SR",""
"","show_choice","119","151660","0.0-119.0","""event"",""trial"",""time""
""fullscreenenter"",""0"",""1203""
""fullscreenexit"",""2"",""5327""
""blur"",""2"",""6610""
""focus"",""2"",""8004""
""blur"",""2"",""15263""
""focus"",""2"",""16092""
","""event"",""trial"",""time""
""blur"",""2"",""6610""
""blur"",""2"",""15263""
","""event"",""trial"",""time""
""focus"",""2"",""8004""
""focus"",""2"",""16092""
","""event"",""trial"",""time""
""fullscreenenter"",""0"",""1203""
","""event"",""trial"",""time""
""fullscreenexit"",""2"",""5327""
","null","run_exp/static/images/Set 6_rs/166a.jpg","null","","","","","","learn","SR",""
"","html-keyboard-response","120","152172","0.0-120.0","""event"",""trial"",""time""
""fullscreenenter"",""0"",""1203""
""fullscreenexit"",""2"",""5327""
""blur"",""2"",""6610""
""focus"",""2"",""8004""
""blur"",""2"",""15263""
""focus"",""2"",""16092""
","""event"",""trial"",""time""
""blur"",""2"",""6610""
""blur"",""2"",""15263""
","""event"",""trial"",""time""
""focus"",""2"",""8004""
""focus"",""2"",""16092""
","""event"",""trial"",""time""
""fullscreenenter"",""0"",""1203""
","""event"",""trial"",""time""
""fullscreenexit"",""2"",""5327""
","null","<p></p>","null","","","","","","","",""
"","image","121","153280","0.0-121.0","""event"",""trial"",""time""
""fullscreenenter"",""0"",""1203""
""fullscreenexit"",""2"",""5327""
""blur"",""2"",""6610""
""focus"",""2"",""8004""
""blur"",""2"",""15263""
""focus"",""2"",""16092""
","""event"",""trial"",""time""
""blur"",""2"",""6610""
""blur"",""2"",""15263""
","""event"",""trial"",""time""
""focus"",""2"",""8004""
""focus"",""2"",""16092""
","""event"",""trial"",""time""
""fullscreenenter"",""0"",""1203""
","""event"",""trial"",""time""
""fullscreenexit"",""2"",""5327""
","1097.7999999821186","run_exp/static/images/Set 6_rs/063a.jpg","86","","","","","","learn","SR",""
"","show_choice","122","154186","0.0-122.0","""event"",""trial"",""time""
""fullscreenenter"",""0"",""1203""
""fullscreenexit"",""2"",""5327""
""blur"",""2"",""6610""
""focus"",""2"",""8004""
""blur"",""2"",""15263""
""focus"",""2"",""16092""
","""event"",""trial"",""time""
""blur"",""2"",""6610""
""blur"",""2"",""15263""
","""event"",""trial"",""time""
""focus"",""2"",""8004""
""focus"",""2"",""16092""
","""event"",""trial"",""time""
""fullscreenenter"",""0"",""1203""
","""event"",""trial"",""time""
""fullscreenexit"",""2"",""5327""
","null","run_exp/static/images/Set 6_rs/063a.jpg","null","","","","","","learn","SR",""
"","html-keyboard-response","123","154688","0.0-123.0","""event"",""trial"",""time""
""fullscreenenter"",""0"",""1203""
""fullscreenexit"",""2"",""5327""
""blur"",""2"",""6610""
""focus"",""2"",""8004""
""blur"",""2"",""15263""
""focus"",""2"",""16092""
","""event"",""trial"",""time""
""blur"",""2"",""6610""
""blur"",""2"",""15263""
","""event"",""trial"",""time""
""focus"",""2"",""8004""
""focus"",""2"",""16092""
","""event"",""trial"",""time""
""fullscreenenter"",""0"",""1203""
","""event"",""trial"",""time""
""fullscreenexit"",""2"",""5327""
","null","<p></p>","null","","","","","","","",""
"","image","124","156064","0.0-124.0","""event"",""trial"",""time""
""fullscreenenter"",""0"",""1203""
""fullscreenexit"",""2"",""5327""
""blur"",""2"",""6610""
""focus"",""2"",""8004""
""blur"",""2"",""15263""
""focus"",""2"",""16092""
","""event"",""trial"",""time""
""blur"",""2"",""6610""
""blur"",""2"",""15263""
","""event"",""trial"",""time""
""focus"",""2"",""8004""
""focus"",""2"",""16092""
","""event"",""trial"",""time""
""fullscreenenter"",""0"",""1203""
","""event"",""trial"",""time""
""fullscreenexit"",""2"",""5327""
","1373.7999999821186","run_exp/static/images/Set 6_rs/062a.jpg","86","","","","","","learn","SL",""
"","show_choice","125","156704","0.0-125.0","""event"",""trial"",""time""
""fullscreenenter"",""0"",""1203""
""fullscreenexit"",""2"",""5327""
""blur"",""2"",""6610""
""focus"",""2"",""8004""
""blur"",""2"",""15263""
""focus"",""2"",""16092""
","""event"",""trial"",""time""
""blur"",""2"",""6610""
""blur"",""2"",""15263""
","""event"",""trial"",""time""
""focus"",""2"",""8004""
""focus"",""2"",""16092""
","""event"",""trial"",""time""
""fullscreenenter"",""0"",""1203""
","""event"",""trial"",""time""
""fullscreenexit"",""2"",""5327""
","null","run_exp/static/images/Set 6_rs/062a.jpg","null","","","","","","learn","SL",""
"","html-keyboard-response","126","157211","0.0-126.0","""event"",""trial"",""time""
""fullscreenenter"",""0"",""1203""
""fullscreenexit"",""2"",""5327""
""blur"",""2"",""6610""
""focus"",""2"",""8004""
""blur"",""2"",""15263""
""focus"",""2"",""16092""
","""event"",""trial"",""time""
""blur"",""2"",""6610""
""blur"",""2"",""15263""
","""event"",""trial"",""time""
""focus"",""2"",""8004""
""focus"",""2"",""16092""
","""event"",""trial"",""time""
""fullscreenenter"",""0"",""1203""
","""event"",""trial"",""time""
""fullscreenexit"",""2"",""5327""
","null","<p></p>","null","","","","","","","",""
"","image","127","158728","0.0-127.0","""event"",""trial"",""time""
""fullscreenenter"",""0"",""1203""
""fullscreenexit"",""2"",""5327""
""blur"",""2"",""6610""
""focus"",""2"",""8004""
""blur"",""2"",""15263""
""focus"",""2"",""16092""
","""event"",""trial"",""time""
""blur"",""2"",""6610""
""blur"",""2"",""15263""
","""event"",""trial"",""time""
""focus"",""2"",""8004""
""focus"",""2"",""16092""
","""event"",""trial"",""time""
""fullscreenenter"",""0"",""1203""
","""event"",""trial"",""time""
""fullscreenexit"",""2"",""5327""
","1515.2999999821186","run_exp/static/images/Set 6_rs/017a.jpg","78","","","","","","learn","SL",""
"","show_choice","128","159215","0.0-128.0","""event"",""trial"",""time""
""fullscreenenter"",""0"",""1203""
""fullscreenexit"",""2"",""5327""
""blur"",""2"",""6610""
""focus"",""2"",""8004""
""blur"",""2"",""15263""
""focus"",""2"",""16092""
","""event"",""trial"",""time""
""blur"",""2"",""6610""
""blur"",""2"",""15263""
","""event"",""trial"",""time""
""focus"",""2"",""8004""
""focus"",""2"",""16092""
","""event"",""trial"",""time""
""fullscreenenter"",""0"",""1203""
","""event"",""trial"",""time""
""fullscreenexit"",""2"",""5327""
","null","run_exp/static/images/Set 6_rs/017a.jpg","null","","","","","","learn","SL",""
"","html-keyboard-response","129","159727","0.0-129.0","""event"",""trial"",""time""
""fullscreenenter"",""0"",""1203""
""fullscreenexit"",""2"",""5327""
""blur"",""2"",""6610""
""focus"",""2"",""8004""
""blur"",""2"",""15263""
""focus"",""2"",""16092""
","""event"",""trial"",""time""
""blur"",""2"",""6610""
""blur"",""2"",""15263""
","""event"",""trial"",""time""
""focus"",""2"",""8004""
""focus"",""2"",""16092""
","""event"",""trial"",""time""
""fullscreenenter"",""0"",""1203""
","""event"",""trial"",""time""
""fullscreenexit"",""2"",""5327""
","null","<p></p>","null","","","","","","","",""
"","image","130","160646","0.0-130.0","""event"",""trial"",""time""
""fullscreenenter"",""0"",""1203""
""fullscreenexit"",""2"",""5327""
""blur"",""2"",""6610""
""focus"",""2"",""8004""
""blur"",""2"",""15263""
""focus"",""2"",""16092""
","""event"",""trial"",""time""
""blur"",""2"",""6610""
""blur"",""2"",""15263""
","""event"",""trial"",""time""
""focus"",""2"",""8004""
""focus"",""2"",""16092""
","""event"",""trial"",""time""
""fullscreenenter"",""0"",""1203""
","""event"",""trial"",""time""
""fullscreenexit"",""2"",""5327""
","917.9000000059605","run_exp/static/images/Set 6_rs/187a.jpg","86","","","","","","learn","SR",""
"","show_choice","131","161742","0.0-131.0","""event"",""trial"",""time""
""fullscreenenter"",""0"",""1203""
""fullscreenexit"",""2"",""5327""
""blur"",""2"",""6610""
""focus"",""2"",""8004""
""blur"",""2"",""15263""
""focus"",""2"",""16092""
","""event"",""trial"",""time""
""blur"",""2"",""6610""
""blur"",""2"",""15263""
","""event"",""trial"",""time""
""focus"",""2"",""8004""
""focus"",""2"",""16092""
","""event"",""trial"",""time""
""fullscreenenter"",""0"",""1203""
","""event"",""trial"",""time""
""fullscreenexit"",""2"",""5327""
","null","run_exp/static/images/Set 6_rs/187a.jpg","null","","","","","","learn","SR",""
"","html-keyboard-response","132","162253","0.0-132.0","""event"",""trial"",""time""
""fullscreenenter"",""0"",""1203""
""fullscreenexit"",""2"",""5327""
""blur"",""2"",""6610""
""focus"",""2"",""8004""
""blur"",""2"",""15263""
""focus"",""2"",""16092""
","""event"",""trial"",""time""
""blur"",""2"",""6610""
""blur"",""2"",""15263""
","""event"",""trial"",""time""
""focus"",""2"",""8004""
""focus"",""2"",""16092""
","""event"",""trial"",""time""
""fullscreenenter"",""0"",""1203""
","""event"",""trial"",""time""
""fullscreenexit"",""2"",""5327""
","null","<p></p>","null","","","","","","","",""
"","image","133","163349","0.0-133.0","""event"",""trial"",""time""
""fullscreenenter"",""0"",""1203""
""fullscreenexit"",""2"",""5327""
""blur"",""2"",""6610""
""focus"",""2"",""8004""
""blur"",""2"",""15263""
""focus"",""2"",""16092""
","""event"",""trial"",""time""
""blur"",""2"",""6610""
""blur"",""2"",""15263""
","""event"",""trial"",""time""
""focus"",""2"",""8004""
""focus"",""2"",""16092""
","""event"",""trial"",""time""
""fullscreenenter"",""0"",""1203""
","""event"",""trial"",""time""
""fullscreenexit"",""2"",""5327""
","1093.9000000059605","run_exp/static/images/Set 6_rs/057a.jpg","86","","","","","","learn","SL",""
"","show_choice","134","164266","0.0-134.0","""event"",""trial"",""time""
""fullscreenenter"",""0"",""1203""
""fullscreenexit"",""2"",""5327""
""blur"",""2"",""6610""
""focus"",""2"",""8004""
""blur"",""2"",""15263""
""focus"",""2"",""16092""
","""event"",""trial"",""time""
""blur"",""2"",""6610""
""blur"",""2"",""15263""
","""event"",""trial"",""time""
""focus"",""2"",""8004""
""focus"",""2"",""16092""
","""event"",""trial"",""time""
""fullscreenenter"",""0"",""1203""
","""event"",""trial"",""time""
""fullscreenexit"",""2"",""5327""
","null","run_exp/static/images/Set 6_rs/057a.jpg","null","","","","","","learn","SL",""
"","html-keyboard-response","135","164780","0.0-135.0","""event"",""trial"",""time""
""fullscreenenter"",""0"",""1203""
""fullscreenexit"",""2"",""5327""
""blur"",""2"",""6610""
""focus"",""2"",""8004""
""blur"",""2"",""15263""
""focus"",""2"",""16092""
","""event"",""trial"",""time""
""blur"",""2"",""6610""
""blur"",""2"",""15263""
","""event"",""trial"",""time""
""focus"",""2"",""8004""
""focus"",""2"",""16092""
","""event"",""trial"",""time""
""fullscreenenter"",""0"",""1203""
","""event"",""trial"",""time""
""fullscreenexit"",""2"",""5327""
","null","<p></p>","null","","","","","","","",""
"","image","136","166058","0.0-136.0","""event"",""trial"",""time""
""fullscreenenter"",""0"",""1203""
""fullscreenexit"",""2"",""5327""
""blur"",""2"",""6610""
""focus"",""2"",""8004""
""blur"",""2"",""15263""
""focus"",""2"",""16092""
","""event"",""trial"",""time""
""blur"",""2"",""6610""
""blur"",""2"",""15263""
","""event"",""trial"",""time""
""focus"",""2"",""8004""
""focus"",""2"",""16092""
","""event"",""trial"",""time""
""fullscreenenter"",""0"",""1203""
","""event"",""trial"",""time""
""fullscreenexit"",""2"",""5327""
","1276.2000000178814","run_exp/static/images/Set 6_rs/076a.jpg","78","","","","","","learn","SR",""
"","show_choice","137","166786","0.0-137.0","""event"",""trial"",""time""
""fullscreenenter"",""0"",""1203""
""fullscreenexit"",""2"",""5327""
""blur"",""2"",""6610""
""focus"",""2"",""8004""
""blur"",""2"",""15263""
""focus"",""2"",""16092""
","""event"",""trial"",""time""
""blur"",""2"",""6610""
""blur"",""2"",""15263""
","""event"",""trial"",""time""
""focus"",""2"",""8004""
""focus"",""2"",""16092""
","""event"",""trial"",""time""
""fullscreenenter"",""0"",""1203""
","""event"",""trial"",""time""
""fullscreenexit"",""2"",""5327""
","null","run_exp/static/images/Set 6_rs/076a.jpg","null","","","","","","learn","SR",""
"","html-keyboard-response","138","167293","0.0-138.0","""event"",""trial"",""time""
""fullscreenenter"",""0"",""1203""
""fullscreenexit"",""2"",""5327""
""blur"",""2"",""6610""
""focus"",""2"",""8004""
""blur"",""2"",""15263""
""focus"",""2"",""16092""
","""event"",""trial"",""time""
""blur"",""2"",""6610""
""blur"",""2"",""15263""
","""event"",""trial"",""time""
""focus"",""2"",""8004""
""focus"",""2"",""16092""
","""event"",""trial"",""time""
""fullscreenenter"",""0"",""1203""
","""event"",""trial"",""time""
""fullscreenexit"",""2"",""5327""
","null","<p></p>","null","","","","","","","",""
"","image","139","168223","0.0-139.0","""event"",""trial"",""time""
""fullscreenenter"",""0"",""1203""
""fullscreenexit"",""2"",""5327""
""blur"",""2"",""6610""
""focus"",""2"",""8004""
""blur"",""2"",""15263""
""focus"",""2"",""16092""
","""event"",""trial"",""time""
""blur"",""2"",""6610""
""blur"",""2"",""15263""
","""event"",""trial"",""time""
""focus"",""2"",""8004""
""focus"",""2"",""16092""
","""event"",""trial"",""time""
""fullscreenenter"",""0"",""1203""
","""event"",""trial"",""time""
""fullscreenexit"",""2"",""5327""
","927.5999999940395","run_exp/static/images/Set 6_rs/172a.jpg","78","","","","","","learn","SR",""
"","show_choice","140","169305","0.0-140.0","""event"",""trial"",""time""
""fullscreenenter"",""0"",""1203""
""fullscreenexit"",""2"",""5327""
""blur"",""2"",""6610""
""focus"",""2"",""8004""
""blur"",""2"",""15263""
""focus"",""2"",""16092""
","""event"",""trial"",""time""
""blur"",""2"",""6610""
""blur"",""2"",""15263""
","""event"",""trial"",""time""
""focus"",""2"",""8004""
""focus"",""2"",""16092""
","""event"",""trial"",""time""
""fullscreenenter"",""0"",""1203""
","""event"",""trial"",""time""
""fullscreenexit"",""2"",""5327""
","null","run_exp/static/images/Set 6_rs/172a.jpg","null","","","","","","learn","SR",""
"","html-keyboard-response","141","169811","0.0-141.0","""event"",""trial"",""time""
""fullscreenenter"",""0"",""1203""
""fullscreenexit"",""2"",""5327""
""blur"",""2"",""6610""
""focus"",""2"",""8004""
""blur"",""2"",""15263""
""focus"",""2"",""16092""
","""event"",""trial"",""time""
""blur"",""2"",""6610""
""blur"",""2"",""15263""
","""event"",""trial"",""time""
""focus"",""2"",""8004""
""focus"",""2"",""16092""
","""event"",""trial"",""time""
""fullscreenenter"",""0"",""1203""
","""event"",""trial"",""time""
""fullscreenexit"",""2"",""5327""
","null","<p></p>","null","","","","","","","",""
"","image","142","170648","0.0-142.0","""event"",""trial"",""time""
""fullscreenenter"",""0"",""1203""
""fullscreenexit"",""2"",""5327""
""blur"",""2"",""6610""
""focus"",""2"",""8004""
""blur"",""2"",""15263""
""focus"",""2"",""16092""
","""event"",""trial"",""time""
""blur"",""2"",""6610""
""blur"",""2"",""15263""
","""event"",""trial"",""time""
""focus"",""2"",""8004""
""focus"",""2"",""16092""
","""event"",""trial"",""time""
""fullscreenenter"",""0"",""1203""
","""event"",""trial"",""time""
""fullscreenexit"",""2"",""5327""
","835.5999999940395","run_exp/static/images/Set 6_rs/025a.jpg","78","","","","","","learn","SL",""
"","show_choice","143","171827","0.0-143.0","""event"",""trial"",""time""
""fullscreenenter"",""0"",""1203""
""fullscreenexit"",""2"",""5327""
""blur"",""2"",""6610""
""focus"",""2"",""8004""
""blur"",""2"",""15263""
""focus"",""2"",""16092""
","""event"",""trial"",""time""
""blur"",""2"",""6610""
""blur"",""2"",""15263""
","""event"",""trial"",""time""
""focus"",""2"",""8004""
""focus"",""2"",""16092""
","""event"",""trial"",""time""
""fullscreenenter"",""0"",""1203""
","""event"",""trial"",""time""
""fullscreenexit"",""2"",""5327""
","null","run_exp/static/images/Set 6_rs/025a.jpg","null","","","","","","learn","SL",""
"","html-keyboard-response","144","172343","0.0-144.0","""event"",""trial"",""time""
""fullscreenenter"",""0"",""1203""
""fullscreenexit"",""2"",""5327""
""blur"",""2"",""6610""
""focus"",""2"",""8004""
""blur"",""2"",""15263""
""focus"",""2"",""16092""
","""event"",""trial"",""time""
""blur"",""2"",""6610""
""blur"",""2"",""15263""
","""event"",""trial"",""time""
""focus"",""2"",""8004""
""focus"",""2"",""16092""
","""event"",""trial"",""time""
""fullscreenenter"",""0"",""1203""
","""event"",""trial"",""time""
""fullscreenexit"",""2"",""5327""
","null","<p></p>","null","","","","","","","",""
"","image","145","173432","0.0-145.0","""event"",""trial"",""time""
""fullscreenenter"",""0"",""1203""
""fullscreenexit"",""2"",""5327""
""blur"",""2"",""6610""
""focus"",""2"",""8004""
""blur"",""2"",""15263""
""focus"",""2"",""16092""
","""event"",""trial"",""time""
""blur"",""2"",""6610""
""blur"",""2"",""15263""
","""event"",""trial"",""time""
""focus"",""2"",""8004""
""focus"",""2"",""16092""
","""event"",""trial"",""time""
""fullscreenenter"",""0"",""1203""
","""event"",""trial"",""time""
""fullscreenexit"",""2"",""5327""
","1087.0999999940395","run_exp/static/images/Set 6_rs/010a.jpg","86","","","","","","learn","SR",""
"","show_choice","146","174353","0.0-146.0","""event"",""trial"",""time""
""fullscreenenter"",""0"",""1203""
""fullscreenexit"",""2"",""5327""
""blur"",""2"",""6610""
""focus"",""2"",""8004""
""blur"",""2"",""15263""
""focus"",""2"",""16092""
","""event"",""trial"",""time""
""blur"",""2"",""6610""
""blur"",""2"",""15263""
","""event"",""trial"",""time""
""focus"",""2"",""8004""
""focus"",""2"",""16092""
","""event"",""trial"",""time""
""fullscreenenter"",""0"",""1203""
","""event"",""trial"",""time""
""fullscreenexit"",""2"",""5327""
","null","run_exp/static/images/Set 6_rs/010a.jpg","null","","","","","","learn","SR",""
"","html-keyboard-response","147","174855","0.0-147.0","""event"",""trial"",""time""
""fullscreenenter"",""0"",""1203""
""fullscreenexit"",""2"",""5327""
""blur"",""2"",""6610""
""focus"",""2"",""8004""
""blur"",""2"",""15263""
""focus"",""2"",""16092""
","""event"",""trial"",""time""
""blur"",""2"",""6610""
""blur"",""2"",""15263""
","""event"",""trial"",""time""
""focus"",""2"",""8004""
""focus"",""2"",""16092""
","""event"",""trial"",""time""
""fullscreenenter"",""0"",""1203""
","""event"",""trial"",""time""
""fullscreenexit"",""2"",""5327""
","null","<p></p>","null","","","","","","","",""
"","image","148","176862","0.0-148.0","""event"",""trial"",""time""
""fullscreenenter"",""0"",""1203""
""fullscreenexit"",""2"",""5327""
""blur"",""2"",""6610""
""focus"",""2"",""8004""
""blur"",""2"",""15263""
""focus"",""2"",""16092""
","""event"",""trial"",""time""
""blur"",""2"",""6610""
""blur"",""2"",""15263""
","""event"",""trial"",""time""
""focus"",""2"",""8004""
""focus"",""2"",""16092""
","""event"",""trial"",""time""
""fullscreenenter"",""0"",""1203""
","""event"",""trial"",""time""
""fullscreenexit"",""2"",""5327""
","null","run_exp/static/images/Set 6_rs/181a.jpg","null","","","","","","learn","SL",""
"","show_choice","149","178871","0.0-149.0","""event"",""trial"",""time""
""fullscreenenter"",""0"",""1203""
""fullscreenexit"",""2"",""5327""
""blur"",""2"",""6610""
""focus"",""2"",""8004""
""blur"",""2"",""15263""
""focus"",""2"",""16092""
","""event"",""trial"",""time""
""blur"",""2"",""6610""
""blur"",""2"",""15263""
","""event"",""trial"",""time""
""focus"",""2"",""8004""
""focus"",""2"",""16092""
","""event"",""trial"",""time""
""fullscreenenter"",""0"",""1203""
","""event"",""trial"",""time""
""fullscreenexit"",""2"",""5327""
","null","run_exp/static/images/blank.png","null","","","","","","learn","SL",""
"","html-keyboard-response","150","179383","0.0-150.0","""event"",""trial"",""time""
""fullscreenenter"",""0"",""1203""
""fullscreenexit"",""2"",""5327""
""blur"",""2"",""6610""
""focus"",""2"",""8004""
""blur"",""2"",""15263""
""focus"",""2"",""16092""
","""event"",""trial"",""time""
""blur"",""2"",""6610""
""blur"",""2"",""15263""
","""event"",""trial"",""time""
""focus"",""2"",""8004""
""focus"",""2"",""16092""
","""event"",""trial"",""time""
""fullscreenenter"",""0"",""1203""
","""event"",""trial"",""time""
""fullscreenexit"",""2"",""5327""
","null","<p></p>","null","","","","","","","",""
"","image","151","180368","0.0-151.0","""event"",""trial"",""time""
""fullscreenenter"",""0"",""1203""
""fullscreenexit"",""2"",""5327""
""blur"",""2"",""6610""
""focus"",""2"",""8004""
""blur"",""2"",""15263""
""focus"",""2"",""16092""
","""event"",""trial"",""time""
""blur"",""2"",""6610""
""blur"",""2"",""15263""
","""event"",""trial"",""time""
""focus"",""2"",""8004""
""focus"",""2"",""16092""
","""event"",""trial"",""time""
""fullscreenenter"",""0"",""1203""
","""event"",""trial"",""time""
""fullscreenexit"",""2"",""5327""
","982.5999999940395","run_exp/static/images/Set 6_rs/014a.jpg","86","","","","","","learn","SL",""
"","show_choice","152","181395","0.0-152.0","""event"",""trial"",""time""
""fullscreenenter"",""0"",""1203""
""fullscreenexit"",""2"",""5327""
""blur"",""2"",""6610""
""focus"",""2"",""8004""
""blur"",""2"",""15263""
""focus"",""2"",""16092""
","""event"",""trial"",""time""
""blur"",""2"",""6610""
""blur"",""2"",""15263""
","""event"",""trial"",""time""
""focus"",""2"",""8004""
""focus"",""2"",""16092""
","""event"",""trial"",""time""
""fullscreenenter"",""0"",""1203""
","""event"",""trial"",""time""
""fullscreenexit"",""2"",""5327""
","null","run_exp/static/images/Set 6_rs/014a.jpg","null","","","","","","learn","SL",""
"","html-keyboard-response","153","181908","0.0-153.0","""event"",""trial"",""time""
""fullscreenenter"",""0"",""1203""
""fullscreenexit"",""2"",""5327""
""blur"",""2"",""6610""
""focus"",""2"",""8004""
""blur"",""2"",""15263""
""focus"",""2"",""16092""
","""event"",""trial"",""time""
""blur"",""2"",""6610""
""blur"",""2"",""15263""
","""event"",""trial"",""time""
""focus"",""2"",""8004""
""focus"",""2"",""16092""
","""event"",""trial"",""time""
""fullscreenenter"",""0"",""1203""
","""event"",""trial"",""time""
""fullscreenexit"",""2"",""5327""
","null","<p></p>","null","","","","","","","",""
"","image","154","183003","0.0-154.0","""event"",""trial"",""time""
""fullscreenenter"",""0"",""1203""
""fullscreenexit"",""2"",""5327""
""blur"",""2"",""6610""
""focus"",""2"",""8004""
""blur"",""2"",""15263""
""focus"",""2"",""16092""
","""event"",""trial"",""time""
""blur"",""2"",""6610""
""blur"",""2"",""15263""
","""event"",""trial"",""time""
""focus"",""2"",""8004""
""focus"",""2"",""16092""
","""event"",""trial"",""time""
""fullscreenenter"",""0"",""1203""
","""event"",""trial"",""time""
""fullscreenexit"",""2"",""5327""
","1093.0999999940395","run_exp/static/images/Set 6_rs/045a.jpg","86","","","","","","learn","SR",""
"","show_choice","155","183916","0.0-155.0","""event"",""trial"",""time""
""fullscreenenter"",""0"",""1203""
""fullscreenexit"",""2"",""5327""
""blur"",""2"",""6610""