"success","trial_type","trial_index","time_elapsed","internal_node_id","interactions","blur_events","focus_events","fullscreenenter_events","fullscreenexit_events","rt","stimulus","key_press","subject_id","participant_id","age","gender","prompt","phase","condition","lure_bin"
"true","fullscreen","0","5752","0.0-0.0","""event"",""trial"",""time""
""focus"",""0"",""0""
""fullscreenenter"",""0"",""4984""
","
","""event"",""trial"",""time""
""focus"",""0"",""0""
","""event"",""trial"",""time""
""fullscreenenter"",""0"",""4984""
","
","","","","","","","","","","",""
"","pavlovia","1","5758","0.0-1.0","""event"",""trial"",""time""
""focus"",""0"",""0""
""fullscreenenter"",""0"",""4984""
","
","""event"",""trial"",""time""
""focus"",""0"",""0""
","""event"",""trial"",""time""
""fullscreenenter"",""0"",""4984""
","
","","","","","","","","","","",""
"","welcome","2","40676","0.0-2.0","""event"",""trial"",""time""
""focus"",""0"",""0""
""fullscreenenter"",""0"",""4984""
","
","""event"",""trial"",""time""
""focus"",""0"",""0""
","""event"",""trial"",""time""
""fullscreenenter"",""0"",""4984""
","
","null","run_exp/static/audio/clip_1_welcome.m4a","null","569","738","11","Male","<div class='center'><p>Welcome to the third part of the study! First, you'll be shown pictures of items one at a time. For each picture, you have to decide if the item is typically found indoors or outdoors.</p><p>If you think it's usually found indoors, then press <b>v</b> key on your keyboard. If you think it's usually found outdoors, then press the <b>n</b> key.There will be reminders on the screen to help you remember which keys to press. </p><p>If you're not sure whether the item is an indoor item or an outdoor item, go ahead and take a guess but try your best not to skip that choice. </p></div>","","",""
"","html-keyboard-response","3","42115","0.0-3.0","""event"",""trial"",""time""
""focus"",""0"",""0""
""fullscreenenter"",""0"",""4984""
","
","""event"",""trial"",""time""
""focus"",""0"",""0""
","""event"",""trial"",""time""
""fullscreenenter"",""0"",""4984""
","
","1437","<div class='center'><p>Welcome to the third part of the study! First, you'll be shown pictures of items one at a time. For each picture, you have to decide if the item is typically found indoors or outdoors.</p><p>If you think it's usually found indoors, then press <b>v</b> key on your keyboard. If you think it's usually found outdoors, then press the <b>n</b> key.There will be reminders on the screen to help you remember which keys to press. </p><p>If you're not sure whether the item is an indoor item or an outdoor item, go ahead and take a guess but try your best not to skip that choice. </p><div><p><b>[Press the space bar to continue]</b></p></div>","32","","","","","","","",""
"","image","4","43548","0.0-4.0","""event"",""trial"",""time""
""focus"",""0"",""0""
""fullscreenenter"",""0"",""4984""
","
","""event"",""trial"",""time""
""focus"",""0"",""0""
","""event"",""trial"",""time""
""fullscreenenter"",""0"",""4984""
","
","1431","run_exp/static/images/Set 6_rs/117a.jpg","86","","","","","","learn","SL",""
"","show_choice","5","44131","0.0-5.0","""event"",""trial"",""time""
""focus"",""0"",""0""
""fullscreenenter"",""0"",""4984""
","
","""event"",""trial"",""time""
""focus"",""0"",""0""
","""event"",""trial"",""time""
""fullscreenenter"",""0"",""4984""
","
","null","run_exp/static/images/Set 6_rs/117a.jpg","null","","","","","","learn","SL",""
"","html-keyboard-response","6","44646","0.0-6.0","""event"",""trial"",""time""
""focus"",""0"",""0""
""fullscreenenter"",""0"",""4984""
","
","""event"",""trial"",""time""
""focus"",""0"",""0""
","""event"",""trial"",""time""
""fullscreenenter"",""0"",""4984""
","
","null","<p></p>","null","","","","","","","",""
"","image","7","45941","0.0-7.0","""event"",""trial"",""time""
""focus"",""0"",""0""
""fullscreenenter"",""0"",""4984""
","
","""event"",""trial"",""time""
""focus"",""0"",""0""
","""event"",""trial"",""time""
""fullscreenenter"",""0"",""4984""
","
","1287","run_exp/static/images/Set 6_rs/057a.jpg","86","","","","","","learn","SL",""
"","show_choice","8","46666","0.0-8.0","""event"",""trial"",""time""
""focus"",""0"",""0""
""fullscreenenter"",""0"",""4984""
","
","""event"",""trial"",""time""
""focus"",""0"",""0""
","""event"",""trial"",""time""
""fullscreenenter"",""0"",""4984""
","
","null","run_exp/static/images/Set 6_rs/057a.jpg","null","","","","","","learn","SL",""
"","html-keyboard-response","9","47176","0.0-9.0","""event"",""trial"",""time""
""focus"",""0"",""0""
""fullscreenenter"",""0"",""4984""
","
","""event"",""trial"",""time""
""focus"",""0"",""0""
","""event"",""trial"",""time""
""fullscreenenter"",""0"",""4984""
","
","null","<p></p>","null","","","","","","","",""
"","image","10","48361","0.0-10.0","""event"",""trial"",""time""
""focus"",""0"",""0""
""fullscreenenter"",""0"",""4984""
","
","""event"",""trial"",""time""
""focus"",""0"",""0""
","""event"",""trial"",""time""
""fullscreenenter"",""0"",""4984""
","
","1182","run_exp/static/images/Set 6_rs/126a.jpg","86","","","","","","learn","SR",""
"","show_choice","11","49197","0.0-11.0","""event"",""trial"",""time""
""focus"",""0"",""0""
""fullscreenenter"",""0"",""4984""
","
","""event"",""trial"",""time""
""focus"",""0"",""0""
","""event"",""trial"",""time""
""fullscreenenter"",""0"",""4984""
","
","null","run_exp/static/images/Set 6_rs/126a.jpg","null","","","","","","learn","SR",""
"","html-keyboard-response","12","49717","0.0-12.0","""event"",""trial"",""time""
""focus"",""0"",""0""
""fullscreenenter"",""0"",""4984""
","
","""event"",""trial"",""time""
""focus"",""0"",""0""
","""event"",""trial"",""time""
""fullscreenenter"",""0"",""4984""
","
","null","<p></p>","null","","","","","","","",""
"","image","13","50525","0.0-13.0","""event"",""trial"",""time""
""focus"",""0"",""0""
""fullscreenenter"",""0"",""4984""
","
","""event"",""trial"",""time""
""focus"",""0"",""0""
","""event"",""trial"",""time""
""fullscreenenter"",""0"",""4984""
","
","805","run_exp/static/images/Set 6_rs/169a.jpg","78","","","","","","learn","SR",""
"","show_choice","14","51736","0.0-14.0","""event"",""trial"",""time""
""focus"",""0"",""0""
""fullscreenenter"",""0"",""4984""
","
","""event"",""trial"",""time""
""focus"",""0"",""0""
","""event"",""trial"",""time""
""fullscreenenter"",""0"",""4984""
","
","null","run_exp/static/images/Set 6_rs/169a.jpg","null","","","","","","learn","SR",""
"","html-keyboard-response","15","52257","0.0-15.0","""event"",""trial"",""time""
""focus"",""0"",""0""
""fullscreenenter"",""0"",""4984""
","
","""event"",""trial"",""time""
""focus"",""0"",""0""
","""event"",""trial"",""time""
""fullscreenenter"",""0"",""4984""
","
","null","<p></p>","null","","","","","","","",""
"","image","16","52874","0.0-16.0","""event"",""trial"",""time""
""focus"",""0"",""0""
""fullscreenenter"",""0"",""4984""
","
","""event"",""trial"",""time""
""focus"",""0"",""0""
","""event"",""trial"",""time""
""fullscreenenter"",""0"",""4984""
","
","615","run_exp/static/images/Set 6_rs/154a.jpg","86","","","","","","learn","SR",""
"","show_choice","17","54276","0.0-17.0","""event"",""trial"",""time""
""focus"",""0"",""0""
""fullscreenenter"",""0"",""4984""
","
","""event"",""trial"",""time""
""focus"",""0"",""0""
","""event"",""trial"",""time""
""fullscreenenter"",""0"",""4984""
","
","null","run_exp/static/images/Set 6_rs/154a.jpg","null","","","","","","learn","SR",""
"","html-keyboard-response","18","54796","0.0-18.0","""event"",""trial"",""time""
""focus"",""0"",""0""
""fullscreenenter"",""0"",""4984""
","
","""event"",""trial"",""time""
""focus"",""0"",""0""
","""event"",""trial"",""time""
""fullscreenenter"",""0"",""4984""
","
","null","<p></p>","null","","","","","","","",""
"","image","19","55439","0.0-19.0","""event"",""trial"",""time""
""focus"",""0"",""0""
""fullscreenenter"",""0"",""4984""
","
","""event"",""trial"",""time""
""focus"",""0"",""0""
","""event"",""trial"",""time""
""fullscreenenter"",""0"",""4984""
","
","639","run_exp/static/images/Set 6_rs/167a.jpg","86","","","","","","learn","SL",""
"","show_choice","20","56807","0.0-20.0","""event"",""trial"",""time""
""focus"",""0"",""0""
""fullscreenenter"",""0"",""4984""
","
","""event"",""trial"",""time""
""focus"",""0"",""0""
","""event"",""trial"",""time""
""fullscreenenter"",""0"",""4984""
","
","null","run_exp/static/images/Set 6_rs/167a.jpg","null","","","","","","learn","SL",""
"","html-keyboard-response","21","57326","0.0-21.0","""event"",""trial"",""time""
""focus"",""0"",""0""
""fullscreenenter"",""0"",""4984""
","
","""event"",""trial"",""time""
""focus"",""0"",""0""
","""event"",""trial"",""time""
""fullscreenenter"",""0"",""4984""
","
","null","<p></p>","null","","","","","","","",""
"","image","22","58772","0.0-22.0","""event"",""trial"",""time""
""focus"",""0"",""0""
""fullscreenenter"",""0"",""4984""
","
","""event"",""trial"",""time""
""focus"",""0"",""0""
","""event"",""trial"",""time""
""fullscreenenter"",""0"",""4984""
","
","1444","run_exp/static/images/Set 6_rs/091a.jpg","86","","","","","","learn","SL",""
"","show_choice","23","59347","0.0-23.0","""event"",""trial"",""time""
""focus"",""0"",""0""
""fullscreenenter"",""0"",""4984""
","
","""event"",""trial"",""time""
""focus"",""0"",""0""
","""event"",""trial"",""time""
""fullscreenenter"",""0"",""4984""
","
","null","run_exp/static/images/Set 6_rs/091a.jpg","null","","","","","","learn","SL",""
"","html-keyboard-response","24","59866","0.0-24.0","""event"",""trial"",""time""
""focus"",""0"",""0""
""fullscreenenter"",""0"",""4984""
","
","""event"",""trial"",""time""
""focus"",""0"",""0""
","""event"",""trial"",""time""
""fullscreenenter"",""0"",""4984""
","
","null","<p></p>","null","","","","","","","",""
"","image","25","60926","0.0-25.0","""event"",""trial"",""time""
""focus"",""0"",""0""
""fullscreenenter"",""0"",""4984""
","
","""event"",""trial"",""time""
""focus"",""0"",""0""
","""event"",""trial"",""time""
""fullscreenenter"",""0"",""4984""
","
","1058","run_exp/static/images/Set 6_rs/050a.jpg","86","","","","","","learn","SL",""
"","show_choice","26","61887","0.0-26.0","""event"",""trial"",""time""
""focus"",""0"",""0""
""fullscreenenter"",""0"",""4984""
","
","""event"",""trial"",""time""
""focus"",""0"",""0""
","""event"",""trial"",""time""
""fullscreenenter"",""0"",""4984""
","
","null","run_exp/static/images/Set 6_rs/050a.jpg","null","","","","","","learn","SL",""
"","html-keyboard-response","27","62407","0.0-27.0","""event"",""trial"",""time""
""focus"",""0"",""0""
""fullscreenenter"",""0"",""4984""
","
","""event"",""trial"",""time""
""focus"",""0"",""0""
","""event"",""trial"",""time""
""fullscreenenter"",""0"",""4984""
","
","null","<p></p>","null","","","","","","","",""
"","image","28","63361","0.0-28.0","""event"",""trial"",""time""
""focus"",""0"",""0""
""fullscreenenter"",""0"",""4984""
","
","""event"",""trial"",""time""
""focus"",""0"",""0""
","""event"",""trial"",""time""
""fullscreenenter"",""0"",""4984""
","
","949","run_exp/static/images/Set 6_rs/116a.jpg","78","","","","","","learn","SL",""
"","show_choice","29","64426","0.0-29.0","""event"",""trial"",""time""
""focus"",""0"",""0""
""fullscreenenter"",""0"",""4984""
","
","""event"",""trial"",""time""
""focus"",""0"",""0""
","""event"",""trial"",""time""
""fullscreenenter"",""0"",""4984""
","
","null","run_exp/static/images/Set 6_rs/116a.jpg","null","","","","","","learn","SL",""
"","html-keyboard-response","30","64947","0.0-30.0","""event"",""trial"",""time""
""focus"",""0"",""0""
""fullscreenenter"",""0"",""4984""
","
","""event"",""trial"",""time""
""focus"",""0"",""0""
","""event"",""trial"",""time""
""fullscreenenter"",""0"",""4984""
","
","null","<p></p>","null","","","","","","","",""
"","image","31","65921","0.0-31.0","""event"",""trial"",""time""
""focus"",""0"",""0""
""fullscreenenter"",""0"",""4984""
","
","""event"",""trial"",""time""
""focus"",""0"",""0""
","""event"",""trial"",""time""
""fullscreenenter"",""0"",""4984""
","
","972","run_exp/static/images/Set 6_rs/178a.jpg","78","","","","","","learn","SR",""
"","show_choice","32","66966","0.0-32.0","""event"",""trial"",""time""
""focus"",""0"",""0""
""fullscreenenter"",""0"",""4984""
","
","""event"",""trial"",""time""
""focus"",""0"",""0""
","""event"",""trial"",""time""
""fullscreenenter"",""0"",""4984""
","
","null","run_exp/static/images/Set 6_rs/178a.jpg","null","","","","","","learn","SR",""
"","html-keyboard-response","33","67486","0.0-33.0","""event"",""trial"",""time""
""focus"",""0"",""0""
""fullscreenenter"",""0"",""4984""
","
","""event"",""trial"",""time""
""focus"",""0"",""0""
","""event"",""trial"",""time""
""fullscreenenter"",""0"",""4984""
","
","null","<p></p>","null","","","","","","","",""
"","image","34","68159","0.0-34.0","""event"",""trial"",""time""
""focus"",""0"",""0""
""fullscreenenter"",""0"",""4984""
","
","""event"",""trial"",""time""
""focus"",""0"",""0""
","""event"",""trial"",""time""
""fullscreenenter"",""0"",""4984""
","
","670","run_exp/static/images/Set 6_rs/055a.jpg","86","","","","","","learn","SL",""
"","show_choice","35","69507","0.0-35.0","""event"",""trial"",""time""
""focus"",""0"",""0""
""fullscreenenter"",""0"",""4984""
","
","""event"",""trial"",""time""
""focus"",""0"",""0""
","""event"",""trial"",""time""
""fullscreenenter"",""0"",""4984""
","
","null","run_exp/static/images/Set 6_rs/055a.jpg","null","","","","","","learn","SL",""
"","html-keyboard-response","36","70027","0.0-36.0","""event"",""trial"",""time""
""focus"",""0"",""0""
""fullscreenenter"",""0"",""4984""
","
","""event"",""trial"",""time""
""focus"",""0"",""0""
","""event"",""trial"",""time""
""fullscreenenter"",""0"",""4984""
","
","null","<p></p>","null","","","","","","","",""
"","image","37","70647","0.0-37.0","""event"",""trial"",""time""
""focus"",""0"",""0""
""fullscreenenter"",""0"",""4984""
","
","""event"",""trial"",""time""
""focus"",""0"",""0""
","""event"",""trial"",""time""
""fullscreenenter"",""0"",""4984""
","
","617","run_exp/static/images/Set 6_rs/010a.jpg","86","","","","","","learn","SR",""
"","show_choice","38","72047","0.0-38.0","""event"",""trial"",""time""
""focus"",""0"",""0""
""fullscreenenter"",""0"",""4984""
","
","""event"",""trial"",""time""
""focus"",""0"",""0""
","""event"",""trial"",""time""
""fullscreenenter"",""0"",""4984""
","
","null","run_exp/static/images/Set 6_rs/010a.jpg","null","","","","","","learn","SR",""
"","html-keyboard-response","39","72557","0.0-39.0","""event"",""trial"",""time""
""focus"",""0"",""0""
""fullscreenenter"",""0"",""4984""
","
","""event"",""trial"",""time""
""focus"",""0"",""0""
","""event"",""trial"",""time""
""fullscreenenter"",""0"",""4984""
","
","null","<p></p>","null","","","","","","","",""
"","image","40","73480","0.0-40.0","""event"",""trial"",""time""
""focus"",""0"",""0""
""fullscreenenter"",""0"",""4984""
","
","""event"",""trial"",""time""
""focus"",""0"",""0""
","""event"",""trial"",""time""
""fullscreenenter"",""0"",""4984""
","
","918","run_exp/static/images/Set 6_rs/045a.jpg","86","","","","","","learn","SR",""
"","show_choice","41","74581","0.0-41.0","""event"",""trial"",""time""
""focus"",""0"",""0""
""fullscreenenter"",""0"",""4984""
","
","""event"",""trial"",""time""
""focus"",""0"",""0""
","""event"",""trial"",""time""
""fullscreenenter"",""0"",""4984""
","
","null","run_exp/static/images/Set 6_rs/045a.jpg","null","","","","","","learn","SR",""
"","html-keyboard-response","42","75086","0.0-42.0","""event"",""trial"",""time""
""focus"",""0"",""0""
""fullscreenenter"",""0"",""4984""
","
","""event"",""trial"",""time""
""focus"",""0"",""0""
","""event"",""trial"",""time""
""fullscreenenter"",""0"",""4984""
","
","null","<p></p>","null","","","","","","","",""
"","image","43","75666","0.0-43.0","""event"",""trial"",""time""
""focus"",""0"",""0""
""fullscreenenter"",""0"",""4984""
","
","""event"",""trial"",""time""
""focus"",""0"",""0""
","""event"",""trial"",""time""
""fullscreenenter"",""0"",""4984""
","
","577","run_exp/static/images/Set 6_rs/186a.jpg","86","","","","","","learn","SR",""
"","show_choice","44","77097","0.0-44.0","""event"",""trial"",""time""
""focus"",""0"",""0""
""fullscreenenter"",""0"",""4984""
","
","""event"",""trial"",""time""
""focus"",""0"",""0""
","""event"",""trial"",""time""
""fullscreenenter"",""0"",""4984""
","
","null","run_exp/static/images/Set 6_rs/186a.jpg","null","","","","","","learn","SR",""
"","html-keyboard-response","45","77617","0.0-45.0","""event"",""trial"",""time""
""focus"",""0"",""0""
""fullscreenenter"",""0"",""4984""
","
","""event"",""trial"",""time""
""focus"",""0"",""0""
","""event"",""trial"",""time""
""fullscreenenter"",""0"",""4984""
","
","null","<p></p>","null","","","","","","","",""
"","image","46","78220","0.0-46.0","""event"",""trial"",""time""
""focus"",""0"",""0""
""fullscreenenter"",""0"",""4984""
","
","""event"",""trial"",""time""
""focus"",""0"",""0""
","""event"",""trial"",""time""
""fullscreenenter"",""0"",""4984""
","
","600","run_exp/static/images/Set 6_rs/008a.jpg","86","","","","","","learn","SL",""
"","show_choice","47","79637","0.0-47.0","""event"",""trial"",""time""
""focus"",""0"",""0""
""fullscreenenter"",""0"",""4984""
","
","""event"",""trial"",""time""
""focus"",""0"",""0""
","""event"",""trial"",""time""
""fullscreenenter"",""0"",""4984""
","
","null","run_exp/static/images/Set 6_rs/008a.jpg","null","","","","","","learn","SL",""
"","html-keyboard-response","48","80157","0.0-48.0","""event"",""trial"",""time""
""focus"",""0"",""0""
""fullscreenenter"",""0"",""4984""
","
","""event"",""trial"",""time""
""focus"",""0"",""0""
","""event"",""trial"",""time""
""fullscreenenter"",""0"",""4984""
","
","null","<p></p>","null","","","","","","","",""
"","image","49","80989","0.0-49.0","""event"",""trial"",""time""
""focus"",""0"",""0""
""fullscreenenter"",""0"",""4984""
","
","""event"",""trial"",""time""
""focus"",""0"",""0""
","""event"",""trial"",""time""
""fullscreenenter"",""0"",""4984""
","
","830","run_exp/static/images/Set 6_rs/181a.jpg","78","","","","","","learn","SL",""
"","show_choice","50","82177","0.0-50.0","""event"",""trial"",""time""
""focus"",""0"",""0""
""fullscreenenter"",""0"",""4984""
","
","""event"",""trial"",""time""
""focus"",""0"",""0""
","""event"",""trial"",""time""
""fullscreenenter"",""0"",""4984""
","
","null","run_exp/static/images/Set 6_rs/181a.jpg","null","","","","","","learn","SL",""
"","html-keyboard-response","51","82697","0.0-51.0","""event"",""trial"",""time""
""focus"",""0"",""0""
""fullscreenenter"",""0"",""4984""
","
","""event"",""trial"",""time""
""focus"",""0"",""0""
","""event"",""trial"",""time""
""fullscreenenter"",""0"",""4984""
","
","null","<p></p>","null","","","","","","","",""
"","image","52","83369","0.0-52.0","""event"",""trial"",""time""
""focus"",""0"",""0""
""fullscreenenter"",""0"",""4984""
","
","""event"",""trial"",""time""
""focus"",""0"",""0""
","""event"",""trial"",""time""
""fullscreenenter"",""0"",""4984""
","
","670","run_exp/static/images/Set 6_rs/019a.jpg","86","","","","","","learn","SL",""
"","show_choice","53","84716","0.0-53.0","""event"",""trial"",""time""
""focus"",""0"",""0""
""fullscreenenter"",""0"",""4984""
","
","""event"",""trial"",""time""
""focus"",""0"",""0""
","""event"",""trial"",""time""
""fullscreenenter"",""0"",""4984""
","
","null","run_exp/static/images/Set 6_rs/019a.jpg","null","","","","","","learn","SL",""
"","html-keyboard-response","54","85236","0.0-54.0","""event"",""trial"",""time""
""focus"",""0"",""0""
""fullscreenenter"",""0"",""4984""
","
","""event"",""trial"",""time""
""focus"",""0"",""0""
","""event"",""trial"",""time""
""fullscreenenter"",""0"",""4984""
","
","null","<p></p>","null","","","","","","","",""
"","image","55","85903","0.0-55.0","""event"",""trial"",""time""
""focus"",""0"",""0""
""fullscreenenter"",""0"",""4984""
","
","""event"",""trial"",""time""
""focus"",""0"",""0""
","""event"",""trial"",""time""
""fullscreenenter"",""0"",""4984""
","
","665","run_exp/static/images/Set 6_rs/023a.jpg","86","","","","","","learn","SR",""
"","show_choice","56","87257","0.0-56.0","""event"",""trial"",""time""
""focus"",""0"",""0""
""fullscreenenter"",""0"",""4984""
","
","""event"",""trial"",""time""
""focus"",""0"",""0""
","""event"",""trial"",""time""
""fullscreenenter"",""0"",""4984""
","
","null","run_exp/static/images/Set 6_rs/023a.jpg","null","","","","","","learn","SR",""
"","html-keyboard-response","57","87777","0.0-57.0","""event"",""trial"",""time""
""focus"",""0"",""0""
""fullscreenenter"",""0"",""4984""
","
","""event"",""trial"",""time""
""focus"",""0"",""0""
","""event"",""trial"",""time""
""fullscreenenter"",""0"",""4984""
","
","null","<p></p>","null","","","","","","","",""
"","image","58","88703","0.0-58.0","""event"",""trial"",""time""
""focus"",""0"",""0""
""fullscreenenter"",""0"",""4984""
","
","""event"",""trial"",""time""
""focus"",""0"",""0""
","""event"",""trial"",""time""
""fullscreenenter"",""0"",""4984""
","
","924","run_exp/static/images/Set 6_rs/191a.jpg","78","","","","","","learn","SL",""
"","show_choice","59","89797","0.0-59.0","""event"",""trial"",""time""
""focus"",""0"",""0""
""fullscreenenter"",""0"",""4984""
","
","""event"",""trial"",""time""
""focus"",""0"",""0""
","""event"",""trial"",""time""
""fullscreenenter"",""0"",""4984""
","
","null","run_exp/static/images/Set 6_rs/191a.jpg","null","","","","","","learn","SL",""
"","html-keyboard-response","60","90317","0.0-60.0","""event"",""trial"",""time""
""focus"",""0"",""0""
""fullscreenenter"",""0"",""4984""
","
","""event"",""trial"",""time""
""focus"",""0"",""0""
","""event"",""trial"",""time""
""fullscreenenter"",""0"",""4984""
","
","null","<p></p>","null","","","","","","","",""
"","image","61","91192","0.0-61.0","""event"",""trial"",""time""
""focus"",""0"",""0""
""fullscreenenter"",""0"",""4984""
","
","""event"",""trial"",""time""
""focus"",""0"",""0""
","""event"",""trial"",""time""
""fullscreenenter"",""0"",""4984""
","
","872","run_exp/static/images/Set 6_rs/025a.jpg","78","","","","","","learn","SL",""
"","show_choice","62","92337","0.0-62.0","""event"",""trial"",""time""
""focus"",""0"",""0""
""fullscreenenter"",""0"",""4984""
","
","""event"",""trial"",""time""
""focus"",""0"",""0""
","""event"",""trial"",""time""
""fullscreenenter"",""0"",""4984""
","
","null","run_exp/static/images/Set 6_rs/025a.jpg","null","","","","","","learn","SL",""
"","html-keyboard-response","63","92857","0.0-63.0","""event"",""trial"",""time""
""focus"",""0"",""0""
""fullscreenenter"",""0"",""4984""
","
","""event"",""trial"",""time""
""focus"",""0"",""0""
","""event"",""trial"",""time""
""fullscreenenter"",""0"",""4984""
","
","null","<p></p>","null","","","","","","","",""
"","image","64","93437","0.0-64.0","""event"",""trial"",""time""
""focus"",""0"",""0""
""fullscreenenter"",""0"",""4984""
","
","""event"",""trial"",""time""
""focus"",""0"",""0""
","""event"",""trial"",""time""
""fullscreenenter"",""0"",""4984""
","
","578","run_exp/static/images/Set 6_rs/070a.jpg","86","","","","","","learn","SR",""
"","show_choice","65","94876","0.0-65.0","""event"",""trial"",""time""
""focus"",""0"",""0""
""fullscreenenter"",""0"",""4984""
","
","""event"",""trial"",""time""
""focus"",""0"",""0""
","""event"",""trial"",""time""
""fullscreenenter"",""0"",""4984""
","
","null","run_exp/static/images/Set 6_rs/070a.jpg","null","","","","","","learn","SR",""
"","html-keyboard-response","66","95397","0.0-66.0","""event"",""trial"",""time""
""focus"",""0"",""0""
""fullscreenenter"",""0"",""4984""
","
","""event"",""trial"",""time""
""focus"",""0"",""0""
","""event"",""trial"",""time""
""fullscreenenter"",""0"",""4984""
","
","null","<p></p>","null","","","","","","","",""
"","image","67","95995","0.0-67.0","""event"",""trial"",""time""
""focus"",""0"",""0""
""fullscreenenter"",""0"",""4984""
","
","""event"",""trial"",""time""
""focus"",""0"",""0""
","""event"",""trial"",""time""
""fullscreenenter"",""0"",""4984""
","
","596","run_exp/static/images/Set 6_rs/079a.jpg","86","","","","","","learn","SL",""
"","show_choice","68","97406","0.0-68.0","""event"",""trial"",""time""
""focus"",""0"",""0""
""fullscreenenter"",""0"",""4984""
","
","""event"",""trial"",""time""
""focus"",""0"",""0""
","""event"",""trial"",""time""
""fullscreenenter"",""0"",""4984""
","
","null","run_exp/static/images/Set 6_rs/079a.jpg","null","","","","","","learn","SL",""
"","html-keyboard-response","69","97926","0.0-69.0","""event"",""trial"",""time""
""focus"",""0"",""0""
""fullscreenenter"",""0"",""4984""
","
","""event"",""trial"",""time""
""focus"",""0"",""0""
","""event"",""trial"",""time""
""fullscreenenter"",""0"",""4984""
","
","null","<p></p>","null","","","","","","","",""
"","image","70","98440","0.0-70.0","""event"",""trial"",""time""
""focus"",""0"",""0""
""fullscreenenter"",""0"",""4984""
","
","""event"",""trial"",""time""
""focus"",""0"",""0""
","""event"",""trial"",""time""
""fullscreenenter"",""0"",""4984""
","
","511","run_exp/static/images/Set 6_rs/063a.jpg","86","","","","","","learn","SR",""
"","show_choice","71","99948","0.0-71.0","""event"",""trial"",""time""
""focus"",""0"",""0""
""fullscreenenter"",""0"",""4984""
","
","""event"",""trial"",""time""
""focus"",""0"",""0""
","""event"",""trial"",""time""
""fullscreenenter"",""0"",""4984""
","
","null","run_exp/static/images/Set 6_rs/063a.jpg","null","","","","","","learn","SR",""
"","html-keyboard-response","72","100466","0.0-72.0","""event"",""trial"",""time""
""focus"",""0"",""0""
""fullscreenenter"",""0"",""4984""
","
","""event"",""trial"",""time""
""focus"",""0"",""0""
","""event"",""trial"",""time""
""fullscreenenter"",""0"",""4984""
","
","null","<p></p>","null","","","","","","","",""
"","image","73","101379","0.0-73.0","""event"",""trial"",""time""
""focus"",""0"",""0""
""fullscreenenter"",""0"",""4984""
","
","""event"",""trial"",""time""
""focus"",""0"",""0""
","""event"",""trial"",""time""
""fullscreenenter"",""0"",""4984""
","
","910","run_exp/static/images/Set 6_rs/017a.jpg","86","","","","","","learn","SL",""
"","show_choice","74","102487","0.0-74.0","""event"",""trial"",""time""
""focus"",""0"",""0""
""fullscreenenter"",""0"",""4984""
","
","""event"",""trial"",""time""
""focus"",""0"",""0""
","""event"",""trial"",""time""
""fullscreenenter"",""0"",""4984""
","
","null","run_exp/static/images/Set 6_rs/017a.jpg","null","","","","","","learn","SL",""
"","html-keyboard-response","75","103006","0.0-75.0","""event"",""trial"",""time""
""focus"",""0"",""0""
""fullscreenenter"",""0"",""4984""
","
","""event"",""trial"",""time""
""focus"",""0"",""0""
","""event"",""trial"",""time""
""fullscreenenter"",""0"",""4984""
","
","null","<p></p>","null","","","","","","","",""
"","image","76","103663","0.0-76.0","""event"",""trial"",""time""
""focus"",""0"",""0""
""fullscreenenter"",""0"",""4984""
","
","""event"",""trial"",""time""
""focus"",""0"",""0""
","""event"",""trial"",""time""
""fullscreenenter"",""0"",""4984""
","
","655","run_exp/static/images/Set 6_rs/075a.jpg","86","","","","","","learn","SR",""
"","show_choice","77","105026","0.0-77.0","""event"",""trial"",""time""
""focus"",""0"",""0""
""fullscreenenter"",""0"",""4984""
","
","""event"",""trial"",""time""
""focus"",""0"",""0""
","""event"",""trial"",""time""
""fullscreenenter"",""0"",""4984""
","
","null","run_exp/static/images/Set 6_rs/075a.jpg","null","","","","","","learn","SR",""
"","html-keyboard-response","78","105547","0.0-78.0","""event"",""trial"",""time""
""focus"",""0"",""0""
""fullscreenenter"",""0"",""4984""
","
","""event"",""trial"",""time""
""focus"",""0"",""0""
","""event"",""trial"",""time""
""fullscreenenter"",""0"",""4984""
","
","null","<p></p>","null","","","","","","","",""
"","image","79","106229","0.0-79.0","""event"",""trial"",""time""
""focus"",""0"",""0""
""fullscreenenter"",""0"",""4984""
","
","""event"",""trial"",""time""
""focus"",""0"",""0""
","""event"",""trial"",""time""
""fullscreenenter"",""0"",""4984""
","
","680","run_exp/static/images/Set 6_rs/085a.jpg","78","","","","","","learn","SL",""
"","show_choice","80","107567","0.0-80.0","""event"",""trial"",""time""
""focus"",""0"",""0""
""fullscreenenter"",""0"",""4984""
","
","""event"",""trial"",""time""
""focus"",""0"",""0""
","""event"",""trial"",""time""
""fullscreenenter"",""0"",""4984""
","
","null","run_exp/static/images/Set 6_rs/085a.jpg","null","","","","","","learn","SL",""
"","html-keyboard-response","81","108086","0.0-81.0","""event"",""trial"",""time""
""focus"",""0"",""0""
""fullscreenenter"",""0"",""4984""
","
","""event"",""trial"",""time""
""focus"",""0"",""0""
","""event"",""trial"",""time""
""fullscreenenter"",""0"",""4984""
","
","null","<p></p>","null","","","","","","","",""
"","image","82","108829","0.0-82.0","""event"",""trial"",""time""
""focus"",""0"",""0""
""fullscreenenter"",""0"",""4984""
","
","""event"",""trial"",""time""
""focus"",""0"",""0""
","""event"",""trial"",""time""
""fullscreenenter"",""0"",""4984""
","
","740","run_exp/static/images/Set 6_rs/007a.jpg","86","","","","","","learn","SR",""
"","show_choice","83","110106","0.0-83.0","""event"",""trial"",""time""
""focus"",""0"",""0""
""fullscreenenter"",""0"",""4984""
","
","""event"",""trial"",""time""
""focus"",""0"",""0""
","""event"",""trial"",""time""
""fullscreenenter"",""0"",""4984""
","
","null","run_exp/static/images/Set 6_rs/007a.jpg","null","","","","","","learn","SR",""
"","html-keyboard-response","84","110607","0.0-84.0","""event"",""trial"",""time""
""focus"",""0"",""0""
""fullscreenenter"",""0"",""4984""
","
","""event"",""trial"",""time""
""focus"",""0"",""0""
","""event"",""trial"",""time""
""fullscreenenter"",""0"",""4984""
","
","null","<p></p>","null","","","","","","","",""
"","image","85","111111","0.0-85.0","""event"",""trial"",""time""
""focus"",""0"",""0""
""fullscreenenter"",""0"",""4984""
","
","""event"",""trial"",""time""
""focus"",""0"",""0""
","""event"",""trial"",""time""
""fullscreenenter"",""0"",""4984""
","
","503","run_exp/static/images/Set 6_rs/024a.jpg","86","","","","","","learn","SR",""
"","show_choice","86","112617","0.0-86.0","""event"",""trial"",""time""
""focus"",""0"",""0""
""fullscreenenter"",""0"",""4984""
","
","""event"",""trial"",""time""
""focus"",""0"",""0""
","""event"",""trial"",""time""
""fullscreenenter"",""0"",""4984""
","
","null","run_exp/static/images/Set 6_rs/024a.jpg","null","","","","","","learn","SR",""
"","html-keyboard-response","87","113136","0.0-87.0","""event"",""trial"",""time""
""focus"",""0"",""0""
""fullscreenenter"",""0"",""4984""
","
","""event"",""trial"",""time""
""focus"",""0"",""0""
","""event"",""trial"",""time""
""fullscreenenter"",""0"",""4984""
","
","null","<p></p>","null","","","","","","","",""
"","image","88","113735","0.0-88.0","""event"",""trial"",""time""
""focus"",""0"",""0""
""fullscreenenter"",""0"",""4984""
","
","""event"",""trial"",""time""
""focus"",""0"",""0""
","""event"",""trial"",""time""
""fullscreenenter"",""0"",""4984""
","
","595","run_exp/static/images/Set 6_rs/152a.jpg","86","","","","","","learn","SR",""
"","show_choice","89","115156","0.0-89.0","""event"",""trial"",""time""
""focus"",""0"",""0""
""fullscreenenter"",""0"",""4984""
","
","""event"",""trial"",""time""
""focus"",""0"",""0""
","""event"",""trial"",""time""
""fullscreenenter"",""0"",""4984""
","
","null","run_exp/static/images/Set 6_rs/152a.jpg","null","","","","","","learn","SR",""
"","html-keyboard-response","90","115677","0.0-90.0","""event"",""trial"",""time""
""focus"",""0"",""0""
""fullscreenenter"",""0"",""4984""
","
","""event"",""trial"",""time""
""focus"",""0"",""0""
","""event"",""trial"",""time""
""fullscreenenter"",""0"",""4984""
","
","null","<p></p>","null","","","","","","","",""
"","image","91","116879","0.0-91.0","""event"",""trial"",""time""
""focus"",""0"",""0""
""fullscreenenter"",""0"",""4984""
","
","""event"",""trial"",""time""
""focus"",""0"",""0""
","""event"",""trial"",""time""
""fullscreenenter"",""0"",""4984""
","
","1200","run_exp/static/images/Set 6_rs/144a.jpg","86","","","","","","learn","SL",""
"","show_choice","92","117697","0.0-92.0","""event"",""trial"",""time""
""focus"",""0"",""0""
""fullscreenenter"",""0"",""4984""
","
","""event"",""trial"",""time""
""focus"",""0"",""0""
","""event"",""trial"",""time""
""fullscreenenter"",""0"",""4984""
","
","null","run_exp/static/images/Set 6_rs/144a.jpg","null","","","","","","learn","SL",""
"","html-keyboard-response","93","118217","0.0-93.0","""event"",""trial"",""time""
""focus"",""0"",""0""
""fullscreenenter"",""0"",""4984""
","
","""event"",""trial"",""time""
""focus"",""0"",""0""
","""event"",""trial"",""time""
""fullscreenenter"",""0"",""4984""
","
","null","<p></p>","null","","","","","","","",""
"","image","94","119053","0.0-94.0","""event"",""trial"",""time""
""focus"",""0"",""0""
""fullscreenenter"",""0"",""4984""
","
","""event"",""trial"",""time""
""focus"",""0"",""0""
","""event"",""trial"",""time""
""fullscreenenter"",""0"",""4984""
","
","834","run_exp/static/images/Set 6_rs/036a.jpg","86","","","","","","learn","SL",""
"","show_choice","95","120236","0.0-95.0","""event"",""trial"",""time""
""focus"",""0"",""0""
""fullscreenenter"",""0"",""4984""
","
","""event"",""trial"",""time""
""focus"",""0"",""0""
","""event"",""trial"",""time""
""fullscreenenter"",""0"",""4984""
","
","null","run_exp/static/images/Set 6_rs/036a.jpg","null","","","","","","learn","SL",""
"","html-keyboard-response","96","120756","0.0-96.0","""event"",""trial"",""time""
""focus"",""0"",""0""
""fullscreenenter"",""0"",""4984""
","
","""event"",""trial"",""time""
""focus"",""0"",""0""
","""event"",""trial"",""time""
""fullscreenenter"",""0"",""4984""
","
","null","<p></p>","null","","","","","","","",""
"","image","97","121312","0.0-97.0","""event"",""trial"",""time""
""focus"",""0"",""0""
""fullscreenenter"",""0"",""4984""
","
","""event"",""trial"",""time""
""focus"",""0"",""0""
","""event"",""trial"",""time""
""fullscreenenter"",""0"",""4984""
","
","553","run_exp/static/images/Set 6_rs/095a.jpg","86","","","","","","learn","SL",""
"","show_choice","98","122776","0.0-98.0","""event"",""trial"",""time""
""focus"",""0"",""0""
""fullscreenenter"",""0"",""4984""
","
","""event"",""trial"",""time""
""focus"",""0"",""0""
","""event"",""trial"",""time""
""fullscreenenter"",""0"",""4984""
","
","null","run_exp/static/images/Set 6_rs/095a.jpg","null","","","","","","learn","SL",""
"","html-keyboard-response","99","123286","0.0-99.0","""event"",""trial"",""time""
""focus"",""0"",""0""
""fullscreenenter"",""0"",""4984""
","
","""event"",""trial"",""time""
""focus"",""0"",""0""
","""event"",""trial"",""time""
""fullscreenenter"",""0"",""4984""
","
","null","<p></p>","null","","","","","","","",""
"","image","100","124218","0.0-100.0","""event"",""trial"",""time""
""focus"",""0"",""0""
""fullscreenenter"",""0"",""4984""
","
","""event"",""trial"",""time""
""focus"",""0"",""0""
","""event"",""trial"",""time""
""fullscreenenter"",""0"",""4984""
","
","928","run_exp/static/images/Set 6_rs/132a.jpg","86","","","","","","learn","SR",""
"","show_choice","101","125307","0.0-101.0","""event"",""trial"",""time""
""focus"",""0"",""0""
""fullscreenenter"",""0"",""4984""
","
","""event"",""trial"",""time""
""focus"",""0"",""0""
","""event"",""trial"",""time""
""fullscreenenter"",""0"",""4984""
","
","null","run_exp/static/images/Set 6_rs/132a.jpg","null","","","","","","learn","SR",""
"","html-keyboard-response","102","125827","0.0-102.0","""event"",""trial"",""time""
""focus"",""0"",""0""
""fullscreenenter"",""0"",""4984""
","
","""event"",""trial"",""time""
""focus"",""0"",""0""
","""event"",""trial"",""time""
""fullscreenenter"",""0"",""4984""
","
","null","<p></p>","null","","","","","","","",""
"","image","103","126696","0.0-103.0","""event"",""trial"",""time""
""focus"",""0"",""0""
""fullscreenenter"",""0"",""4984""
","
","""event"",""trial"",""time""
""focus"",""0"",""0""
","""event"",""trial"",""time""
""fullscreenenter"",""0"",""4984""
","
","867","run_exp/static/images/Set 6_rs/177a.jpg","78","","","","","","learn","SR",""
"","show_choice","104","127846","0.0-104.0","""event"",""trial"",""time""
""focus"",""0"",""0""
""fullscreenenter"",""0"",""4984""
","
","""event"",""trial"",""time""
""focus"",""0"",""0""
","""event"",""trial"",""time""
""fullscreenenter"",""0"",""4984""
","
","null","run_exp/static/images/Set 6_rs/177a.jpg","null","","","","","","learn","SR",""
"","html-keyboard-response","105","128366","0.0-105.0","""event"",""trial"",""time""
""focus"",""0"",""0""
""fullscreenenter"",""0"",""4984""
","
","""event"",""trial"",""time""
""focus"",""0"",""0""
","""event"",""trial"",""time""
""fullscreenenter"",""0"",""4984""
","
","null","<p></p>","null","","","","","","","",""
"","image","106","129051","0.0-106.0","""event"",""trial"",""time""
""focus"",""0"",""0""
""fullscreenenter"",""0"",""4984""
","
","""event"",""trial"",""time""
""focus"",""0"",""0""
","""event"",""trial"",""time""
""fullscreenenter"",""0"",""4984""
","
","683","run_exp/static/images/Set 6_rs/172a.jpg","78","","","","","","learn","SR",""
"","show_choice","107","130386","0.0-107.0","""event"",""trial"",""time""
""focus"",""0"",""0""
""fullscreenenter"",""0"",""4984""
","
","""event"",""trial"",""time""
""focus"",""0"",""0""
","""event"",""trial"",""time""
""fullscreenenter"",""0"",""4984""
","
","null","run_exp/static/images/Set 6_rs/172a.jpg","null","","","","","","learn","SR",""
"","html-keyboard-response","108","130906","0.0-108.0","""event"",""trial"",""time""
""focus"",""0"",""0""
""fullscreenenter"",""0"",""4984""
","
","""event"",""trial"",""time""
""focus"",""0"",""0""
","""event"",""trial"",""time""
""fullscreenenter"",""0"",""4984""
","
","null","<p></p>","null","","","","","","","",""
"","image","109","131921","0.0-109.0","""event"",""trial"",""time""
""focus"",""0"",""0""
""fullscreenenter"",""0"",""4984""
","
","""event"",""trial"",""time""
""focus"",""0"",""0""
","""event"",""trial"",""time""
""fullscreenenter"",""0"",""4984""
","
","1013","run_exp/static/images/Set 6_rs/071a.jpg","78","","","","","","learn","SL",""
"","show_choice","110","132926","0.0-110.0","""event"",""trial"",""time""
""focus"",""0"",""0""
""fullscreenenter"",""0"",""4984""
","
","""event"",""trial"",""time""
""focus"",""0"",""0""
","""event"",""trial"",""time""
""fullscreenenter"",""0"",""4984""
","
","null","run_exp/static/images/Set 6_rs/071a.jpg","null","","","","","","learn","SL",""
"","html-keyboard-response","111","133447","0.0-111.0","""event"",""trial"",""time""
""focus"",""0"",""0""
""fullscreenenter"",""0"",""4984""
","
","""event"",""trial"",""time""
""focus"",""0"",""0""
","""event"",""trial"",""time""
""fullscreenenter"",""0"",""4984""
","
","null","<p></p>","null","","","","","","","",""
"","image","112","134045","0.0-112.0","""event"",""trial"",""time""
""focus"",""0"",""0""
""fullscreenenter"",""0"",""4984""
","
","""event"",""trial"",""time""
""focus"",""0"",""0""
","""event"",""trial"",""time""
""fullscreenenter"",""0"",""4984""
","
","595","run_exp/static/images/Set 6_rs/131a.jpg","86","","","","","","learn","SR",""
"","show_choice","113","135466","0.0-113.0","""event"",""trial"",""time""
""focus"",""0"",""0""
""fullscreenenter"",""0"",""4984""
","
","""event"",""trial"",""time""
""focus"",""0"",""0""
","""event"",""trial"",""time""
""fullscreenenter"",""0"",""4984""
","
","null","run_exp/static/images/Set 6_rs/131a.jpg","null","","","","","","learn","SR",""
"","html-keyboard-response","114","135985","0.0-114.0","""event"",""trial"",""time""
""focus"",""0"",""0""
""fullscreenenter"",""0"",""4984""
","
","""event"",""trial"",""time""
""focus"",""0"",""0""
","""event"",""trial"",""time""
""fullscreenenter"",""0"",""4984""
","
","null","<p></p>","null","","","","","","","",""
"","image","115","136653","0.0-115.0","""event"",""trial"",""time""
""focus"",""0"",""0""
""fullscreenenter"",""0"",""4984""
","
","""event"",""trial"",""time""
""focus"",""0"",""0""
","""event"",""trial"",""time""
""fullscreenenter"",""0"",""4984""
","
","666","run_exp/static/images/Set 6_rs/141a.jpg","78","","","","","","learn","SR",""
"","show_choice","116","138006","0.0-116.0","""event"",""trial"",""time""
""focus"",""0"",""0""
""fullscreenenter"",""0"",""4984""
","
","""event"",""trial"",""time""
""focus"",""0"",""0""
","""event"",""trial"",""time""
""fullscreenenter"",""0"",""4984""
","
","null","run_exp/static/images/Set 6_rs/141a.jpg","null","","","","","","learn","SR",""
"","html-keyboard-response","117","138526","0.0-117.0","""event"",""trial"",""time""
""focus"",""0"",""0""
""fullscreenenter"",""0"",""4984""
","
","""event"",""trial"",""time""
""focus"",""0"",""0""
","""event"",""trial"",""time""
""fullscreenenter"",""0"",""4984""
","
","null","<p></p>","null","","","","","","","",""
"","image","118","139164","0.0-118.0","""event"",""trial"",""time""
""focus"",""0"",""0""
""fullscreenenter"",""0"",""4984""
","
","""event"",""trial"",""time""
""focus"",""0"",""0""
","""event"",""trial"",""time""
""fullscreenenter"",""0"",""4984""
","
","634","run_exp/static/images/Set 6_rs/166a.jpg","86","","","","","","learn","SR",""
"","show_choice","119","140546","0.0-119.0","""event"",""trial"",""time""
""focus"",""0"",""0""
""fullscreenenter"",""0"",""4984""
","
","""event"",""trial"",""time""
""focus"",""0"",""0""
","""event"",""trial"",""time""
""fullscreenenter"",""0"",""4984""
","
","null","run_exp/static/images/Set 6_rs/166a.jpg","null","","","","","","learn","SR",""
"","html-keyboard-response","120","141066","0.0-120.0","""event"",""trial"",""time""
""focus"",""0"",""0""
""fullscreenenter"",""0"",""4984""
","
","""event"",""trial"",""time""
""focus"",""0"",""0""
","""event"",""trial"",""time""
""fullscreenenter"",""0"",""4984""
","
","null","<p></p>","null","","","","","","","",""
"","image","121","141622","0.0-121.0","""event"",""trial"",""time""
""focus"",""0"",""0""
""fullscreenenter"",""0"",""4984""
","
","""event"",""trial"",""time""
""focus"",""0"",""0""
","""event"",""trial"",""time""
""fullscreenenter"",""0"",""4984""
","
","554","run_exp/static/images/Set 6_rs/129a.jpg","86","","","","","","learn","SL",""
"","show_choice","122","143087","0.0-122.0","""event"",""trial"",""time""
""focus"",""0"",""0""
""fullscreenenter"",""0"",""4984""
","
","""event"",""trial"",""time""
""focus"",""0"",""0""
","""event"",""trial"",""time""
""fullscreenenter"",""0"",""4984""
","
","null","run_exp/static/images/Set 6_rs/129a.jpg","null","","","","","","learn","SL",""
"","html-keyboard-response","123","143606","0.0-123.0","""event"",""trial"",""time""
""focus"",""0"",""0""
""fullscreenenter"",""0"",""4984""
","
","""event"",""trial"",""time""
""focus"",""0"",""0""
","""event"",""trial"",""time""
""fullscreenenter"",""0"",""4984""
","
","null","<p></p>","null","","","","","","","",""
"","image","124","144169","0.0-124.0","""event"",""trial"",""time""
""focus"",""0"",""0""
""fullscreenenter"",""0"",""4984""
","
","""event"",""trial"",""time""
""focus"",""0"",""0""
","""event"",""trial"",""time""
""fullscreenenter"",""0"",""4984""
","
","562","run_exp/static/images/Set 6_rs/066a.jpg","86","","","","","","learn","SL",""
"","show_choice","125","145616","0.0-125.0","""event"",""trial"",""time""
""focus"",""0"",""0""
""fullscreenenter"",""0"",""4984""
","
","""event"",""trial"",""time""
""focus"",""0"",""0""
","""event"",""trial"",""time""
""fullscreenenter"",""0"",""4984""
","
","null","run_exp/static/images/Set 6_rs/066a.jpg","null","","","","","","learn","SL",""
"","html-keyboard-response","126","146136","0.0-126.0","""event"",""trial"",""time""
""focus"",""0"",""0""
""fullscreenenter"",""0"",""4984""
","
","""event"",""trial"",""time""
""focus"",""0"",""0""
","""event"",""trial"",""time""
""fullscreenenter"",""0"",""4984""
","
","null","<p></p>","null","","","","","","","",""
"","image","127","146873","0.0-127.0","""event"",""trial"",""time""
""focus"",""0"",""0""
""fullscreenenter"",""0"",""4984""
","
","""event"",""trial"",""time""
""focus"",""0"",""0""
","""event"",""trial"",""time""
""fullscreenenter"",""0"",""4984""
","
","734","run_exp/static/images/Set 6_rs/122a.jpg","86","","","","","","learn","SR",""
"","show_choice","128","148156","0.0-128.0","""event"",""trial"",""time""
""focus"",""0"",""0""
""fullscreenenter"",""0"",""4984""
","
","""event"",""trial"",""time""
""focus"",""0"",""0""
","""event"",""trial"",""time""
""fullscreenenter"",""0"",""4984""
","
","null","run_exp/static/images/Set 6_rs/122a.jpg","null","","","","","","learn","SR",""
"","html-keyboard-response","129","148676","0.0-129.0","""event"",""trial"",""time""
""focus"",""0"",""0""
""fullscreenenter"",""0"",""4984""
","
","""event"",""trial"",""time""
""focus"",""0"",""0""
","""event"",""trial"",""time""
""fullscreenenter"",""0"",""4984""
","
","null","<p></p>","null","","","","","","","",""
"","image","130","149207","0.0-130.0","""event"",""trial"",""time""
""focus"",""0"",""0""
""fullscreenenter"",""0"",""4984""
","
","""event"",""trial"",""time""
""focus"",""0"",""0""
","""event"",""trial"",""time""
""fullscreenenter"",""0"",""4984""
","
","529","run_exp/static/images/Set 6_rs/016a.jpg","86","","","","","","learn","SL",""
"","show_choice","131","150696","0.0-131.0","""event"",""trial"",""time""
""focus"",""0"",""0""
""fullscreenenter"",""0"",""4984""
","
","""event"",""trial"",""time""
""focus"",""0"",""0""
","""event"",""trial"",""time""
""fullscreenenter"",""0"",""4984""
","
","null","run_exp/static/images/Set 6_rs/016a.jpg","null","","","","","","learn","SL",""
"","html-keyboard-response","132","151196","0.0-132.0","""event"",""trial"",""time""
""focus"",""0"",""0""
""fullscreenenter"",""0"",""4984""
","
","""event"",""trial"",""time""
""focus"",""0"",""0""
","""event"",""trial"",""time""
""fullscreenenter"",""0"",""4984""
","
","null","<p></p>","null","","","","","","","",""
"","image","133","151843","0.0-133.0","""event"",""trial"",""time""
""focus"",""0"",""0""
""fullscreenenter"",""0"",""4984""
","
","""event"",""trial"",""time""
""focus"",""0"",""0""
","""event"",""trial"",""time""
""fullscreenenter"",""0"",""4984""
","
","643","run_exp/static/images/Set 6_rs/089a.jpg","86","","","","","","learn","SL",""
"","show_choice","134","153216","0.0-134.0","""event"",""trial"",""time""
""focus"",""0"",""0""
""fullscreenenter"",""0"",""4984""
","
","""event"",""trial"",""time""
""focus"",""0"",""0""
","""event"",""trial"",""time""
""fullscreenenter"",""0"",""4984""
","
","null","run_exp/static/images/Set 6_rs/089a.jpg","null","","","","","","learn","SL",""
"","html-keyboard-response","135","153736","0.0-135.0","""event"",""trial"",""time""
""focus"",""0"",""0""
""fullscreenenter"",""0"",""4984""
","
","""event"",""trial"",""time""
""focus"",""0"",""0""
","""event"",""trial"",""time""
""fullscreenenter"",""0"",""4984""
","
","null","<p></p>","null","","","","","","","",""
"","image","136","154962","0.0-136.0","""event"",""trial"",""time""
""focus"",""0"",""0""
""fullscreenenter"",""0"",""4984""
","
","""event"",""trial"",""time""
""focus"",""0"",""0""
","""event"",""trial"",""time""
""fullscreenenter"",""0"",""4984""
","
","1223","run_exp/static/images/Set 6_rs/138a.jpg","78","","","","","","learn","SL",""
"","show_choice","137","155741","0.0-137.0","""event"",""trial"",""time""
""focus"",""0"",""0""
""fullscreenenter"",""0"",""4984""
","
","""event"",""trial"",""time""
""focus"",""0"",""0""
","""event"",""trial"",""time""
""fullscreenenter"",""0"",""4984""
","
","null","run_exp/static/images/Set 6_rs/138a.jpg","null","","","","","","learn","SL",""
"","html-keyboard-response","138","156257","0.0-138.0","""event"",""trial"",""time""
""focus"",""0"",""0""
""fullscreenenter"",""0"",""4984""
","
","""event"",""trial"",""time""
""focus"",""0"",""0""
","""event"",""trial"",""time""
""fullscreenenter"",""0"",""4984""
","
","null","<p></p>","null","","","","","","","",""
"","image","139","156776","0.0-139.0","""event"",""trial"",""time""
""focus"",""0"",""0""
""fullscreenenter"",""0"",""4984""
","
","""event"",""trial"",""time""
""focus"",""0"",""0""
","""event"",""trial"",""time""
""fullscreenenter"",""0"",""4984""
","
","517","run_exp/static/images/Set 6_rs/073a.jpg","86","","","","","","learn","SL",""
"","show_choice","140","158271","0.0-140.0","""event"",""trial"",""time""
""focus"",""0"",""0""
""fullscreenenter"",""0"",""4984""
","
","""event"",""trial"",""time""
""focus"",""0"",""0""
","""event"",""trial"",""time""
""fullscreenenter"",""0"",""4984""
","
","null","run_exp/static/images/Set 6_rs/073a.jpg","null","","","","","","learn","SL",""
"","html-keyboard-response","141","158787","0.0-141.0","""event"",""trial"",""time""
""focus"",""0"",""0""
""fullscreenenter"",""0"",""4984""
","
","""event"",""trial"",""time""
""focus"",""0"",""0""
","""event"",""trial"",""time""
""fullscreenenter"",""0"",""4984""
","
","null","<p></p>","null","","","","","","","",""
"","image","142","159321","0.0-142.0","""event"",""trial"",""time""
""focus"",""0"",""0""
""fullscreenenter"",""0"",""4984""
","
","""event"",""trial"",""time""
""focus"",""0"",""0""
","""event"",""trial"",""time""
""fullscreenenter"",""0"",""4984""
","
","527","run_exp/static/images/Set 6_rs/123a.jpg","86","","","","","","learn","SL",""
"","show_choice","143","160816","0.0-143.0","""event"",""trial"",""time""
""focus"",""0"",""0""
""fullscreenenter"",""0"",""4984""
","
","""event"",""trial"",""time""
""focus"",""0"",""0""
","""event"",""trial"",""time""
""fullscreenenter"",""0"",""4984""
","
","null","run_exp/static/images/Set 6_rs/123a.jpg","null","","","","","","learn","SL",""
"","html-keyboard-response","144","161337","0.0-144.0","""event"",""trial"",""time""
""focus"",""0"",""0""
""fullscreenenter"",""0"",""4984""
","
","""event"",""trial"",""time""
""focus"",""0"",""0""
","""event"",""trial"",""time""
""fullscreenenter"",""0"",""4984""
","
","null","<p></p>","null","","","","","","","",""
"","image","145","161864","0.0-145.0","""event"",""trial"",""time""
""focus"",""0"",""0""
""fullscreenenter"",""0"",""4984""
","
","""event"",""trial"",""time""
""focus"",""0"",""0""
","""event"",""trial"",""time""
""fullscreenenter"",""0"",""4984""
","
","524","run_exp/static/images/Set 6_rs/111a.jpg","86","","","","","","learn","SL",""
"","show_choice","146","163360","0.0-146.0","""event"",""trial"",""time""
""focus"",""0"",""0""
""fullscreenenter"",""0"",""4984""
","
","""event"",""trial"",""time""
""focus"",""0"",""0""
","""event"",""trial"",""time""
""fullscreenenter"",""0"",""4984""
","
","null","run_exp/static/images/Set 6_rs/111a.jpg","null","","","","","","learn","SL",""
"","html-keyboard-response","147","163866","0.0-147.0","""event"",""trial"",""time""
""focus"",""0"",""0""
""fullscreenenter"",""0"",""4984""
","
","""event"",""trial"",""time""
""focus"",""0"",""0""
","""event"",""trial"",""time""
""fullscreenenter"",""0"",""4984""
","
","null","<p></p>","null","","","","","","","",""
"","image","148","164659","0.0-148.0","""event"",""trial"",""time""
""focus"",""0"",""0""
""fullscreenenter"",""0"",""4984""
","
","""event"",""trial"",""time""
""focus"",""0"",""0""
","""event"",""trial"",""time""
""fullscreenenter"",""0"",""4984""
","
","789","run_exp/static/images/Set 6_rs/088a.jpg","86","","","","","","learn","SR",""
"","show_choice","149","165871","0.0-149.0","""event"",""trial"",""time""
""focus"",""0"",""0""
""fullscreenenter"",""0"",""4984""
","
","""event"",""trial"",""time""
""focus"",""0"",""0""
","""event"",""trial"",""time""
""fullscreenenter"",""0"",""4984""
","
","null","run_exp/static/images/Set 6_rs/088a.jpg","null","","","","","","learn","SR",""
"","html-keyboard-response","150","166376","0.0-150.0","""event"",""trial"",""time""
""focus"",""0"",""0""
""fullscreenenter"",""0"",""4984""
","
","""event"",""trial"",""time""
""focus"",""0"",""0""
","""event"",""trial"",""time""
""fullscreenenter"",""0"",""4984""
","
","null","<p></p>","null","","","","","","","",""
"","image","151","166879","0.0-151.0","""event"",""trial"",""time""
""focus"",""0"",""0""
""fullscreenenter"",""0"",""4984""
","
","""event"",""trial"",""time""
""focus"",""0"",""0""
","""event"",""trial"",""time""
""fullscreenenter"",""0"",""4984""
","
","502","run_exp/static/images/Set 6_rs/121a.jpg","86","","","","","","learn","SR",""
"","show_choice","152","168392","0.0-152.0","""event"",""trial"",""time""
""focus"",""0"",""0""
""fullscreenenter"",""0"",""4984""
","
","""event"",""trial"",""time""
""focus"",""0"",""0""
","""event"",""trial"",""time""
""fullscreenenter"",""0"",""4984""
","
","null","run_exp/static/images/Set 6_rs/121a.jpg","null","","","","","","learn","SR",""
"","html-keyboard-response","153","168906","0.0-153.0","""event"",""trial"",""time""
""focus"",""0"",""0""
""fullscreenenter"",""0"",""4984""
","
","""event"",""trial"",""time""
""focus"",""0"",""0""
","""event"",""trial"",""time""
""fullscreenenter"",""0"",""4984""
","
","null","<p></p>","null","","","","","","","",""
"","image","154","169369","0.0-154.0","""event"",""trial"",""time""
""focus"",""0"",""0""
""fullscreenenter"",""0"",""4984""
","
","""event"",""trial"",""time""
""focus"",""0"",""0""
","""event"",""trial"",""time""
""fullscreenenter"",""0"",""4984""
","
","462","run_exp/static/images/Set 6_rs/076a.jpg","86","","","","","","learn","SR",""
"","show_choice","155","170927","0.0-155.0","""event"",""trial"",""time""
""focus"",""0"",""0""
""fullscreenenter"",""0"",""4984""
","
","""event"",""trial"",""time""
""focus"",""0"",""0""
","""event"",""trial"",""time""
""fullscreenenter"",""0"",""4984""
","
","null","run_exp/static/images/Set 6_rs/076a.jpg","null","","","","","","learn","SR",""
"","html-keyboard-response","156","171441","0.0-156.0","""event"",""trial"",""time""
""focus"",""0"",""0""
""fullscreenenter"",""0"",""4984""
","
","""event"",""trial"",""time""
""focus"",""0"",""0""
","""event"",""trial"",""time""
""fullscreenenter"",""0"",""4984""
","
","null","<p></p>","null","","","","","","","",""
"","image","157","172157","0.0-157.0","""event"",""trial"",""time""
""focus"",""0"",""0""
""fullscreenenter"",""0"",""4984""
","
","""event"",""trial"",""time""
""focus"",""0"",""0""
","""event"",""trial"",""time""
""fullscreenenter"",""0"",""4984""
","
","712","run_exp/static/images/Set 6_rs/012a.jpg","86","","","","","","learn","SR",""
"","show_choice","158","173448","0.0-158.0","""event"",""trial"",""time""
""focus"",""0"",""0""
""fullscreenenter"",""0"",""4984""
","
","""event"",""trial"",""time""
""focus"",""0"",""0""
","""event"",""trial"",""time""
""fullscreenenter"",""0"",""4984""
","
","null","run_exp/static/images/Set 6_rs/012a.jpg","null","","","","","","learn","SR",""
"","html-keyboard-response","159","173956","0.0-159.0","""event"",""trial"",""time""
""focus"",""0"",""0""
""fullscreenenter"",""0"",""4984""
","
","""event"",""trial"",""time""
""focus"",""0"",""0""
","""event"",""trial"",""time""
""fullscreenenter"",""0"",""4984""
","
","null","<p></p>","null","","","","","","","",""
"","image","160","174746","0.0-160.0","""event"",""trial"",""time""
""focus"",""0"",""0""
""fullscreenenter"",""0"",""4984""
","
","""event"",""trial"",""time""
""focus"",""0"",""0""
","""event"",""trial"",""time""
""fullscreenenter"",""0"",""4984""
","
","787","run_exp/static/images/Set 6_rs/108a.jpg","78","","","","","","learn","SR",""
"","show_choice","161","175971","0.0-161.0","""event"",""trial"",""time""
""focus"",""0"",""0""
""fullscreenenter"",""0"",""4984""
","
","""event"",""trial"",""time""
""focus"",""0"",""0""
","""event"",""trial"",""time""
""fullscreenenter"",""0"",""4984""
","
","null","run_exp/static/images/Set 6_rs/108a.jpg","null","","","","","","learn","SR",""
"","html-keyboard-response","162","176489","0.0-162.0","""event"",""trial"",""time""
""focus"",""0"",""0""
""fullscreenenter"",""0"",""4984""
","
","""event"",""trial"",""time""
""focus"",""0"",""0""
","""event"",""trial"",""time""
""fullscreenenter"",""0"",""4984""
","
","null","<p></p>","null","","","","","","","",""
"","image","163","177062","0.0-163.0","""event"",""trial"",""time""
""focus"",""0"",""0""
""fullscreenenter"",""0"",""4984""
","
","""event"",""trial"",""time""
""focus"",""0"",""0""
","""event"",""trial"",""time""
""fullscreenenter"",""0"",""4984""
","
","570","run_exp/static/images/Set 6_rs/006a.jpg","86","","","","","","learn","SL",""
"","show_choice","164","178507","0.0-164.0","""event"",""trial"",""time""
""focus"",""0"",""0""
""fullscreenenter"",""0"",""4984""
","
","""event"",""trial"",""time""
""focus"",""0"",""0""
","""event"",""trial"",""time""
""fullscreenenter"",""0"",""4984""
","
","null","run_exp/static/images/Set 6_rs/006a.jpg","null","","","","","","learn","SL",""
"","html-keyboard-response","165","179023","0.0-165.0","""event"",""trial"",""time""
""focus"",""0"",""0""
""fullscreenenter"",""0"",""4984""
","
","""event"",""trial"",""time""
""focus"",""0"",""0""
","""event"",""trial"",""time""
""fullscreenenter"",""0"",""4984""
","
","null","<p></p>","null","","","","","","","",""
"","image","166","179717","0.0-166.0","""event"",""trial"",""time""
""focus"",""0"",""0""
""fullscreenenter"",""0"",""4984""
","
","""event"",""trial"",""time""
""focus"",""0"",""0""
","""event"",""trial"",""time""
""fullscreenenter"",""0"",""4984""
","
","692","run_exp/static/images/Set 6_rs/014a.jpg","86","","","","","","learn","SL",""
"","show_choice","167","181027","0.0-167.0","""event"",""trial"",""time""
""focus"",""0"",""0""
""fullscreenenter"",""0"",""4984""
","
","""event"",""trial"",""time""
""focus"",""0"",""0""
","""event"",""trial"",""time""
""fullscreenenter"",""0"",""4984""
","
","null","run_exp/static/images/Set 6_rs/014a.jpg","null","","","","","","learn","SL",""
"","html-keyboard-response","168","181547","0.0-168.0","""event"",""trial"",""time""
""focus"",""0"",""0""
""fullscreenenter"",""0"",""4984""
","
","""event"",""trial"",""time""
""focus"",""0"",""0""
","""event"",""trial"",""time""
""fullscreenenter"",""0"",""4984""
","
","null","<p></p>","null","","","","","","","",""
"","image","169","182260","0.0-169.0","""event"",""trial"",""time""
""focus"",""0"",""0""
""fullscreenenter"",""0"",""4984""
","
","""event"",""trial"",""time""
""focus"",""0"",""0""
","""event"",""trial"",""time""
""fullscreenenter"",""0"",""4984""
","
","711","run_exp/static/images/Set 6_rs/074a.jpg","78","","","","","","learn","SL",""
"","show_choice","170","183565","0.0-170.0","""event"",""trial"",""time""
""focus"",""0"",""0""
""fullscreenenter"",""0"",""4984""
","
","""event"",""trial"",""time""
""focus"",""0"",""0""
","""event"",""trial"",""time""
""fullscreenenter"",""0"",""4984""
","
","null","run_exp/static/images/Set 6_rs/074a.jpg","null","","","","","","learn","SL",""
"","html-keyboard-response","171","184086","0.0-171.0","""event"",""trial"",""time""
""focus"",""0"",""0""
""fullscreenenter"",""0"",""4984""
","
","""event"",""trial"",""time""
""focus"",""0"",""0""
","""event"",""trial"",""time""
""fullscreenenter"",""0"",""4984""
","
","null","<p></p>","null","","","","","","","",""
"","image","172","184809","0.0-172.0","""event"",""trial"",""time""
""focus"",""0"",""0""
""fullscreenenter"",""0"",""4984""
","
","""event"",""trial"",""time""
""focus"",""0"",""0""
","""event"",""trial"",""time""
""fullscreenenter"",""0"",""4984""
","
","722","run_exp/static/images/Set 6_rs/150a.jpg","86","","","","","","learn","SR",""
"","show_choice","173","186106","0.0-173.0","""event"",""trial"",""time""
""focus"",""0"",""0""
""fullscreenenter"",""0"",""4984""
","
","""event"",""trial"",""time""
""focus"",""0"",""0""
","""event"",""trial"",""time""
""fullscreenenter"",""0"",""4984""
","
","null","run_exp/static/images/Set 6_rs/150a.jpg","null","","","","","","learn","SR",""
"","html-keyboard-response","174","186627","0.0-174.0","""event"",""trial"",""time""
""focus"",""0"",""0""
""fullscreenenter"",""0"",""4984""
","
","""event"",""trial"",""time""
""focus"",""0"",""0""
","""event"",""trial"",""time""
""fullscreenenter"",""0"",""4984""
","
","null","<p></p>","null","","","","","","","",""
"","image","175","187383","0.0-175.0","""event"",""trial"",""time""
""focus"",""0"",""0""
""fullscreenenter"",""0"",""4984""
","
","""event"",""trial"",""time""
""focus"",""0"",""0""
","""event"",""trial"",""time""
""fullscreenenter"",""0"",""4984""
","
","754","run_exp/static/images/Set 6_rs/168a.jpg","78","","","","","","learn","SL",""
"","show_choice","176","188646","0.0-176.0","""event"",""trial"",""time""
""focus"",""0"",""0""
""fullscreenenter"",""0"",""4984""
","
","""event"",""trial"",""time""
""focus"",""0"",""0""
","""event"",""trial"",""time""
""fullscreenenter"",""0"",""4984""
","
","null","run_exp/static/images/Set 6_rs/168a.jpg","null","","","","","","learn","SL",""
"","html-keyboard-response","177","189162","0.0-177.0","""event"",""trial"",""time""
""focus"",""0"",""0""
""fullscreenenter"",""0"",""4984""
","
","""event"",""trial"",""time""
""focus"",""0"",""0""
","""event"",""trial"",""time""
""fullscreenenter"",""0"",""4984""
","
","null","<p></p>","null","","","","","","","",""
"","image","178","189774","0.0-178.0","""event"",""trial"",""time""
""focus"",""0"",""0""
""fullscreenenter"",""0"",""4984""
","
","""event"",""trial"",""time""
""focus"",""0"",""0""
","""event"",""trial"",""time""
""fullscreenenter"",""0"",""4984""
","
","608","run_exp/static/images/Set 6_rs/061a.jpg","78","","","","","","learn","SR",""
"","show_choice","179","191186","0.0-179.0","""event"",""trial"",""time""
""focus"",""0"",""0""
""fullscreenenter"",""0"",""4984""
","
","""event"",""trial"",""time""
""focus"",""0"",""0""
","""event"",""trial"",""time""
""fullscreenenter"",""0"",""4984""
","
","null","run_exp/static/images/Set 6_rs/061a.jpg","null","","","","","","learn","SR",""
"","html-keyboard-response","180","191705","0.0-180.0","""event"",""trial"",""time""
""focus"",""0"",""0""
""fullscreenenter"",""0"",""4984""
","
","""event"",""trial"",""time""
""focus"",""0"",""0""
","""event"",""trial"",""time""
""fullscreenenter"",""0"",""4984""
","
","null","<p></p>","null","","","","","","","",""
"","image","181","192274","0.0-181.0","""event"",""trial"",""time""
""focus"",""0"",""0""
""fullscreenenter"",""0"",""4984""
","
","""event"",""trial"",""time""
""focus"",""0"",""0""
","""event"",""trial"",""time""
""fullscreenenter"",""0"",""4984""
","
","567","run_exp/static/images/Set 6_rs/187a.jpg","86","","","","","","learn","SR",""
"","show_choice","182","193726","0.0-182.0","""event"",""trial"",""time""
""focus"",""0"",""0""
""fullscreenenter"",""0"",""4984""
","
","""event"",""trial"",""time""
""focus"",""0"",""0""
","""event"",""trial"",""time""
""fullscreenenter"",""0"",""4984""
","
","null","run_exp/static/images/Set 6_rs/187a.jpg","null","","","","","","learn","SR",""
"","html-keyboard-response","183","194246","0.0-183.0","""event"",""trial"",""time""
""focus"",""0"",""0""
""fullscreenenter"",""0"",""4984""
","
","""event"",""trial"",""time""
""focus"",""0"",""0""
","""event"",""trial"",""time""
""fullscreenenter"",""0"",""4984""
","
","null","<p></p>","null","","","","","","","",""
"","image","184","195359","0.0-184.0","""event"",""trial"",""time""
""focus"",""0"",""0""
""fullscreenenter"",""0"",""4984""
","
","""event"",""trial"",""time""
""focus"",""0"",""0""
","""event"",""trial"",""time""
""fullscreenenter"",""0"",""4984""
","
","1111","run_exp/static/images/Set 6_rs/134a.jpg","86","","","","","","learn","SR",""
"","show_choice","185","196268","0.0-185.0","""event"",""trial"",""time""
""focus"",""0"",""0""
""fullscreenenter"",""0"",""4984""
","
","""event"",""trial"",""time""
""focus"",""0"",""0""
","""event"",""trial"",""time""
""fullscreenenter"",""0"",""4984""
","
","null","run_exp/static/images/Set 6_rs/134a.jpg","null","","","","","","learn","SR",""
"","html-keyboard-response","186","196787","0.0-186.0","""event"",""trial"",""time""
""focus"",""0"",""0""
""fullscreenenter"",""0"",""4984""
","
","""event"",""trial"",""time""
""focus"",""0"",""0""
","""event"",""trial"",""time""
""fullscreenenter"",""0"",""4984""
","
","null","<p></p>","null","","","","","","","",""
"","image","187","197408","0.0-187.0","""event"",""trial"",""time""
""focus"",""0"",""0""
""fullscreenenter"",""0"",""4984""
","
","""event"",""trial"",""time""
""focus"",""0"",""0""
","""event"",""trial"",""time""
""fullscreenenter"",""0"",""4984""
","
","617","run_exp/static/images/Set 6_rs/112a.jpg","86","","","","","","learn","SR",""
"","show_choice","188","198806","0.0-188.0","""event"",""trial"",""time""
""focus"",""0"",""0""
""fullscreenenter"",""0"",""4984""
","
","""event"",""trial"",""time""
""focus"",""0"",""0""
","""event"",""trial"",""time""
""fullscreenenter"",""0"",""4984""
","
","null","run_exp/static/images/Set 6_rs/112a.jpg","null","","","","","","learn","SR",""
"","html-keyboard-response","189","199326","0.0-189.0","""event"",""trial"",""time""
""focus"",""0"",""0""
""fullscreenenter"",""0"",""4984""
","
","""event"",""trial"",""time""
""focus"",""0"",""0""
","""event"",""trial"",""time""
""fullscreenenter"",""0"",""4984""
","
","null","<p></p>","null","","","","","","","",""
"","image","190","199891","0.0-190.0","""event"",""trial"",""time""
""focus"",""0"",""0""
""fullscreenenter"",""0"",""4984""
","
","""event"",""trial"",""time""
""focus"",""0"",""0""
","""event"",""trial"",""time""
""fullscreenenter"",""0"",""4984""
","
","563","run_exp/static/images/Set 6_rs/062a.jpg","86","","","","","","learn","SL",""
"","show_choice","191","201346","0.0-191.0","""event"",""trial"",""time""
""focus"",""0"",""0""
""fullscreenenter"",""0"",""4984""
","
","""event"",""trial"",""time""
""focus"",""0"",""0""
","""event"",""trial"",""time""
""fullscreenenter"",""0"",""4984""
","
","null","run_exp/static/images/Set 6_rs/062a.jpg","null","","","","","","learn","SL",""
"","html-keyboard-response","192","201867","0.0-192.0","""event"",""trial"",""time""
""focus"",""0"",""0""
""fullscreenenter"",""0"",""4984""
","
","""event"",""trial"",""time""
""focus"",""0"",""0""
","""event"",""trial"",""time""
""fullscreenenter"",""0"",""4984""
","
","null","<p></p>","null","","","","","","","",""
"","image","193","202521","0.0-193.0","""event"",""trial"",""time""
""focus"",""0"",""0""
""fullscreenenter"",""0"",""4984""
","
","""event"",""trial"",""time""
""focus"",""0"",""0""
","""event"",""trial"",""time""
""fullscreenenter"",""0"",""4984""
","
","652","run_exp/static/images/Set 6_rs/064a.jpg","86","","","","","","learn","SR",""
"","show_choice","194","203887","0.0-194.0","""event"",""trial"",""time""
""focus"",""0"",""0""
""fullscreenenter"",""0"",""4984""
","
","""event"",""trial"",""time""
""focus"",""0"",""0""
","""event"",""trial"",""time""
""fullscreenenter"",""0"",""4984""
","
","null","run_exp/static/images/Set 6_rs/064a.jpg","null","","","","","","learn","SR",""
"","html-keyboard-response","195","204407","0.0-195.0","""event"",""trial"",""time""
""focus"",""0"",""0""
""fullscreenenter"",""0"",""4984""
","
","""event"",""trial"",""time""
""focus"",""0"",""0""
","""event"",""trial"",""time""
""fullscreenenter"",""0"",""4984""
","
","null","<p></p>","null","","","","","","","",""
"","test_intro","196","241252","0.0-196.0","""event"",""trial"",""time""
""focus"",""0"",""0""
""fullscreenenter"",""0"",""4984""
","
","""event"",""trial"",""time""
""focus"",""0"",""0""
","""event"",""trial"",""time""
""fullscreenenter"",""0"",""4984""
","
","null","run_exp/static/audio/clip_2_memory.m4a","null","","","","","<div class='center'><p>Now, lets see how much you remember about the items you just saw.  For each item, you need to indicate if it was <b>old</b> by pressing the <b>v</b> key, <b>similar</b> by pressing the <b>b</b> key, or <b>new</b> by pressing the <b>n</b> key.</p><p>Old refers to an item that you saw before in the indoor/outdoor game that you just played, new refers to an item you have <b>not</b> seen before within the indoor/outdoor game, and similar refers to an item that is similar to an item youve seen before but is not exactly the same. </p><p>Before we begin, lets go over some brief demonstrations to make sure you understand.</p></div>","","",""
"","html-keyboard-response","197","243129","0.0-197.0","""event"",""trial"",""time""
""focus"",""0"",""0""
""fullscreenenter"",""0"",""4984""
","
","""event"",""trial"",""time""
""focus"",""0"",""0""
","""event"",""trial"",""time""
""fullscreenenter"",""0"",""4984""
","
","1876","<div class='center'><p>Now, lets see how much you remember about the items you just saw.  For each item, you need to indicate if it was <b>old</b> by pressing the <b>v</b> key, <b>similar</b> by pressing the <b>b</b> key, or <b>new</b> by pressing the <b>n</b> key.</p><p>Old refers to an item that you saw before in the indoor/outdoor game that you just played, new refers to an item you have <b>not</b> seen before within the indoor/outdoor game, and similar refers to an item that is similar to an item youve seen before but is not exactly the same. </p><p>Before we begin, lets go over some brief demonstrations to make sure you understand.</p><div><p><b>[Press the space bar to continue]</b></p></div>","32","","","","","","","",""
"","items","198","250647","0.0-198.0","""event"",""trial"",""time""
""focus"",""0"",""0""
""fullscreenenter"",""0"",""4984""
","
","""event"",""trial"",""time""
""focus"",""0"",""0""
","""event"",""trial"",""time""
""fullscreenenter"",""0"",""4984""
","
","null","run_exp/static/audio/clip_3_items.m4a","null","","","","","","","",""
"","mop","199","255167","0.0-199.0","""event"",""trial"",""time""
""focus"",""0"",""0""
""fullscreenenter"",""0"",""4984""
","
","""event"",""trial"",""time""
""focus"",""0"",""0""
","""event"",""trial"",""time""
""fullscreenenter"",""0"",""4984""
","
","null","run_exp/static/audio/clip_4_mop.m4a","null","","","","","","","",""
"","baseball","200","258686","0.0-200.0","""event"",""trial"",""time""
""focus"",""0"",""0""
""fullscreenenter"",""0"",""4984""
","
","""event"",""trial"",""time""
""focus"",""0"",""0""
","""event"",""trial"",""time""
""fullscreenenter"",""0"",""4984""
","
","null","run_exp/static/audio/clip_5_baseball.m4a","null","","","","","","","",""
"","trumpet","201","262196","0.0-201.0","""event"",""trial"",""time""
""focus"",""0"",""0""
""fullscreenenter"",""0"",""4984""
","
","""event"",""trial"",""time""
""focus"",""0"",""0""
","""event"",""trial"",""time""
""fullscreenenter"",""0"",""4984""
","
","null","run_exp/static/audio/clip_6_trumpet.m4a","null","","","","","","","",""
"","gummies","202","265707","0.0-202.0","""event"",""trial"",""time""
""focus"",""0"",""0""
""fullscreenenter"",""0"",""4984""
","
","""event"",""trial"",""time""
""focus"",""0"",""0""
","""event"",""trial"",""time""
""fullscreenenter"",""0"",""4984""
","
","null","run_exp/static/audio/clip_7_gummies.m4a","null","","","","","","","",""
"","osn","203","270227","0.0-203.0","""event"",""trial"",""time""
""focus"",""0"",""0""
""fullscreenenter"",""0"",""4984""
","
","""event"",""trial"",""time""
""focus"",""0"",""0""
","""event"",""trial"",""time""
""fullscreenenter"",""0"",""4984""
","
","null","run_exp/static/audio/clip_8_osn.m4a","null","","","","","","","",""
"","old_1","204","276736","0.0-204.0","""event"",""trial"",""time""
""focus"",""0"",""0""
""fullscreenenter"",""0"",""4984""
","
","""event"",""trial"",""time""
""focus"",""0"",""0""
","""event"",""trial"",""time""
""fullscreenenter"",""0"",""4984""
","
","null","run_exp/static/audio/clip_9_old_trumpet.m4a","null","","","","","","","",""
"","new_1","205","284258","0.0-205.0","""event"",""trial"",""time""
""focus"",""0"",""0""
""fullscreenenter"",""0"",""4984""
","
","""event"",""trial"",""time""
""focus"",""0"",""0""
","""event"",""trial"",""time""
""fullscreenenter"",""0"",""4984""
","
","null","run_exp/static/audio/clip_10_new_balloon.m4a","null","","","","","","","",""
"","similar_1a","206","288762","0.0-206.0","""event"",""trial"",""time""
""focus"",""0"",""0""
""fullscreenenter"",""0"",""4984""
","
","""event"",""trial"",""time""
""focus"",""0"",""0""
","""event"",""trial"",""time""
""fullscreenenter"",""0"",""4984""
","
","null","run_exp/static/audio/clip_11a_similar_mop.m4a","null","","","","","","","",""
"","similar_1b","207","295266","0.0-207.0","""event"",""trial"",""time""
""focus"",""0"",""0""
""fullscreenenter"",""0"",""4984""
","
","""event"",""trial"",""time""
""focus"",""0"",""0""
","""event"",""trial"",""time""
""fullscreenenter"",""0"",""4984""
","
","null","run_exp/static/audio/clip_11b_similar_mop.m4a","null","","","","","","","",""
"","new_2","208","298771","0.0-208.0","""event"",""trial"",""time""
""focus"",""0"",""0""
""fullscreenenter"",""0"",""4984""
","
","""event"",""trial"",""time""
""focus"",""0"",""0""
","""event"",""trial"",""time""
""fullscreenenter"",""0"",""4984""
","
","null","run_exp/static/audio/clip_12_new_stoplight.m4a","null","","","","","","","",""
"","old_2","209","302276","0.0-209.0","""event"",""trial"",""time""
""focus"",""0"",""0""
""fullscreenenter"",""0"",""4984""
","
","""event"",""trial"",""time""
""focus"",""0"",""0""
","""event"",""trial"",""time""
""fullscreenenter"",""0"",""4984""
","
","null","run_exp/static/audio/clip_13_old_baseball.m4a","null","","","","","","","",""
"","similar_2a","210","305786","0.0-210.0","""event"",""trial"",""time""
""focus"",""0"",""0""
""fullscreenenter"",""0"",""4984""
","
","""event"",""trial"",""time""
""focus"",""0"",""0""
","""event"",""trial"",""time""
""fullscreenenter"",""0"",""4984""
","
","null","run_exp/static/audio/clip_14a_similar_gummies.m4a","null","","","","","","","",""
"","similar_2b","211","313307","0.0-211.0","""event"",""trial"",""time""
""focus"",""0"",""0""
""fullscreenenter"",""0"",""4984""
","
","""event"",""trial"",""time""
""focus"",""0"",""0""
","""event"",""trial"",""time""
""fullscreenenter"",""0"",""4984""
","
","null","run_exp/static/audio/clip_14b_similar_gummies.m4a","null","","","","","","","",""
"","practice","212","355424","0.0-212.0","""event"",""trial"",""time""
""focus"",""0"",""0""
""fullscreenenter"",""0"",""4984""
","
","""event"",""trial"",""time""
""focus"",""0"",""0""
","""event"",""trial"",""time""
""fullscreenenter"",""0"",""4984""
","
","null","run_exp/static/audio/clip_15_practice.m4a","null","","","","","<div class='center'><p>Lets practice a little to make sure you understand the difference between new, similar, and old. Lets say you saw these three items in the indoor/outdoor game.</p><p> Try your best to remember these images because youll soon be tested on them in a practice game. In the practice game, youll be shown images and youll have to say if they are old (one of the three images belows), similar (similar to one of the images below but not exactly the same), or new (are not one of the images below nor similar to them).</p><p>Once you press the space bar youll be shown these images again but one at time. Then youll begin the practice game.</p><p><img src='run_exp/static/images/tutorial/test/three_indoor_outdoor.png' height='300'></p></div>","","",""
"","html-keyboard-response","213","357043","0.0-213.0","""event"",""trial"",""time""
""focus"",""0"",""0""
""fullscreenenter"",""0"",""4984""
","
","""event"",""trial"",""time""
""focus"",""0"",""0""
","""event"",""trial"",""time""
""fullscreenenter"",""0"",""4984""
","
","1614","<div class='center'><p>Lets practice a little to make sure you understand the difference between new, similar, and old. Lets say you saw these three items in the indoor/outdoor game.</p><p> Try your best to remember these images because youll soon be tested on them in a practice game. In the practice game, youll be shown images and youll have to say if they are old (one of the three images belows), similar (similar to one of the images below but not exactly the same), or new (are not one of the images below nor similar to them).</p><p>Once you press the space bar youll be shown these images again but one at time. Then youll begin the practice game.</p><p><img src='run_exp/static/images/tutorial/test/three_indoor_outdoor.png' height='300'></p><div><p><b>[Press the space bar to continue]</b></p></div>","32","","","","","","","",""
"","planet","214","359046","0.0-214.0","""event"",""trial"",""time""
""focus"",""0"",""0""
""fullscreenenter"",""0"",""4984""
","
","""event"",""trial"",""time""
""focus"",""0"",""0""
","""event"",""trial"",""time""
""fullscreenenter"",""0"",""4984""
","
","null","run_exp/static/images/tutorial/test/008a.jpg","null","","","","","","","",""
"","boot","215","361056","0.0-215.0","""event"",""trial"",""time""
""focus"",""0"",""0""
""fullscreenenter"",""0"",""4984""
","
","""event"",""trial"",""time""
""focus"",""0"",""0""
","""event"",""trial"",""time""
""fullscreenenter"",""0"",""4984""
","
","null","run_exp/static/images/tutorial/test/011a.jpg","null","","","","","","","",""
"","lemon","216","363076","0.0-216.0","""event"",""trial"",""time""
""focus"",""0"",""0""
""fullscreenenter"",""0"",""4984""
","
","""event"",""trial"",""time""
""focus"",""0"",""0""
","""event"",""trial"",""time""
""fullscreenenter"",""0"",""4984""
","
","null","run_exp/static/images/tutorial/test/018a.jpg","null","","","","","","","",""
"","practice_q1","217","365426","0.0-217.0","""event"",""trial"",""time""
""focus"",""0"",""0""
""fullscreenenter"",""0"",""4984""
","
","""event"",""trial"",""time""
""focus"",""0"",""0""
","""event"",""trial"",""time""
""fullscreenenter"",""0"",""4984""
","
","2347","run_exp/static/audio/clip_16_practice_question.m4a","86","","","","","","","",""
"","incorrect_q1","218","368275","0.0-218.0-0.0","""event"",""trial"",""time""
""focus"",""0"",""0""
""fullscreenenter"",""0"",""4984""
""fullscreenexit"",""219"",""386394""
","
","""event"",""trial"",""time""
""focus"",""0"",""0""
","""event"",""trial"",""time""
""fullscreenenter"",""0"",""4984""
","""event"",""trial"",""time""
""fullscreenexit"",""219"",""386394""
","null","run_exp/static/audio/clip_18_incorrect_new.m4a","null","","","","","<div class='center'><p>Thats incorrect. Its new.</p></div>","","",""
"","html-keyboard-response","219","417141","0.0-218.0-1.0","""event"",""trial"",""time""
""focus"",""0"",""0""
""fullscreenenter"",""0"",""4984""
""fullscreenexit"",""219"",""386394""
","
","""event"",""trial"",""time""
""focus"",""0"",""0""
","""event"",""trial"",""time""
""fullscreenenter"",""0"",""4984""
","""event"",""trial"",""time""
""fullscreenexit"",""219"",""386394""
","48865","<div class='center'><p>Thats incorrect. Its new.</p><div><p><b>[Press the space bar to continue]</b></p></div>","32","","","","","","","",""
"","practice_q2","220","422050","0.0-218.0-2.0","""event"",""trial"",""time""
""focus"",""0"",""0""
""fullscreenenter"",""0"",""4984""
""fullscreenexit"",""219"",""386394""
","
","""event"",""trial"",""time""
""focus"",""0"",""0""
","""event"",""trial"",""time""
""fullscreenenter"",""0"",""4984""
","""event"",""trial"",""time""
""fullscreenexit"",""219"",""386394""
","4907","run_exp/static/audio/clip_16_practice_question.m4a","78","","","","","","","",""
"","incorrect_q2","221","425102","0.0-219.0-0.0","""event"",""trial"",""time""
""focus"",""0"",""0""
""fullscreenenter"",""0"",""4984""
""fullscreenexit"",""219"",""386394""
","
","""event"",""trial"",""time""
""focus"",""0"",""0""
","""event"",""trial"",""time""
""fullscreenenter"",""0"",""4984""
","""event"",""trial"",""time""
""fullscreenexit"",""219"",""386394""
","null","run_exp/static/audio/clip_19_incorrect_old.m4a","null","","","","","<div class='center'><p>Thats incorrect. Its old.</p></div>","","",""
"","html-keyboard-response","222","426748","0.0-219.0-1.0","""event"",""trial"",""time""
""focus"",""0"",""0""
""fullscreenenter"",""0"",""4984""
""fullscreenexit"",""219"",""386394""
","
","""event"",""trial"",""time""
""focus"",""0"",""0""
","""event"",""trial"",""time""
""fullscreenenter"",""0"",""4984""
","""event"",""trial"",""time""
""fullscreenexit"",""219"",""386394""
","1645","<div class='center'><p>Thats incorrect. Its old.</p><div><p><b>[Press the space bar to continue]</b></p></div>","32","","","","","","","",""
"","practice_q3","223","429629","0.0-219.0-2.0","""event"",""trial"",""time""
""focus"",""0"",""0""
""fullscreenenter"",""0"",""4984""
""fullscreenexit"",""219"",""386394""
","
","""event"",""trial"",""time""
""focus"",""0"",""0""
","""event"",""trial"",""time""
""fullscreenenter"",""0"",""4984""
","""event"",""trial"",""time""
""fullscreenexit"",""219"",""386394""
","2879","run_exp/static/audio/clip_16_practice_question.m4a","86","","","","","","","",""
"","incorrect_q3","224","432382","0.0-220.0-0.0","""event"",""trial"",""time""
""focus"",""0"",""0""
""fullscreenenter"",""0"",""4984""
""fullscreenexit"",""219"",""386394""
","
","""event"",""trial"",""time""
""focus"",""0"",""0""
","""event"",""trial"",""time""
""fullscreenenter"",""0"",""4984""
","""event"",""trial"",""time""
""fullscreenexit"",""219"",""386394""
","null","run_exp/static/audio/clip_20_incorrect_similar.m4a","null","","","","","<div class='center'><p>Thats incorrect. Its similar.</p><p><img src='run_exp/static/images/tutorial/test/boot_comparison.png' height='300'></p></div>","","",""
"","html-keyboard-response","225","433602","0.0-220.0-1.0","""event"",""trial"",""time""
""focus"",""0"",""0""
""fullscreenenter"",""0"",""4984""
""fullscreenexit"",""219"",""386394""
","
","""event"",""trial"",""time""
""focus"",""0"",""0""
","""event"",""trial"",""time""
""fullscreenenter"",""0"",""4984""
","""event"",""trial"",""time""
""fullscreenexit"",""219"",""386394""
","1219","<div class='center'><p>Thats incorrect. Its similar.</p><p><img src='run_exp/static/images/tutorial/test/boot_comparison.png' height='300'></p><div><p><b>[Press the space bar to continue]</b></p></div>","32","","","","","","","",""
"","repeat","226","438332","0.0-221.0-0.0","""event"",""trial"",""time""
""focus"",""0"",""0""
""fullscreenenter"",""0"",""4984""
""fullscreenexit"",""219"",""386394""
","
","""event"",""trial"",""time""
""focus"",""0"",""0""
","""event"",""trial"",""time""
""fullscreenenter"",""0"",""4984""
","""event"",""trial"",""time""
""fullscreenexit"",""219"",""386394""
","null","run_exp/static/audio/clip_21_practice_again.m4a","null","","","","","<div class='center'><p>Oops. you missed at least one of these questions. Let's try practicing again. </p></div>","","",""
"","html-keyboard-response","227","440085","0.0-221.0-1.0","""event"",""trial"",""time""
""focus"",""0"",""0""
""fullscreenenter"",""0"",""4984""
""fullscreenexit"",""219"",""386394""
","
","""event"",""trial"",""time""
""focus"",""0"",""0""
","""event"",""trial"",""time""
""fullscreenenter"",""0"",""4984""
","""event"",""trial"",""time""
""fullscreenexit"",""219"",""386394""
","1752","<div class='center'><p>Oops. you missed at least one of these questions. Let's try practicing again. </p><div><p><b>[Press the space bar to continue]</b></p></div>","32","","","","","","","",""
"","practice_q1","228","442209","0.0-221.0-2.0","""event"",""trial"",""time""
""focus"",""0"",""0""
""fullscreenenter"",""0"",""4984""
""fullscreenexit"",""219"",""386394""
","
","""event"",""trial"",""time""
""focus"",""0"",""0""
","""event"",""trial"",""time""
""fullscreenenter"",""0"",""4984""
","""event"",""trial"",""time""
""fullscreenexit"",""219"",""386394""
","2124","run_exp/static/audio/clip_16_practice_question.m4a","78","","","","","","","",""
"","correct","229","444122","0.0-222.0-0.0","""event"",""trial"",""time""
""focus"",""0"",""0""
""fullscreenenter"",""0"",""4984""
""fullscreenexit"",""219"",""386394""
","
","""event"",""trial"",""time""
""focus"",""0"",""0""
","""event"",""trial"",""time""
""fullscreenenter"",""0"",""4984""
","""event"",""trial"",""time""
""fullscreenexit"",""219"",""386394""
","null","run_exp/static/audio/clip_17_correct.m4a","null","","","","","<div class='center'><p>That's correct!</p></div>","","",""
"","html-keyboard-response","230","445039","0.0-222.0-1.0","""event"",""trial"",""time""
""focus"",""0"",""0""
""fullscreenenter"",""0"",""4984""
""fullscreenexit"",""219"",""386394""
","
","""event"",""trial"",""time""
""focus"",""0"",""0""
","""event"",""trial"",""time""
""fullscreenenter"",""0"",""4984""
","""event"",""trial"",""time""
""fullscreenexit"",""219"",""386394""
","916","<div class='center'><p>That's correct!</p><div><p><b>[Press the space bar to continue]</b></p></div>","32","","","","","","","",""
"","practice_q2","231","450901","0.0-222.0-2.0","""event"",""trial"",""time""
""focus"",""0"",""0""
""fullscreenenter"",""0"",""4984""
""fullscreenexit"",""219"",""386394""
","
","""event"",""trial"",""time""
""focus"",""0"",""0""
","""event"",""trial"",""time""
""fullscreenenter"",""0"",""4984""
","""event"",""trial"",""time""
""fullscreenexit"",""219"",""386394""
","5860","run_exp/static/audio/clip_16_practice_question.m4a","86","","","","","","","",""
"","correct","232","452801","0.0-223.0-0.0","""event"",""trial"",""time""
""focus"",""0"",""0""
""fullscreenenter"",""0"",""4984""
""fullscreenexit"",""219"",""386394""
","
","""event"",""trial"",""time""
""focus"",""0"",""0""
","""event"",""trial"",""time""
""fullscreenenter"",""0"",""4984""
","""event"",""trial"",""time""
""fullscreenexit"",""219"",""386394""
","null","run_exp/static/audio/clip_17_correct.m4a","null","","","","","<div class='center'><p>That's correct!</p></div>","","",""
"","html-keyboard-response","233","453495","0.0-223.0-1.0","""event"",""trial"",""time""
""focus"",""0"",""0""
""fullscreenenter"",""0"",""4984""
""fullscreenexit"",""219"",""386394""
","
","""event"",""trial"",""time""
""focus"",""0"",""0""
","""event"",""trial"",""time""
""fullscreenenter"",""0"",""4984""
","""event"",""trial"",""time""
""fullscreenexit"",""219"",""386394""
","692","<div class='center'><p>That's correct!</p><div><p><b>[Press the space bar to continue]</b></p></div>","32","","","","","","","",""
"","practice_q3","234","454951","0.0-223.0-2.0","""event"",""trial"",""time""
""focus"",""0"",""0""
""fullscreenenter"",""0"",""4984""
""fullscreenexit"",""219"",""386394""
","
","""event"",""trial"",""time""
""focus"",""0"",""0""
","""event"",""trial"",""time""
""fullscreenenter"",""0"",""4984""
","""event"",""trial"",""time""
""fullscreenexit"",""219"",""386394""
","1455","run_exp/static/audio/clip_16_practice_question.m4a","66","","","","","","","",""
"","correct","235","457352","0.0-224.0-0.0","""event"",""trial"",""time""
""focus"",""0"",""0""
""fullscreenenter"",""0"",""4984""
""fullscreenexit"",""219"",""386394""
","
","""event"",""trial"",""time""
""focus"",""0"",""0""
","""event"",""trial"",""time""
""fullscreenenter"",""0"",""4984""
","""event"",""trial"",""time""
""fullscreenexit"",""219"",""386394""
","null","run_exp/static/audio/clip_17_correct.m4a","null","","","","","<div class='center'><p>That's correct!</p></div>","","",""
"","html-keyboard-response","236","458549","0.0-224.0-1.0","""event"",""trial"",""time""
""focus"",""0"",""0""
""fullscreenenter"",""0"",""4984""
""fullscreenexit"",""219"",""386394""
","
","""event"",""trial"",""time""
""focus"",""0"",""0""
","""event"",""trial"",""time""
""fullscreenenter"",""0"",""4984""
","""event"",""trial"",""time""
""fullscreenexit"",""219"",""386394""
","1196","<div class='center'><p>That's correct!</p><div><p><b>[Press the space bar to continue]</b></p></div>","32","","","","","","","",""
"","begin_text","237","477012","0.0-225.0-0.0","""event"",""trial"",""time""
""focus"",""0"",""0""
""fullscreenenter"",""0"",""4984""
""fullscreenexit"",""219"",""386394""
","
","""event"",""trial"",""time""
""focus"",""0"",""0""
","""event"",""trial"",""time""
""fullscreenenter"",""0"",""4984""
","""event"",""trial"",""time""
""fullscreenexit"",""219"",""386394""
","null","run_exp/static/audio/clip_22_begin_test.m4a","null","","","","","<div class='center'><p>On to the real game where well test your memory of items from the indoor/outdoor game. For each item, you need to indicate if the item is <b>old</b> by pressing the <b>v</b> key, <b>similar</b> by pressing the <b>b</b> key, or <b>new</b> by pressing the <b>n</b> key. </p></div>","","",""
"","html-keyboard-response","238","480056","0.0-225.0-1.0","""event"",""trial"",""time""
""focus"",""0"",""0""
""fullscreenenter"",""0"",""4984""
""fullscreenexit"",""219"",""386394""
","
","""event"",""trial"",""time""
""focus"",""0"",""0""
","""event"",""trial"",""time""
""fullscreenenter"",""0"",""4984""
","""event"",""trial"",""time""
""fullscreenexit"",""219"",""386394""
","3042","<div class='center'><p>On to the real game where well test your memory of items from the indoor/outdoor game. For each item, you need to indicate if the item is <b>old</b> by pressing the <b>v</b> key, <b>similar</b> by pressing the <b>b</b> key, or <b>new</b> by pressing the <b>n</b> key. </p><div><p><b>[Press the space bar to continue]</b></p></div>","32","","","","","","","",""
"","image","239","481983","0.0-226.0-0.0","""event"",""trial"",""time""
""focus"",""0"",""0""
""fullscreenenter"",""0"",""4984""
""fullscreenexit"",""219"",""386394""
","
","""event"",""trial"",""time""
""focus"",""0"",""0""
","""event"",""trial"",""time""
""fullscreenenter"",""0"",""4984""
","""event"",""trial"",""time""
""fullscreenexit"",""219"",""386394""
","1925","run_exp/static/images/Set 6_rs/089b.jpg","86","","","","","","test","TL","4"
"","show_choice","240","482491","0.0-226.0-1.0","""event"",""trial"",""time""
""focus"",""0"",""0""
""fullscreenenter"",""0"",""4984""
""fullscreenexit"",""219"",""386394""
","
","""event"",""trial"",""time""
""focus"",""0"",""0""
","""event"",""trial"",""time""
""fullscreenenter"",""0"",""4984""
","""event"",""trial"",""time""
""fullscreenexit"",""219"",""386394""
","null","run_exp/static/images/Set 6_rs/089b.jpg","null","","","","","","test","TL",""
"","html-keyboard-response","241","482998","0.0-226.0-2.0","""event"",""trial"",""time""
""focus"",""0"",""0""
""fullscreenenter"",""0"",""4984""
""fullscreenexit"",""219"",""386394""
","
","""event"",""trial"",""time""
""focus"",""0"",""0""
","""event"",""trial"",""time""
""fullscreenenter"",""0"",""4984""
","""event"",""trial"",""time""
""fullscreenexit"",""219"",""386394""
","null","<p></p>","null","","","","","","","",""
"","image","242","484372","0.0-227.0-0.0","""event"",""trial"",""time""
""focus"",""0"",""0""
""fullscreenenter"",""0"",""4984""
""fullscreenexit"",""219"",""386394""
","
","""event"",""trial"",""time""
""focus"",""0"",""0""
","""event"",""trial"",""time""
""fullscreenenter"",""0"",""4984""
","""event"",""trial"",""time""
""fullscreenexit"",""219"",""386394""
","1373","run_exp/static/images/Set 6_rs/047a.jpg","66","","","","","","test","TF","3"
"","show_choice","243","484886","0.0-227.0-1.0","""event"",""trial"",""time""
""focus"",""0"",""0""
""fullscreenenter"",""0"",""4984""
""fullscreenexit"",""219"",""386394""
","
","""event"",""trial"",""time""
""focus"",""0"",""0""
","""event"",""trial"",""time""
""fullscreenenter"",""0"",""4984""
","""event"",""trial"",""time""
""fullscreenexit"",""219"",""386394""
","null","run_exp/static/images/Set 6_rs/047a.jpg","null","","","","","","test","TF",""
"","html-keyboard-response","244","485406","0.0-227.0-2.0","""event"",""trial"",""time""
""focus"",""0"",""0""
""fullscreenenter"",""0"",""4984""
""fullscreenexit"",""219"",""386394""
","
","""event"",""trial"",""time""
""focus"",""0"",""0""
","""event"",""trial"",""time""
""fullscreenenter"",""0"",""4984""
","""event"",""trial"",""time""
""fullscreenexit"",""219"",""386394""
","null","<p></p>","null","","","","","","","",""
"","image","245","486396","0.0-228.0-0.0","""event"",""trial"",""time""
""focus"",""0"",""0""
""fullscreenenter"",""0"",""4984""
""fullscreenexit"",""219"",""386394""
","
","""event"",""trial"",""time""
""focus"",""0"",""0""
","""event"",""trial"",""time""
""fullscreenenter"",""0"",""4984""
","""event"",""trial"",""time""
""fullscreenexit"",""219"",""386394""
","987","run_exp/static/images/Set 6_rs/010a.jpg","86","","","","","","test","TR","5"
"","show_choice","246","486908","0.0-228.0-1.0","""event"",""trial"",""time""
""focus"",""0"",""0""
""fullscreenenter"",""0"",""4984""
""fullscreenexit"",""219"",""386394""
","
","""event"",""trial"",""time""
""focus"",""0"",""0""
","""event"",""trial"",""time""
""fullscreenenter"",""0"",""4984""
","""event"",""trial"",""time""
""fullscreenexit"",""219"",""386394""
","null","run_exp/static/images/Set 6_rs/010a.jpg","null","","","","","","test","TR",""
"","html-keyboard-response","247","487428","0.0-228.0-2.0","""event"",""trial"",""time""
""focus"",""0"",""0""
""fullscreenenter"",""0"",""4984""
""fullscreenexit"",""219"",""386394""
","
","""event"",""trial"",""time""
""focus"",""0"",""0""
","""event"",""trial"",""time""
""fullscreenenter"",""0"",""4984""
","""event"",""trial"",""time""
""fullscreenexit"",""219"",""386394""
","null","<p></p>","null","","","","","","","",""
"","image","248","488652","0.0-229.0-0.0","""event"",""trial"",""time""
""focus"",""0"",""0""
""fullscreenenter"",""0"",""4984""
""fullscreenexit"",""219"",""386394""
","
","""event"",""trial"",""time""
""focus"",""0"",""0""
","""event"",""trial"",""time""
""fullscreenenter"",""0"",""4984""
","""event"",""trial"",""time""
""fullscreenexit"",""219"",""386394""
","1223","run_exp/static/images/Set 6_rs/012a.jpg","86","","","","","","test","TR","1"
"","show_choice","249","489166","0.0-229.0-1.0","""event"",""trial"",""time""
""focus"",""0"",""0""
""fullscreenenter"",""0"",""4984""
""fullscreenexit"",""219"",""386394""
","
","""event"",""trial"",""time""
""focus"",""0"",""0""
","""event"",""trial"",""time""
""fullscreenenter"",""0"",""4984""
","""event"",""trial"",""time""
""fullscreenexit"",""219"",""386394""
","null","run_exp/static/images/Set 6_rs/012a.jpg","null","","","","","","test","TR",""
"","html-keyboard-response","250","489688","0.0-229.0-2.0","""event"",""trial"",""time""
""focus"",""0"",""0""
""fullscreenenter"",""0"",""4984""
""fullscreenexit"",""219"",""386394""
","
","""event"",""trial"",""time""
""focus"",""0"",""0""
","""event"",""trial"",""time""
""fullscreenenter"",""0"",""4984""
","""event"",""trial"",""time""
""fullscreenexit"",""219"",""386394""
","null","<p></p>","null","","","","","","","",""
"","image","251","490582","0.0-230.0-0.0","""event"",""trial"",""time""
""focus"",""0"",""0""
""fullscreenenter"",""0"",""4984""
""fullscreenexit"",""219"",""386394""
","
","""event"",""trial"",""time""
""focus"",""0"",""0""
","""event"",""trial"",""time""
""fullscreenenter"",""0"",""4984""
","""event"",""trial"",""time""
""fullscreenexit"",""219"",""386394""
","892","run_exp/static/images/Set 6_rs/073b.jpg","86","","","","","","test","TL","3"
"","show_choice","252","491088","0.0-230.0-1.0","""event"",""trial"",""time""
""focus"",""0"",""0""
""fullscreenenter"",""0"",""4984""
""fullscreenexit"",""219"",""386394""
","
","""event"",""trial"",""time""
""focus"",""0"",""0""
","""event"",""trial"",""time""
""fullscreenenter"",""0"",""4984""
","""event"",""trial"",""time""
""fullscreenexit"",""219"",""386394""
","null","run_exp/static/images/Set 6_rs/073b.jpg","null","","","","","","test","TL",""
"","html-keyboard-response","253","491605","0.0-230.0-2.0","""event"",""trial"",""time""
""focus"",""0"",""0""
""fullscreenenter"",""0"",""4984""
""fullscreenexit"",""219"",""386394""
","
","""event"",""trial"",""time""
""focus"",""0"",""0""
","""event"",""trial"",""time""
""fullscreenenter"",""0"",""4984""
","""event"",""trial"",""time""
""fullscreenexit"",""219"",""386394""
","null","<p></p>","null","","","","","","","",""
"","image","254","492791","0.0-231.0-0.0","""event"",""trial"",""time""
""focus"",""0"",""0""
""fullscreenenter"",""0"",""4984""
""fullscreenexit"",""219"",""386394""
","
","""event"",""trial"",""time""
""focus"",""0"",""0""
","""event"",""trial"",""time""
""fullscreenenter"",""0"",""4984""
","""event"",""trial"",""time""
""fullscreenexit"",""219"",""386394""
","1182","run_exp/static/images/Set 6_rs/109a.jpg","66","","","","","","test","TF","5"
"","show_choice","255","493307","0.0-231.0-1.0","""event"",""trial"",""time""
""focus"",""0"",""0""
""fullscreenenter"",""0"",""4984""
""fullscreenexit"",""219"",""386394""
","
","""event"",""trial"",""time""
""focus"",""0"",""0""
","""event"",""trial"",""time""
""fullscreenenter"",""0"",""4984""
","""event"",""trial"",""time""
""fullscreenexit"",""219"",""386394""
","null","run_exp/static/images/Set 6_rs/109a.jpg","null","","","","","","test","TF",""
"","html-keyboard-response","256","493826","0.0-231.0-2.0","""event"",""trial"",""time""
""focus"",""0"",""0""
""fullscreenenter"",""0"",""4984""
""fullscreenexit"",""219"",""386394""
","
","""event"",""trial"",""time""
""focus"",""0"",""0""
","""event"",""trial"",""time""
""fullscreenenter"",""0"",""4984""
","""event"",""trial"",""time""
""fullscreenexit"",""219"",""386394""
","null","<p></p>","null","","","","","","","",""
"","image","257","494990","0.0-232.0-0.0","""event"",""trial"",""time""
""focus"",""0"",""0""
""fullscreenenter"",""0"",""4984""
""fullscreenexit"",""219"",""386394""
","
","""event"",""trial"",""time""
""focus"",""0"",""0""
","""event"",""trial"",""time""
""fullscreenenter"",""0"",""4984""
","""event"",""trial"",""time""
""fullscreenexit"",""219"",""386394""
","1161","run_exp/static/images/Set 6_rs/132a.jpg","86","","","","","","test","TR","5"
