"success","trial_type","trial_index","time_elapsed","internal_node_id","interactions","blur_events","focus_events","fullscreenenter_events","fullscreenexit_events","rt","stimulus","key_press","subject_id","participant_id","age","gender","prompt","phase","condition","lure_bin"
"true","fullscreen","0","4512","0.0-0.0","""event"",""trial"",""time""
""fullscreenenter"",""0"",""3542""
","
","
","""event"",""trial"",""time""
""fullscreenenter"",""0"",""3542""
","
","","","","","","","","","","",""
"","pavlovia","1","4518","0.0-1.0","""event"",""trial"",""time""
""fullscreenenter"",""0"",""3542""
","
","
","""event"",""trial"",""time""
""fullscreenenter"",""0"",""3542""
","
","","","","","","","","","","",""
"","welcome","2","39295","0.0-2.0","""event"",""trial"",""time""
""fullscreenenter"",""0"",""3542""
","
","
","""event"",""trial"",""time""
""fullscreenenter"",""0"",""3542""
","
","null","run_exp/static/audio/clip_1_welcome.m4a","null","636","171","8","Male","<div class='center'><p>Welcome to the third part of the study! First, you'll be shown pictures of items one at a time. For each picture, you have to decide if the item is typically found indoors or outdoors.</p><p>If you think it's usually found indoors, then press <b>v</b> key on your keyboard. If you think it's usually found outdoors, then press the <b>n</b> key.There will be reminders on the screen to help you remember which keys to press. </p><p>If you're not sure whether the item is an indoor item or an outdoor item, go ahead and take a guess but try your best not to skip that choice. </p></div>","","",""
"","html-keyboard-response","3","56646","0.0-3.0","""event"",""trial"",""time""
""fullscreenenter"",""0"",""3542""
","
","
","""event"",""trial"",""time""
""fullscreenenter"",""0"",""3542""
","
","17345.19999998808","<div class='center'><p>Welcome to the third part of the study! First, you'll be shown pictures of items one at a time. For each picture, you have to decide if the item is typically found indoors or outdoors.</p><p>If you think it's usually found indoors, then press <b>v</b> key on your keyboard. If you think it's usually found outdoors, then press the <b>n</b> key.There will be reminders on the screen to help you remember which keys to press. </p><p>If you're not sure whether the item is an indoor item or an outdoor item, go ahead and take a guess but try your best not to skip that choice. </p><div><p><b>[Press the space bar to continue]</b></p></div>","32","","","","","","","",""
"","image","4","58653","0.0-4.0","""event"",""trial"",""time""
""fullscreenenter"",""0"",""3542""
","
","
","""event"",""trial"",""time""
""fullscreenenter"",""0"",""3542""
","
","null","run_exp/static/images/Set 6_rs/178a.jpg","null","","","","","","learn","SR",""
"","show_choice","5","60655","0.0-5.0","""event"",""trial"",""time""
""fullscreenenter"",""0"",""3542""
","
","
","""event"",""trial"",""time""
""fullscreenenter"",""0"",""3542""
","
","null","run_exp/static/images/blank.png","null","","","","","","learn","SR",""
"","html-keyboard-response","6","61166","0.0-6.0","""event"",""trial"",""time""
""fullscreenenter"",""0"",""3542""
","
","
","""event"",""trial"",""time""
""fullscreenenter"",""0"",""3542""
","
","null","<p></p>","null","","","","","","","",""
"","image","7","62431","0.0-7.0","""event"",""trial"",""time""
""fullscreenenter"",""0"",""3542""
","
","
","""event"",""trial"",""time""
""fullscreenenter"",""0"",""3542""
","
","1262.7000000178814","run_exp/static/images/Set 6_rs/075a.jpg","86","","","","","","learn","SR",""
"","show_choice","8","63184","0.0-8.0","""event"",""trial"",""time""
""fullscreenenter"",""0"",""3542""
","
","
","""event"",""trial"",""time""
""fullscreenenter"",""0"",""3542""
","
","null","run_exp/static/images/Set 6_rs/075a.jpg","null","","","","","","learn","SR",""
"","html-keyboard-response","9","63699","0.0-9.0","""event"",""trial"",""time""
""fullscreenenter"",""0"",""3542""
","
","
","""event"",""trial"",""time""
""fullscreenenter"",""0"",""3542""
","
","null","<p></p>","null","","","","","","","",""
"","image","10","65220","0.0-10.0","""event"",""trial"",""time""
""fullscreenenter"",""0"",""3542""
","
","
","""event"",""trial"",""time""
""fullscreenenter"",""0"",""3542""
","
","1519.4000000059605","run_exp/static/images/Set 6_rs/016a.jpg","86","","","","","","learn","SL",""
"","show_choice","11","65702","0.0-11.0","""event"",""trial"",""time""
""fullscreenenter"",""0"",""3542""
","
","
","""event"",""trial"",""time""
""fullscreenenter"",""0"",""3542""
","
","null","run_exp/static/images/Set 6_rs/016a.jpg","null","","","","","","learn","SL",""
"","html-keyboard-response","12","66209","0.0-12.0","""event"",""trial"",""time""
""fullscreenenter"",""0"",""3542""
","
","
","""event"",""trial"",""time""
""fullscreenenter"",""0"",""3542""
","
","null","<p></p>","null","","","","","","","",""
"","image","13","67370","0.0-13.0","""event"",""trial"",""time""
""fullscreenenter"",""0"",""3542""
","
","
","""event"",""trial"",""time""
""fullscreenenter"",""0"",""3542""
","
","1158.5","run_exp/static/images/Set 6_rs/025a.jpg","86","","","","","","learn","SL",""
"","show_choice","14","68227","0.0-14.0","""event"",""trial"",""time""
""fullscreenenter"",""0"",""3542""
","
","
","""event"",""trial"",""time""
""fullscreenenter"",""0"",""3542""
","
","null","run_exp/static/images/Set 6_rs/025a.jpg","null","","","","","","learn","SL",""
"","html-keyboard-response","15","68741","0.0-15.0","""event"",""trial"",""time""
""fullscreenenter"",""0"",""3542""
","
","
","""event"",""trial"",""time""
""fullscreenenter"",""0"",""3542""
","
","null","<p></p>","null","","","","","","","",""
"","image","16","69572","0.0-16.0","""event"",""trial"",""time""
""fullscreenenter"",""0"",""3542""
","
","
","""event"",""trial"",""time""
""fullscreenenter"",""0"",""3542""
","
","829.0999999940395","run_exp/static/images/Set 6_rs/186a.jpg","86","","","","","","learn","SR",""
"","show_choice","17","70755","0.0-17.0","""event"",""trial"",""time""
""fullscreenenter"",""0"",""3542""
","
","
","""event"",""trial"",""time""
""fullscreenenter"",""0"",""3542""
","
","null","run_exp/static/images/Set 6_rs/186a.jpg","null","","","","","","learn","SR",""
"","html-keyboard-response","18","71268","0.0-18.0","""event"",""trial"",""time""
""fullscreenenter"",""0"",""3542""
","
","
","""event"",""trial"",""time""
""fullscreenenter"",""0"",""3542""
","
","null","<p></p>","null","","","","","","","",""
"","image","19","73000","0.0-19.0","""event"",""trial"",""time""
""fullscreenenter"",""0"",""3542""
","
","
","""event"",""trial"",""time""
""fullscreenenter"",""0"",""3542""
","
","1730.0999999940395","run_exp/static/images/Set 6_rs/063a.jpg","86","","","","","","learn","SR",""
"","show_choice","20","73277","0.0-20.0","""event"",""trial"",""time""
""fullscreenenter"",""0"",""3542""
","
","
","""event"",""trial"",""time""
""fullscreenenter"",""0"",""3542""
","
","null","run_exp/static/images/Set 6_rs/063a.jpg","null","","","","","","learn","SR",""
"","html-keyboard-response","21","73780","0.0-21.0","""event"",""trial"",""time""
""fullscreenenter"",""0"",""3542""
","
","
","""event"",""trial"",""time""
""fullscreenenter"",""0"",""3542""
","
","null","<p></p>","null","","","","","","","",""
"","image","22","74554","0.0-22.0","""event"",""trial"",""time""
""fullscreenenter"",""0"",""3542""
","
","
","""event"",""trial"",""time""
""fullscreenenter"",""0"",""3542""
","
","772.5","run_exp/static/images/Set 6_rs/177a.jpg","78","","","","","","learn","SR",""
"","show_choice","23","75790","0.0-23.0","""event"",""trial"",""time""
""fullscreenenter"",""0"",""3542""
","
","
","""event"",""trial"",""time""
""fullscreenenter"",""0"",""3542""
","
","null","run_exp/static/images/Set 6_rs/177a.jpg","null","","","","","","learn","SR",""
"","html-keyboard-response","24","76297","0.0-24.0","""event"",""trial"",""time""
""fullscreenenter"",""0"",""3542""
","
","
","""event"",""trial"",""time""
""fullscreenenter"",""0"",""3542""
","
","null","<p></p>","null","","","","","","","",""
"","image","25","77386","0.0-25.0","""event"",""trial"",""time""
""fullscreenenter"",""0"",""3542""
","
","
","""event"",""trial"",""time""
""fullscreenenter"",""0"",""3542""
","
","1087.5","run_exp/static/images/Set 6_rs/023a.jpg","86","","","","","","learn","SR",""
"","show_choice","26","78304","0.0-26.0","""event"",""trial"",""time""
""fullscreenenter"",""0"",""3542""
","
","
","""event"",""trial"",""time""
""fullscreenenter"",""0"",""3542""
","
","null","run_exp/static/images/Set 6_rs/023a.jpg","null","","","","","","learn","SR",""
"","html-keyboard-response","27","78816","0.0-27.0","""event"",""trial"",""time""
""fullscreenenter"",""0"",""3542""
","
","
","""event"",""trial"",""time""
""fullscreenenter"",""0"",""3542""
","
","null","<p></p>","null","","","","","","","",""
"","image","28","79811","0.0-28.0","""event"",""trial"",""time""
""fullscreenenter"",""0"",""3542""
","
","
","""event"",""trial"",""time""
""fullscreenenter"",""0"",""3542""
","
","992.5","run_exp/static/images/Set 6_rs/024a.jpg","86","","","","","","learn","SR",""
"","show_choice","29","80827","0.0-29.0","""event"",""trial"",""time""
""fullscreenenter"",""0"",""3542""
","
","
","""event"",""trial"",""time""
""fullscreenenter"",""0"",""3542""
","
","null","run_exp/static/images/Set 6_rs/024a.jpg","null","","","","","","learn","SR",""
"","html-keyboard-response","30","81338","0.0-30.0","""event"",""trial"",""time""
""fullscreenenter"",""0"",""3542""
","
","
","""event"",""trial"",""time""
""fullscreenenter"",""0"",""3542""
","
","null","<p></p>","null","","","","","","","",""
"","image","31","82313","0.0-31.0","""event"",""trial"",""time""
""fullscreenenter"",""0"",""3542""
","
","
","""event"",""trial"",""time""
""fullscreenenter"",""0"",""3542""
","
","973.2000000178814","run_exp/static/images/Set 6_rs/057a.jpg","86","","","","","","learn","SL",""
"","show_choice","32","83355","0.0-32.0","""event"",""trial"",""time""
""fullscreenenter"",""0"",""3542""
","
","
","""event"",""trial"",""time""
""fullscreenenter"",""0"",""3542""
","
","null","run_exp/static/images/Set 6_rs/057a.jpg","null","","","","","","learn","SL",""
"","html-keyboard-response","33","83857","0.0-33.0","""event"",""trial"",""time""
""fullscreenenter"",""0"",""3542""
","
","
","""event"",""trial"",""time""
""fullscreenenter"",""0"",""3542""
","
","null","<p></p>","null","","","","","","","",""
"","image","34","85448","0.0-34.0","""event"",""trial"",""time""
""fullscreenenter"",""0"",""3542""
","
","
","""event"",""trial"",""time""
""fullscreenenter"",""0"",""3542""
","
","1588.699999988079","run_exp/static/images/Set 6_rs/122a.jpg","86","","","","","","learn","SR",""
"","show_choice","35","85875","0.0-35.0","""event"",""trial"",""time""
""fullscreenenter"",""0"",""3542""
","
","
","""event"",""trial"",""time""
""fullscreenenter"",""0"",""3542""
","
","null","run_exp/static/images/Set 6_rs/122a.jpg","null","","","","","","learn","SR",""
"","html-keyboard-response","36","86386","0.0-36.0","""event"",""trial"",""time""
""fullscreenenter"",""0"",""3542""
","
","
","""event"",""trial"",""time""
""fullscreenenter"",""0"",""3542""
","
","null","<p></p>","null","","","","","","","",""
"","image","37","87351","0.0-37.0","""event"",""trial"",""time""
""fullscreenenter"",""0"",""3542""
","
","
","""event"",""trial"",""time""
""fullscreenenter"",""0"",""3542""
","
","964.0999999940395","run_exp/static/images/Set 6_rs/070a.jpg","86","","","","","","learn","SR",""
"","show_choice","38","88393","0.0-38.0","""event"",""trial"",""time""
""fullscreenenter"",""0"",""3542""
","
","
","""event"",""trial"",""time""
""fullscreenenter"",""0"",""3542""
","
","null","run_exp/static/images/Set 6_rs/070a.jpg","null","","","","","","learn","SR",""
"","html-keyboard-response","39","88909","0.0-39.0","""event"",""trial"",""time""
""fullscreenenter"",""0"",""3542""
","
","
","""event"",""trial"",""time""
""fullscreenenter"",""0"",""3542""
","
","null","<p></p>","null","","","","","","","",""
"","image","40","90926","0.0-40.0","""event"",""trial"",""time""
""fullscreenenter"",""0"",""3542""
","
","
","""event"",""trial"",""time""
""fullscreenenter"",""0"",""3542""
","
","null","run_exp/static/images/Set 6_rs/064a.jpg","null","","","","","","learn","SR",""
"","show_choice","41","92929","0.0-41.0","""event"",""trial"",""time""
""fullscreenenter"",""0"",""3542""
","
","
","""event"",""trial"",""time""
""fullscreenenter"",""0"",""3542""
","
","null","run_exp/static/images/blank.png","null","","","","","","learn","SR",""
"","html-keyboard-response","42","93432","0.0-42.0","""event"",""trial"",""time""
""fullscreenenter"",""0"",""3542""
","
","
","""event"",""trial"",""time""
""fullscreenenter"",""0"",""3542""
","
","null","<p></p>","null","","","","","","","",""
"","image","43","94322","0.0-43.0","""event"",""trial"",""time""
""fullscreenenter"",""0"",""3542""
","
","
","""event"",""trial"",""time""
""fullscreenenter"",""0"",""3542""
","
","888","run_exp/static/images/Set 6_rs/079a.jpg","86","","","","","","learn","SL",""
"","show_choice","44","95443","0.0-44.0","""event"",""trial"",""time""
""fullscreenenter"",""0"",""3542""
","
","
","""event"",""trial"",""time""
""fullscreenenter"",""0"",""3542""
","
","null","run_exp/static/images/Set 6_rs/079a.jpg","null","","","","","","learn","SL",""
"","html-keyboard-response","45","95952","0.0-45.0","""event"",""trial"",""time""
""fullscreenenter"",""0"",""3542""
","
","
","""event"",""trial"",""time""
""fullscreenenter"",""0"",""3542""
","
","null","<p></p>","null","","","","","","","",""
"","image","46","96809","0.0-46.0","""event"",""trial"",""time""
""fullscreenenter"",""0"",""3542""
","
","
","""event"",""trial"",""time""
""fullscreenenter"",""0"",""3542""
","
","855.6000000238419","run_exp/static/images/Set 6_rs/050a.jpg","86","","","","","","learn","SL",""
"","show_choice","47","97971","0.0-47.0","""event"",""trial"",""time""
""fullscreenenter"",""0"",""3542""
","
","
","""event"",""trial"",""time""
""fullscreenenter"",""0"",""3542""
","
","null","run_exp/static/images/Set 6_rs/050a.jpg","null","","","","","","learn","SL",""
"","html-keyboard-response","48","98484","0.0-48.0","""event"",""trial"",""time""
""fullscreenenter"",""0"",""3542""
","
","
","""event"",""trial"",""time""
""fullscreenenter"",""0"",""3542""
","
","null","<p></p>","null","","","","","","","",""
"","image","49","98985","0.0-49.0","""event"",""trial"",""time""
""fullscreenenter"",""0"",""3542""
","
","
","""event"",""trial"",""time""
""fullscreenenter"",""0"",""3542""
","
","499.69999998807907","run_exp/static/images/Set 6_rs/141a.jpg","86","","","","","","learn","SR",""
"","show_choice","50","100488","0.0-50.0","""event"",""trial"",""time""
""fullscreenenter"",""0"",""3542""
","
","
","""event"",""trial"",""time""
""fullscreenenter"",""0"",""3542""
","
","null","run_exp/static/images/Set 6_rs/141a.jpg","null","","","","","","learn","SR",""
"","html-keyboard-response","51","101000","0.0-51.0","""event"",""trial"",""time""
""fullscreenenter"",""0"",""3542""
","
","
","""event"",""trial"",""time""
""fullscreenenter"",""0"",""3542""
","
","null","<p></p>","null","","","","","","","",""
"","image","52","102892","0.0-52.0","""event"",""trial"",""time""
""fullscreenenter"",""0"",""3542""
","
","
","""event"",""trial"",""time""
""fullscreenenter"",""0"",""3542""
","
","1890.5999999940395","run_exp/static/images/Set 6_rs/085a.jpg","86","","","","","","learn","SL",""
"","show_choice","53","103009","0.0-53.0","""event"",""trial"",""time""
""fullscreenenter"",""0"",""3542""
","
","
","""event"",""trial"",""time""
""fullscreenenter"",""0"",""3542""
","
","null","run_exp/static/images/Set 6_rs/085a.jpg","null","","","","","","learn","SL",""
"","html-keyboard-response","54","103521","0.0-54.0","""event"",""trial"",""time""
""fullscreenenter"",""0"",""3542""
","
","
","""event"",""trial"",""time""
""fullscreenenter"",""0"",""3542""
","
","null","<p></p>","null","","","","","","","",""
"","image","55","105088","0.0-55.0","""event"",""trial"",""time""
""fullscreenenter"",""0"",""3542""
","
","
","""event"",""trial"",""time""
""fullscreenenter"",""0"",""3542""
","
","1565.5","run_exp/static/images/Set 6_rs/191a.jpg","78","","","","","","learn","SL",""
"","show_choice","56","105531","0.0-56.0","""event"",""trial"",""time""
""fullscreenenter"",""0"",""3542""
","
","
","""event"",""trial"",""time""
""fullscreenenter"",""0"",""3542""
","
","null","run_exp/static/images/Set 6_rs/191a.jpg","null","","","","","","learn","SL",""
"","html-keyboard-response","57","106041","0.0-57.0","""event"",""trial"",""time""
""fullscreenenter"",""0"",""3542""
","
","
","""event"",""trial"",""time""
""fullscreenenter"",""0"",""3542""
","
","null","<p></p>","null","","","","","","","",""
"","image","58","107285","0.0-58.0","""event"",""trial"",""time""
""fullscreenenter"",""0"",""3542""
","
","
","""event"",""trial"",""time""
""fullscreenenter"",""0"",""3542""
","
","1241.800000011921","run_exp/static/images/Set 6_rs/116a.jpg","86","","","","","","learn","SL",""
"","show_choice","59","108051","0.0-59.0","""event"",""trial"",""time""
""fullscreenenter"",""0"",""3542""
","
","
","""event"",""trial"",""time""
""fullscreenenter"",""0"",""3542""
","
","null","run_exp/static/images/Set 6_rs/116a.jpg","null","","","","","","learn","SL",""
"","html-keyboard-response","60","108561","0.0-60.0","""event"",""trial"",""time""
""fullscreenenter"",""0"",""3542""
","
","
","""event"",""trial"",""time""
""fullscreenenter"",""0"",""3542""
","
","null","<p></p>","null","","","","","","","",""
"","image","61","110173","0.0-61.0","""event"",""trial"",""time""
""fullscreenenter"",""0"",""3542""
","
","
","""event"",""trial"",""time""
""fullscreenenter"",""0"",""3542""
","
","1610.300000011921","run_exp/static/images/Set 6_rs/154a.jpg","86","","","","","","learn","SR",""
"","show_choice","62","110571","0.0-62.0","""event"",""trial"",""time""
""fullscreenenter"",""0"",""3542""
","
","
","""event"",""trial"",""time""
""fullscreenenter"",""0"",""3542""
","
","null","run_exp/static/images/Set 6_rs/154a.jpg","null","","","","","","learn","SR",""
"","html-keyboard-response","63","111086","0.0-63.0","""event"",""trial"",""time""
""fullscreenenter"",""0"",""3542""
","
","
","""event"",""trial"",""time""
""fullscreenenter"",""0"",""3542""
","
","null","<p></p>","null","","","","","","","",""
"","image","64","112637","0.0-64.0","""event"",""trial"",""time""
""fullscreenenter"",""0"",""3542""
","
","
","""event"",""trial"",""time""
""fullscreenenter"",""0"",""3542""
","
","1549.6000000238419","run_exp/static/images/Set 6_rs/008a.jpg","86","","","","","","learn","SL",""
"","show_choice","65","113094","0.0-65.0","""event"",""trial"",""time""
""fullscreenenter"",""0"",""3542""
","
","
","""event"",""trial"",""time""
""fullscreenenter"",""0"",""3542""
","
","null","run_exp/static/images/Set 6_rs/008a.jpg","null","","","","","","learn","SL",""
"","html-keyboard-response","66","113603","0.0-66.0","""event"",""trial"",""time""
""fullscreenenter"",""0"",""3542""
","
","
","""event"",""trial"",""time""
""fullscreenenter"",""0"",""3542""
","
","null","<p></p>","null","","","","","","","",""
"","image","67","115610","0.0-67.0","""event"",""trial"",""time""
""fullscreenenter"",""0"",""3542""
","
","
","""event"",""trial"",""time""
""fullscreenenter"",""0"",""3542""
","
","null","run_exp/static/images/Set 6_rs/123a.jpg","null","","","","","","learn","SL",""
"","show_choice","68","117627","0.0-68.0","""event"",""trial"",""time""
""fullscreenenter"",""0"",""3542""
","
","
","""event"",""trial"",""time""
""fullscreenenter"",""0"",""3542""
","
","null","run_exp/static/images/blank.png","null","","","","","","learn","SL",""
"","html-keyboard-response","69","118144","0.0-69.0","""event"",""trial"",""time""
""fullscreenenter"",""0"",""3542""
","
","
","""event"",""trial"",""time""
""fullscreenenter"",""0"",""3542""
","
","null","<p></p>","null","","","","","","","",""
"","image","70","119330","0.0-70.0","""event"",""trial"",""time""
""fullscreenenter"",""0"",""3542""
","
","
","""event"",""trial"",""time""
""fullscreenenter"",""0"",""3542""
","
","1184.5","run_exp/static/images/Set 6_rs/152a.jpg","86","","","","","","learn","SR",""
"","show_choice","71","120158","0.0-71.0","""event"",""trial"",""time""
""fullscreenenter"",""0"",""3542""
","
","
","""event"",""trial"",""time""
""fullscreenenter"",""0"",""3542""
","
","null","run_exp/static/images/Set 6_rs/152a.jpg","null","","","","","","learn","SR",""
"","html-keyboard-response","72","120660","0.0-72.0","""event"",""trial"",""time""
""fullscreenenter"",""0"",""3542""
","
","
","""event"",""trial"",""time""
""fullscreenenter"",""0"",""3542""
","
","null","<p></p>","null","","","","","","","",""
"","image","73","121524","0.0-73.0","""event"",""trial"",""time""
""fullscreenenter"",""0"",""3542""
","
","
","""event"",""trial"",""time""
""fullscreenenter"",""0"",""3542""
","
","861.5","run_exp/static/images/Set 6_rs/167a.jpg","78","","","","","","learn","SL",""
"","show_choice","74","122664","0.0-74.0","""event"",""trial"",""time""
""fullscreenenter"",""0"",""3542""
","
","
","""event"",""trial"",""time""
""fullscreenenter"",""0"",""3542""
","
","null","run_exp/static/images/Set 6_rs/167a.jpg","null","","","","","","learn","SL",""
"","html-keyboard-response","75","123166","0.0-75.0","""event"",""trial"",""time""
""fullscreenenter"",""0"",""3542""
","
","
","""event"",""trial"",""time""
""fullscreenenter"",""0"",""3542""
","
","null","<p></p>","null","","","","","","","",""
"","image","76","124324","0.0-76.0","""event"",""trial"",""time""
""fullscreenenter"",""0"",""3542""
","
","
","""event"",""trial"",""time""
""fullscreenenter"",""0"",""3542""
","
","1156.5","run_exp/static/images/Set 6_rs/132a.jpg","86","","","","","","learn","SR",""
"","show_choice","77","125173","0.0-77.0","""event"",""trial"",""time""
""fullscreenenter"",""0"",""3542""
","
","
","""event"",""trial"",""time""
""fullscreenenter"",""0"",""3542""
","
","null","run_exp/static/images/Set 6_rs/132a.jpg","null","","","","","","learn","SR",""
"","html-keyboard-response","78","125685","0.0-78.0","""event"",""trial"",""time""
""fullscreenenter"",""0"",""3542""
","
","
","""event"",""trial"",""time""
""fullscreenenter"",""0"",""3542""
","
","null","<p></p>","null","","","","","","","",""
"","image","79","127058","0.0-79.0","""event"",""trial"",""time""
""fullscreenenter"",""0"",""3542""
","
","
","""event"",""trial"",""time""
""fullscreenenter"",""0"",""3542""
","
","1371.699999988079","run_exp/static/images/Set 6_rs/131a.jpg","86","","","","","","learn","SR",""
"","show_choice","80","127692","0.0-80.0","""event"",""trial"",""time""
""fullscreenenter"",""0"",""3542""
","
","
","""event"",""trial"",""time""
""fullscreenenter"",""0"",""3542""
","
","null","run_exp/static/images/Set 6_rs/131a.jpg","null","","","","","","learn","SR",""
"","html-keyboard-response","81","128203","0.0-81.0","""event"",""trial"",""time""
""fullscreenenter"",""0"",""3542""
","
","
","""event"",""trial"",""time""
""fullscreenenter"",""0"",""3542""
","
","null","<p></p>","null","","","","","","","",""
"","image","82","129198","0.0-82.0","""event"",""trial"",""time""
""fullscreenenter"",""0"",""3542""
","
","
","""event"",""trial"",""time""
""fullscreenenter"",""0"",""3542""
","
","993.5","run_exp/static/images/Set 6_rs/036a.jpg","86","","","","","","learn","SL",""
"","show_choice","83","130210","0.0-83.0","""event"",""trial"",""time""
""fullscreenenter"",""0"",""3542""
","
","
","""event"",""trial"",""time""
""fullscreenenter"",""0"",""3542""
","
","null","run_exp/static/images/Set 6_rs/036a.jpg","null","","","","","","learn","SL",""
"","html-keyboard-response","84","130717","0.0-84.0","""event"",""trial"",""time""
""fullscreenenter"",""0"",""3542""
","
","
","""event"",""trial"",""time""
""fullscreenenter"",""0"",""3542""
","
","null","<p></p>","null","","","","","","","",""
"","image","85","132134","0.0-85.0","""event"",""trial"",""time""
""fullscreenenter"",""0"",""3542""
","
","
","""event"",""trial"",""time""
""fullscreenenter"",""0"",""3542""
","
","1415.2000000178814","run_exp/static/images/Set 6_rs/168a.jpg","86","","","","","","learn","SL",""
"","show_choice","86","132724","0.0-86.0","""event"",""trial"",""time""
""fullscreenenter"",""0"",""3542""
","
","
","""event"",""trial"",""time""
""fullscreenenter"",""0"",""3542""
","
","null","run_exp/static/images/Set 6_rs/168a.jpg","null","","","","","","learn","SL",""
"","html-keyboard-response","87","133240","0.0-87.0","""event"",""trial"",""time""
""fullscreenenter"",""0"",""3542""
","
","
","""event"",""trial"",""time""
""fullscreenenter"",""0"",""3542""
","
","null","<p></p>","null","","","","","","","",""
"","image","88","134404","0.0-88.0","""event"",""trial"",""time""
""fullscreenenter"",""0"",""3542""
","
","
","""event"",""trial"",""time""
""fullscreenenter"",""0"",""3542""
","
","1162.7000000178814","run_exp/static/images/Set 6_rs/134a.jpg","86","","","","","","learn","SR",""
"","show_choice","89","135245","0.0-89.0","""event"",""trial"",""time""
""fullscreenenter"",""0"",""3542""
","
","
","""event"",""trial"",""time""
""fullscreenenter"",""0"",""3542""
","
","null","run_exp/static/images/Set 6_rs/134a.jpg","null","","","","","","learn","SR",""
"","html-keyboard-response","90","135753","0.0-90.0","""event"",""trial"",""time""
""fullscreenenter"",""0"",""3542""
","
","
","""event"",""trial"",""time""
""fullscreenenter"",""0"",""3542""
","
","null","<p></p>","null","","","","","","","",""
"","image","91","136551","0.0-91.0","""event"",""trial"",""time""
""fullscreenenter"",""0"",""3542""
","
","
","""event"",""trial"",""time""
""fullscreenenter"",""0"",""3542""
","
","797.0999999940395","run_exp/static/images/Set 6_rs/126a.jpg","86","","","","","","learn","SR",""
"","show_choice","92","137756","0.0-92.0","""event"",""trial"",""time""
""fullscreenenter"",""0"",""3542""
","
","
","""event"",""trial"",""time""
""fullscreenenter"",""0"",""3542""
","
","null","run_exp/static/images/Set 6_rs/126a.jpg","null","","","","","","learn","SR",""
"","html-keyboard-response","93","138270","0.0-93.0","""event"",""trial"",""time""
""fullscreenenter"",""0"",""3542""
","
","
","""event"",""trial"",""time""
""fullscreenenter"",""0"",""3542""
","
","null","<p></p>","null","","","","","","","",""
"","image","94","139958","0.0-94.0","""event"",""trial"",""time""
""fullscreenenter"",""0"",""3542""
","
","
","""event"",""trial"",""time""
""fullscreenenter"",""0"",""3542""
","
","1686.5","run_exp/static/images/Set 6_rs/014a.jpg","86","","","","","","learn","SL",""
"","show_choice","95","140281","0.0-95.0","""event"",""trial"",""time""
""fullscreenenter"",""0"",""3542""
","
","
","""event"",""trial"",""time""
""fullscreenenter"",""0"",""3542""
","
","null","run_exp/static/images/Set 6_rs/014a.jpg","null","","","","","","learn","SL",""
"","html-keyboard-response","96","140790","0.0-96.0","""event"",""trial"",""time""
""fullscreenenter"",""0"",""3542""
","
","
","""event"",""trial"",""time""
""fullscreenenter"",""0"",""3542""
","
","null","<p></p>","null","","","","","","","",""
"","image","97","142033","0.0-97.0","""event"",""trial"",""time""
""fullscreenenter"",""0"",""3542""
","
","
","""event"",""trial"",""time""
""fullscreenenter"",""0"",""3542""
","
","1241.4000000059605","run_exp/static/images/Set 6_rs/062a.jpg","86","","","","","","learn","SL",""
"","show_choice","98","142803","0.0-98.0","""event"",""trial"",""time""
""fullscreenenter"",""0"",""3542""
","
","
","""event"",""trial"",""time""
""fullscreenenter"",""0"",""3542""
","
","null","run_exp/static/images/Set 6_rs/062a.jpg","null","","","","","","learn","SL",""
"","html-keyboard-response","99","143308","0.0-99.0","""event"",""trial"",""time""
""fullscreenenter"",""0"",""3542""
","
","
","""event"",""trial"",""time""
""fullscreenenter"",""0"",""3542""
","
","null","<p></p>","null","","","","","","","",""
"","image","100","144638","0.0-100.0","""event"",""trial"",""time""
""fullscreenenter"",""0"",""3542""
","
","
","""event"",""trial"",""time""
""fullscreenenter"",""0"",""3542""
","
","1328.5","run_exp/static/images/Set 6_rs/066a.jpg","78","","","","","","learn","SL",""
"","show_choice","101","145311","0.0-101.0","""event"",""trial"",""time""
""fullscreenenter"",""0"",""3542""
","
","
","""event"",""trial"",""time""
""fullscreenenter"",""0"",""3542""
","
","null","run_exp/static/images/Set 6_rs/066a.jpg","null","","","","","","learn","SL",""
"","html-keyboard-response","102","145818","0.0-102.0","""event"",""trial"",""time""
""fullscreenenter"",""0"",""3542""
","
","
","""event"",""trial"",""time""
""fullscreenenter"",""0"",""3542""
","
","null","<p></p>","null","","","","","","","",""
"","image","103","147436","0.0-103.0","""event"",""trial"",""time""
""fullscreenenter"",""0"",""3542""
","
","
","""event"",""trial"",""time""
""fullscreenenter"",""0"",""3542""
","
","1616.3999999761581","run_exp/static/images/Set 6_rs/074a.jpg","86","","","","","","learn","SL",""
"","show_choice","104","147828","0.0-104.0","""event"",""trial"",""time""
""fullscreenenter"",""0"",""3542""
","
","
","""event"",""trial"",""time""
""fullscreenenter"",""0"",""3542""
","
","null","run_exp/static/images/Set 6_rs/074a.jpg","null","","","","","","learn","SL",""
"","html-keyboard-response","105","148347","0.0-105.0","""event"",""trial"",""time""
""fullscreenenter"",""0"",""3542""
","
","
","""event"",""trial"",""time""
""fullscreenenter"",""0"",""3542""
","
","null","<p></p>","null","","","","","","","",""
"","image","106","149551","0.0-106.0","""event"",""trial"",""time""
""fullscreenenter"",""0"",""3542""
","
","
","""event"",""trial"",""time""
""fullscreenenter"",""0"",""3542""
","
","1202.7000000178814","run_exp/static/images/Set 6_rs/181a.jpg","78","","","","","","learn","SL",""
"","show_choice","107","150361","0.0-107.0","""event"",""trial"",""time""
""fullscreenenter"",""0"",""3542""
","
","
","""event"",""trial"",""time""
""fullscreenenter"",""0"",""3542""
","
","null","run_exp/static/images/Set 6_rs/181a.jpg","null","","","","","","learn","SL",""
"","html-keyboard-response","108","150864","0.0-108.0","""event"",""trial"",""time""
""fullscreenenter"",""0"",""3542""
","
","
","""event"",""trial"",""time""
""fullscreenenter"",""0"",""3542""
","
","null","<p></p>","null","","","","","","","",""
"","image","109","151823","0.0-109.0","""event"",""trial"",""time""
""fullscreenenter"",""0"",""3542""
","
","
","""event"",""trial"",""time""
""fullscreenenter"",""0"",""3542""
","
","957.5999999940395","run_exp/static/images/Set 6_rs/150a.jpg","86","","","","","","learn","SR",""
"","show_choice","110","152877","0.0-110.0","""event"",""trial"",""time""
""fullscreenenter"",""0"",""3542""
","
","
","""event"",""trial"",""time""
""fullscreenenter"",""0"",""3542""
","
","null","run_exp/static/images/Set 6_rs/150a.jpg","null","","","","","","learn","SR",""
"","html-keyboard-response","111","153383","0.0-111.0","""event"",""trial"",""time""
""fullscreenenter"",""0"",""3542""
","
","
","""event"",""trial"",""time""
""fullscreenenter"",""0"",""3542""
","
","null","<p></p>","null","","","","","","","",""
"","image","112","154418","0.0-112.0","""event"",""trial"",""time""
""fullscreenenter"",""0"",""3542""
","
","
","""event"",""trial"",""time""
""fullscreenenter"",""0"",""3542""
","
","1032.9000000059605","run_exp/static/images/Set 6_rs/019a.jpg","86","","","","","","learn","SL",""
"","show_choice","113","155394","0.0-113.0","""event"",""trial"",""time""
""fullscreenenter"",""0"",""3542""
","
","
","""event"",""trial"",""time""
""fullscreenenter"",""0"",""3542""
","
","null","run_exp/static/images/Set 6_rs/019a.jpg","null","","","","","","learn","SL",""
"","html-keyboard-response","114","155899","0.0-114.0","""event"",""trial"",""time""
""fullscreenenter"",""0"",""3542""
","
","
","""event"",""trial"",""time""
""fullscreenenter"",""0"",""3542""
","
","null","<p></p>","null","","","","","","","",""
"","image","115","157444","0.0-115.0","""event"",""trial"",""time""
""fullscreenenter"",""0"",""3542""
","
","
","""event"",""trial"",""time""
""fullscreenenter"",""0"",""3542""
","
","1543","run_exp/static/images/Set 6_rs/166a.jpg","78","","","","","","learn","SR",""
"","show_choice","116","157903","0.0-116.0","""event"",""trial"",""time""
""fullscreenenter"",""0"",""3542""
","
","
","""event"",""trial"",""time""
""fullscreenenter"",""0"",""3542""
","
","null","run_exp/static/images/Set 6_rs/166a.jpg","null","","","","","","learn","SR",""
"","html-keyboard-response","117","158413","0.0-117.0","""event"",""trial"",""time""
""fullscreenenter"",""0"",""3542""
","
","
","""event"",""trial"",""time""
""fullscreenenter"",""0"",""3542""
","
","null","<p></p>","null","","","","","","","",""
"","image","118","160426","0.0-118.0","""event"",""trial"",""time""
""fullscreenenter"",""0"",""3542""
","
","
","""event"",""trial"",""time""
""fullscreenenter"",""0"",""3542""
","
","null","run_exp/static/images/Set 6_rs/091a.jpg","null","","","","","","learn","SL",""
"","show_choice","119","162438","0.0-119.0","""event"",""trial"",""time""
""fullscreenenter"",""0"",""3542""
","
","
","""event"",""trial"",""time""
""fullscreenenter"",""0"",""3542""
","
","null","run_exp/static/images/blank.png","null","","","","","","learn","SL",""
"","html-keyboard-response","120","162945","0.0-120.0","""event"",""trial"",""time""
""fullscreenenter"",""0"",""3542""
","
","
","""event"",""trial"",""time""
""fullscreenenter"",""0"",""3542""
","
","null","<p></p>","null","","","","","","","",""
"","image","121","163736","0.0-121.0","""event"",""trial"",""time""
""fullscreenenter"",""0"",""3542""
","
","
","""event"",""trial"",""time""
""fullscreenenter"",""0"",""3542""
","
","789.5","run_exp/static/images/Set 6_rs/007a.jpg","86","","","","","","learn","SR",""
"","show_choice","122","164971","0.0-122.0","""event"",""trial"",""time""
""fullscreenenter"",""0"",""3542""
","
","
","""event"",""trial"",""time""
""fullscreenenter"",""0"",""3542""
","
","null","run_exp/static/images/Set 6_rs/007a.jpg","null","","","","","","learn","SR",""
"","html-keyboard-response","123","165474","0.0-123.0","""event"",""trial"",""time""
""fullscreenenter"",""0"",""3542""
","
","
","""event"",""trial"",""time""
""fullscreenenter"",""0"",""3542""
","
","null","<p></p>","null","","","","","","","",""
"","image","124","166655","0.0-124.0","""event"",""trial"",""time""
""fullscreenenter"",""0"",""3542""
","
","
","""event"",""trial"",""time""
""fullscreenenter"",""0"",""3542""
","
","1179.699999988079","run_exp/static/images/Set 6_rs/006a.jpg","86","","","","","","learn","SL",""
"","show_choice","125","167483","0.0-125.0","""event"",""trial"",""time""
""fullscreenenter"",""0"",""3542""
","
","
","""event"",""trial"",""time""
""fullscreenenter"",""0"",""3542""
","
","null","run_exp/static/images/Set 6_rs/006a.jpg","null","","","","","","learn","SL",""
"","html-keyboard-response","126","167999","0.0-126.0","""event"",""trial"",""time""
""fullscreenenter"",""0"",""3542""
","
","
","""event"",""trial"",""time""
""fullscreenenter"",""0"",""3542""
","
","null","<p></p>","null","","","","","","","",""
"","image","127","168989","0.0-127.0","""event"",""trial"",""time""
""fullscreenenter"",""0"",""3542""
","
","
","""event"",""trial"",""time""
""fullscreenenter"",""0"",""3542""
","
","989.3999999761581","run_exp/static/images/Set 6_rs/108a.jpg","86","","","","","","learn","SR",""
"","show_choice","128","170007","0.0-128.0","""event"",""trial"",""time""
""fullscreenenter"",""0"",""3542""
","
","
","""event"",""trial"",""time""
""fullscreenenter"",""0"",""3542""
","
","null","run_exp/static/images/Set 6_rs/108a.jpg","null","","","","","","learn","SR",""
"","html-keyboard-response","129","170519","0.0-129.0","""event"",""trial"",""time""
""fullscreenenter"",""0"",""3542""
","
","
","""event"",""trial"",""time""
""fullscreenenter"",""0"",""3542""
","
","null","<p></p>","null","","","","","","","",""
"","image","130","171670","0.0-130.0","""event"",""trial"",""time""
""fullscreenenter"",""0"",""3542""
","
","
","""event"",""trial"",""time""
""fullscreenenter"",""0"",""3542""
","
","1149.5","run_exp/static/images/Set 6_rs/121a.jpg","86","","","","","","learn","SR",""
"","show_choice","131","172532","0.0-131.0","""event"",""trial"",""time""
""fullscreenenter"",""0"",""3542""
","
","
","""event"",""trial"",""time""
""fullscreenenter"",""0"",""3542""
","
","null","run_exp/static/images/Set 6_rs/121a.jpg","null","","","","","","learn","SR",""
"","html-keyboard-response","132","173034","0.0-132.0","""event"",""trial"",""time""
""fullscreenenter"",""0"",""3542""
","
","
","""event"",""trial"",""time""
""fullscreenenter"",""0"",""3542""
","
","null","<p></p>","null","","","","","","","",""
"","image","133","173118","0.0-133.0","""event"",""trial"",""time""
""fullscreenenter"",""0"",""3542""
","
","
","""event"",""trial"",""time""
""fullscreenenter"",""0"",""3542""
","
","82.19999998807907","run_exp/static/images/Set 6_rs/129a.jpg","86","","","","","","learn","SL",""
"","show_choice","134","175047","0.0-134.0","""event"",""trial"",""time""
""fullscreenenter"",""0"",""3542""
","
","
","""event"",""trial"",""time""
""fullscreenenter"",""0"",""3542""
","
","null","run_exp/static/images/Set 6_rs/129a.jpg","null","","","","","","learn","SL",""
"","html-keyboard-response","135","175553","0.0-135.0","""event"",""trial"",""time""
""fullscreenenter"",""0"",""3542""
","
","
","""event"",""trial"",""time""
""fullscreenenter"",""0"",""3542""
","
","null","<p></p>","null","","","","","","","",""
"","image","136","176273","0.0-136.0","""event"",""trial"",""time""
""fullscreenenter"",""0"",""3542""
","
","
","""event"",""trial"",""time""
""fullscreenenter"",""0"",""3542""
","
","718.2000000178814","run_exp/static/images/Set 6_rs/045a.jpg","86","","","","","","learn","SR",""
"","show_choice","137","177564","0.0-137.0","""event"",""trial"",""time""
""fullscreenenter"",""0"",""3542""
","
","
","""event"",""trial"",""time""
""fullscreenenter"",""0"",""3542""
","
","null","run_exp/static/images/Set 6_rs/045a.jpg","null","","","","","","learn","SR",""
"","html-keyboard-response","138","178078","0.0-138.0","""event"",""trial"",""time""
""fullscreenenter"",""0"",""3542""
","
","
","""event"",""trial"",""time""
""fullscreenenter"",""0"",""3542""
","
","null","<p></p>","null","","","","","","","",""
"","image","139","179710","0.0-139.0","""event"",""trial"",""time""
""fullscreenenter"",""0"",""3542""
","
","
","""event"",""trial"",""time""
""fullscreenenter"",""0"",""3542""
","
","1630.800000011921","run_exp/static/images/Set 6_rs/055a.jpg","86","","","","","","learn","SL",""
"","show_choice","140","180085","0.0-140.0","""event"",""trial"",""time""
""fullscreenenter"",""0"",""3542""
","
","
","""event"",""trial"",""time""
""fullscreenenter"",""0"",""3542""
","
","null","run_exp/static/images/Set 6_rs/055a.jpg","null","","","","","","learn","SL",""
"","html-keyboard-response","141","180598","0.0-141.0","""event"",""trial"",""time""
""fullscreenenter"",""0"",""3542""
","
","
","""event"",""trial"",""time""
""fullscreenenter"",""0"",""3542""
","
","null","<p></p>","null","","","","","","","",""
"","image","142","182604","0.0-142.0","""event"",""trial"",""time""
""fullscreenenter"",""0"",""3542""
","
","
","""event"",""trial"",""time""
""fullscreenenter"",""0"",""3542""
","
","null","run_exp/static/images/Set 6_rs/117a.jpg","null","","","","","","learn","SL",""
"","show_choice","143","184612","0.0-143.0","""event"",""trial"",""time""
""fullscreenenter"",""0"",""3542""
","
","
","""event"",""trial"",""time""
""fullscreenenter"",""0"",""3542""
","
","null","run_exp/static/images/blank.png","null","","","","","","learn","SL",""
"","html-keyboard-response","144","185118","0.0-144.0","""event"",""trial"",""time""
""fullscreenenter"",""0"",""3542""
","
","
","""event"",""trial"",""time""
""fullscreenenter"",""0"",""3542""
","
","null","<p></p>","null","","","","","","","",""
"","image","145","186076","0.0-145.0","""event"",""trial"",""time""
""fullscreenenter"",""0"",""3542""
","
","
","""event"",""trial"",""time""
""fullscreenenter"",""0"",""3542""
","
","955.4000000059605","run_exp/static/images/Set 6_rs/187a.jpg","86","","","","","","learn","SR",""
"","show_choice","146","187129","0.0-146.0","""event"",""trial"",""time""
""fullscreenenter"",""0"",""3542""
","
","
","""event"",""trial"",""time""
""fullscreenenter"",""0"",""3542""
","
","null","run_exp/static/images/Set 6_rs/187a.jpg","null","","","","","","learn","SR",""
"","html-keyboard-response","147","187636","0.0-147.0","""event"",""trial"",""time""
""fullscreenenter"",""0"",""3542""
","
","
","""event"",""trial"",""time""
""fullscreenenter"",""0"",""3542""
","
","null","<p></p>","null","","","","","","","",""
"","image","148","189499","0.0-148.0","""event"",""trial"",""time""
""fullscreenenter"",""0"",""3542""
","
","
","""event"",""trial"",""time""
""fullscreenenter"",""0"",""3542""
","
","1861.199999988079","run_exp/static/images/Set 6_rs/111a.jpg","86","","","","","","learn","SL",""
"","show_choice","149","189643","0.0-149.0","""event"",""trial"",""time""
""fullscreenenter"",""0"",""3542""
","
","
","""event"",""trial"",""time""
""fullscreenenter"",""0"",""3542""
","
","null","run_exp/static/images/Set 6_rs/111a.jpg","null","","","","","","learn","SL",""
"","html-keyboard-response","150","190151","0.0-150.0","""event"",""trial"",""time""
""fullscreenenter"",""0"",""3542""
","
","
","""event"",""trial"",""time""
""fullscreenenter"",""0"",""3542""
","
","null","<p></p>","null","","","","","","","",""
"","image","151","191358","0.0-151.0","""event"",""trial"",""time""
""fullscreenenter"",""0"",""3542""
","
","
","""event"",""trial"",""time""
""fullscreenenter"",""0"",""3542""
","
","1205.2000000178814","run_exp/static/images/Set 6_rs/112a.jpg","86","","","","","","learn","SR",""
"","show_choice","152","192154","0.0-152.0","""event"",""trial"",""time""
""fullscreenenter"",""0"",""3542""
","
","
","""event"",""trial"",""time""
""fullscreenenter"",""0"",""3542""
","
","null","run_exp/static/images/Set 6_rs/112a.jpg","null","","","","","","learn","SR",""
"","html-keyboard-response","153","192668","0.0-153.0","""event"",""trial"",""time""
""fullscreenenter"",""0"",""3542""
","
","
","""event"",""trial"",""time""
""fullscreenenter"",""0"",""3542""
","
","null","<p></p>","null","","","","","","","",""
"","image","154","193310","0.0-154.0","""event"",""trial"",""time""
""fullscreenenter"",""0"",""3542""
","
","
","""event"",""trial"",""time""
""fullscreenenter"",""0"",""3542""
","
","640.2999999821186","run_exp/static/images/Set 6_rs/095a.jpg","86","","","","","","learn","SL",""
"","show_choice","155","194679","0.0-155.0","""event"",""trial"",""time""
""fullscreenenter"",""0"",""3542""
","
","
","""event"",""trial"",""time""
""fullscreenenter"",""0"",""3542""
","
","null","run_exp/static/images/Set 6_rs/095a.jpg","null","","","","","","learn","SL",""
"","html-keyboard-response","156","195194","0.0-156.0","""event"",""trial"",""time""
""fullscreenenter"",""0"",""3542""
","
","
","""event"",""trial"",""time""
""fullscreenenter"",""0"",""3542""
","
","null","<p></p>","null","","","","","","","",""
"","image","157","195965","0.0-157.0","""event"",""trial"",""time""
""fullscreenenter"",""0"",""3542""
","
","
","""event"",""trial"",""time""
""fullscreenenter"",""0"",""3542""
","
","769.5","run_exp/static/images/Set 6_rs/169a.jpg","86","","","","","","learn","SR",""
"","show_choice","158","197198","0.0-158.0","""event"",""trial"",""time""
""fullscreenenter"",""0"",""3542""
","
","
","""event"",""trial"",""time""
""fullscreenenter"",""0"",""3542""
","
","null","run_exp/static/images/Set 6_rs/169a.jpg","null","","","","","","learn","SR",""
"","html-keyboard-response","159","197713","0.0-159.0","""event"",""trial"",""time""
""fullscreenenter"",""0"",""3542""
","
","
","""event"",""trial"",""time""
""fullscreenenter"",""0"",""3542""
","
","null","<p></p>","null","","","","","","","",""
"","image","160","199717","0.0-160.0","""event"",""trial"",""time""
""fullscreenenter"",""0"",""3542""
","
","
","""event"",""trial"",""time""
""fullscreenenter"",""0"",""3542""
","
","null","run_exp/static/images/Set 6_rs/138a.jpg","null","","","","","","learn","SL",""
"","show_choice","161","201720","0.0-161.0","""event"",""trial"",""time""
""fullscreenenter"",""0"",""3542""
","
","
","""event"",""trial"",""time""
""fullscreenenter"",""0"",""3542""
","
","null","run_exp/static/images/blank.png","null","","","","","","learn","SL",""
"","html-keyboard-response","162","202233","0.0-162.0","""event"",""trial"",""time""
""fullscreenenter"",""0"",""3542""
","
","
","""event"",""trial"",""time""
""fullscreenenter"",""0"",""3542""
","
","null","<p></p>","null","","","","","","","",""
"","image","163","203087","0.0-163.0","""event"",""trial"",""time""
""fullscreenenter"",""0"",""3542""
","
","
","""event"",""trial"",""time""
""fullscreenenter"",""0"",""3542""
","
","852.3999999761581","run_exp/static/images/Set 6_rs/076a.jpg","78","","","","","","learn","SR",""
"","show_choice","164","204241","0.0-164.0","""event"",""trial"",""time""
""fullscreenenter"",""0"",""3542""
","
","
","""event"",""trial"",""time""
""fullscreenenter"",""0"",""3542""
","
","null","run_exp/static/images/Set 6_rs/076a.jpg","null","","","","","","learn","SR",""
"","html-keyboard-response","165","204751","0.0-165.0","""event"",""trial"",""time""
""fullscreenenter"",""0"",""3542""
","
","
","""event"",""trial"",""time""
""fullscreenenter"",""0"",""3542""
","
","null","<p></p>","null","","","","","","","",""
"","image","166","206055","0.0-166.0","""event"",""trial"",""time""
""fullscreenenter"",""0"",""3542""
","
","
","""event"",""trial"",""time""
""fullscreenenter"",""0"",""3542""
","
","1302.800000011921","run_exp/static/images/Set 6_rs/017a.jpg","86","","","","","","learn","SL",""
"","show_choice","167","206762","0.0-167.0","""event"",""trial"",""time""
""fullscreenenter"",""0"",""3542""
","
","
","""event"",""trial"",""time""
""fullscreenenter"",""0"",""3542""
","
","null","run_exp/static/images/Set 6_rs/017a.jpg","null","","","","","","learn","SL",""
"","html-keyboard-response","168","207277","0.0-168.0","""event"",""trial"",""time""
""fullscreenenter"",""0"",""3542""
","
","
","""event"",""trial"",""time""
""fullscreenenter"",""0"",""3542""
","
","null","<p></p>","null","","","","","","","",""
"","image","169","207987","0.0-169.0","""event"",""trial"",""time""
""fullscreenenter"",""0"",""3542""
","
","
","""event"",""trial"",""time""
""fullscreenenter"",""0"",""3542""
","
","707.9000000059605","run_exp/static/images/Set 6_rs/071a.jpg","86","","","","","","learn","SL",""
"","show_choice","170","209286","0.0-170.0","""event"",""trial"",""time""
""fullscreenenter"",""0"",""3542""
","
","
","""event"",""trial"",""time""
""fullscreenenter"",""0"",""3542""
","
","null","run_exp/static/images/Set 6_rs/071a.jpg","null","","","","","","learn","SL",""
"","html-keyboard-response","171","209794","0.0-171.0","""event"",""trial"",""time""
""fullscreenenter"",""0"",""3542""
","
","
","""event"",""trial"",""time""
""fullscreenenter"",""0"",""3542""
","
","null","<p></p>","null","","","","","","","",""
"","image","172","211018","0.0-172.0","""event"",""trial"",""time""
""fullscreenenter"",""0"",""3542""
","
","
","""event"",""trial"",""time""
""fullscreenenter"",""0"",""3542""
","
","1222.5999999940395","run_exp/static/images/Set 6_rs/172a.jpg","78","","","","","","learn","SR",""
"","show_choice","173","211814","0.0-173.0","""event"",""trial"",""time""
""fullscreenenter"",""0"",""3542""
","
","
","""event"",""trial"",""time""
""fullscreenenter"",""0"",""3542""
","
","null","run_exp/static/images/Set 6_rs/172a.jpg","null","","","","","","learn","SR",""
"","html-keyboard-response","174","212319","0.0-174.0","""event"",""trial"",""time""
""fullscreenenter"",""0"",""3542""
","
","
","""event"",""trial"",""time""
""fullscreenenter"",""0"",""3542""
","
","null","<p></p>","null","","","","","","","",""
"","image","175","214214","0.0-175.0","""event"",""trial"",""time""
""fullscreenenter"",""0"",""3542""
","
","
","""event"",""trial"",""time""
""fullscreenenter"",""0"",""3542""
","
","1892.9000000059605","run_exp/static/images/Set 6_rs/144a.jpg","86","","","","","","learn","SL",""
"","show_choice","176","214335","0.0-176.0","""event"",""trial"",""time""
""fullscreenenter"",""0"",""3542""
","
","
","""event"",""trial"",""time""
""fullscreenenter"",""0"",""3542""
","
","null","run_exp/static/images/Set 6_rs/144a.jpg","null","","","","","","learn","SL",""
"","html-keyboard-response","177","214844","0.0-177.0","""event"",""trial"",""time""
""fullscreenenter"",""0"",""3542""
","
","
","""event"",""trial"",""time""
""fullscreenenter"",""0"",""3542""
","
","null","<p></p>","null","","","","","","","",""
"","image","178","216278","0.0-178.0","""event"",""trial"",""time""
""fullscreenenter"",""0"",""3542""
","
","
","""event"",""trial"",""time""
""fullscreenenter"",""0"",""3542""
","
","1432.7000000178814","run_exp/static/images/Set 6_rs/012a.jpg","86","","","","","","learn","SR",""
"","show_choice","179","216851","0.0-179.0","""event"",""trial"",""time""
""fullscreenenter"",""0"",""3542""
","
","
","""event"",""trial"",""time""
""fullscreenenter"",""0"",""3542""
","
","null","run_exp/static/images/Set 6_rs/012a.jpg","null","","","","","","learn","SR",""
"","html-keyboard-response","180","217358","0.0-180.0","""event"",""trial"",""time""
""fullscreenenter"",""0"",""3542""
","
","
","""event"",""trial"",""time""
""fullscreenenter"",""0"",""3542""
","
","null","<p></p>","null","","","","","","","",""
"","image","181","218275","0.0-181.0","""event"",""trial"",""time""
""fullscreenenter"",""0"",""3542""
","
","
","""event"",""trial"",""time""
""fullscreenenter"",""0"",""3542""
","
","915.5999999940395","run_exp/static/images/Set 6_rs/010a.jpg","86","","","","","","learn","SR",""
"","show_choice","182","219376","0.0-182.0","""event"",""trial"",""time""
""fullscreenenter"",""0"",""3542""
","
","
","""event"",""trial"",""time""
""fullscreenenter"",""0"",""3542""
","
","null","run_exp/static/images/Set 6_rs/010a.jpg","null","","","","","","learn","SR",""
"","html-keyboard-response","183","219888","0.0-183.0","""event"",""trial"",""time""
""fullscreenenter"",""0"",""3542""
","
","
","""event"",""trial"",""time""
""fullscreenenter"",""0"",""3542""
","
","null","<p></p>","null","","","","","","","",""
"","image","184","220737","0.0-184.0","""event"",""trial"",""time""
""fullscreenenter"",""0"",""3542""
","
","
","""event"",""trial"",""time""
""fullscreenenter"",""0"",""3542""
","
","847.9000000059605","run_exp/static/images/Set 6_rs/073a.jpg","86","","","","","","learn","SL",""
"","show_choice","185","221893","0.0-185.0","""event"",""trial"",""time""
""fullscreenenter"",""0"",""3542""
","
","
","""event"",""trial"",""time""
""fullscreenenter"",""0"",""3542""
","
","null","run_exp/static/images/Set 6_rs/073a.jpg","null","","","","","","learn","SL",""
"","html-keyboard-response","186","222410","0.0-186.0","""event"",""trial"",""time""
""fullscreenenter"",""0"",""3542""
","
","
","""event"",""trial"",""time""
""fullscreenenter"",""0"",""3542""
","
","null","<p></p>","null","","","","","","","",""
"","image","187","223239","0.0-187.0","""event"",""trial"",""time""
""fullscreenenter"",""0"",""3542""
","
","
","""event"",""trial"",""time""
""fullscreenenter"",""0"",""3542""
","
","827.8000000119209","run_exp/static/images/Set 6_rs/088a.jpg","86","","","","","","learn","SR",""
"","show_choice","188","224420","0.0-188.0","""event"",""trial"",""time""
""fullscreenenter"",""0"",""3542""
","
","
","""event"",""trial"",""time""
""fullscreenenter"",""0"",""3542""
","
","null","run_exp/static/images/Set 6_rs/088a.jpg","null","","","","","","learn","SR",""
"","html-keyboard-response","189","224936","0.0-189.0","""event"",""trial"",""time""
""fullscreenenter"",""0"",""3542""
","
","
","""event"",""trial"",""time""
""fullscreenenter"",""0"",""3542""
","
","null","<p></p>","null","","","","","","","",""
"","image","190","226081","0.0-190.0","""event"",""trial"",""time""
""fullscreenenter"",""0"",""3542""
","
","
","""event"",""trial"",""time""
""fullscreenenter"",""0"",""3542""
","
","1143.5","run_exp/static/images/Set 6_rs/089a.jpg","86","","","","","","learn","SL",""
"","show_choice","191","226941","0.0-191.0","""event"",""trial"",""time""
""fullscreenenter"",""0"",""3542""
","
","
","""event"",""trial"",""time""
""fullscreenenter"",""0"",""3542""
","
","null","run_exp/static/images/Set 6_rs/089a.jpg","null","","","","","","learn","SL",""
"","html-keyboard-response","192","227453","0.0-192.0","""event"",""trial"",""time""
""fullscreenenter"",""0"",""3542""
","
","
","""event"",""trial"",""time""
""fullscreenenter"",""0"",""3542""
","
","null","<p></p>","null","","","","","","","",""
"","image","193","228720","0.0-193.0","""event"",""trial"",""time""
""fullscreenenter"",""0"",""3542""
","
","
","""event"",""trial"",""time""
""fullscreenenter"",""0"",""3542""
","
","1265.5","run_exp/static/images/Set 6_rs/061a.jpg","86","","","","","","learn","SR",""
"","show_choice","194","229472","0.0-194.0","""event"",""trial"",""time""
""fullscreenenter"",""0"",""3542""
","
","
","""event"",""trial"",""time""
""fullscreenenter"",""0"",""3542""
","
","null","run_exp/static/images/Set 6_rs/061a.jpg","null","","","","","","learn","SR",""
"","html-keyboard-response","195","229975","0.0-195.0","""event"",""trial"",""time""
""fullscreenenter"",""0"",""3542""
","
","
","""event"",""trial"",""time""
""fullscreenenter"",""0"",""3542""
","
","null","<p></p>","null","","","","","","","",""
"","test_intro","196","267083","0.0-196.0","""event"",""trial"",""time""
""fullscreenenter"",""0"",""3542""
","
","
","""event"",""trial"",""time""
""fullscreenenter"",""0"",""3542""
","
","null","run_exp/static/audio/clip_2_memory.m4a","null","","","","","<div class='center'><p>Now, lets see how much you remember about the items you just saw.  For each item, you need to indicate if it was <b>old</b> by pressing the <b>v</b> key, <b>similar</b> by pressing the <b>b</b> key, or <b>new</b> by pressing the <b>n</b> key.</p><p>Old refers to an item that you saw before in the indoor/outdoor game that you just played, new refers to an item you have <b>not</b> seen before within the indoor/outdoor game, and similar refers to an item that is similar to an item youve seen before but is not exactly the same. </p><p>Before we begin, lets go over some brief demonstrations to make sure you understand.</p></div>","","",""
"","html-keyboard-response","197","327125","0.0-197.0","""event"",""trial"",""time""
""fullscreenenter"",""0"",""3542""
","
","
","""event"",""trial"",""time""
""fullscreenenter"",""0"",""3542""
","
","60043.5","<div class='center'><p>Now, lets see how much you remember about the items you just saw.  For each item, you need to indicate if it was <b>old</b> by pressing the <b>v</b> key, <b>similar</b> by pressing the <b>b</b> key, or <b>new</b> by pressing the <b>n</b> key.</p><p>Old refers to an item that you saw before in the indoor/outdoor game that you just played, new refers to an item you have <b>not</b> seen before within the indoor/outdoor game, and similar refers to an item that is similar to an item youve seen before but is not exactly the same. </p><p>Before we begin, lets go over some brief demonstrations to make sure you understand.</p><div><p><b>[Press the space bar to continue]</b></p></div>","32","","","","","","","",""
"","items","198","334633","0.0-198.0","""event"",""trial"",""time""
""fullscreenenter"",""0"",""3542""
","
","
","""event"",""trial"",""time""
""fullscreenenter"",""0"",""3542""
","
","null","run_exp/static/audio/clip_3_items.m4a","null","","","","","","","",""
"","mop","199","339152","0.0-199.0","""event"",""trial"",""time""
""fullscreenenter"",""0"",""3542""
","
","
","""event"",""trial"",""time""
""fullscreenenter"",""0"",""3542""
","
","null","run_exp/static/audio/clip_4_mop.m4a","null","","","","","","","",""
"","baseball","200","342672","0.0-200.0","""event"",""trial"",""time""
""fullscreenenter"",""0"",""3542""
","
","
","""event"",""trial"",""time""
""fullscreenenter"",""0"",""3542""
","
","null","run_exp/static/audio/clip_5_baseball.m4a","null","","","","","","","",""
"","trumpet","201","346189","0.0-201.0","""event"",""trial"",""time""
""fullscreenenter"",""0"",""3542""
","
","
","""event"",""trial"",""time""
""fullscreenenter"",""0"",""3542""
","
","null","run_exp/static/audio/clip_6_trumpet.m4a","null","","","","","","","",""
"","gummies","202","349702","0.0-202.0","""event"",""trial"",""time""
""fullscreenenter"",""0"",""3542""
","
","
","""event"",""trial"",""time""
""fullscreenenter"",""0"",""3542""
","
","null","run_exp/static/audio/clip_7_gummies.m4a","null","","","","","","","",""
"","osn","203","354223","0.0-203.0","""event"",""trial"",""time""
""fullscreenenter"",""0"",""3542""
","
","
","""event"",""trial"",""time""
""fullscreenenter"",""0"",""3542""
","
","null","run_exp/static/audio/clip_8_osn.m4a","null","","","","","","","",""
"","old_1","204","360732","0.0-204.0","""event"",""trial"",""time""
""fullscreenenter"",""0"",""3542""
","
","
","""event"",""trial"",""time""
""fullscreenenter"",""0"",""3542""
","
","null","run_exp/static/audio/clip_9_old_trumpet.m4a","null","","","","","","","",""
"","new_1","205","368243","0.0-205.0","""event"",""trial"",""time""
""fullscreenenter"",""0"",""3542""
","
","
","""event"",""trial"",""time""
""fullscreenenter"",""0"",""3542""
","
","null","run_exp/static/audio/clip_10_new_balloon.m4a","null","","","","","","","",""
"","similar_1a","206","372752","0.0-206.0","""event"",""trial"",""time""
""fullscreenenter"",""0"",""3542""
","
","
","""event"",""trial"",""time""
""fullscreenenter"",""0"",""3542""
","
","null","run_exp/static/audio/clip_11a_similar_mop.m4a","null","","","","","","","",""
"","similar_1b","207","379273","0.0-207.0","""event"",""trial"",""time""
""fullscreenenter"",""0"",""3542""
","
","
","""event"",""trial"",""time""
""fullscreenenter"",""0"",""3542""
","
","null","run_exp/static/audio/clip_11b_similar_mop.m4a","null","","","","","","","",""
"","new_2","208","382793","0.0-208.0","""event"",""trial"",""time""
""fullscreenenter"",""0"",""3542""
","
","
","""event"",""trial"",""time""
""fullscreenenter"",""0"",""3542""
","
","null","run_exp/static/audio/clip_12_new_stoplight.m4a","null","","","","","","","",""
"","old_2","209","386303","0.0-209.0","""event"",""trial"",""time""
""fullscreenenter"",""0"",""3542""
","
","
","""event"",""trial"",""time""
""fullscreenenter"",""0"",""3542""
","
","null","run_exp/static/audio/clip_13_old_baseball.m4a","null","","","","","","","",""
"","similar_2a","210","389818","0.0-210.0","""event"",""trial"",""time""
""fullscreenenter"",""0"",""3542""
","
","
","""event"",""trial"",""time""
""fullscreenenter"",""0"",""3542""
","
","null","run_exp/static/audio/clip_14a_similar_gummies.m4a","null","","","","","","","",""
"","similar_2b","211","397338","0.0-211.0","""event"",""trial"",""time""
""fullscreenenter"",""0"",""3542""
","
","
","""event"",""trial"",""time""
""fullscreenenter"",""0"",""3542""
","
","null","run_exp/static/audio/clip_14b_similar_gummies.m4a","null","","","","","","","",""
"","practice","212","439460","0.0-212.0","""event"",""trial"",""time""
""fullscreenenter"",""0"",""3542""
","
","
","""event"",""trial"",""time""
""fullscreenenter"",""0"",""3542""
","
","null","run_exp/static/audio/clip_15_practice.m4a","null","","","","","<div class='center'><p>Lets practice a little to make sure you understand the difference between new, similar, and old. Lets say you saw these three items in the indoor/outdoor game.</p><p> Try your best to remember these images because youll soon be tested on them in a practice game. In the practice game, youll be shown images and youll have to say if they are old (one of the three images belows), similar (similar to one of the images below but not exactly the same), or new (are not one of the images below nor similar to them).</p><p>Once you press the space bar youll be shown these images again but one at time. Then youll begin the practice game.</p><p><img src='run_exp/static/images/tutorial/test/three_indoor_outdoor.png' height='300'></p></div>","","",""
"","html-keyboard-response","213","443250","0.0-213.0","""event"",""trial"",""time""
""fullscreenenter"",""0"",""3542""
","
","
","""event"",""trial"",""time""
""fullscreenenter"",""0"",""3542""
","
","3788.199999988079","<div class='center'><p>Lets practice a little to make sure you understand the difference between new, similar, and old. Lets say you saw these three items in the indoor/outdoor game.</p><p> Try your best to remember these images because youll soon be tested on them in a practice game. In the practice game, youll be shown images and youll have to say if they are old (one of the three images belows), similar (similar to one of the images below but not exactly the same), or new (are not one of the images below nor similar to them).</p><p>Once you press the space bar youll be shown these images again but one at time. Then youll begin the practice game.</p><p><img src='run_exp/static/images/tutorial/test/three_indoor_outdoor.png' height='300'></p><div><p><b>[Press the space bar to continue]</b></p></div>","32","","","","","","","",""
"","planet","214","445253","0.0-214.0","""event"",""trial"",""time""
""fullscreenenter"",""0"",""3542""
","
","
","""event"",""trial"",""time""
""fullscreenenter"",""0"",""3542""
","
","null","run_exp/static/images/tutorial/test/008a.jpg","null","","","","","","","",""
"","boot","215","447268","0.0-215.0","""event"",""trial"",""time""
""fullscreenenter"",""0"",""3542""
","
","
","""event"",""trial"",""time""
""fullscreenenter"",""0"",""3542""
","
","null","run_exp/static/images/tutorial/test/011a.jpg","null","","","","","","","",""
"","lemon","216","449288","0.0-216.0","""event"",""trial"",""time""
""fullscreenenter"",""0"",""3542""
","
","
","""event"",""trial"",""time""
""fullscreenenter"",""0"",""3542""
","
","null","run_exp/static/images/tutorial/test/018a.jpg","null","","","","","","","",""
"","practice_q1","217","456989","0.0-217.0","""event"",""trial"",""time""
""fullscreenenter"",""0"",""3542""
","
","
","""event"",""trial"",""time""
""fullscreenenter"",""0"",""3542""
","
","7701.199999988079","run_exp/static/audio/clip_16_practice_question.m4a","78","","","","","","","",""
"","correct","218","458898","0.0-218.0-0.0","""event"",""trial"",""time""
""fullscreenenter"",""0"",""3542""
","
","
","""event"",""trial"",""time""
""fullscreenenter"",""0"",""3542""
","
","null","run_exp/static/audio/clip_17_correct.m4a","null","","","","","<div class='center'><p>That's correct!</p></div>","","",""
"","html-keyboard-response","219","461178","0.0-218.0-1.0","""event"",""trial"",""time""
""fullscreenenter"",""0"",""3542""
","
","
","""event"",""trial"",""time""
""fullscreenenter"",""0"",""3542""
","
","2279.4000000059605","<div class='center'><p>That's correct!</p><div><p><b>[Press the space bar to continue]</b></p></div>","32","","","","","","","",""
"","practice_q2","220","462884","0.0-218.0-2.0","""event"",""trial"",""time""
""fullscreenenter"",""0"",""3542""
","
","
","""event"",""trial"",""time""
""fullscreenenter"",""0"",""3542""
","
","1703.800000011921","run_exp/static/audio/clip_16_practice_question.m4a","86","","","","","","","",""
"","correct","221","464777","0.0-219.0-0.0","""event"",""trial"",""time""
""fullscreenenter"",""0"",""3542""
","
","
","""event"",""trial"",""time""
""fullscreenenter"",""0"",""3542""
","
","null","run_exp/static/audio/clip_17_correct.m4a","null","","","","","<div class='center'><p>That's correct!</p></div>","","",""
"","html-keyboard-response","222","465726","0.0-219.0-1.0","""event"",""trial"",""time""
""fullscreenenter"",""0"",""3542""
","
","
","""event"",""trial"",""time""
""fullscreenenter"",""0"",""3542""
","
","948.0999999940395","<div class='center'><p>That's correct!</p><div><p><b>[Press the space bar to continue]</b></p></div>","32","","","","","","","",""
"","practice_q3","223","466808","0.0-219.0-2.0","""event"",""trial"",""time""
""fullscreenenter"",""0"",""3542""
","
","
","""event"",""trial"",""time""
""fullscreenenter"",""0"",""3542""
","
","1080.9000000059605","run_exp/static/audio/clip_16_practice_question.m4a","86","","","","","","","",""
"","incorrect_q3","224","469558","0.0-220.0-0.0","""event"",""trial"",""time""
""fullscreenenter"",""0"",""3542""
","
","
","""event"",""trial"",""time""
""fullscreenenter"",""0"",""3542""
","
","null","run_exp/static/audio/clip_20_incorrect_similar.m4a","null","","","","","<div class='center'><p>Thats incorrect. Its similar.</p><p><img src='run_exp/static/images/tutorial/test/boot_comparison.png' height='300'></p></div>","","",""
"","html-keyboard-response","225","470858","0.0-220.0-1.0","""event"",""trial"",""time""
""fullscreenenter"",""0"",""3542""
","
","
","""event"",""trial"",""time""
""fullscreenenter"",""0"",""3542""
","
","1298.5","<div class='center'><p>Thats incorrect. Its similar.</p><p><img src='run_exp/static/images/tutorial/test/boot_comparison.png' height='300'></p><div><p><b>[Press the space bar to continue]</b></p></div>","32","","","","","","","",""
"","repeat","226","475598","0.0-221.0-0.0","""event"",""trial"",""time""
""fullscreenenter"",""0"",""3542""
","
","
","""event"",""trial"",""time""
""fullscreenenter"",""0"",""3542""
","
","null","run_exp/static/audio/clip_21_practice_again.m4a","null","","","","","<div class='center'><p>Oops. you missed at least one of these questions. Let's try practicing again. </p></div>","","",""
"","html-keyboard-response","227","476744","0.0-221.0-1.0","""event"",""trial"",""time""
""fullscreenenter"",""0"",""3542""
","
","
","""event"",""trial"",""time""
""fullscreenenter"",""0"",""3542""
","
","1144.800000011921","<div class='center'><p>Oops. you missed at least one of these questions. Let's try practicing again. </p><div><p><b>[Press the space bar to continue]</b></p></div>","32","","","","","","","",""
"","practice_q1","228","478078","0.0-221.0-2.0","""event"",""trial"",""time""
""fullscreenenter"",""0"",""3542""
","
","
","""event"",""trial"",""time""
""fullscreenenter"",""0"",""3542""
","
","1331.5","run_exp/static/audio/clip_16_practice_question.m4a","86","","","","","","","",""
"","incorrect_q1","229","480918","0.0-222.0-0.0","""event"",""trial"",""time""
""fullscreenenter"",""0"",""3542""
","
","
","""event"",""trial"",""time""
""fullscreenenter"",""0"",""3542""
","
","null","run_exp/static/audio/clip_18_incorrect_new.m4a","null","","","","","<div class='center'><p>Thats incorrect. Its new.</p></div>","","",""
"","html-keyboard-response","230","481808","0.0-222.0-1.0","""event"",""trial"",""time""
""fullscreenenter"",""0"",""3542""
","
","
","""event"",""trial"",""time""
""fullscreenenter"",""0"",""3542""
","
","889.1000000238419","<div class='center'><p>Thats incorrect. Its new.</p><div><p><b>[Press the space bar to continue]</b></p></div>","32","","","","","","","",""
"","practice_q2","231","483399","0.0-222.0-2.0","""event"",""trial"",""time""
""fullscreenenter"",""0"",""3542""
","
","
","""event"",""trial"",""time""
""fullscreenenter"",""0"",""3542""
","
","1588.9000000059605","run_exp/static/audio/clip_16_practice_question.m4a","86","","","","","","","",""
"","correct","232","485298","0.0-223.0-0.0","""event"",""trial"",""time""
""fullscreenenter"",""0"",""3542""
","
","
","""event"",""trial"",""time""
""fullscreenenter"",""0"",""3542""
","
","null","run_exp/static/audio/clip_17_correct.m4a","null","","","","","<div class='center'><p>That's correct!</p></div>","","",""
"","html-keyboard-response","233","485818","0.0-223.0-1.0","""event"",""trial"",""time""
""fullscreenenter"",""0"",""3542""
","
","
","""event"",""trial"",""time""
""fullscreenenter"",""0"",""3542""
","
","518.6000000238419","<div class='center'><p>That's correct!</p><div><p><b>[Press the space bar to continue]</b></p></div>","32","","","","","","","",""
"","practice_q3","234","488148","0.0-223.0-2.0","""event"",""trial"",""time""
""fullscreenenter"",""0"",""3542""
","
","
","""event"",""trial"",""time""
""fullscreenenter"",""0"",""3542""
","
","2327.9000000059605","run_exp/static/audio/clip_16_practice_question.m4a","66","","","","","","","",""
"","correct","235","490037","0.0-224.0-0.0","""event"",""trial"",""time""
""fullscreenenter"",""0"",""3542""
","
","
","""event"",""trial"",""time""
""fullscreenenter"",""0"",""3542""
","
","null","run_exp/static/audio/clip_17_correct.m4a","null","","","","","<div class='center'><p>That's correct!</p></div>","","",""
"","html-keyboard-response","236","490758","0.0-224.0-1.0","""event"",""trial"",""time""
""fullscreenenter"",""0"",""3542""
","
","
","""event"",""trial"",""time""
""fullscreenenter"",""0"",""3542""
","
","719.2999999821186","<div class='center'><p>That's correct!</p><div><p><b>[Press the space bar to continue]</b></p></div>","32","","","","","","","",""
"","repeat","237","495498","0.0-225.0-0.0","""event"",""trial"",""time""
""fullscreenenter"",""0"",""3542""
","
","
","""event"",""trial"",""time""
""fullscreenenter"",""0"",""3542""
","
","null","run_exp/static/audio/clip_21_practice_again.m4a","null","","","","","<div class='center'><p>Oops. you missed at least one of these questions. Let's try practicing again. </p></div>","","",""
"","html-keyboard-response","238","496364","0.0-225.0-1.0","""event"",""trial"",""time""
""fullscreenenter"",""0"",""3542""
","
","
","""event"",""trial"",""time""
""fullscreenenter"",""0"",""3542""
","
","864.7999999821186","<div class='center'><p>Oops. you missed at least one of these questions. Let's try practicing again. </p><div><p><b>[Press the space bar to continue]</b></p></div>","32","","","","","","","",""
"","practice_q1","239","497308","0.0-225.0-2.0","""event"",""trial"",""time""
""fullscreenenter"",""0"",""3542""
","
","
","""event"",""trial"",""time""
""fullscreenenter"",""0"",""3542""
","
","941.8999999761581","run_exp/static/audio/clip_16_practice_question.m4a","78","","","","","","","",""
"","correct","240","499198","0.0-226.0-0.0","""event"",""trial"",""time""
""fullscreenenter"",""0"",""3542""
","
","
","""event"",""trial"",""time""
""fullscreenenter"",""0"",""3542""
","
","null","run_exp/static/audio/clip_17_correct.m4a","null","","","","","<div class='center'><p>That's correct!</p></div>","","",""
"","html-keyboard-response","241","500092","0.0-226.0-1.0","""event"",""trial"",""time""
""fullscreenenter"",""0"",""3542""
","
","
","""event"",""trial"",""time""
""fullscreenenter"",""0"",""3542""
","
","892.6000000238419","<div class='center'><p>That's correct!</p><div><p><b>[Press the space bar to continue]</b></p></div>","32","","","","","","","",""
"","practice_q2","242","500968","0.0-226.0-2.0","""event"",""trial"",""time""
""fullscreenenter"",""0"",""3542""
","
","
","""event"",""trial"",""time""
""fullscreenenter"",""0"",""3542""
","
","874.5","run_exp/static/audio/clip_16_practice_question.m4a","86","","","","","","","",""
"","correct","243","502858","0.0-227.0-0.0","""event"",""trial"",""time""
""fullscreenenter"",""0"",""3542""
","
","
","""event"",""trial"",""time""
""fullscreenenter"",""0"",""3542""
","
","null","run_exp/static/audio/clip_17_correct.m4a","null","","","","","<div class='center'><p>That's correct!</p></div>","","",""
"","html-keyboard-response","244","503444","0.0-227.0-1.0","""event"",""trial"",""time""
""fullscreenenter"",""0"",""3542""
","
","
","""event"",""trial"",""time""
""fullscreenenter"",""0"",""3542""
","
","584.7000000178814","<div class='center'><p>That's correct!</p><div><p><b>[Press the space bar to continue]</b></p></div>","32","","","","","","","",""
"","practice_q3","245","504688","0.0-227.0-2.0","""event"",""trial"",""time""
""fullscreenenter"",""0"",""3542""
","
","
","""event"",""trial"",""time""
""fullscreenenter"",""0"",""3542""
","
","1242.2000000178814","run_exp/static/audio/clip_16_practice_question.m4a","86","","","","","","","",""
"","incorrect_q3","246","507558","0.0-228.0-0.0","""event"",""trial"",""time""
""fullscreenenter"",""0"",""3542""
","
","
","""event"",""trial"",""time""
""fullscreenenter"",""0"",""3542""
","
","null","run_exp/static/audio/clip_20_incorrect_similar.m4a","null","","","","","<div class='center'><p>Thats incorrect. Its similar.</p><p><img src='run_exp/static/images/tutorial/test/boot_comparison.png' height='300'></p></div>","","",""
"","html-keyboard-response","247","516729","0.0-228.0-1.0","""event"",""trial"",""time""
""fullscreenenter"",""0"",""3542""
","
","
","""event"",""trial"",""time""
""fullscreenenter"",""0"",""3542""
","
","9171.40000000596","<div class='center'><p>Thats incorrect. Its similar.</p><p><img src='run_exp/static/images/tutorial/test/boot_comparison.png' height='300'></p><div><p><b>[Press the space bar to continue]</b></p></div>","32","","","","","","","",""
"","begin_text","248","535215","0.0-229.0-0.0","""event"",""trial"",""time""
""fullscreenenter"",""0"",""3542""
","
","
","""event"",""trial"",""time""
""fullscreenenter"",""0"",""3542""
","
","null","run_exp/static/audio/clip_22_begin_test.m4a","null","","","","","<div class='center'><p>On to the real game where well test your memory of items from the indoor/outdoor game. For each item, you need to indicate if the item is <b>old</b> by pressing the <b>v</b> key, <b>similar</b> by pressing the <b>b</b> key, or <b>new</b> by pressing the <b>n</b> key. </p></div>","","",""
"","html-keyboard-response","249","554026","0.0-229.0-1.0","""event"",""trial"",""time""
""fullscreenenter"",""0"",""3542""
","
","
","""event"",""trial"",""time""
""fullscreenenter"",""0"",""3542""
","
","18808.5","<div class='center'><p>On to the real game where well test your memory of items from the indoor/outdoor game. For each item, you need to indicate if the item is <b>old</b> by pressing the <b>v</b> key, <b>similar</b> by pressing the <b>b</b> key, or <b>new</b> by pressing the <b>n</b> key. </p><div><p><b>[Press the space bar to continue]</b></p></div>","32","","","","","","","",""
"","image","250","555628","0.0-230.0-0.0","""event"",""trial"",""time""
""fullscreenenter"",""0"",""3542""
","
","
","""event"",""trial"",""time""
""fullscreenenter"",""0"",""3542""
","
","1600.2999999821186","run_exp/static/images/Set 6_rs/005a.jpg","78","","","","","","test","TF","5"
"","show_choice","251","556139","0.0-230.0-1.0","""event"",""trial"",""time""
""fullscreenenter"",""0"",""3542""
","
","
","""event"",""trial"",""time""
""fullscreenenter"",""0"",""3542""
","
","null","run_exp/static/images/Set 6_rs/005a.jpg","null","","","","","","test","TF",""
"","html-keyboard-response","252","556651","0.0-230.0-2.0","""event"",""trial"",""time""
""fullscreenenter"",""0"",""3542""
","
","
","""event"",""trial"",""time""
""fullscreenenter"",""0"",""3542""
","
","null","<p></p>","null","","","","","","","",""
"","image","253","558989","0.0-231.0-0.0","""event"",""trial"",""time""
""fullscreenenter"",""0"",""3542""
","
","
","""event"",""trial"",""time""
""fullscreenenter"",""0"",""3542""
","
","2335.7000000178814","run_exp/static/images/Set 6_rs/055b.jpg","86","","","","","","test","TL","4"
"","show_choice","254","559497","0.0-231.0-1.0","""event"",""trial"",""time""
""fullscreenenter"",""0"",""3542""
","
","
","""event"",""trial"",""time""
""fullscreenenter"",""0"",""3542""
","
","null","run_exp/static/images/Set 6_rs/055b.jpg","null","","","","","","test","TL",""
"","html-keyboard-response","255","560005","0.0-231.0-2.0","""event"",""trial"",""time""
""fullscreenenter"",""0"",""3542""
","
","
","""event"",""trial"",""time""
""fullscreenenter"",""0"",""3542""
","
","null","<p></p>","null","","","","","","","",""
"","image","256","561346","0.0-232.0-0.0","""event"",""trial"",""time""
""fullscreenenter"",""0"",""3542""
","
","
","""event"",""trial"",""time""
""fullscreenenter"",""0"",""3542""
","
","1338.7999999821186","run_exp/static/images/Set 6_rs/015a.jpg","78","","","","","","test","TF","4"
"","show_choice","257","561849","0.0-232.0-1.0","""event"",""trial"",""time""
""fullscreenenter"",""0"",""3542""
","
","
","""event"",""trial"",""time""
""fullscreenenter"",""0"",""3542""
","
","null","run_exp/static/images/Set 6_rs/015a.jpg","null","","","","","","test","TF",""
"","html-keyboard-response","258","562359","0.0-232.0-2.0","""event"",""trial"",""time""
""fullscreenenter"",""0"",""3542""
","
","
","""event"",""trial"",""time""
""fullscreenenter"",""0"",""3542""
","
","null","<p></p>","null","","","","","","","",""
"","image","259","563619","0.0-233.0-0.0","""event"",""trial"",""time""
""fullscreenenter"",""0"",""3542""
","
","
","""event"",""trial"",""time""
""fullscreenenter"",""0"",""3542""
","
","1257.699999988079","run_exp/static/images/Set 6_rs/108a.jpg","86","","","","","","test","TR","5"
"","show_choice","260","564134","0.0-233.0-1.0","""event"",""trial"",""time""
""fullscreenenter"",""0"",""3542""
","
","
","""event"",""trial"",""time""
""fullscreenenter"",""0"",""3542""
","
","null","run_exp/static/images/Set 6_rs/108a.jpg","null","","","","","","test","TR",""
"","html-keyboard-response","261","564638","0.0-233.0-2.0","""event"",""trial"",""time""
""fullscreenenter"",""0"",""3542""
","
","
","""event"",""trial"",""time""
""fullscreenenter"",""0"",""3542""
","
","null","<p></p>","null","","","","","","","",""
"","image","262","566121","0.0-234.0-0.0","""event"",""trial"",""time""
""fullscreenenter"",""0"",""3542""
","
","
","""event"",""trial"",""time""
""fullscreenenter"",""0"",""3542""
","
","1480.800000011921","run_exp/static/images/Set 6_rs/078a.jpg","78","","","","","","test","TF","1"
"","show_choice","263","566627","0.0-234.0-1.0","""event"",""trial"",""time""
""fullscreenenter"",""0"",""3542""
","
","
","""event"",""trial"",""time""
""fullscreenenter"",""0"",""3542""
","
","null","run_exp/static/images/Set 6_rs/078a.jpg","null","","","","","","test","TF",""
"","html-keyboard-response","264","567139","0.0-234.0-2.0","""event"",""trial"",""time""
""fullscreenenter"",""0"",""3542""
","
","
","""event"",""trial"",""time""
""fullscreenenter"",""0"",""3542""
","
","null","<p></p>","null","","","","","","","",""
"","image","265","568235","0.0-235.0-0.0","""event"",""trial"",""time""
""fullscreenenter"",""0"",""3542""
","
","
","""event"",""trial"",""time""
""fullscreenenter"",""0"",""3542""
","
","1093.800000011921","run_exp/static/images/Set 6_rs/066b.jpg","66","","","","","","test","TL","5"
"","show_choice","266","568746","0.0-235.0-1.0","""event"",""trial"",""time""
""fullscreenenter"",""0"",""3542""
","
","
","""event"",""trial"",""time""
""fullscreenenter"",""0"",""3542""
","
","null","run_exp/static/images/Set 6_rs/066b.jpg","null","","","","","","test","TL",""
"","html-keyboard-response","267","569262","0.0-235.0-2.0","""event"",""trial"",""time""
""fullscreenenter"",""0"",""3542""
","
","
","""event"",""trial"",""time""
""fullscreenenter"",""0"",""3542""
","
","null","<p></p>","null","","","","","","","",""
"","image","268","570439","0.0-236.0-0.0","""event"",""trial"",""time""
""fullscreenenter"",""0"",""3542""
","
","
","""event"",""trial"",""time""
""fullscreenenter"",""0"",""3542""
","
","1175.4000000059605","run_exp/static/images/Set 6_rs/001a.jpg","86","","","","","","test","TF","1"
"","show_choice","269","570944","0.0-236.0-1.0","""event"",""trial"",""time""
""fullscreenenter"",""0"",""3542""
","
","
","""event"",""trial"",""time""
""fullscreenenter"",""0"",""3542""
","
","null","run_exp/static/images/Set 6_rs/001a.jpg","null","","","","","","test","TF",""
"","html-keyboard-response","270","571449","0.0-236.0-2.0","""event"",""trial"",""time""
""fullscreenenter"",""0"",""3542""
","
","
","""event"",""trial"",""time""
""fullscreenenter"",""0"",""3542""
","
","null","<p></p>","null","","","","","","","",""
"","image","271","572927","0.0-237.0-0.0","""event"",""trial"",""time""
""fullscreenenter"",""0"",""3542""
","
","
","""event"",""trial"",""time""
""fullscreenenter"",""0"",""3542""
","
","1476.0999999940395","run_exp/static/images/Set 6_rs/138b.jpg","86","","","","","","test","TL","1"
"","show_choice","272","573439","0.0-237.0-1.0","""event"",""trial"",""time""
""fullscreenenter"",""0"",""3542""
","
","
","""event"",""trial"",""time""
""fullscreenenter"",""0"",""3542""
","
","null","run_exp/static/images/Set 6_rs/138b.jpg","null","","","","","","test","TL",""
"","html-keyboard-response","273","573953","0.0-237.0-2.0","""event"",""trial"",""time""
""fullscreenenter"",""0"",""3542""
","
","
","""event"",""trial"",""time""
""fullscreenenter"",""0"",""3542""
","
","null","<p></p>","null","","","","","","","",""
"","image","274","575464","0.0-238.0-0.0","""event"",""trial"",""time""
""fullscreenenter"",""0"",""3542""
","
","
","""event"",""trial"",""time""
""fullscreenenter"",""0"",""3542""
","
","1509","run_exp/static/images/Set 6_rs/097a.jpg","78","","","","","","test","TF","5"
"","show_choice","275","575973","0.0-238.0-1.0","""event"",""trial"",""time""
""fullscreenenter"",""0"",""3542""
","
","
","""event"",""trial"",""time""
""fullscreenenter"",""0"",""3542""
","
","null","run_exp/static/images/Set 6_rs/097a.jpg","null","","","","","","test","TF",""
"","html-keyboard-response","276","576475","0.0-238.0-2.0","""event"",""trial"",""time""
""fullscreenenter"",""0"",""3542""
","
","
","""event"",""trial"",""time""
""fullscreenenter"",""0"",""3542""
","
","null","<p></p>","null","","","","","","","",""
"","image","277","577771","0.0-239.0-0.0","""event"",""trial"",""time""
""fullscreenenter"",""0"",""3542""
","
","
","""event"",""trial"",""time""
""fullscreenenter"",""0"",""3542""
","
","1289.7999999821186","run_exp/static/images/Set 6_rs/126a.jpg","86","","","","","","test","TR","2"
"","show_choice","278","578287","0.0-239.0-1.0","""event"",""trial"",""time""
""fullscreenenter"",""0"",""3542""
","
","
","""event"",""trial"",""time""
""fullscreenenter"",""0"",""3542""
","
","null","run_exp/static/images/Set 6_rs/126a.jpg","null","","","","","","test","TR",""
"","html-keyboard-response","279","578797","0.0-239.0-2.0","""event"",""trial"",""time""
""fullscreenenter"",""0"",""3542""
","
","
","""event"",""trial"",""time""
""fullscreenenter"",""0"",""3542""
","
","null","<p></p>","null","","","","","","","",""
"","image","280","579921","0.0-240.0-0.0","""event"",""trial"",""time""
""fullscreenenter"",""0"",""3542""
","
","
","""event"",""trial"",""time""
""fullscreenenter"",""0"",""3542""
","
","1121.4000000059605","run_exp/static/images/Set 6_rs/186a.jpg","86","","","","","","test","TR","5"
"","show_choice","281","580436","0.0-240.0-1.0","""event"",""trial"",""time""
""fullscreenenter"",""0"",""3542""
","
","
","""event"",""trial"",""time""
""fullscreenenter"",""0"",""3542""
","
","null","run_exp/static/images/Set 6_rs/186a.jpg","null","","","","","","test","TR",""
"","html-keyboard-response","282","580939","0.0-240.0-2.0","""event"",""trial"",""time""
""fullscreenenter"",""0"",""3542""
","
","
","""event"",""trial"",""time""
""fullscreenenter"",""0"",""3542""
","
","null","<p></p>","null","","","","","","","",""
"","image","283","582288","0.0-241.0-0.0","""event"",""trial"",""time""
""fullscreenenter"",""0"",""3542""
","
","
","""event"",""trial"",""time""
""fullscreenenter"",""0"",""3542""
","
","1347.4000000059605","run_exp/static/images/Set 6_rs/035a.jpg","78","","","","","","test","TF","4"
"","show_choice","284","582796","0.0-241.0-1.0","""event"",""trial"",""time""
""fullscreenenter"",""0"",""3542""
","
","
","""event"",""trial"",""time""
""fullscreenenter"",""0"",""3542""
","
","null","run_exp/static/images/Set 6_rs/035a.jpg","null","","","","","","test","TF",""
"","html-keyboard-response","285","583308","0.0-241.0-2.0","""event"",""trial"",""time""
""fullscreenenter"",""0"",""3542""
","
","
","""event"",""trial"",""time""
""fullscreenenter"",""0"",""3542""
","
","null","<p></p>","null","","","","","","","",""
"","image","286","584561","0.0-242.0-0.0","""event"",""trial"",""time""
""fullscreenenter"",""0"",""3542""
","
","
","""event"",""trial"",""time""
""fullscreenenter"",""0"",""3542""
","
","1251.300000011921","run_exp/static/images/Set 6_rs/074b.jpg","86","","","","","","test","TL","4"
"","show_choice","287","585071","0.0-242.0-1.0","""event"",""trial"",""time""
""fullscreenenter"",""0"",""3542""
","
","
","""event"",""trial"",""time""
""fullscreenenter"",""0"",""3542""
","
","null","run_exp/static/images/Set 6_rs/074b.jpg","null","","","","","","test","TL",""
"","html-keyboard-response","288","585579","0.0-242.0-2.0","""event"",""trial"",""time""
""fullscreenenter"",""0"",""3542""
","
","
","""event"",""trial"",""time""
""fullscreenenter"",""0"",""3542""
","
","null","<p></p>","null","","","","","","","",""
"","image","289","587158","0.0-243.0-0.0","""event"",""trial"",""time""
""fullscreenenter"",""0"",""3542""
","
","
","""event"",""trial"",""time""
""fullscreenenter"",""0"",""3542""
","
","1576.5999999940395","run_exp/static/images/Set 6_rs/149a.jpg","78","","","","","","test","TF","1"
"","show_choice","290","587663","0.0-243.0-1.0","""event"",""trial"",""time""
""fullscreenenter"",""0"",""3542""
","
","
","""event"",""trial"",""time""
""fullscreenenter"",""0"",""3542""
","
","null","run_exp/static/images/Set 6_rs/149a.jpg","null","","","","","","test","TF",""
"","html-keyboard-response","291","588168","0.0-243.0-2.0","""event"",""trial"",""time""
""fullscreenenter"",""0"",""3542""
","
","
","""event"",""trial"",""time""
""fullscreenenter"",""0"",""3542""
","
","null","<p></p>","null","","","","","","","",""
"","image","292","590228","0.0-244.0-0.0","""event"",""trial"",""time""
""fullscreenenter"",""0"",""3542""
","
","
","""event"",""trial"",""time""
""fullscreenenter"",""0"",""3542""
","
","2058.0999999940395","run_exp/static/images/Set 6_rs/007a.jpg","78","","","","","","test","TR","3"
"","show_choice","293","590737","0.0-244.0-1.0","""event"",""trial"",""time""
""fullscreenenter"",""0"",""3542""
","
","
","""event"",""trial"",""time""
""fullscreenenter"",""0"",""3542""
","
","null","run_exp/static/images/Set 6_rs/007a.jpg","null","","","","","","test","TR",""
"","html-keyboard-response","294","591239","0.0-244.0-2.0","""event"",""trial"",""time""
""fullscreenenter"",""0"",""3542""
","
","
","""event"",""trial"",""time""
""fullscreenenter"",""0"",""3542""
","
","null","<p></p>","null","","","","","","","",""
"","image","295","592522","0.0-245.0-0.0","""event"",""trial"",""time""
""fullscreenenter"",""0"",""3542""
","
","
","""event"",""trial"",""time""
""fullscreenenter"",""0"",""3542""
","
","1281.300000011921","run_exp/static/images/Set 6_rs/010a.jpg","86","","","","","","test","TR","5"
"","show_choice","296","593025","0.0-245.0-1.0","""event"",""trial"",""time""
""fullscreenenter"",""0"",""3542""
","
","
","""event"",""trial"",""time""
""fullscreenenter"",""0"",""3542""
","
","null","run_exp/static/images/Set 6_rs/010a.jpg","null","","","","","","test","TR",""
"","html-keyboard-response","297","593532","0.0-245.0-2.0","""event"",""trial"",""time""
""fullscreenenter"",""0"",""3542""
","
","
","""event"",""trial"",""time""
""fullscreenenter"",""0"",""3542""
","
","null","<p></p>","null","","","","","","","",""
"","image","298","594609","0.0-246.0-0.0","""event"",""trial"",""time""
""fullscreenenter"",""0"",""3542""
","
","
","""event"",""trial"",""time""
""fullscreenenter"",""0"",""3542""
","
","1075.5999999940395","run_exp/static/images/Set 6_rs/071b.jpg","66","","","","","","test","TL","4"
"","show_choice","299","595126","0.0-246.0-1.0","""event"",""trial"",""time""
""fullscreenenter"",""0"",""3542""
","
","
","""event"",""trial"",""time""
""fullscreenenter"",""0"",""3542""
","
","null","run_exp/static/images/Set 6_rs/071b.jpg","null","","","","","","test","TL",""
"","html-keyboard-response","300","595628","0.0-246.0-2.0","""event"",""trial"",""time""
""fullscreenenter"",""0"",""3542""
","
","
","""event"",""trial"",""time""
""fullscreenenter"",""0"",""3542""
","
","null","<p></p>","null","","","","","","","",""
"","image","301","596975","0.0-247.0-0.0","""event"",""trial"",""time""
""fullscreenenter"",""0"",""3542""
","
","
","""event"",""trial"",""time""
""fullscreenenter"",""0"",""3542""
","
","1345","run_exp/static/images/Set 6_rs/045a.jpg","86","","","","","","test","TR","2"
"","show_choice","302","597478","0.0-247.0-1.0","""event"",""trial"",""time""
""fullscreenenter"",""0"",""3542""
","
","
","""event"",""trial"",""time""
""fullscreenenter"",""0"",""3542""
","
","null","run_exp/static/images/Set 6_rs/045a.jpg","null","","","","","","test","TR",""
"","html-keyboard-response","303","597985","0.0-247.0-2.0","""event"",""trial"",""time""
""fullscreenenter"",""0"",""3542""
","
","
","""event"",""trial"",""time""
""fullscreenenter"",""0"",""3542""
","
","null","<p></p>","null","","","","","","","",""
"","image","304","600299","0.0-248.0-0.0","""event"",""trial"",""time""
""fullscreenenter"",""0"",""3542""
","
","
","""event"",""trial"",""time""
""fullscreenenter"",""0"",""3542""
","
","2312.300000011921","run_exp/static/images/Set 6_rs/116b.jpg","66","","","","","","test","TL","2"
"","show_choice","305","600801","0.0-248.0-1.0","""event"",""trial"",""time""
""fullscreenenter"",""0"",""3542""
","
","
","""event"",""trial"",""time""
""fullscreenenter"",""0"",""3542""
","
","null","run_exp/static/images/Set 6_rs/116b.jpg","null","","","","","","test","TL",""
"","html-keyboard-response","306","601303","0.0-248.0-2.0","""event"",""trial"",""time""
""fullscreenenter"",""0"",""3542""
","
","
","""event"",""trial"",""time""
""fullscreenenter"",""0"",""3542""
","
","null","<p></p>","null","","","","","","","",""
"","image","307","602619","0.0-249.0-0.0","""event"",""trial"",""time""
""fullscreenenter"",""0"",""3542""
","
","
","""event"",""trial"",""time""
""fullscreenenter"",""0"",""3542""
","
","1314.9000000059605","run_exp/static/images/Set 6_rs/064a.jpg","86","","","","","","test","TR","5"
"","show_choice","308","603127","0.0-249.0-1.0","""event"",""trial"",""time""
""fullscreenenter"",""0"",""3542""
","
","
","""event"",""trial"",""time""
""fullscreenenter"",""0"",""3542""
","
","null","run_exp/static/images/Set 6_rs/064a.jpg","null","","","","","","test","TR",""
"","html-keyboard-response","309","603631","0.0-249.0-2.0","""event"",""trial"",""time""
""fullscreenenter"",""0"",""3542""
","
","
","""event"",""trial"",""time""
""fullscreenenter"",""0"",""3542""
","
","null","<p></p>","null","","","","","","","",""
"","image","310","604978","0.0-250.0-0.0","""event"",""trial"",""time""
""fullscreenenter"",""0"",""3542""
","
","
","""event"",""trial"",""time""
""fullscreenenter"",""0"",""3542""
","
","1344.5999999940395","run_exp/static/images/Set 6_rs/136a.jpg","78","","","","","","test","TF","4"
"","show_choice","311","605485","0.0-250.0-1.0","""event"",""trial"",""time""
""fullscreenenter"",""0"",""3542""
","
","
","""event"",""trial"",""time""
""fullscreenenter"",""0"",""3542""
","
","null","run_exp/static/images/Set 6_rs/136a.jpg","null","","","","","","test","TF",""
"","html-keyboard-response","312","605999","0.0-250.0-2.0","""event"",""trial"",""time""
""fullscreenenter"",""0"",""3542""
","
","
","""event"",""trial"",""time""
""fullscreenenter"",""0"",""3542""
","
","null","<p></p>","null","","","","","","","",""
"","image","313","607341","0.0-251.0-0.0","""event"",""trial"",""time""
""fullscreenenter"",""0"",""3542""
","
","
","""event"",""trial"",""time""
""fullscreenenter"",""0"",""3542""
","
","1339.800000011921","run_exp/static/images/Set 6_rs/172a.jpg","86","","","","","","test","TR","1"
"","show_choice","314","607847","0.0-251.0-1.0","""event"",""trial"",""time""
""fullscreenenter"",""0"",""3542""
","
","
","""event"",""trial"",""time""
""fullscreenenter"",""0"",""3542""
","
","null","run_exp/static/images/Set 6_rs/172a.jpg","null","","","","","","test","TR",""
"","html-keyboard-response","315","608353","0.0-251.0-2.0","""event"",""trial"",""time""
""fullscreenenter"",""0"",""3542""
","
","
","""event"",""trial"",""time""
""fullscreenenter"",""0"",""3542""
","
","null","<p></p>","null","","","","","","","",""
"","image","316","609623","0.0-252.0-0.0","""event"",""trial"",""time""
""fullscreenenter"",""0"",""3542""
","
","
","""event"",""trial"",""time""
""fullscreenenter"",""0"",""3542""
","
","1267.7000000178814","run_exp/static/images/Set 6_rs/048a.jpg","78","","","","","","test","TF","4"
"","show_choice","317","610130","0.0-252.0-1.0","""event"",""trial"",""time""
""fullscreenenter"",""0"",""3542""
","
","
","""event"",""trial"",""time""
""fullscreenenter"",""0"",""3542""
","
","null","run_exp/static/images/Set 6_rs/048a.jpg","null","","","","","","test","TF",""
"","html-keyboard-response","318","610641","0.0-252.0-2.0","""event"",""trial"",""time""
""fullscreenenter"",""0"",""3542""
","
","
","""event"",""trial"",""time""
""fullscreenenter"",""0"",""3542""
","
","null","<p></p>","null","","","","","","","",""
"","image","319","611989","0.0-253.0-0.0","""event"",""trial"",""time""
""fullscreenenter"",""0"",""3542""
","
","
","""event"",""trial"",""time""
""fullscreenenter"",""0"",""3542""
","
","1346.3999999761581","run_exp/static/images/Set 6_rs/062b.jpg","86","","","","","","test","TL","1"
"","show_choice","320","612501","0.0-253.0-1.0","""event"",""trial"",""time""
""fullscreenenter"",""0"",""3542""
","
","
","""event"",""trial"",""time""
""fullscreenenter"",""0"",""3542""
","
","null","run_exp/static/images/Set 6_rs/062b.jpg","null","","","","","","test","TL",""
"","html-keyboard-response","321","613012","0.0-253.0-2.0","""event"",""trial"",""time""
""fullscreenenter"",""0"",""3542""
","
","
","""event"",""trial"",""time""
""fullscreenenter"",""0"",""3542""
","
","null","<p></p>","null","","","","","","","",""
"","image","322","614999","0.0-254.0-0.0","""event"",""trial"",""time""
""fullscreenenter"",""0"",""3542""
","
","
","""event"",""trial"",""time""
""fullscreenenter"",""0"",""3542""
","
","1985","run_exp/static/images/Set 6_rs/036b.jpg","78","","","","","","test","TL","4"
"","show_choice","323","615512","0.0-254.0-1.0","""event"",""trial"",""time""
""fullscreenenter"",""0"",""3542""
","
","
","""event"",""trial"",""time""
""fullscreenenter"",""0"",""3542""
","
","null","run_exp/static/images/Set 6_rs/036b.jpg","null","","","","","","test","TL",""
"","html-keyboard-response","324","616021","0.0-254.0-2.0","""event"",""trial"",""time""
""fullscreenenter"",""0"",""3542""
","
","
","""event"",""trial"",""time""
""fullscreenenter"",""0"",""3542""
","
","null","<p></p>","null","","","","","","","",""
"","image","325","617577","0.0-255.0-0.0","""event"",""trial"",""time""
""fullscreenenter"",""0"",""3542""
","
","
","""event"",""trial"",""time""
""fullscreenenter"",""0"",""3542""
","
","1553.2999999821186","run_exp/static/images/Set 6_rs/056a.jpg","78","","","","","","test","TF","3"
"","show_choice","326","618088","0.0-255.0-1.0","""event"",""trial"",""time""
""fullscreenenter"",""0"",""3542""
","
","
","""event"",""trial"",""time""
""fullscreenenter"",""0"",""3542""
","
","null","run_exp/static/images/Set 6_rs/056a.jpg","null","","","","","","test","TF",""
"","html-keyboard-response","327","618603","0.0-255.0-2.0","""event"",""trial"",""time""
""fullscreenenter"",""0"",""3542""
","
","
","""event"",""trial"",""time""
""fullscreenenter"",""0"",""3542""
","
","null","<p></p>","null","","","","","","","",""
"","image","328","620165","0.0-256.0-0.0","""event"",""trial"",""time""
""fullscreenenter"",""0"",""3542""
","
","
","""event"",""trial"",""time""
""fullscreenenter"",""0"",""3542""
","
","1560.0999999940395","run_exp/static/images/Set 6_rs/129b.jpg","86","","","","","","test","TL","1"
"","show_choice","329","620669","0.0-256.0-1.0","""event"",""trial"",""time""
""fullscreenenter"",""0"",""3542""
","
","
","""event"",""trial"",""time""
""fullscreenenter"",""0"",""3542""
","
","null","run_exp/static/images/Set 6_rs/129b.jpg","null","","","","","","test","TL",""
"","html-keyboard-response","330","621172","0.0-256.0-2.0","""event"",""trial"",""time""
""fullscreenenter"",""0"",""3542""
","
","
","""event"",""trial"",""time""
""fullscreenenter"",""0"",""3542""
","
","null","<p></p>","null","","","","","","","",""
"","image","331","624184","0.0-257.0-0.0","""event"",""trial"",""time""
""fullscreenenter"",""0"",""3542""
","
","
","""event"",""trial"",""time""
""fullscreenenter"",""0"",""3542""
","
","null","run_exp/static/images/Set 6_rs/181b.jpg","null","","","","","","test","TL","1"
"","show_choice","332","624697","0.0-257.0-1.0","""event"",""trial"",""time""
""fullscreenenter"",""0"",""3542""
","
","
","""event"",""trial"",""time""
""fullscreenenter"",""0"",""3542""
","
","null","run_exp/static/images/Set 6_rs/181b.jpg","null","","","","","","test","TL",""
"","html-keyboard-response","333","625212","0.0-257.0-2.0","""event"",""trial"",""time""
""fullscreenenter"",""0"",""3542""
","
","
","""event"",""trial"",""time""
""fullscreenenter"",""0"",""3542""
","
","null","<p></p>","null","","","","","","","",""
"","image","334","626420","0.0-258.0-0.0","""event"",""trial"",""time""
""fullscreenenter"",""0"",""3542""
","
","
","""event"",""trial"",""time""
""fullscreenenter"",""0"",""3542""
","
