"success","trial_type","trial_index","time_elapsed","internal_node_id","interactions","blur_events","focus_events","fullscreenenter_events","fullscreenexit_events","rt","stimulus","key_press","subject_id","participant_id","age","gender","prompt","phase","condition","lure_bin"
"true","fullscreen","0","6926","0.0-0.0","""event"",""trial"",""time""
""fullscreenenter"",""0"",""5936""
","
","
","""event"",""trial"",""time""
""fullscreenenter"",""0"",""5936""
","
","","","","","","","","","","",""
"","pavlovia","1","6946","0.0-1.0","""event"",""trial"",""time""
""fullscreenenter"",""0"",""5936""
","
","
","""event"",""trial"",""time""
""fullscreenenter"",""0"",""5936""
","
","","","","","","","","","","",""
"","welcome","2","41849","0.0-2.0","""event"",""trial"",""time""
""fullscreenenter"",""0"",""5936""
","
","
","""event"",""trial"",""time""
""fullscreenenter"",""0"",""5936""
","
","null","run_exp/static/audio/clip_1_welcome.m4a","null","551","190","12","Male","<div class='center'><p>Welcome to the third part of the study! First, you'll be shown pictures of items one at a time. For each picture, you have to decide if the item is typically found indoors or outdoors.</p><p>If you think it's usually found indoors, then press <b>v</b> key on your keyboard. If you think it's usually found outdoors, then press the <b>n</b> key.There will be reminders on the screen to help you remember which keys to press. </p><p>If you're not sure whether the item is an indoor item or an outdoor item, go ahead and take a guess but try your best not to skip that choice. </p></div>","","",""
"","html-keyboard-response","3","42026","0.0-3.0","""event"",""trial"",""time""
""fullscreenenter"",""0"",""5936""
","
","
","""event"",""trial"",""time""
""fullscreenenter"",""0"",""5936""
","
","171.10000000009313","<div class='center'><p>Welcome to the third part of the study! First, you'll be shown pictures of items one at a time. For each picture, you have to decide if the item is typically found indoors or outdoors.</p><p>If you think it's usually found indoors, then press <b>v</b> key on your keyboard. If you think it's usually found outdoors, then press the <b>n</b> key.There will be reminders on the screen to help you remember which keys to press. </p><p>If you're not sure whether the item is an indoor item or an outdoor item, go ahead and take a guess but try your best not to skip that choice. </p><div><p><b>[Press the space bar to continue]</b></p></div>","32","","","","","","","",""
"","image","4","44030","0.0-4.0","""event"",""trial"",""time""
""fullscreenenter"",""0"",""5936""
","
","
","""event"",""trial"",""time""
""fullscreenenter"",""0"",""5936""
","
","null","run_exp/static/images/Set 6_rs/095a.jpg","null","","","","","","learn","SL",""
"","show_choice","5","46033","0.0-5.0","""event"",""trial"",""time""
""fullscreenenter"",""0"",""5936""
","
","
","""event"",""trial"",""time""
""fullscreenenter"",""0"",""5936""
","
","null","run_exp/static/images/blank.png","null","","","","","","learn","SL",""
"","html-keyboard-response","6","46536","0.0-6.0","""event"",""trial"",""time""
""fullscreenenter"",""0"",""5936""
","
","
","""event"",""trial"",""time""
""fullscreenenter"",""0"",""5936""
","
","null","<p></p>","null","","","","","","","",""
"","image","7","47956","0.0-7.0","""event"",""trial"",""time""
""fullscreenenter"",""0"",""5936""
","
","
","""event"",""trial"",""time""
""fullscreenenter"",""0"",""5936""
","
","1413.3999999999069","run_exp/static/images/Set 6_rs/008a.jpg","86","","","","","","learn","SL",""
"","show_choice","8","48546","0.0-8.0","""event"",""trial"",""time""
""fullscreenenter"",""0"",""5936""
","
","
","""event"",""trial"",""time""
""fullscreenenter"",""0"",""5936""
","
","null","run_exp/static/images/Set 6_rs/008a.jpg","null","","","","","","learn","SL",""
"","html-keyboard-response","9","49049","0.0-9.0","""event"",""trial"",""time""
""fullscreenenter"",""0"",""5936""
","
","
","""event"",""trial"",""time""
""fullscreenenter"",""0"",""5936""
","
","null","<p></p>","null","","","","","","","",""
"","image","10","50680","0.0-10.0","""event"",""trial"",""time""
""fullscreenenter"",""0"",""5936""
","
","
","""event"",""trial"",""time""
""fullscreenenter"",""0"",""5936""
","
","1624.7999999998137","run_exp/static/images/Set 6_rs/061a.jpg","78","","","","","","learn","SR",""
"","show_choice","11","51059","0.0-11.0","""event"",""trial"",""time""
""fullscreenenter"",""0"",""5936""
","
","
","""event"",""trial"",""time""
""fullscreenenter"",""0"",""5936""
","
","null","run_exp/static/images/Set 6_rs/061a.jpg","null","","","","","","learn","SR",""
"","html-keyboard-response","12","51562","0.0-12.0","""event"",""trial"",""time""
""fullscreenenter"",""0"",""5936""
","
","
","""event"",""trial"",""time""
""fullscreenenter"",""0"",""5936""
","
","null","<p></p>","null","","","","","","","",""
"","image","13","52782","0.0-13.0","""event"",""trial"",""time""
""fullscreenenter"",""0"",""5936""
","
","
","""event"",""trial"",""time""
""fullscreenenter"",""0"",""5936""
","
","1208.5","run_exp/static/images/Set 6_rs/108a.jpg","78","","","","","","learn","SR",""
"","show_choice","14","53575","0.0-14.0","""event"",""trial"",""time""
""fullscreenenter"",""0"",""5936""
","
","
","""event"",""trial"",""time""
""fullscreenenter"",""0"",""5936""
","
","null","run_exp/static/images/Set 6_rs/108a.jpg","null","","","","","","learn","SR",""
"","html-keyboard-response","15","54077","0.0-15.0","""event"",""trial"",""time""
""fullscreenenter"",""0"",""5936""
","
","
","""event"",""trial"",""time""
""fullscreenenter"",""0"",""5936""
","
","null","<p></p>","null","","","","","","","",""
"","image","16","55338","0.0-16.0","""event"",""trial"",""time""
""fullscreenenter"",""0"",""5936""
","
","
","""event"",""trial"",""time""
""fullscreenenter"",""0"",""5936""
","
","1255.1999999997206","run_exp/static/images/Set 6_rs/181a.jpg","78","","","","","","learn","SL",""
"","show_choice","17","56085","0.0-17.0","""event"",""trial"",""time""
""fullscreenenter"",""0"",""5936""
","
","
","""event"",""trial"",""time""
""fullscreenenter"",""0"",""5936""
","
","null","run_exp/static/images/Set 6_rs/181a.jpg","null","","","","","","learn","SL",""
"","html-keyboard-response","18","56588","0.0-18.0","""event"",""trial"",""time""
""fullscreenenter"",""0"",""5936""
","
","
","""event"",""trial"",""time""
""fullscreenenter"",""0"",""5936""
","
","null","<p></p>","null","","","","","","","",""
"","image","19","58038","0.0-19.0","""event"",""trial"",""time""
""fullscreenenter"",""0"",""5936""
","
","
","""event"",""trial"",""time""
""fullscreenenter"",""0"",""5936""
","
","1445","run_exp/static/images/Set 6_rs/071a.jpg","78","","","","","","learn","SL",""
"","show_choice","20","58597","0.0-20.0","""event"",""trial"",""time""
""fullscreenenter"",""0"",""5936""
","
","
","""event"",""trial"",""time""
""fullscreenenter"",""0"",""5936""
","
","null","run_exp/static/images/Set 6_rs/071a.jpg","null","","","","","","learn","SL",""
"","html-keyboard-response","21","59100","0.0-21.0","""event"",""trial"",""time""
""fullscreenenter"",""0"",""5936""
","
","
","""event"",""trial"",""time""
""fullscreenenter"",""0"",""5936""
","
","null","<p></p>","null","","","","","","","",""
"","image","22","60177","0.0-22.0","""event"",""trial"",""time""
""fullscreenenter"",""0"",""5936""
","
","
","""event"",""trial"",""time""
""fullscreenenter"",""0"",""5936""
","
","1071","run_exp/static/images/Set 6_rs/025a.jpg","78","","","","","","learn","SL",""
"","show_choice","23","61109","0.0-23.0","""event"",""trial"",""time""
""fullscreenenter"",""0"",""5936""
","
","
","""event"",""trial"",""time""
""fullscreenenter"",""0"",""5936""
","
","null","run_exp/static/images/Set 6_rs/025a.jpg","null","","","","","","learn","SL",""
"","html-keyboard-response","24","61613","0.0-24.0","""event"",""trial"",""time""
""fullscreenenter"",""0"",""5936""
","
","
","""event"",""trial"",""time""
""fullscreenenter"",""0"",""5936""
","
","null","<p></p>","null","","","","","","","",""
"","image","25","62867","0.0-25.0","""event"",""trial"",""time""
""fullscreenenter"",""0"",""5936""
","
","
","""event"",""trial"",""time""
""fullscreenenter"",""0"",""5936""
","
","1249.1999999997206","run_exp/static/images/Set 6_rs/063a.jpg","78","","","","","","learn","SR",""
"","show_choice","26","63622","0.0-26.0","""event"",""trial"",""time""
""fullscreenenter"",""0"",""5936""
","
","
","""event"",""trial"",""time""
""fullscreenenter"",""0"",""5936""
","
","null","run_exp/static/images/Set 6_rs/063a.jpg","null","","","","","","learn","SR",""
"","html-keyboard-response","27","64125","0.0-27.0","""event"",""trial"",""time""
""fullscreenenter"",""0"",""5936""
","
","
","""event"",""trial"",""time""
""fullscreenenter"",""0"",""5936""
","
","null","<p></p>","null","","","","","","","",""
"","image","28","65216","0.0-28.0","""event"",""trial"",""time""
""fullscreenenter"",""0"",""5936""
","
","
","""event"",""trial"",""time""
""fullscreenenter"",""0"",""5936""
","
","1086.0999999996275","run_exp/static/images/Set 6_rs/012a.jpg","86","","","","","","learn","SR",""
"","show_choice","29","66134","0.0-29.0","""event"",""trial"",""time""
""fullscreenenter"",""0"",""5936""
","
","
","""event"",""trial"",""time""
""fullscreenenter"",""0"",""5936""
","
","null","run_exp/static/images/Set 6_rs/012a.jpg","null","","","","","","learn","SR",""
"","html-keyboard-response","30","66637","0.0-30.0","""event"",""trial"",""time""
""fullscreenenter"",""0"",""5936""
","
","
","""event"",""trial"",""time""
""fullscreenenter"",""0"",""5936""
","
","null","<p></p>","null","","","","","","","",""
"","image","31","67872","0.0-31.0","""event"",""trial"",""time""
""fullscreenenter"",""0"",""5936""
","
","
","""event"",""trial"",""time""
""fullscreenenter"",""0"",""5936""
","
","1232.1000000000931","run_exp/static/images/Set 6_rs/023a.jpg","86","","","","","","learn","SR",""
"","show_choice","32","68643","0.0-32.0","""event"",""trial"",""time""
""fullscreenenter"",""0"",""5936""
","
","
","""event"",""trial"",""time""
""fullscreenenter"",""0"",""5936""
","
","null","run_exp/static/images/Set 6_rs/023a.jpg","null","","","","","","learn","SR",""
"","html-keyboard-response","33","69147","0.0-33.0","""event"",""trial"",""time""
""fullscreenenter"",""0"",""5936""
","
","
","""event"",""trial"",""time""
""fullscreenenter"",""0"",""5936""
","
","null","<p></p>","null","","","","","","","",""
"","image","34","70175","0.0-34.0","""event"",""trial"",""time""
""fullscreenenter"",""0"",""5936""
","
","
","""event"",""trial"",""time""
""fullscreenenter"",""0"",""5936""
","
","1021.7000000001863","run_exp/static/images/Set 6_rs/064a.jpg","86","","","","","","learn","SR",""
"","show_choice","35","71161","0.0-35.0","""event"",""trial"",""time""
""fullscreenenter"",""0"",""5936""
","
","
","""event"",""trial"",""time""
""fullscreenenter"",""0"",""5936""
","
","null","run_exp/static/images/Set 6_rs/064a.jpg","null","","","","","","learn","SR",""
"","html-keyboard-response","36","71666","0.0-36.0","""event"",""trial"",""time""
""fullscreenenter"",""0"",""5936""
","
","
","""event"",""trial"",""time""
""fullscreenenter"",""0"",""5936""
","
","null","<p></p>","null","","","","","","","",""
"","image","37","73277","0.0-37.0","""event"",""trial"",""time""
""fullscreenenter"",""0"",""5936""
","
","
","""event"",""trial"",""time""
""fullscreenenter"",""0"",""5936""
","
","1605.7999999998137","run_exp/static/images/Set 6_rs/168a.jpg","86","","","","","","learn","SL",""
"","show_choice","38","73676","0.0-38.0","""event"",""trial"",""time""
""fullscreenenter"",""0"",""5936""
","
","
","""event"",""trial"",""time""
""fullscreenenter"",""0"",""5936""
","
","null","run_exp/static/images/Set 6_rs/168a.jpg","null","","","","","","learn","SL",""
"","html-keyboard-response","39","74180","0.0-39.0","""event"",""trial"",""time""
""fullscreenenter"",""0"",""5936""
","
","
","""event"",""trial"",""time""
""fullscreenenter"",""0"",""5936""
","
","null","<p></p>","null","","","","","","","",""
"","image","40","75394","0.0-40.0","""event"",""trial"",""time""
""fullscreenenter"",""0"",""5936""
","
","
","""event"",""trial"",""time""
""fullscreenenter"",""0"",""5936""
","
","1210","run_exp/static/images/Set 6_rs/006a.jpg","86","","","","","","learn","SL",""
"","show_choice","41","76190","0.0-41.0","""event"",""trial"",""time""
""fullscreenenter"",""0"",""5936""
","
","
","""event"",""trial"",""time""
""fullscreenenter"",""0"",""5936""
","
","null","run_exp/static/images/Set 6_rs/006a.jpg","null","","","","","","learn","SL",""
"","html-keyboard-response","42","76692","0.0-42.0","""event"",""trial"",""time""
""fullscreenenter"",""0"",""5936""
","
","
","""event"",""trial"",""time""
""fullscreenenter"",""0"",""5936""
","
","null","<p></p>","null","","","","","","","",""
"","image","43","77581","0.0-43.0","""event"",""trial"",""time""
""fullscreenenter"",""0"",""5936""
","
","
","""event"",""trial"",""time""
""fullscreenenter"",""0"",""5936""
","
","883.8999999999069","run_exp/static/images/Set 6_rs/074a.jpg","78","","","","","","learn","SL",""
"","show_choice","44","78703","0.0-44.0","""event"",""trial"",""time""
""fullscreenenter"",""0"",""5936""
","
","
","""event"",""trial"",""time""
""fullscreenenter"",""0"",""5936""
","
","null","run_exp/static/images/Set 6_rs/074a.jpg","null","","","","","","learn","SL",""
"","html-keyboard-response","45","79206","0.0-45.0","""event"",""trial"",""time""
""fullscreenenter"",""0"",""5936""
","
","
","""event"",""trial"",""time""
""fullscreenenter"",""0"",""5936""
","
","null","<p></p>","null","","","","","","","",""
"","image","46","80156","0.0-46.0","""event"",""trial"",""time""
""fullscreenenter"",""0"",""5936""
","
","
","""event"",""trial"",""time""
""fullscreenenter"",""0"",""5936""
","
","944.5","run_exp/static/images/Set 6_rs/126a.jpg","78","","","","","","learn","SR",""
"","show_choice","47","81213","0.0-47.0","""event"",""trial"",""time""
""fullscreenenter"",""0"",""5936""
","
","
","""event"",""trial"",""time""
""fullscreenenter"",""0"",""5936""
","
","null","run_exp/static/images/Set 6_rs/126a.jpg","null","","","","","","learn","SR",""
"","html-keyboard-response","48","81717","0.0-48.0","""event"",""trial"",""time""
""fullscreenenter"",""0"",""5936""
","
","
","""event"",""trial"",""time""
""fullscreenenter"",""0"",""5936""
","
","null","<p></p>","null","","","","","","","",""
"","image","49","82779","0.0-49.0","""event"",""trial"",""time""
""fullscreenenter"",""0"",""5936""
","
","
","""event"",""trial"",""time""
""fullscreenenter"",""0"",""5936""
","
","1057.6000000000931","run_exp/static/images/Set 6_rs/121a.jpg","78","","","","","","learn","SR",""
"","show_choice","50","83728","0.0-50.0","""event"",""trial"",""time""
""fullscreenenter"",""0"",""5936""
","
","
","""event"",""trial"",""time""
""fullscreenenter"",""0"",""5936""
","
","null","run_exp/static/images/Set 6_rs/121a.jpg","null","","","","","","learn","SR",""
"","html-keyboard-response","51","84231","0.0-51.0","""event"",""trial"",""time""
""fullscreenenter"",""0"",""5936""
","
","
","""event"",""trial"",""time""
""fullscreenenter"",""0"",""5936""
","
","null","<p></p>","null","","","","","","","",""
"","image","52","85040","0.0-52.0","""event"",""trial"",""time""
""fullscreenenter"",""0"",""5936""
","
","
","""event"",""trial"",""time""
""fullscreenenter"",""0"",""5936""
","
","806.6000000000931","run_exp/static/images/Set 6_rs/152a.jpg","78","","","","","","learn","SR",""
"","show_choice","53","86237","0.0-53.0","""event"",""trial"",""time""
""fullscreenenter"",""0"",""5936""
","
","
","""event"",""trial"",""time""
""fullscreenenter"",""0"",""5936""
","
","null","run_exp/static/images/Set 6_rs/152a.jpg","null","","","","","","learn","SR",""
"","html-keyboard-response","54","86741","0.0-54.0","""event"",""trial"",""time""
""fullscreenenter"",""0"",""5936""
","
","
","""event"",""trial"",""time""
""fullscreenenter"",""0"",""5936""
","
","null","<p></p>","null","","","","","","","",""
"","image","55","87765","0.0-55.0","""event"",""trial"",""time""
""fullscreenenter"",""0"",""5936""
","
","
","""event"",""trial"",""time""
""fullscreenenter"",""0"",""5936""
","
","1021.2000000001863","run_exp/static/images/Set 6_rs/019a.jpg","86","","","","","","learn","SL",""
"","show_choice","56","88747","0.0-56.0","""event"",""trial"",""time""
""fullscreenenter"",""0"",""5936""
","
","
","""event"",""trial"",""time""
""fullscreenenter"",""0"",""5936""
","
","null","run_exp/static/images/Set 6_rs/019a.jpg","null","","","","","","learn","SL",""
"","html-keyboard-response","57","89251","0.0-57.0","""event"",""trial"",""time""
""fullscreenenter"",""0"",""5936""
","
","
","""event"",""trial"",""time""
""fullscreenenter"",""0"",""5936""
","
","null","<p></p>","null","","","","","","","",""
"","image","58","90450","0.0-58.0","""event"",""trial"",""time""
""fullscreenenter"",""0"",""5936""
","
","
","""event"",""trial"",""time""
""fullscreenenter"",""0"",""5936""
","
","1194.3999999999069","run_exp/static/images/Set 6_rs/010a.jpg","86","","","","","","learn","SR",""
"","show_choice","59","91256","0.0-59.0","""event"",""trial"",""time""
""fullscreenenter"",""0"",""5936""
","
","
","""event"",""trial"",""time""
""fullscreenenter"",""0"",""5936""
","
","null","run_exp/static/images/Set 6_rs/010a.jpg","null","","","","","","learn","SR",""
"","html-keyboard-response","60","91758","0.0-60.0","""event"",""trial"",""time""
""fullscreenenter"",""0"",""5936""
","
","
","""event"",""trial"",""time""
""fullscreenenter"",""0"",""5936""
","
","null","<p></p>","null","","","","","","","",""
"","image","61","93131","0.0-61.0","""event"",""trial"",""time""
""fullscreenenter"",""0"",""5936""
","
","
","""event"",""trial"",""time""
""fullscreenenter"",""0"",""5936""
","
","1370.2999999998137","run_exp/static/images/Set 6_rs/122a.jpg","86","","","","","","learn","SR",""
"","show_choice","62","93763","0.0-62.0","""event"",""trial"",""time""
""fullscreenenter"",""0"",""5936""
","
","
","""event"",""trial"",""time""
""fullscreenenter"",""0"",""5936""
","
","null","run_exp/static/images/Set 6_rs/122a.jpg","null","","","","","","learn","SR",""
"","html-keyboard-response","63","94278","0.0-63.0","""event"",""trial"",""time""
""fullscreenenter"",""0"",""5936""
","
","
","""event"",""trial"",""time""
""fullscreenenter"",""0"",""5936""
","
","null","<p></p>","null","","","","","","","",""
"","image","64","95074","0.0-64.0","""event"",""trial"",""time""
""fullscreenenter"",""0"",""5936""
","
","
","""event"",""trial"",""time""
""fullscreenenter"",""0"",""5936""
","
","790","run_exp/static/images/Set 6_rs/116a.jpg","86","","","","","","learn","SL",""
"","show_choice","65","96287","0.0-65.0","""event"",""trial"",""time""
""fullscreenenter"",""0"",""5936""
","
","
","""event"",""trial"",""time""
""fullscreenenter"",""0"",""5936""
","
","null","run_exp/static/images/Set 6_rs/116a.jpg","null","","","","","","learn","SL",""
"","html-keyboard-response","66","96789","0.0-66.0","""event"",""trial"",""time""
""fullscreenenter"",""0"",""5936""
","
","
","""event"",""trial"",""time""
""fullscreenenter"",""0"",""5936""
","
","null","<p></p>","null","","","","","","","",""
"","image","67","98035","0.0-67.0","""event"",""trial"",""time""
""fullscreenenter"",""0"",""5936""
","
","
","""event"",""trial"",""time""
""fullscreenenter"",""0"",""5936""
","
","1243.1999999997206","run_exp/static/images/Set 6_rs/129a.jpg","86","","","","","","learn","SL",""
"","show_choice","68","98794","0.0-68.0","""event"",""trial"",""time""
""fullscreenenter"",""0"",""5936""
","
","
","""event"",""trial"",""time""
""fullscreenenter"",""0"",""5936""
","
","null","run_exp/static/images/Set 6_rs/129a.jpg","null","","","","","","learn","SL",""
"","html-keyboard-response","69","99296","0.0-69.0","""event"",""trial"",""time""
""fullscreenenter"",""0"",""5936""
","
","
","""event"",""trial"",""time""
""fullscreenenter"",""0"",""5936""
","
","null","<p></p>","null","","","","","","","",""
"","image","70","100620","0.0-70.0","""event"",""trial"",""time""
""fullscreenenter"",""0"",""5936""
","
","
","""event"",""trial"",""time""
""fullscreenenter"",""0"",""5936""
","
","1321.8999999999069","run_exp/static/images/Set 6_rs/167a.jpg","86","","","","","","learn","SL",""
"","show_choice","71","101300","0.0-71.0","""event"",""trial"",""time""
""fullscreenenter"",""0"",""5936""
","
","
","""event"",""trial"",""time""
""fullscreenenter"",""0"",""5936""
","
","null","run_exp/static/images/Set 6_rs/167a.jpg","null","","","","","","learn","SL",""
"","html-keyboard-response","72","101802","0.0-72.0","""event"",""trial"",""time""
""fullscreenenter"",""0"",""5936""
","
","
","""event"",""trial"",""time""
""fullscreenenter"",""0"",""5936""
","
","null","<p></p>","null","","","","","","","",""
"","image","73","103035","0.0-73.0","""event"",""trial"",""time""
""fullscreenenter"",""0"",""5936""
","
","
","""event"",""trial"",""time""
""fullscreenenter"",""0"",""5936""
","
","1228.1999999997206","run_exp/static/images/Set 6_rs/070a.jpg","86","","","","","","learn","SR",""
"","show_choice","74","103809","0.0-74.0","""event"",""trial"",""time""
""fullscreenenter"",""0"",""5936""
","
","
","""event"",""trial"",""time""
""fullscreenenter"",""0"",""5936""
","
","null","run_exp/static/images/Set 6_rs/070a.jpg","null","","","","","","learn","SR",""
"","html-keyboard-response","75","104311","0.0-75.0","""event"",""trial"",""time""
""fullscreenenter"",""0"",""5936""
","
","
","""event"",""trial"",""time""
""fullscreenenter"",""0"",""5936""
","
","null","<p></p>","null","","","","","","","",""
"","image","76","105400","0.0-76.0","""event"",""trial"",""time""
""fullscreenenter"",""0"",""5936""
","
","
","""event"",""trial"",""time""
""fullscreenenter"",""0"",""5936""
","
","1084.3999999999069","run_exp/static/images/Set 6_rs/111a.jpg","86","","","","","","learn","SL",""
"","show_choice","77","106317","0.0-77.0","""event"",""trial"",""time""
""fullscreenenter"",""0"",""5936""
","
","
","""event"",""trial"",""time""
""fullscreenenter"",""0"",""5936""
","
","null","run_exp/static/images/Set 6_rs/111a.jpg","null","","","","","","learn","SL",""
"","html-keyboard-response","78","106818","0.0-78.0","""event"",""trial"",""time""
""fullscreenenter"",""0"",""5936""
","
","
","""event"",""trial"",""time""
""fullscreenenter"",""0"",""5936""
","
","null","<p></p>","null","","","","","","","",""
"","image","79","107987","0.0-79.0","""event"",""trial"",""time""
""fullscreenenter"",""0"",""5936""
","
","
","""event"",""trial"",""time""
""fullscreenenter"",""0"",""5936""
","
","1165.2000000001863","run_exp/static/images/Set 6_rs/150a.jpg","86","","","","","","learn","SR",""
"","show_choice","80","108826","0.0-80.0","""event"",""trial"",""time""
""fullscreenenter"",""0"",""5936""
","
","
","""event"",""trial"",""time""
""fullscreenenter"",""0"",""5936""
","
","null","run_exp/static/images/Set 6_rs/150a.jpg","null","","","","","","learn","SR",""
"","html-keyboard-response","81","109329","0.0-81.0","""event"",""trial"",""time""
""fullscreenenter"",""0"",""5936""
","
","
","""event"",""trial"",""time""
""fullscreenenter"",""0"",""5936""
","
","null","<p></p>","null","","","","","","","",""
"","image","82","110330","0.0-82.0","""event"",""trial"",""time""
""fullscreenenter"",""0"",""5936""
","
","
","""event"",""trial"",""time""
""fullscreenenter"",""0"",""5936""
","
","997.4000000003725","run_exp/static/images/Set 6_rs/141a.jpg","86","","","","","","learn","SR",""
"","show_choice","83","111335","0.0-83.0","""event"",""trial"",""time""
""fullscreenenter"",""0"",""5936""
","
","
","""event"",""trial"",""time""
""fullscreenenter"",""0"",""5936""
","
","null","run_exp/static/images/Set 6_rs/141a.jpg","null","","","","","","learn","SR",""
"","html-keyboard-response","84","111841","0.0-84.0","""event"",""trial"",""time""
""fullscreenenter"",""0"",""5936""
","
","
","""event"",""trial"",""time""
""fullscreenenter"",""0"",""5936""
","
","null","<p></p>","null","","","","","","","",""
"","image","85","113179","0.0-85.0","""event"",""trial"",""time""
""fullscreenenter"",""0"",""5936""
","
","
","""event"",""trial"",""time""
""fullscreenenter"",""0"",""5936""
","
","1332.3999999999069","run_exp/static/images/Set 6_rs/144a.jpg","78","","","","","","learn","SL",""
"","show_choice","86","113849","0.0-86.0","""event"",""trial"",""time""
""fullscreenenter"",""0"",""5936""
","
","
","""event"",""trial"",""time""
""fullscreenenter"",""0"",""5936""
","
","null","run_exp/static/images/Set 6_rs/144a.jpg","null","","","","","","learn","SL",""
"","html-keyboard-response","87","114352","0.0-87.0","""event"",""trial"",""time""
""fullscreenenter"",""0"",""5936""
","
","
","""event"",""trial"",""time""
""fullscreenenter"",""0"",""5936""
","
","null","<p></p>","null","","","","","","","",""
"","image","88","115872","0.0-88.0","""event"",""trial"",""time""
""fullscreenenter"",""0"",""5936""
","
","
","""event"",""trial"",""time""
""fullscreenenter"",""0"",""5936""
","
","1517.6000000000931","run_exp/static/images/Set 6_rs/017a.jpg","78","","","","","","learn","SL",""
"","show_choice","89","116356","0.0-89.0","""event"",""trial"",""time""
""fullscreenenter"",""0"",""5936""
","
","
","""event"",""trial"",""time""
""fullscreenenter"",""0"",""5936""
","
","null","run_exp/static/images/Set 6_rs/017a.jpg","null","","","","","","learn","SL",""
"","html-keyboard-response","90","116857","0.0-90.0","""event"",""trial"",""time""
""fullscreenenter"",""0"",""5936""
","
","
","""event"",""trial"",""time""
""fullscreenenter"",""0"",""5936""
","
","null","<p></p>","null","","","","","","","",""
"","image","91","118239","0.0-91.0","""event"",""trial"",""time""
""fullscreenenter"",""0"",""5936""
","
","
","""event"",""trial"",""time""
""fullscreenenter"",""0"",""5936""
","
","1377.5999999996275","run_exp/static/images/Set 6_rs/066a.jpg","78","","","","","","learn","SL",""
"","show_choice","92","118866","0.0-92.0","""event"",""trial"",""time""
""fullscreenenter"",""0"",""5936""
","
","
","""event"",""trial"",""time""
""fullscreenenter"",""0"",""5936""
","
","null","run_exp/static/images/Set 6_rs/066a.jpg","null","","","","","","learn","SL",""
"","html-keyboard-response","93","119368","0.0-93.0","""event"",""trial"",""time""
""fullscreenenter"",""0"",""5936""
","
","
","""event"",""trial"",""time""
""fullscreenenter"",""0"",""5936""
","
","null","<p></p>","null","","","","","","","",""
"","image","94","120181","0.0-94.0","""event"",""trial"",""time""
""fullscreenenter"",""0"",""5936""
","
","
","""event"",""trial"",""time""
""fullscreenenter"",""0"",""5936""
","
","810.6000000000931","run_exp/static/images/Set 6_rs/007a.jpg","86","","","","","","learn","SR",""
"","show_choice","95","121373","0.0-95.0","""event"",""trial"",""time""
""fullscreenenter"",""0"",""5936""
","
","
","""event"",""trial"",""time""
""fullscreenenter"",""0"",""5936""
","
","null","run_exp/static/images/Set 6_rs/007a.jpg","null","","","","","","learn","SR",""
"","html-keyboard-response","96","121875","0.0-96.0","""event"",""trial"",""time""
""fullscreenenter"",""0"",""5936""
","
","
","""event"",""trial"",""time""
""fullscreenenter"",""0"",""5936""
","
","null","<p></p>","null","","","","","","","",""
"","image","97","123146","0.0-97.0","""event"",""trial"",""time""
""fullscreenenter"",""0"",""5936""
","
","
","""event"",""trial"",""time""
""fullscreenenter"",""0"",""5936""
","
","1266.4000000003725","run_exp/static/images/Set 6_rs/016a.jpg","86","","","","","","learn","SL",""
"","show_choice","98","123884","0.0-98.0","""event"",""trial"",""time""
""fullscreenenter"",""0"",""5936""
","
","
","""event"",""trial"",""time""
""fullscreenenter"",""0"",""5936""
","
","null","run_exp/static/images/Set 6_rs/016a.jpg","null","","","","","","learn","SL",""
"","html-keyboard-response","99","124387","0.0-99.0","""event"",""trial"",""time""
""fullscreenenter"",""0"",""5936""
","
","
","""event"",""trial"",""time""
""fullscreenenter"",""0"",""5936""
","
","null","<p></p>","null","","","","","","","",""
"","image","100","125325","0.0-100.0","""event"",""trial"",""time""
""fullscreenenter"",""0"",""5936""
","
","
","""event"",""trial"",""time""
""fullscreenenter"",""0"",""5936""
","
","931.6000000000931","run_exp/static/images/Set 6_rs/112a.jpg","86","","","","","","learn","SR",""
"","show_choice","101","126400","0.0-101.0","""event"",""trial"",""time""
""fullscreenenter"",""0"",""5936""
","
","
","""event"",""trial"",""time""
""fullscreenenter"",""0"",""5936""
","
","null","run_exp/static/images/Set 6_rs/112a.jpg","null","","","","","","learn","SR",""
"","html-keyboard-response","102","126902","0.0-102.0","""event"",""trial"",""time""
""fullscreenenter"",""0"",""5936""
","
","
","""event"",""trial"",""time""
""fullscreenenter"",""0"",""5936""
","
","null","<p></p>","null","","","","","","","",""
"","image","103","128321","0.0-103.0","""event"",""trial"",""time""
""fullscreenenter"",""0"",""5936""
","
","
","""event"",""trial"",""time""
""fullscreenenter"",""0"",""5936""
","
","1415.2000000001863","run_exp/static/images/Set 6_rs/117a.jpg","86","","","","","","learn","SL",""
"","show_choice","104","128911","0.0-104.0","""event"",""trial"",""time""
""fullscreenenter"",""0"",""5936""
","
","
","""event"",""trial"",""time""
""fullscreenenter"",""0"",""5936""
","
","null","run_exp/static/images/Set 6_rs/117a.jpg","null","","","","","","learn","SL",""
"","html-keyboard-response","105","129412","0.0-105.0","""event"",""trial"",""time""
""fullscreenenter"",""0"",""5936""
","
","
","""event"",""trial"",""time""
""fullscreenenter"",""0"",""5936""
","
","null","<p></p>","null","","","","","","","",""
"","image","106","130449","0.0-106.0","""event"",""trial"",""time""
""fullscreenenter"",""0"",""5936""
","
","
","""event"",""trial"",""time""
""fullscreenenter"",""0"",""5936""
","
","1033.8000000002794","run_exp/static/images/Set 6_rs/169a.jpg","86","","","","","","learn","SR",""
"","show_choice","107","131418","0.0-107.0","""event"",""trial"",""time""
""fullscreenenter"",""0"",""5936""
","
","
","""event"",""trial"",""time""
""fullscreenenter"",""0"",""5936""
","
","null","run_exp/static/images/Set 6_rs/169a.jpg","null","","","","","","learn","SR",""
"","html-keyboard-response","108","131922","0.0-108.0","""event"",""trial"",""time""
""fullscreenenter"",""0"",""5936""
","
","
","""event"",""trial"",""time""
""fullscreenenter"",""0"",""5936""
","
","null","<p></p>","null","","","","","","","",""
"","image","109","133926","0.0-109.0","""event"",""trial"",""time""
""fullscreenenter"",""0"",""5936""
","
","
","""event"",""trial"",""time""
""fullscreenenter"",""0"",""5936""
","
","null","run_exp/static/images/Set 6_rs/014a.jpg","null","","","","","","learn","SL",""
"","show_choice","110","135931","0.0-110.0","""event"",""trial"",""time""
""fullscreenenter"",""0"",""5936""
","
","
","""event"",""trial"",""time""
""fullscreenenter"",""0"",""5936""
","
","null","run_exp/static/images/blank.png","null","","","","","","learn","SL",""
"","html-keyboard-response","111","136433","0.0-111.0","""event"",""trial"",""time""
""fullscreenenter"",""0"",""5936""
","
","
","""event"",""trial"",""time""
""fullscreenenter"",""0"",""5936""
","
","null","<p></p>","null","","","","","","","",""
"","image","112","137850","0.0-112.0","""event"",""trial"",""time""
""fullscreenenter"",""0"",""5936""
","
","
","""event"",""trial"",""time""
""fullscreenenter"",""0"",""5936""
","
","1412.5","run_exp/static/images/Set 6_rs/050a.jpg","86","","","","","","learn","SL",""
"","show_choice","113","138441","0.0-113.0","""event"",""trial"",""time""
""fullscreenenter"",""0"",""5936""
","
","
","""event"",""trial"",""time""
""fullscreenenter"",""0"",""5936""
","
","null","run_exp/static/images/Set 6_rs/050a.jpg","null","","","","","","learn","SL",""
"","html-keyboard-response","114","138943","0.0-114.0","""event"",""trial"",""time""
""fullscreenenter"",""0"",""5936""
","
","
","""event"",""trial"",""time""
""fullscreenenter"",""0"",""5936""
","
","null","<p></p>","null","","","","","","","",""
"","image","115","140285","0.0-115.0","""event"",""trial"",""time""
""fullscreenenter"",""0"",""5936""
","
","
","""event"",""trial"",""time""
""fullscreenenter"",""0"",""5936""
","
","1339.8000000002794","run_exp/static/images/Set 6_rs/088a.jpg","86","","","","","","learn","SR",""
"","show_choice","116","140948","0.0-116.0","""event"",""trial"",""time""
""fullscreenenter"",""0"",""5936""
","
","
","""event"",""trial"",""time""
""fullscreenenter"",""0"",""5936""
","
","null","run_exp/static/images/Set 6_rs/088a.jpg","null","","","","","","learn","SR",""
"","html-keyboard-response","117","141451","0.0-117.0","""event"",""trial"",""time""
""fullscreenenter"",""0"",""5936""
","
","
","""event"",""trial"",""time""
""fullscreenenter"",""0"",""5936""
","
","null","<p></p>","null","","","","","","","",""
"","image","118","142962","0.0-118.0","""event"",""trial"",""time""
""fullscreenenter"",""0"",""5936""
","
","
","""event"",""trial"",""time""
""fullscreenenter"",""0"",""5936""
","
","1506.8999999999069","run_exp/static/images/Set 6_rs/085a.jpg","78","","","","","","learn","SL",""
"","show_choice","119","143457","0.0-119.0","""event"",""trial"",""time""
""fullscreenenter"",""0"",""5936""
","
","
","""event"",""trial"",""time""
""fullscreenenter"",""0"",""5936""
","
","null","run_exp/static/images/Set 6_rs/085a.jpg","null","","","","","","learn","SL",""
"","html-keyboard-response","120","143958","0.0-120.0","""event"",""trial"",""time""
""fullscreenenter"",""0"",""5936""
","
","
","""event"",""trial"",""time""
""fullscreenenter"",""0"",""5936""
","
","null","<p></p>","null","","","","","","","",""
"","image","121","144154","0.0-121.0","""event"",""trial"",""time""
""fullscreenenter"",""0"",""5936""
","
","
","""event"",""trial"",""time""
""fullscreenenter"",""0"",""5936""
","
","194.20000000018626","run_exp/static/images/Set 6_rs/187a.jpg","78","","","","","","learn","SR",""
"","show_choice","122","145962","0.0-122.0","""event"",""trial"",""time""
""fullscreenenter"",""0"",""5936""
","
","
","""event"",""trial"",""time""
""fullscreenenter"",""0"",""5936""
","
","null","run_exp/static/images/Set 6_rs/187a.jpg","null","","","","","","learn","SR",""
"","html-keyboard-response","123","146463","0.0-123.0","""event"",""trial"",""time""
""fullscreenenter"",""0"",""5936""
","
","
","""event"",""trial"",""time""
""fullscreenenter"",""0"",""5936""
","
","null","<p></p>","null","","","","","","","",""
"","image","124","147443","0.0-124.0","""event"",""trial"",""time""
""fullscreenenter"",""0"",""5936""
","
","
","""event"",""trial"",""time""
""fullscreenenter"",""0"",""5936""
","
","973.6000000000931","run_exp/static/images/Set 6_rs/024a.jpg","86","","","","","","learn","SR",""
"","show_choice","125","148471","0.0-125.0","""event"",""trial"",""time""
""fullscreenenter"",""0"",""5936""
","
","
","""event"",""trial"",""time""
""fullscreenenter"",""0"",""5936""
","
","null","run_exp/static/images/Set 6_rs/024a.jpg","null","","","","","","learn","SR",""
"","html-keyboard-response","126","148974","0.0-126.0","""event"",""trial"",""time""
""fullscreenenter"",""0"",""5936""
","
","
","""event"",""trial"",""time""
""fullscreenenter"",""0"",""5936""
","
","null","<p></p>","null","","","","","","","",""
"","image","127","150043","0.0-127.0","""event"",""trial"",""time""
""fullscreenenter"",""0"",""5936""
","
","
","""event"",""trial"",""time""
""fullscreenenter"",""0"",""5936""
","
","1065.1000000000931","run_exp/static/images/Set 6_rs/178a.jpg","86","","","","","","learn","SR",""
"","show_choice","128","150980","0.0-128.0","""event"",""trial"",""time""
""fullscreenenter"",""0"",""5936""
","
","
","""event"",""trial"",""time""
""fullscreenenter"",""0"",""5936""
","
","null","run_exp/static/images/Set 6_rs/178a.jpg","null","","","","","","learn","SR",""
"","html-keyboard-response","129","151481","0.0-129.0","""event"",""trial"",""time""
""fullscreenenter"",""0"",""5936""
","
","
","""event"",""trial"",""time""
""fullscreenenter"",""0"",""5936""
","
","null","<p></p>","null","","","","","","","",""
"","image","130","152775","0.0-130.0","""event"",""trial"",""time""
""fullscreenenter"",""0"",""5936""
","
","
","""event"",""trial"",""time""
""fullscreenenter"",""0"",""5936""
","
","1290.6999999997206","run_exp/static/images/Set 6_rs/123a.jpg","78","","","","","","learn","SL",""
"","show_choice","131","153488","0.0-131.0","""event"",""trial"",""time""
""fullscreenenter"",""0"",""5936""
","
","
","""event"",""trial"",""time""
""fullscreenenter"",""0"",""5936""
","
","null","run_exp/static/images/Set 6_rs/123a.jpg","null","","","","","","learn","SL",""
"","html-keyboard-response","132","153989","0.0-132.0","""event"",""trial"",""time""
""fullscreenenter"",""0"",""5936""
","
","
","""event"",""trial"",""time""
""fullscreenenter"",""0"",""5936""
","
","null","<p></p>","null","","","","","","","",""
"","image","133","155373","0.0-133.0","""event"",""trial"",""time""
""fullscreenenter"",""0"",""5936""
","
","
","""event"",""trial"",""time""
""fullscreenenter"",""0"",""5936""
","
","1381.2999999998137","run_exp/static/images/Set 6_rs/057a.jpg","86","","","","","","learn","SL",""
"","show_choice","134","155993","0.0-134.0","""event"",""trial"",""time""
""fullscreenenter"",""0"",""5936""
","
","
","""event"",""trial"",""time""
""fullscreenenter"",""0"",""5936""
","
","null","run_exp/static/images/Set 6_rs/057a.jpg","null","","","","","","learn","SL",""
"","html-keyboard-response","135","156495","0.0-135.0","""event"",""trial"",""time""
""fullscreenenter"",""0"",""5936""
","
","
","""event"",""trial"",""time""
""fullscreenenter"",""0"",""5936""
","
","null","<p></p>","null","","","","","","","",""
"","image","136","157555","0.0-136.0","""event"",""trial"",""time""
""fullscreenenter"",""0"",""5936""
","
","
","""event"",""trial"",""time""
""fullscreenenter"",""0"",""5936""
","
","1056.5999999996275","run_exp/static/images/Set 6_rs/073a.jpg","86","","","","","","learn","SL",""
"","show_choice","137","158501","0.0-137.0","""event"",""trial"",""time""
""fullscreenenter"",""0"",""5936""
","
","
","""event"",""trial"",""time""
""fullscreenenter"",""0"",""5936""
","
","null","run_exp/static/images/Set 6_rs/073a.jpg","null","","","","","","learn","SL",""
"","html-keyboard-response","138","159004","0.0-138.0","""event"",""trial"",""time""
""fullscreenenter"",""0"",""5936""
","
","
","""event"",""trial"",""time""
""fullscreenenter"",""0"",""5936""
","
","null","<p></p>","null","","","","","","","",""
"","image","139","160766","0.0-139.0","""event"",""trial"",""time""
""fullscreenenter"",""0"",""5936""
","
","
","""event"",""trial"",""time""
""fullscreenenter"",""0"",""5936""
","
","1757.2999999998137","run_exp/static/images/Set 6_rs/045a.jpg","78","","","","","","learn","SR",""
"","show_choice","140","161012","0.0-140.0","""event"",""trial"",""time""
""fullscreenenter"",""0"",""5936""
","
","
","""event"",""trial"",""time""
""fullscreenenter"",""0"",""5936""
","
","null","run_exp/static/images/Set 6_rs/045a.jpg","null","","","","","","learn","SR",""
"","html-keyboard-response","141","161514","0.0-141.0","""event"",""trial"",""time""
""fullscreenenter"",""0"",""5936""
","
","
","""event"",""trial"",""time""
""fullscreenenter"",""0"",""5936""
","
","null","<p></p>","null","","","","","","","",""
"","image","142","162666","0.0-142.0","""event"",""trial"",""time""
""fullscreenenter"",""0"",""5936""
","
","
","""event"",""trial"",""time""
""fullscreenenter"",""0"",""5936""
","
","1149.1999999997206","run_exp/static/images/Set 6_rs/131a.jpg","86","","","","","","learn","SR",""
"","show_choice","143","163520","0.0-143.0","""event"",""trial"",""time""
""fullscreenenter"",""0"",""5936""
","
","
","""event"",""trial"",""time""
""fullscreenenter"",""0"",""5936""
","
","null","run_exp/static/images/Set 6_rs/131a.jpg","null","","","","","","learn","SR",""
"","html-keyboard-response","144","164021","0.0-144.0","""event"",""trial"",""time""
""fullscreenenter"",""0"",""5936""
","
","
","""event"",""trial"",""time""
""fullscreenenter"",""0"",""5936""
","
","null","<p></p>","null","","","","","","","",""
"","image","145","165128","0.0-145.0","""event"",""trial"",""time""
""fullscreenenter"",""0"",""5936""
","
","
","""event"",""trial"",""time""
""fullscreenenter"",""0"",""5936""
","
","1102.6999999997206","run_exp/static/images/Set 6_rs/089a.jpg","86","","","","","","learn","SL",""
"","show_choice","146","166027","0.0-146.0","""event"",""trial"",""time""
""fullscreenenter"",""0"",""5936""
","
","
","""event"",""trial"",""time""
""fullscreenenter"",""0"",""5936""
","
","null","run_exp/static/images/Set 6_rs/089a.jpg","null","","","","","","learn","SL",""
"","html-keyboard-response","147","166529","0.0-147.0","""event"",""trial"",""time""
""fullscreenenter"",""0"",""5936""
","
","
","""event"",""trial"",""time""
""fullscreenenter"",""0"",""5936""
","
","null","<p></p>","null","","","","","","","",""
"","image","148","167731","0.0-148.0","""event"",""trial"",""time""
""fullscreenenter"",""0"",""5936""
","
","
","""event"",""trial"",""time""
""fullscreenenter"",""0"",""5936""
","
","1200.1999999997206","run_exp/static/images/Set 6_rs/076a.jpg","78","","","","","","learn","SR",""
"","show_choice","149","168534","0.0-149.0","""event"",""trial"",""time""
""fullscreenenter"",""0"",""5936""
","
","
","""event"",""trial"",""time""
""fullscreenenter"",""0"",""5936""
","
","null","run_exp/static/images/Set 6_rs/076a.jpg","null","","","","","","learn","SR",""
"","html-keyboard-response","150","169035","0.0-150.0","""event"",""trial"",""time""
""fullscreenenter"",""0"",""5936""
","
","
","""event"",""trial"",""time""
""fullscreenenter"",""0"",""5936""
","
","null","<p></p>","null","","","","","","","",""
"","image","151","170263","0.0-151.0","""event"",""trial"",""time""
""fullscreenenter"",""0"",""5936""
","
","
","""event"",""trial"",""time""
""fullscreenenter"",""0"",""5936""
","
","1224.8000000002794","run_exp/static/images/Set 6_rs/132a.jpg","86","","","","","","learn","SR",""
"","show_choice","152","171041","0.0-152.0","""event"",""trial"",""time""
""fullscreenenter"",""0"",""5936""
","
","
","""event"",""trial"",""time""
""fullscreenenter"",""0"",""5936""
","
","null","run_exp/static/images/Set 6_rs/132a.jpg","null","","","","","","learn","SR",""
"","html-keyboard-response","153","171542","0.0-153.0","""event"",""trial"",""time""
""fullscreenenter"",""0"",""5936""
","
","
","""event"",""trial"",""time""
""fullscreenenter"",""0"",""5936""
","
","null","<p></p>","null","","","","","","","",""
"","image","154","172625","0.0-154.0","""event"",""trial"",""time""
""fullscreenenter"",""0"",""5936""
","
","
","""event"",""trial"",""time""
""fullscreenenter"",""0"",""5936""
","
","1080.1999999997206","run_exp/static/images/Set 6_rs/062a.jpg","86","","","","","","learn","SL",""
"","show_choice","155","173547","0.0-155.0","""event"",""trial"",""time""
""fullscreenenter"",""0"",""5936""
","
","
","""event"",""trial"",""time""
""fullscreenenter"",""0"",""5936""
","
","null","run_exp/static/images/Set 6_rs/062a.jpg","null","","","","","","learn","SL",""
"","html-keyboard-response","156","174049","0.0-156.0","""event"",""trial"",""time""
""fullscreenenter"",""0"",""5936""
","
","
","""event"",""trial"",""time""
""fullscreenenter"",""0"",""5936""
","
","null","<p></p>","null","","","","","","","",""
"","image","157","175214","0.0-157.0","""event"",""trial"",""time""
""fullscreenenter"",""0"",""5936""
","
","
","""event"",""trial"",""time""
""fullscreenenter"",""0"",""5936""
","
","1163.5","run_exp/static/images/Set 6_rs/154a.jpg","86","","","","","","learn","SR",""
"","show_choice","158","176052","0.0-158.0","""event"",""trial"",""time""
""fullscreenenter"",""0"",""5936""
","
","
","""event"",""trial"",""time""
""fullscreenenter"",""0"",""5936""
","
","null","run_exp/static/images/Set 6_rs/154a.jpg","null","","","","","","learn","SR",""
"","html-keyboard-response","159","176554","0.0-159.0","""event"",""trial"",""time""
""fullscreenenter"",""0"",""5936""
","
","
","""event"",""trial"",""time""
""fullscreenenter"",""0"",""5936""
","
","null","<p></p>","null","","","","","","","",""
"","image","160","178453","0.0-160.0","""event"",""trial"",""time""
""fullscreenenter"",""0"",""5936""
","
","
","""event"",""trial"",""time""
""fullscreenenter"",""0"",""5936""
","
","1897.3000000002794","run_exp/static/images/Set 6_rs/079a.jpg","86","","","","","","learn","SL",""
"","show_choice","161","178558","0.0-161.0","""event"",""trial"",""time""
""fullscreenenter"",""0"",""5936""
","
","
","""event"",""trial"",""time""
""fullscreenenter"",""0"",""5936""
","
","null","run_exp/static/images/Set 6_rs/079a.jpg","null","","","","","","learn","SL",""
"","html-keyboard-response","162","179060","0.0-162.0","""event"",""trial"",""time""
""fullscreenenter"",""0"",""5936""
","
","
","""event"",""trial"",""time""
""fullscreenenter"",""0"",""5936""
","
","null","<p></p>","null","","","","","","","",""
"","image","163","181063","0.0-163.0","""event"",""trial"",""time""
""fullscreenenter"",""0"",""5936""
","
","
","""event"",""trial"",""time""
""fullscreenenter"",""0"",""5936""
","
","null","run_exp/static/images/Set 6_rs/091a.jpg","null","","","","","","learn","SL",""
"","show_choice","164","183067","0.0-164.0","""event"",""trial"",""time""
""fullscreenenter"",""0"",""5936""
","
","
","""event"",""trial"",""time""
""fullscreenenter"",""0"",""5936""
","
","null","run_exp/static/images/blank.png","null","","","","","","learn","SL",""
"","html-keyboard-response","165","183569","0.0-165.0","""event"",""trial"",""time""
""fullscreenenter"",""0"",""5936""
","
","
","""event"",""trial"",""time""
""fullscreenenter"",""0"",""5936""
","
","null","<p></p>","null","","","","","","","",""
"","image","166","184530","0.0-166.0","""event"",""trial"",""time""
""fullscreenenter"",""0"",""5936""
","
","
","""event"",""trial"",""time""
""fullscreenenter"",""0"",""5936""
","
","958.3999999999069","run_exp/static/images/Set 6_rs/172a.jpg","86","","","","","","learn","SR",""
"","show_choice","167","185575","0.0-167.0","""event"",""trial"",""time""
""fullscreenenter"",""0"",""5936""
","
","
","""event"",""trial"",""time""
""fullscreenenter"",""0"",""5936""
","
","null","run_exp/static/images/Set 6_rs/172a.jpg","null","","","","","","learn","SR",""
"","html-keyboard-response","168","186077","0.0-168.0","""event"",""trial"",""time""
""fullscreenenter"",""0"",""5936""
","
","
","""event"",""trial"",""time""
""fullscreenenter"",""0"",""5936""
","
","null","<p></p>","null","","","","","","","",""
"","image","169","187597","0.0-169.0","""event"",""trial"",""time""
""fullscreenenter"",""0"",""5936""
","
","
","""event"",""trial"",""time""
""fullscreenenter"",""0"",""5936""
","
","1516.4000000003725","run_exp/static/images/Set 6_rs/134a.jpg","86","","","","","","learn","SR",""
"","show_choice","170","188083","0.0-170.0","""event"",""trial"",""time""
""fullscreenenter"",""0"",""5936""
","
","
","""event"",""trial"",""time""
""fullscreenenter"",""0"",""5936""
","
","null","run_exp/static/images/Set 6_rs/134a.jpg","null","","","","","","learn","SR",""
"","html-keyboard-response","171","188586","0.0-171.0","""event"",""trial"",""time""
""fullscreenenter"",""0"",""5936""
","
","
","""event"",""trial"",""time""
""fullscreenenter"",""0"",""5936""
","
","null","<p></p>","null","","","","","","","",""
"","image","172","189726","0.0-172.0","""event"",""trial"",""time""
""fullscreenenter"",""0"",""5936""
","
","
","""event"",""trial"",""time""
""fullscreenenter"",""0"",""5936""
","
","1136.7999999998137","run_exp/static/images/Set 6_rs/186a.jpg","86","","","","","","learn","SR",""
"","show_choice","173","190591","0.0-173.0","""event"",""trial"",""time""
""fullscreenenter"",""0"",""5936""
","
","
","""event"",""trial"",""time""
""fullscreenenter"",""0"",""5936""
","
","null","run_exp/static/images/Set 6_rs/186a.jpg","null","","","","","","learn","SR",""
"","html-keyboard-response","174","191094","0.0-174.0","""event"",""trial"",""time""
""fullscreenenter"",""0"",""5936""
","
","
","""event"",""trial"",""time""
""fullscreenenter"",""0"",""5936""
","
","null","<p></p>","null","","","","","","","",""
"","image","175","191827","0.0-175.0","""event"",""trial"",""time""
""fullscreenenter"",""0"",""5936""
","
","
","""event"",""trial"",""time""
""fullscreenenter"",""0"",""5936""
","
","726.6000000000931","run_exp/static/images/Set 6_rs/138a.jpg","86","","","","","","learn","SL",""
"","show_choice","176","193103","0.0-176.0","""event"",""trial"",""time""
""fullscreenenter"",""0"",""5936""
","
","
","""event"",""trial"",""time""
""fullscreenenter"",""0"",""5936""
","
","null","run_exp/static/images/Set 6_rs/138a.jpg","null","","","","","","learn","SL",""
"","html-keyboard-response","177","193606","0.0-177.0","""event"",""trial"",""time""
""fullscreenenter"",""0"",""5936""
","
","
","""event"",""trial"",""time""
""fullscreenenter"",""0"",""5936""
","
","null","<p></p>","null","","","","","","","",""
"","image","178","194878","0.0-178.0","""event"",""trial"",""time""
""fullscreenenter"",""0"",""5936""
","
","
","""event"",""trial"",""time""
""fullscreenenter"",""0"",""5936""
","
","1268.1000000000931","run_exp/static/images/Set 6_rs/191a.jpg","78","","","","","","learn","SL",""
"","show_choice","179","195613","0.0-179.0","""event"",""trial"",""time""
""fullscreenenter"",""0"",""5936""
","
","
","""event"",""trial"",""time""
""fullscreenenter"",""0"",""5936""
","
","null","run_exp/static/images/Set 6_rs/191a.jpg","null","","","","","","learn","SL",""
"","html-keyboard-response","180","196116","0.0-180.0","""event"",""trial"",""time""
""fullscreenenter"",""0"",""5936""
","
","
","""event"",""trial"",""time""
""fullscreenenter"",""0"",""5936""
","
","null","<p></p>","null","","","","","","","",""
"","image","181","197165","0.0-181.0","""event"",""trial"",""time""
""fullscreenenter"",""0"",""5936""
","
","
","""event"",""trial"",""time""
""fullscreenenter"",""0"",""5936""
","
","1041.8999999999069","run_exp/static/images/Set 6_rs/177a.jpg","78","","","","","","learn","SR",""
"","show_choice","182","198129","0.0-182.0","""event"",""trial"",""time""
""fullscreenenter"",""0"",""5936""
","
","
","""event"",""trial"",""time""
""fullscreenenter"",""0"",""5936""
","
","null","run_exp/static/images/Set 6_rs/177a.jpg","null","","","","","","learn","SR",""
"","html-keyboard-response","183","198633","0.0-183.0","""event"",""trial"",""time""
""fullscreenenter"",""0"",""5936""
","
","
","""event"",""trial"",""time""
""fullscreenenter"",""0"",""5936""
","
","null","<p></p>","null","","","","","","","",""
"","image","184","199692","0.0-184.0","""event"",""trial"",""time""
""fullscreenenter"",""0"",""5936""
","
","
","""event"",""trial"",""time""
""fullscreenenter"",""0"",""5936""
","
","1055.8000000002794","run_exp/static/images/Set 6_rs/075a.jpg","78","","","","","","learn","SR",""
"","show_choice","185","200639","0.0-185.0","""event"",""trial"",""time""
""fullscreenenter"",""0"",""5936""
","
","
","""event"",""trial"",""time""
""fullscreenenter"",""0"",""5936""
","
","null","run_exp/static/images/Set 6_rs/075a.jpg","null","","","","","","learn","SR",""
"","html-keyboard-response","186","201140","0.0-186.0","""event"",""trial"",""time""
""fullscreenenter"",""0"",""5936""
","
","
","""event"",""trial"",""time""
""fullscreenenter"",""0"",""5936""
","
","null","<p></p>","null","","","","","","","",""
"","image","187","202398","0.0-187.0","""event"",""trial"",""time""
""fullscreenenter"",""0"",""5936""
","
","
","""event"",""trial"",""time""
""fullscreenenter"",""0"",""5936""
","
","1254.7999999998137","run_exp/static/images/Set 6_rs/036a.jpg","86","","","","","","learn","SL",""
"","show_choice","188","203145","0.0-188.0","""event"",""trial"",""time""
""fullscreenenter"",""0"",""5936""
","
","
","""event"",""trial"",""time""
""fullscreenenter"",""0"",""5936""
","
","null","run_exp/static/images/Set 6_rs/036a.jpg","null","","","","","","learn","SL",""
"","html-keyboard-response","189","203647","0.0-189.0","""event"",""trial"",""time""
""fullscreenenter"",""0"",""5936""
","
","
","""event"",""trial"",""time""
""fullscreenenter"",""0"",""5936""
","
","null","<p></p>","null","","","","","","","",""
"","image","190","204507","0.0-190.0","""event"",""trial"",""time""
""fullscreenenter"",""0"",""5936""
","
","
","""event"",""trial"",""time""
""fullscreenenter"",""0"",""5936""
","
","857.4000000003725","run_exp/static/images/Set 6_rs/166a.jpg","86","","","","","","learn","SR",""
"","show_choice","191","205652","0.0-191.0","""event"",""trial"",""time""
""fullscreenenter"",""0"",""5936""
","
","
","""event"",""trial"",""time""
""fullscreenenter"",""0"",""5936""
","
","null","run_exp/static/images/Set 6_rs/166a.jpg","null","","","","","","learn","SR",""
"","html-keyboard-response","192","206154","0.0-192.0","""event"",""trial"",""time""
""fullscreenenter"",""0"",""5936""
","
","
","""event"",""trial"",""time""
""fullscreenenter"",""0"",""5936""
","
","null","<p></p>","null","","","","","","","",""
"","image","193","207232","0.0-193.0","""event"",""trial"",""time""
""fullscreenenter"",""0"",""5936""
","
","
","""event"",""trial"",""time""
""fullscreenenter"",""0"",""5936""
","
","1075.5999999996275","run_exp/static/images/Set 6_rs/055a.jpg","86","","","","","","learn","SL",""
"","show_choice","194","208159","0.0-194.0","""event"",""trial"",""time""
""fullscreenenter"",""0"",""5936""
","
","
","""event"",""trial"",""time""
""fullscreenenter"",""0"",""5936""
","
","null","run_exp/static/images/Set 6_rs/055a.jpg","null","","","","","","learn","SL",""
"","html-keyboard-response","195","208661","0.0-195.0","""event"",""trial"",""time""
""fullscreenenter"",""0"",""5936""
","
","
","""event"",""trial"",""time""
""fullscreenenter"",""0"",""5936""
","
","null","<p></p>","null","","","","","","","",""
"","test_intro","196","245629","0.0-196.0","""event"",""trial"",""time""
""fullscreenenter"",""0"",""5936""
","
","
","""event"",""trial"",""time""
""fullscreenenter"",""0"",""5936""
","
","null","run_exp/static/audio/clip_2_memory.m4a","null","","","","","<div class='center'><p>Now, lets see how much you remember about the items you just saw.  For each item, you need to indicate if it was <b>old</b> by pressing the <b>v</b> key, <b>similar</b> by pressing the <b>b</b> key, or <b>new</b> by pressing the <b>n</b> key.</p><p>Old refers to an item that you saw before in the indoor/outdoor game that you just played, new refers to an item you have <b>not</b> seen before within the indoor/outdoor game, and similar refers to an item that is similar to an item youve seen before but is not exactly the same. </p><p>Before we begin, lets go over some brief demonstrations to make sure you understand.</p></div>","","",""
"","html-keyboard-response","197","250436","0.0-197.0","""event"",""trial"",""time""
""fullscreenenter"",""0"",""5936""
","
","
","""event"",""trial"",""time""
""fullscreenenter"",""0"",""5936""
","
","4803.199999999721","<div class='center'><p>Now, lets see how much you remember about the items you just saw.  For each item, you need to indicate if it was <b>old</b> by pressing the <b>v</b> key, <b>similar</b> by pressing the <b>b</b> key, or <b>new</b> by pressing the <b>n</b> key.</p><p>Old refers to an item that you saw before in the indoor/outdoor game that you just played, new refers to an item you have <b>not</b> seen before within the indoor/outdoor game, and similar refers to an item that is similar to an item youve seen before but is not exactly the same. </p><p>Before we begin, lets go over some brief demonstrations to make sure you understand.</p><div><p><b>[Press the space bar to continue]</b></p></div>","32","","","","","","","",""
"","items","198","257941","0.0-198.0","""event"",""trial"",""time""
""fullscreenenter"",""0"",""5936""
","
","
","""event"",""trial"",""time""
""fullscreenenter"",""0"",""5936""
","
","null","run_exp/static/audio/clip_3_items.m4a","null","","","","","","","",""
"","mop","199","262446","0.0-199.0","""event"",""trial"",""time""
""fullscreenenter"",""0"",""5936""
","
","
","""event"",""trial"",""time""
""fullscreenenter"",""0"",""5936""
","
","null","run_exp/static/audio/clip_4_mop.m4a","null","","","","","","","",""
"","baseball","200","265955","0.0-200.0","""event"",""trial"",""time""
""fullscreenenter"",""0"",""5936""
","
","
","""event"",""trial"",""time""
""fullscreenenter"",""0"",""5936""
","
","null","run_exp/static/audio/clip_5_baseball.m4a","null","","","","","","","",""
"","trumpet","201","269458","0.0-201.0","""event"",""trial"",""time""
""fullscreenenter"",""0"",""5936""
","
","
","""event"",""trial"",""time""
""fullscreenenter"",""0"",""5936""
","
","null","run_exp/static/audio/clip_6_trumpet.m4a","null","","","","","","","",""
"","gummies","202","272966","0.0-202.0","""event"",""trial"",""time""
""fullscreenenter"",""0"",""5936""
","
","
","""event"",""trial"",""time""
""fullscreenenter"",""0"",""5936""
","
","null","run_exp/static/audio/clip_7_gummies.m4a","null","","","","","","","",""
"","osn","203","277475","0.0-203.0","""event"",""trial"",""time""
""fullscreenenter"",""0"",""5936""
","
","
","""event"",""trial"",""time""
""fullscreenenter"",""0"",""5936""
","
","null","run_exp/static/audio/clip_8_osn.m4a","null","","","","","","","",""
"","old_1","204","283980","0.0-204.0","""event"",""trial"",""time""
""fullscreenenter"",""0"",""5936""
","
","
","""event"",""trial"",""time""
""fullscreenenter"",""0"",""5936""
","
","null","run_exp/static/audio/clip_9_old_trumpet.m4a","null","","","","","","","",""
"","new_1","205","291488","0.0-205.0","""event"",""trial"",""time""
""fullscreenenter"",""0"",""5936""
","
","
","""event"",""trial"",""time""
""fullscreenenter"",""0"",""5936""
","
","null","run_exp/static/audio/clip_10_new_balloon.m4a","null","","","","","","","",""
"","similar_1a","206","295996","0.0-206.0","""event"",""trial"",""time""
""fullscreenenter"",""0"",""5936""
","
","
","""event"",""trial"",""time""
""fullscreenenter"",""0"",""5936""
","
","null","run_exp/static/audio/clip_11a_similar_mop.m4a","null","","","","","","","",""
"","similar_1b","207","302500","0.0-207.0","""event"",""trial"",""time""
""fullscreenenter"",""0"",""5936""
","
","
","""event"",""trial"",""time""
""fullscreenenter"",""0"",""5936""
","
","null","run_exp/static/audio/clip_11b_similar_mop.m4a","null","","","","","","","",""
"","new_2","208","306009","0.0-208.0","""event"",""trial"",""time""
""fullscreenenter"",""0"",""5936""
","
","
","""event"",""trial"",""time""
""fullscreenenter"",""0"",""5936""
","
","null","run_exp/static/audio/clip_12_new_stoplight.m4a","null","","","","","","","",""
"","old_2","209","309520","0.0-209.0","""event"",""trial"",""time""
""fullscreenenter"",""0"",""5936""
","
","
","""event"",""trial"",""time""
""fullscreenenter"",""0"",""5936""
","
","null","run_exp/static/audio/clip_13_old_baseball.m4a","null","","","","","","","",""
"","similar_2a","210","313029","0.0-210.0","""event"",""trial"",""time""
""fullscreenenter"",""0"",""5936""
","
","
","""event"",""trial"",""time""
""fullscreenenter"",""0"",""5936""
","
","null","run_exp/static/audio/clip_14a_similar_gummies.m4a","null","","","","","","","",""
"","similar_2b","211","320543","0.0-211.0","""event"",""trial"",""time""
""fullscreenenter"",""0"",""5936""
","
","
","""event"",""trial"",""time""
""fullscreenenter"",""0"",""5936""
","
","null","run_exp/static/audio/clip_14b_similar_gummies.m4a","null","","","","","","","",""
"","practice","212","362852","0.0-212.0","""event"",""trial"",""time""
""fullscreenenter"",""0"",""5936""
","
","
","""event"",""trial"",""time""
""fullscreenenter"",""0"",""5936""
","
","null","run_exp/static/audio/clip_15_practice.m4a","null","","","","","<div class='center'><p>Lets practice a little to make sure you understand the difference between new, similar, and old. Lets say you saw these three items in the indoor/outdoor game.</p><p> Try your best to remember these images because youll soon be tested on them in a practice game. In the practice game, youll be shown images and youll have to say if they are old (one of the three images belows), similar (similar to one of the images below but not exactly the same), or new (are not one of the images below nor similar to them).</p><p>Once you press the space bar youll be shown these images again but one at time. Then youll begin the practice game.</p><p><img src='run_exp/static/images/tutorial/test/three_indoor_outdoor.png' height='300'></p></div>","","",""
"","html-keyboard-response","213","364200","0.0-213.0","""event"",""trial"",""time""
""fullscreenenter"",""0"",""5936""
","
","
","""event"",""trial"",""time""
""fullscreenenter"",""0"",""5936""
","
","1339.7999999998137","<div class='center'><p>Lets practice a little to make sure you understand the difference between new, similar, and old. Lets say you saw these three items in the indoor/outdoor game.</p><p> Try your best to remember these images because youll soon be tested on them in a practice game. In the practice game, youll be shown images and youll have to say if they are old (one of the three images belows), similar (similar to one of the images below but not exactly the same), or new (are not one of the images below nor similar to them).</p><p>Once you press the space bar youll be shown these images again but one at time. Then youll begin the practice game.</p><p><img src='run_exp/static/images/tutorial/test/three_indoor_outdoor.png' height='300'></p><div><p><b>[Press the space bar to continue]</b></p></div>","32","","","","","","","",""
"","planet","214","366203","0.0-214.0","""event"",""trial"",""time""
""fullscreenenter"",""0"",""5936""
","
","
","""event"",""trial"",""time""
""fullscreenenter"",""0"",""5936""
","
","null","run_exp/static/images/tutorial/test/008a.jpg","null","","","","","","","",""
"","boot","215","368205","0.0-215.0","""event"",""trial"",""time""
""fullscreenenter"",""0"",""5936""
","
","
","""event"",""trial"",""time""
""fullscreenenter"",""0"",""5936""
","
","null","run_exp/static/images/tutorial/test/011a.jpg","null","","","","","","","",""
"","lemon","216","370207","0.0-216.0","""event"",""trial"",""time""
""fullscreenenter"",""0"",""5936""
","
","
","""event"",""trial"",""time""
""fullscreenenter"",""0"",""5936""
","
","null","run_exp/static/images/tutorial/test/018a.jpg","null","","","","","","","",""
"","practice_q1","217","381439","0.0-217.0","""event"",""trial"",""time""
""fullscreenenter"",""0"",""5936""
","
","
","""event"",""trial"",""time""
""fullscreenenter"",""0"",""5936""
","
","11228.30000000028","run_exp/static/audio/clip_16_practice_question.m4a","78","","","","","","","",""
"","correct","218","383598","0.0-218.0-0.0","""event"",""trial"",""time""
""fullscreenenter"",""0"",""5936""
","
","
","""event"",""trial"",""time""
""fullscreenenter"",""0"",""5936""
","
","null","run_exp/static/audio/clip_17_correct.m4a","null","","","","","<div class='center'><p>That's correct!</p></div>","","",""
"","html-keyboard-response","219","385704","0.0-218.0-1.0","""event"",""trial"",""time""
""fullscreenenter"",""0"",""5936""
","
","
","""event"",""trial"",""time""
""fullscreenenter"",""0"",""5936""
","
","2104.2000000001863","<div class='center'><p>That's correct!</p><div><p><b>[Press the space bar to continue]</b></p></div>","32","","","","","","","",""
"","practice_q2","220","391078","0.0-218.0-2.0","""event"",""trial"",""time""
""fullscreenenter"",""0"",""5936""
","
","
","""event"",""trial"",""time""
""fullscreenenter"",""0"",""5936""
","
","5368.200000000186","run_exp/static/audio/clip_16_practice_question.m4a","86","","","","","","","",""
"","correct","221","393161","0.0-219.0-0.0","""event"",""trial"",""time""
""fullscreenenter"",""0"",""5936""
","
","
","""event"",""trial"",""time""
""fullscreenenter"",""0"",""5936""
","
","null","run_exp/static/audio/clip_17_correct.m4a","null","","","","","<div class='center'><p>That's correct!</p></div>","","",""
"","html-keyboard-response","222","393530","0.0-219.0-1.0","""event"",""trial"",""time""
""fullscreenenter"",""0"",""5936""
","
","
","""event"",""trial"",""time""
""fullscreenenter"",""0"",""5936""
","
","365.39999999990687","<div class='center'><p>That's correct!</p><div><p><b>[Press the space bar to continue]</b></p></div>","32","","","","","","","",""
"","practice_q3","223","396330","0.0-219.0-2.0","""event"",""trial"",""time""
""fullscreenenter"",""0"",""5936""
","
","
","""event"",""trial"",""time""
""fullscreenenter"",""0"",""5936""
","
","2793.399999999907","run_exp/static/audio/clip_16_practice_question.m4a","86","","","","","","","",""
"","incorrect_q3","224","399223","0.0-220.0-0.0","""event"",""trial"",""time""
""fullscreenenter"",""0"",""5936""
","
","
","""event"",""trial"",""time""
""fullscreenenter"",""0"",""5936""
","
","null","run_exp/static/audio/clip_20_incorrect_similar.m4a","null","","","","","<div class='center'><p>Thats incorrect. Its similar.</p><p><img src='run_exp/static/images/tutorial/test/boot_comparison.png' height='300'></p></div>","","",""
"","html-keyboard-response","225","399771","0.0-220.0-1.0","""event"",""trial"",""time""
""fullscreenenter"",""0"",""5936""
","
","
","""event"",""trial"",""time""
""fullscreenenter"",""0"",""5936""
","
","539.8000000002794","<div class='center'><p>Thats incorrect. Its similar.</p><p><img src='run_exp/static/images/tutorial/test/boot_comparison.png' height='300'></p><div><p><b>[Press the space bar to continue]</b></p></div>","32","","","","","","","",""
"","repeat","226","404686","0.0-221.0-0.0","""event"",""trial"",""time""
""fullscreenenter"",""0"",""5936""
","
","
","""event"",""trial"",""time""
""fullscreenenter"",""0"",""5936""
","
","null","run_exp/static/audio/clip_21_practice_again.m4a","null","","","","","<div class='center'><p>Oops. you missed at least one of these questions. Let's try practicing again. </p></div>","","",""
"","html-keyboard-response","227","405772","0.0-221.0-1.0","""event"",""trial"",""time""
""fullscreenenter"",""0"",""5936""
","
","
","""event"",""trial"",""time""
""fullscreenenter"",""0"",""5936""
","
","1082.1999999997206","<div class='center'><p>Oops. you missed at least one of these questions. Let's try practicing again. </p><div><p><b>[Press the space bar to continue]</b></p></div>","32","","","","","","","",""
"","practice_q1","228","410202","0.0-221.0-2.0","""event"",""trial"",""time""
""fullscreenenter"",""0"",""5936""
","
","
","""event"",""trial"",""time""
""fullscreenenter"",""0"",""5936""
","
","4424.5","run_exp/static/audio/clip_16_practice_question.m4a","78","","","","","","","",""
"","correct","229","412285","0.0-222.0-0.0","""event"",""trial"",""time""
""fullscreenenter"",""0"",""5936""
","
","
","""event"",""trial"",""time""
""fullscreenenter"",""0"",""5936""
","
","null","run_exp/static/audio/clip_17_correct.m4a","null","","","","","<div class='center'><p>That's correct!</p></div>","","",""
"","html-keyboard-response","230","412734","0.0-222.0-1.0","""event"",""trial"",""time""
""fullscreenenter"",""0"",""5936""
","
","
","""event"",""trial"",""time""
""fullscreenenter"",""0"",""5936""
","
","445.09999999962747","<div class='center'><p>That's correct!</p><div><p><b>[Press the space bar to continue]</b></p></div>","32","","","","","","","",""
"","practice_q2","231","415330","0.0-222.0-2.0","""event"",""trial"",""time""
""fullscreenenter"",""0"",""5936""
","
","
","""event"",""trial"",""time""
""fullscreenenter"",""0"",""5936""
","
","2591.7999999998137","run_exp/static/audio/clip_16_practice_question.m4a","86","","","","","","","",""
"","correct","232","417407","0.0-223.0-0.0","""event"",""trial"",""time""
""fullscreenenter"",""0"",""5936""
","
","
","""event"",""trial"",""time""
""fullscreenenter"",""0"",""5936""
","
","null","run_exp/static/audio/clip_17_correct.m4a","null","","","","","<div class='center'><p>That's correct!</p></div>","","",""
"","html-keyboard-response","233","417807","0.0-223.0-1.0","""event"",""trial"",""time""
""fullscreenenter"",""0"",""5936""
","
","
","""event"",""trial"",""time""
""fullscreenenter"",""0"",""5936""
","
","397","<div class='center'><p>That's correct!</p><div><p><b>[Press the space bar to continue]</b></p></div>","32","","","","","","","",""
"","practice_q3","234","419546","0.0-223.0-2.0","""event"",""trial"",""time""
""fullscreenenter"",""0"",""5936""
","
","
","""event"",""trial"",""time""
""fullscreenenter"",""0"",""5936""
","
","1731.8999999999069","run_exp/static/audio/clip_16_practice_question.m4a","66","","","","","","","",""
"","correct","235","422188","0.0-224.0-0.0","""event"",""trial"",""time""
""fullscreenenter"",""0"",""5936""
","
","
","""event"",""trial"",""time""
""fullscreenenter"",""0"",""5936""
","
","null","run_exp/static/audio/clip_17_correct.m4a","null","","","","","<div class='center'><p>That's correct!</p></div>","","",""
"","html-keyboard-response","236","422887","0.0-224.0-1.0","""event"",""trial"",""time""
""fullscreenenter"",""0"",""5936""
","
","
","""event"",""trial"",""time""
""fullscreenenter"",""0"",""5936""
","
","695.3000000002794","<div class='center'><p>That's correct!</p><div><p><b>[Press the space bar to continue]</b></p></div>","32","","","","","","","",""
"","begin_text","237","441568","0.0-225.0-0.0","""event"",""trial"",""time""
""fullscreenenter"",""0"",""5936""
","
","
","""event"",""trial"",""time""
""fullscreenenter"",""0"",""5936""
","
","null","run_exp/static/audio/clip_22_begin_test.m4a","null","","","","","<div class='center'><p>On to the real game where well test your memory of items from the indoor/outdoor game. For each item, you need to indicate if the item is <b>old</b> by pressing the <b>v</b> key, <b>similar</b> by pressing the <b>b</b> key, or <b>new</b> by pressing the <b>n</b> key. </p></div>","","",""
"","html-keyboard-response","238","442173","0.0-225.0-1.0","""event"",""trial"",""time""
""fullscreenenter"",""0"",""5936""
","
","
","""event"",""trial"",""time""
""fullscreenenter"",""0"",""5936""
","
","594.1000000000931","<div class='center'><p>On to the real game where well test your memory of items from the indoor/outdoor game. For each item, you need to indicate if the item is <b>old</b> by pressing the <b>v</b> key, <b>similar</b> by pressing the <b>b</b> key, or <b>new</b> by pressing the <b>n</b> key. </p><div><p><b>[Press the space bar to continue]</b></p></div>","32","","","","","","","",""
"","image","239","444314","0.0-226.0-0.0","""event"",""trial"",""time""
""fullscreenenter"",""0"",""5936""
","
","
","""event"",""trial"",""time""
""fullscreenenter"",""0"",""5936""
","
","2138","run_exp/static/images/Set 6_rs/149a.jpg","78","","","","","","test","TF","1"
"","show_choice","240","444823","0.0-226.0-1.0","""event"",""trial"",""time""
""fullscreenenter"",""0"",""5936""
","
","
","""event"",""trial"",""time""
""fullscreenenter"",""0"",""5936""
","
","null","run_exp/static/images/Set 6_rs/149a.jpg","null","","","","","","test","TF",""
"","html-keyboard-response","241","445326","0.0-226.0-2.0","""event"",""trial"",""time""
""fullscreenenter"",""0"",""5936""
","
","
","""event"",""trial"",""time""
""fullscreenenter"",""0"",""5936""
","
","null","<p></p>","null","","","","","","","",""
"","image","242","448329","0.0-227.0-0.0","""event"",""trial"",""time""
""fullscreenenter"",""0"",""5936""
","
","
","""event"",""trial"",""time""
""fullscreenenter"",""0"",""5936""
","
","null","run_exp/static/images/Set 6_rs/169a.jpg","null","","","","","","test","TR","4"
"","show_choice","243","448833","0.0-227.0-1.0","""event"",""trial"",""time""
""fullscreenenter"",""0"",""5936""
","
","
","""event"",""trial"",""time""
""fullscreenenter"",""0"",""5936""
","
","null","run_exp/static/images/Set 6_rs/169a.jpg","null","","","","","","test","TR",""
"","html-keyboard-response","244","449335","0.0-227.0-2.0","""event"",""trial"",""time""
""fullscreenenter"",""0"",""5936""
","
","
","""event"",""trial"",""time""
""fullscreenenter"",""0"",""5936""
","
","null","<p></p>","null","","","","","","","",""
"","image","245","450909","0.0-228.0-0.0","""event"",""trial"",""time""
""fullscreenenter"",""0"",""5936""
","
","
","""event"",""trial"",""time""
""fullscreenenter"",""0"",""5936""
","
","1570","run_exp/static/images/Set 6_rs/085b.jpg","66","","","","","","test","TL","1"
"","show_choice","246","451414","0.0-228.0-1.0","""event"",""trial"",""time""
""fullscreenenter"",""0"",""5936""
","
","
","""event"",""trial"",""time""
""fullscreenenter"",""0"",""5936""
","
","null","run_exp/static/images/Set 6_rs/085b.jpg","null","","","","","","test","TL",""
"","html-keyboard-response","247","451915","0.0-228.0-2.0","""event"",""trial"",""time""
""fullscreenenter"",""0"",""5936""
","
","
","""event"",""trial"",""time""
""fullscreenenter"",""0"",""5936""
","
","null","<p></p>","null","","","","","","","",""
"","image","248","453680","0.0-229.0-0.0","""event"",""trial"",""time""
""fullscreenenter"",""0"",""5936""
","
","
","""event"",""trial"",""time""
""fullscreenenter"",""0"",""5936""
","
","1761.7000000001863","run_exp/static/images/Set 6_rs/172a.jpg","66","","","","","","test","TR","1"
"","show_choice","249","454184","0.0-229.0-1.0","""event"",""trial"",""time""
""fullscreenenter"",""0"",""5936""
","
","
","""event"",""trial"",""time""
""fullscreenenter"",""0"",""5936""
","
","null","run_exp/static/images/Set 6_rs/172a.jpg","null","","","","","","test","TR",""
"","html-keyboard-response","250","454688","0.0-229.0-2.0","""event"",""trial"",""time""
""fullscreenenter"",""0"",""5936""
","
","
","""event"",""trial"",""time""
""fullscreenenter"",""0"",""5936""
","
","null","<p></p>","null","","","","","","","",""
"","image","251","456471","0.0-230.0-0.0","""event"",""trial"",""time""
""fullscreenenter"",""0"",""5936""
","
","
","""event"",""trial"",""time""
""fullscreenenter"",""0"",""5936""
","
","1777.6000000000931","run_exp/static/images/Set 6_rs/117b.jpg","86","","","","","","test","TL","5"
"","show_choice","252","456976","0.0-230.0-1.0","""event"",""trial"",""time""
""fullscreenenter"",""0"",""5936""
","
","
","""event"",""trial"",""time""
""fullscreenenter"",""0"",""5936""
","
","null","run_exp/static/images/Set 6_rs/117b.jpg","null","","","","","","test","TL",""
"","html-keyboard-response","253","457478","0.0-230.0-2.0","""event"",""trial"",""time""
""fullscreenenter"",""0"",""5936""
","
","
","""event"",""trial"",""time""
""fullscreenenter"",""0"",""5936""
","
","null","<p></p>","null","","","","","","","",""
"","image","254","458628","0.0-231.0-0.0","""event"",""trial"",""time""
""fullscreenenter"",""0"",""5936""
","
","
","""event"",""trial"",""time""
""fullscreenenter"",""0"",""5936""
","
","1146.1999999997206","run_exp/static/images/Set 6_rs/016b.jpg","86","","","","","","test","TL","1"
"","show_choice","255","459131","0.0-231.0-1.0","""event"",""trial"",""time""
""fullscreenenter"",""0"",""5936""
","
","
","""event"",""trial"",""time""
""fullscreenenter"",""0"",""5936""
","
","null","run_exp/static/images/Set 6_rs/016b.jpg","null","","","","","","test","TL",""
"","html-keyboard-response","256","459633","0.0-231.0-2.0","""event"",""trial"",""time""
""fullscreenenter"",""0"",""5936""
","
","
","""event"",""trial"",""time""
""fullscreenenter"",""0"",""5936""
","
","null","<p></p>","null","","","","","","","",""
"","image","257","461329","0.0-232.0-0.0","""event"",""trial"",""time""
""fullscreenenter"",""0"",""5936""
","
","
","""event"",""trial"",""time""
""fullscreenenter"",""0"",""5936""
","
","1687.7000000001863","run_exp/static/images/Set 6_rs/138b.jpg","66","","","","","","test","TL","1"
"","show_choice","258","461834","0.0-232.0-1.0","""event"",""trial"",""time""
""fullscreenenter"",""0"",""5936""
","
","
","""event"",""trial"",""time""
""fullscreenenter"",""0"",""5936""
","
","null","run_exp/static/images/Set 6_rs/138b.jpg","null","","","","","","test","TL",""
"","html-keyboard-response","259","462337","0.0-232.0-2.0","""event"",""trial"",""time""
""fullscreenenter"",""0"",""5936""
","
","
","""event"",""trial"",""time""
""fullscreenenter"",""0"",""5936""
","
","null","<p></p>","null","","","","","","","",""
"","image","260","463756","0.0-233.0-0.0","""event"",""trial"",""time""
""fullscreenenter"",""0"",""5936""
","
","
","""event"",""trial"",""time""
""fullscreenenter"",""0"",""5936""
","
","1413.1000000000931","run_exp/static/images/Set 6_rs/187a.jpg","86","","","","","","test","TR","3"
"","show_choice","261","464259","0.0-233.0-1.0","""event"",""trial"",""time""
""fullscreenenter"",""0"",""5936""
","
","
","""event"",""trial"",""time""
""fullscreenenter"",""0"",""5936""
","
","null","run_exp/static/images/Set 6_rs/187a.jpg","null","","","","","","test","TR",""
"","html-keyboard-response","262","464763","0.0-233.0-2.0","""event"",""trial"",""time""
""fullscreenenter"",""0"",""5936""
","
","
","""event"",""trial"",""time""
""fullscreenenter"",""0"",""5936""
","
","null","<p></p>","null","","","","","","","",""
"","image","263","465754","0.0-234.0-0.0","""event"",""trial"",""time""
""fullscreenenter"",""0"",""5936""
","
","
","""event"",""trial"",""time""
""fullscreenenter"",""0"",""5936""
","
","983.5999999996275","run_exp/static/images/Set 6_rs/154a.jpg","78","","","","","","test","TR","3"
"","show_choice","264","466259","0.0-234.0-1.0","""event"",""trial"",""time""
""fullscreenenter"",""0"",""5936""
","
","
","""event"",""trial"",""time""
""fullscreenenter"",""0"",""5936""
","
","null","run_exp/static/images/Set 6_rs/154a.jpg","null","","","","","","test","TR",""
"","html-keyboard-response","265","466760","0.0-234.0-2.0","""event"",""trial"",""time""
""fullscreenenter"",""0"",""5936""
","
","
","""event"",""trial"",""time""
""fullscreenenter"",""0"",""5936""
","
","null","<p></p>","null","","","","","","","",""
"","image","266","468056","0.0-235.0-0.0","""event"",""trial"",""time""
""fullscreenenter"",""0"",""5936""
","
","
","""event"",""trial"",""time""
""fullscreenenter"",""0"",""5936""
","
","1289.5","run_exp/static/images/Set 6_rs/025b.jpg","66","","","","","","test","TL","5"
"","show_choice","267","468562","0.0-235.0-1.0","""event"",""trial"",""time""
""fullscreenenter"",""0"",""5936""
","
","
","""event"",""trial"",""time""
""fullscreenenter"",""0"",""5936""
","
","null","run_exp/static/images/Set 6_rs/025b.jpg","null","","","","","","test","TL",""
"","html-keyboard-response","268","469064","0.0-235.0-2.0","""event"",""trial"",""time""
""fullscreenenter"",""0"",""5936""
","
","
","""event"",""trial"",""time""
""fullscreenenter"",""0"",""5936""
","
","null","<p></p>","null","","","","","","","",""
"","image","269","470301","0.0-236.0-0.0","""event"",""trial"",""time""
""fullscreenenter"",""0"",""5936""
","
","
","""event"",""trial"",""time""
""fullscreenenter"",""0"",""5936""
","
","1230.7999999998137","run_exp/static/images/Set 6_rs/111b.jpg","66","","","","","","test","TL","3"
"","show_choice","270","470807","0.0-236.0-1.0","""event"",""trial"",""time""
""fullscreenenter"",""0"",""5936""
","
","
","""event"",""trial"",""time""
""fullscreenenter"",""0"",""5936""
","
","null","run_exp/static/images/Set 6_rs/111b.jpg","null","","","","","","test","TL",""
"","html-keyboard-response","271","471311","0.0-236.0-2.0","""event"",""trial"",""time""
""fullscreenenter"",""0"",""5936""
","
","
","""event"",""trial"",""time""
""fullscreenenter"",""0"",""5936""
","
","null","<p></p>","null","","","","","","","",""
"","image","272","472244","0.0-237.0-0.0","""event"",""trial"",""time""
""fullscreenenter"",""0"",""5936""
","
","
","""event"",""trial"",""time""
""fullscreenenter"",""0"",""5936""
","
","924","run_exp/static/images/Set 6_rs/121a.jpg","66","","","","","","test","TR","4"
"","show_choice","273","472748","0.0-237.0-1.0","""event"",""trial"",""time""
""fullscreenenter"",""0"",""5936""
","
","
","""event"",""trial"",""time""
""fullscreenenter"",""0"",""5936""
","
","null","run_exp/static/images/Set 6_rs/121a.jpg","null","","","","","","test","TR",""
"","html-keyboard-response","274","473251","0.0-237.0-2.0","""event"",""trial"",""time""
""fullscreenenter"",""0"",""5936""
","
","
","""event"",""trial"",""time""
""fullscreenenter"",""0"",""5936""
","
","null","<p></p>","null","","","","","","","",""
"","image","275","474472","0.0-238.0-0.0","""event"",""trial"",""time""
""fullscreenenter"",""0"",""5936""
","
","
","""event"",""trial"",""time""
""fullscreenenter"",""0"",""5936""
","
","1213.1000000000931","run_exp/static/images/Set 6_rs/155a.jpg","78","","","","","","test","TF","4"
"","show_choice","276","474978","0.0-238.0-1.0","""event"",""trial"",""time""
""fullscreenenter"",""0"",""5936""
","
","
","""event"",""trial"",""time""
""fullscreenenter"",""0"",""5936""
","
","null","run_exp/static/images/Set 6_rs/155a.jpg","null","","","","","","test","TF",""
"","html-keyboard-response","277","475482","0.0-238.0-2.0","""event"",""trial"",""time""
""fullscreenenter"",""0"",""5936""
","
","
","""event"",""trial"",""time""
""fullscreenenter"",""0"",""5936""
","
","null","<p></p>","null","","","","","","","",""
"","image","278","476735","0.0-239.0-0.0","""event"",""trial"",""time""
""fullscreenenter"",""0"",""5936""
","
","
","""event"",""trial"",""time""
""fullscreenenter"",""0"",""5936""
","
","1249.1000000000931","run_exp/static/images/Set 6_rs/014b.jpg","66","","","","","","test","TL","5"
"","show_choice","279","477240","0.0-239.0-1.0","""event"",""trial"",""time""
""fullscreenenter"",""0"",""5936""
","
","
","""event"",""trial"",""time""
""fullscreenenter"",""0"",""5936""
","
","null","run_exp/static/images/Set 6_rs/014b.jpg","null","","","","","","test","TL",""
"","html-keyboard-response","280","477744","0.0-239.0-2.0","""event"",""trial"",""time""
""fullscreenenter"",""0"",""5936""
","
","
","""event"",""trial"",""time""
""fullscreenenter"",""0"",""5936""
","
","null","<p></p>","null","","","","","","","",""
"","image","281","478868","0.0-240.0-0.0","""event"",""trial"",""time""
""fullscreenenter"",""0"",""5936""
","
","
","""event"",""trial"",""time""
""fullscreenenter"",""0"",""5936""
","
","1119.8999999999069","run_exp/static/images/Set 6_rs/064a.jpg","86","","","","","","test","TR","5"
"","show_choice","282","479373","0.0-240.0-1.0","""event"",""trial"",""time""
""fullscreenenter"",""0"",""5936""
","
","
","""event"",""trial"",""time""
""fullscreenenter"",""0"",""5936""
","
","null","run_exp/static/images/Set 6_rs/064a.jpg","null","","","","","","test","TR",""
"","html-keyboard-response","283","479876","0.0-240.0-2.0","""event"",""trial"",""time""
""fullscreenenter"",""0"",""5936""
","
","
","""event"",""trial"",""time""
""fullscreenenter"",""0"",""5936""
","
","null","<p></p>","null","","","","","","","",""
"","image","284","480775","0.0-241.0-0.0","""event"",""trial"",""time""
""fullscreenenter"",""0"",""5936""
","
","
","""event"",""trial"",""time""
""fullscreenenter"",""0"",""5936""
","
","894.2000000001863","run_exp/static/images/Set 6_rs/191b.jpg","78","","","","","","test","TL","2"
"","show_choice","285","481281","0.0-241.0-1.0","""event"",""trial"",""time""
""fullscreenenter"",""0"",""5936""
","
","
","""event"",""trial"",""time""
""fullscreenenter"",""0"",""5936""
","
","null","run_exp/static/images/Set 6_rs/191b.jpg","null","","","","","","test","TL",""
"","html-keyboard-response","286","481783","0.0-241.0-2.0","""event"",""trial"",""time""
""fullscreenenter"",""0"",""5936""
","
","
","""event"",""trial"",""time""
""fullscreenenter"",""0"",""5936""
","
","null","<p></p>","null","","","","","","","",""
"","image","287","483067","0.0-242.0-0.0","""event"",""trial"",""time""
""fullscreenenter"",""0"",""5936""
","
","
","""event"",""trial"",""time""
""fullscreenenter"",""0"",""5936""
","
","1280.0999999996275","run_exp/static/images/Set 6_rs/097a.jpg","78","","","","","","test","TF","5"
"","show_choice","288","483573","0.0-242.0-1.0","""event"",""trial"",""time""
""fullscreenenter"",""0"",""5936""
","
","
","""event"",""trial"",""time""
""fullscreenenter"",""0"",""5936""
","
","null","run_exp/static/images/Set 6_rs/097a.jpg","null","","","","","","test","TF",""
"","html-keyboard-response","289","484077","0.0-242.0-2.0","""event"",""trial"",""time""
""fullscreenenter"",""0"",""5936""
","
","
","""event"",""trial"",""time""
""fullscreenenter"",""0"",""5936""
","
","null","<p></p>","null","","","","","","","",""
"","image","290","485024","0.0-243.0-0.0","""event"",""trial"",""time""
""fullscreenenter"",""0"",""5936""
","
","
","""event"",""trial"",""time""
""fullscreenenter"",""0"",""5936""
","
","942.3999999999069","run_exp/static/images/Set 6_rs/021a.jpg","78","","","","","","test","TF","2"
"","show_choice","291","485530","0.0-243.0-1.0","""event"",""trial"",""time""
""fullscreenenter"",""0"",""5936""
","
","
","""event"",""trial"",""time""
""fullscreenenter"",""0"",""5936""
","
","null","run_exp/static/images/Set 6_rs/021a.jpg","null","","","","","","test","TF",""
"","html-keyboard-response","292","486035","0.0-243.0-2.0","""event"",""trial"",""time""
""fullscreenenter"",""0"",""5936""
","
","
","""event"",""trial"",""time""
""fullscreenenter"",""0"",""5936""
","
","null","<p></p>","null","","","","","","","",""
"","image","293","487188","0.0-244.0-0.0","""event"",""trial"",""time""
""fullscreenenter"",""0"",""5936""
","
","
","""event"",""trial"",""time""
""fullscreenenter"",""0"",""5936""
","
","1143.2000000001863","run_exp/static/images/Set 6_rs/095b.jpg","78","","","","","","test","TL","5"
"","show_choice","294","487693","0.0-244.0-1.0","""event"",""trial"",""time""
""fullscreenenter"",""0"",""5936""
","
","
","""event"",""trial"",""time""
""fullscreenenter"",""0"",""5936""
","
","null","run_exp/static/images/Set 6_rs/095b.jpg","null","","","","","","test","TL",""
"","html-keyboard-response","295","488196","0.0-244.0-2.0","""event"",""trial"",""time""
""fullscreenenter"",""0"",""5936""
","
","
","""event"",""trial"",""time""
""fullscreenenter"",""0"",""5936""
","
","null","<p></p>","null","","","","","","","",""
"","image","296","489070","0.0-245.0-0.0","""event"",""trial"",""time""
""fullscreenenter"",""0"",""5936""
","
","
","""event"",""trial"",""time""
""fullscreenenter"",""0"",""5936""
","
","869.9000000003725","run_exp/static/images/Set 6_rs/015a.jpg","78","","","","","","test","TF","4"
"","show_choice","297","489574","0.0-245.0-1.0","""event"",""trial"",""time""
""fullscreenenter"",""0"",""5936""
","
","
","""event"",""trial"",""time""
""fullscreenenter"",""0"",""5936""
","
","null","run_exp/static/images/Set 6_rs/015a.jpg","null","","","","","","test","TF",""
"","html-keyboard-response","298","490078","0.0-245.0-2.0","""event"",""trial"",""time""
""fullscreenenter"",""0"",""5936""
","
","
","""event"",""trial"",""time""
""fullscreenenter"",""0"",""5936""
","
","null","<p></p>","null","","","","","","","",""
"","image","299","491596","0.0-246.0-0.0","""event"",""trial"",""time""
""fullscreenenter"",""0"",""5936""
","
","
","""event"",""trial"",""time""
""fullscreenenter"",""0"",""5936""
","
","1509.7000000001863","run_exp/static/images/Set 6_rs/077a.jpg","86","","","","","","test","TF","3"
"","show_choice","300","492103","0.0-246.0-1.0","""event"",""trial"",""time""
""fullscreenenter"",""0"",""5936""
","
","
","""event"",""trial"",""time""
""fullscreenenter"",""0"",""5936""
","
","null","run_exp/static/images/Set 6_rs/077a.jpg","null","","","","","","test","TF",""
"","html-keyboard-response","301","492606","0.0-246.0-2.0","""event"",""trial"",""time""
""fullscreenenter"",""0"",""5936""
","
","
","""event"",""trial"",""time""
""fullscreenenter"",""0"",""5936""
","
","null","<p></p>","null","","","","","","","",""
"","image","302","494239","0.0-247.0-0.0","""event"",""trial"",""time""
""fullscreenenter"",""0"",""5936""
","
","
","""event"",""trial"",""time""
""fullscreenenter"",""0"",""5936""
","
","1628.3000000002794","run_exp/static/images/Set 6_rs/074b.jpg","66","","","","","","test","TL","4"
"","show_choice","303","494748","0.0-247.0-1.0","""event"",""trial"",""time""
""fullscreenenter"",""0"",""5936""
","
","
","""event"",""trial"",""time""
""fullscreenenter"",""0"",""5936""
","
","null","run_exp/static/images/Set 6_rs/074b.jpg","null","","","","","","test","TL",""
"","html-keyboard-response","304","495252","0.0-247.0-2.0","""event"",""trial"",""time""
""fullscreenenter"",""0"",""5936""
","
","
","""event"",""trial"",""time""
""fullscreenenter"",""0"",""5936""
","
","null","<p></p>","null","","","","","","","",""
"","image","305","496954","0.0-248.0-0.0","""event"",""trial"",""time""
""fullscreenenter"",""0"",""5936""
","
","
","""event"",""trial"",""time""
""fullscreenenter"",""0"",""5936""
","
","1697.5","run_exp/static/images/Set 6_rs/090a.jpg","66","","","","","","test","TF","5"
"","show_choice","306","497458","0.0-248.0-1.0","""event"",""trial"",""time""
""fullscreenenter"",""0"",""5936""
","
","
","""event"",""trial"",""time""
""fullscreenenter"",""0"",""5936""
","
","null","run_exp/static/images/Set 6_rs/090a.jpg","null","","","","","","test","TF",""
"","html-keyboard-response","307","497960","0.0-248.0-2.0","""event"",""trial"",""time""
""fullscreenenter"",""0"",""5936""
","
","
","""event"",""trial"",""time""
""fullscreenenter"",""0"",""5936""
","
","null","<p></p>","null","","","","","","","",""
"","image","308","498840","0.0-249.0-0.0","""event"",""trial"",""time""
""fullscreenenter"",""0"",""5936""
","
","
","""event"",""trial"",""time""
""fullscreenenter"",""0"",""5936""
","
","876.8000000002794","run_exp/static/images/Set 6_rs/062b.jpg","66","","","","","","test","TL","1"
"","show_choice","309","499347","0.0-249.0-1.0","""event"",""trial"",""time""
""fullscreenenter"",""0"",""5936""
","
","
","""event"",""trial"",""time""
""fullscreenenter"",""0"",""5936""
","
","null","run_exp/static/images/Set 6_rs/062b.jpg","null","","","","","","test","TL",""
"","html-keyboard-response","310","499850","0.0-249.0-2.0","""event"",""trial"",""time""
""fullscreenenter"",""0"",""5936""
","
","
","""event"",""trial"",""time""
""fullscreenenter"",""0"",""5936""
","
","null","<p></p>","null","","","","","","","",""
"","image","311","501584","0.0-250.0-0.0","""event"",""trial"",""time""
""fullscreenenter"",""0"",""5936""
","
","
","""event"",""trial"",""time""
""fullscreenenter"",""0"",""5936""
","
","1729.2000000001863","run_exp/static/images/Set 6_rs/190a.jpg","78","","","","","","test","TF","3"
"","show_choice","312","502091","0.0-250.0-1.0","""event"",""trial"",""time""
""fullscreenenter"",""0"",""5936""
","
","
","""event"",""trial"",""time""
""fullscreenenter"",""0"",""5936""
","
","null","run_exp/static/images/Set 6_rs/190a.jpg","null","","","","","","test","TF",""
"","html-keyboard-response","313","502595","0.0-250.0-2.0","""event"",""trial"",""time""
""fullscreenenter"",""0"",""5936""
","
","
","""event"",""trial"",""time""
""fullscreenenter"",""0"",""5936""
","
","null","<p></p>","null","","","","","","","",""
"","image","314","503853","0.0-251.0-0.0","""event"",""trial"",""time""
""fullscreenenter"",""0"",""5936""
","
","
","""event"",""trial"",""time""
""fullscreenenter"",""0"",""5936""
","
","1253.8999999999069","run_exp/static/images/Set 6_rs/070a.jpg","86","","","","","","test","TR","2"
"","show_choice","315","504361","0.0-251.0-1.0","""event"",""trial"",""time""
""fullscreenenter"",""0"",""5936""
","
","
","""event"",""trial"",""time""
""fullscreenenter"",""0"",""5936""
","
","null","run_exp/static/images/Set 6_rs/070a.jpg","null","","","","","","test","TR",""
"","html-keyboard-response","316","504865","0.0-251.0-2.0","""event"",""trial"",""time""
""fullscreenenter"",""0"",""5936""
","
","
","""event"",""trial"",""time""
""fullscreenenter"",""0"",""5936""
","
","null","<p></p>","null","","","","","","","",""
"","image","317","507130","0.0-252.0-0.0","""event"",""trial"",""time""
""fullscreenenter"",""0"",""5936""
","
","
","""event"",""trial"",""time""
""fullscreenenter"",""0"",""5936""
","
","2259.9000000003725","run_exp/static/images/Set 6_rs/089b.jpg","66","","","","","","test","TL","4"
"","show_choice","318","507637","0.0-252.0-1.0","""event"",""trial"",""time""
""fullscreenenter"",""0"",""5936""
","
","
","""event"",""trial"",""time""
""fullscreenenter"",""0"",""5936""
","
","null","run_exp/static/images/Set 6_rs/089b.jpg","null","","","","","","test","TL",""
"","html-keyboard-response","319","508141","0.0-252.0-2.0","""event"",""trial"",""time""
""fullscreenenter"",""0"",""5936""
","
","
","""event"",""trial"",""time""
""fullscreenenter"",""0"",""5936""
","
","null","<p></p>","null","","","","","","","",""
"","image","320","510514","0.0-253.0-0.0","""event"",""trial"",""time""
""fullscreenenter"",""0"",""5936""
","
","
","""event"",""trial"",""time""
""fullscreenenter"",""0"",""5936""
","
","2368.2000000001863","run_exp/static/images/Set 6_rs/168b.jpg","78","","","","","","test","TL","3"
"","show_choice","321","511021","0.0-253.0-1.0","""event"",""trial"",""time""
""fullscreenenter"",""0"",""5936""
","
","
","""event"",""trial"",""time""
""fullscreenenter"",""0"",""5936""
","
","null","run_exp/static/images/Set 6_rs/168b.jpg","null","","","","","","test","TL",""
"","html-keyboard-response","322","511524","0.0-253.0-2.0","""event"",""trial"",""time""
""fullscreenenter"",""0"",""5936""
","
","
","""event"",""trial"",""time""
""fullscreenenter"",""0"",""5936""
","
","null","<p></p>","null","","","","","","","",""
"","image","323","512900","0.0-254.0-0.0","""event"",""trial"",""time""
""fullscreenenter"",""0"",""5936""
","
","
","""event"",""trial"",""time""
""fullscreenenter"",""0"",""5936""
","
","1370","run_exp/static/images/Set 6_rs/170a.jpg","86","","","","","","test","TF","2"
"","show_choice","324","513406","0.0-254.0-1.0","""event"",""trial"",""time""
""fullscreenenter"",""0"",""5936""
","
","
","""event"",""trial"",""time""
""fullscreenenter"",""0"",""5936""
","
","null","run_exp/static/images/Set 6_rs/170a.jpg","null","","","","","","test","TF",""
"","html-keyboard-response","325","513908","0.0-254.0-2.0","""event"",""trial"",""time""
""fullscreenenter"",""0"",""5936""
","
","
","""event"",""trial"",""time""
""fullscreenenter"",""0"",""5936""
","
","null","<p></p>","null","","","","","","","",""
"","image","326","514969","0.0-255.0-0.0","""event"",""trial"",""time""
""fullscreenenter"",""0"",""5936""
","
","
","""event"",""trial"",""time""
""fullscreenenter"",""0"",""5936""
","
","1057.2000000001863","run_exp/static/images/Set 6_rs/005a.jpg","78","","","","","","test","TF","5"
"","show_choice","327","515473","0.0-255.0-1.0","""event"",""trial"",""time""
""fullscreenenter"",""0"",""5936""
","
","
","""event"",""trial"",""time""
""fullscreenenter"",""0"",""5936""
","
","null","run_exp/static/images/Set 6_rs/005a.jpg","null","","","","","","test","TF",""
"","html-keyboard-response","328","515978","0.0-255.0-2.0","""event"",""trial"",""time""
""fullscreenenter"",""0"",""5936""
","
","
","""event"",""trial"",""time""
""fullscreenenter"",""0"",""5936""
","
","null","<p></p>","null","","","","","","","",""
"","image","329","517236","0.0-256.0-0.0","""event"",""trial"",""time""
""fullscreenenter"",""0"",""5936""
","
","
","""event"",""trial"",""time""
""fullscreenenter"",""0"",""5936""
","
","1251.6999999997206","run_exp/static/images/Set 6_rs/140a.jpg","66","","","","","","test","TF","1"
"","show_choice","330","517742","0.0-256.0-1.0","""event"",""trial"",""time""
""fullscreenenter"",""0"",""5936""
","
","
","""event"",""trial"",""time""
""fullscreenenter"",""0"",""5936""
","
","null","run_exp/static/images/Set 6_rs/140a.jpg","null","","","","","","test","TF",""
"","html-keyboard-response","331","518246","0.0-256.0-2.0","""event"",""trial"",""time""
""fullscreenenter"",""0"",""5936""
","
","
","""event"",""trial"",""time""
""fullscreenenter"",""0"",""5936""
","
","null","<p></p>","null","","","","","","","",""
"","image","332","519523","0.0-257.0-0.0","""event"",""trial"",""time""
""fullscreenenter"",""0"",""5936""
","
","
","""event"",""trial"",""time""
""fullscreenenter"",""0"",""5936""
","
","1268.7000000001863","run_exp/static/images/Set 6_rs/171a.jpg","78","","","","","","test","TF","1"
"","show_choice","333","520028","0.0-257.0-1.0","""event"",""trial"",""time""
""fullscreenenter"",""0"",""5936""
","
","
","""event"",""trial"",""time""
""fullscreenenter"",""0"",""5936""
","
","null","run_exp/static/images/Set 6_rs/171a.jpg","null","","","","","","test","TF",""
"","html-keyboard-response","334","520531","0.0-257.0-2.0","""event"",""trial"",""time""
""fullscreenenter"",""0"",""5936""
","
","
","""event"",""trial"",""time""
""fullscreenenter"",""0"",""5936""
","
","null","<p></p>","null","","","","","","","",""
"","image","335","521810","0.0-258.0-0.0","""event"",""trial"",""time""
""fullscreenenter"",""0"",""5936""
","
","
","""event"",""trial"",""time""
""fullscreenenter"",""0"",""5936""
","
","1274.8999999999069","run_exp/static/images/Set 6_rs/150a.jpg","86","","","","","","test","TR","1"
"","show_choice","336","522323","0.0-258.0-1.0","""event"",""trial"",""time""
""fullscreenenter"",""0"",""5936""
","
","
","""event"",""trial"",""time""
""fullscreenenter"",""0"",""5936""
","
","null","run_exp/static/images/Set 6_rs/150a.jpg","null","","","","","","test","TR",""
"","html-keyboard-response","337","522826","0.0-258.0-2.0","""event"",""trial"",""time""
""fullscreenenter"",""0"",""5936""
","
","
","""event"",""trial"",""time""
