"success","trial_type","trial_index","time_elapsed","internal_node_id","interactions","blur_events","focus_events","fullscreenenter_events","fullscreenexit_events","rt","stimulus","key_press","subject_id","participant_id","age","gender","prompt","phase","condition","lure_bin"
"true","fullscreen","0","3701","0.0-0.0","""event"",""trial"",""time""
""fullscreenenter"",""0"",""2737""
","
","
","""event"",""trial"",""time""
""fullscreenenter"",""0"",""2737""
","
","","","","","","","","","","",""
"","pavlovia","1","3710","0.0-1.0","""event"",""trial"",""time""
""fullscreenenter"",""0"",""2737""
""fullscreenexit"",""2"",""12757""
","
","
","""event"",""trial"",""time""
""fullscreenenter"",""0"",""2737""
","""event"",""trial"",""time""
""fullscreenexit"",""2"",""12757""
","","","","","","","","","","",""
"","welcome","2","38530","0.0-2.0","""event"",""trial"",""time""
""fullscreenenter"",""0"",""2737""
""fullscreenexit"",""2"",""12757""
","
","
","""event"",""trial"",""time""
""fullscreenenter"",""0"",""2737""
","""event"",""trial"",""time""
""fullscreenexit"",""2"",""12757""
","null","run_exp/static/audio/clip_1_welcome.m4a","null","473","702","9","Male","<div class='center'><p>Welcome to the third part of the study! First, you'll be shown pictures of items one at a time. For each picture, you have to decide if the item is typically found indoors or outdoors.</p><p>If you think it's usually found indoors, then press <b>v</b> key on your keyboard. If you think it's usually found outdoors, then press the <b>n</b> key.There will be reminders on the screen to help you remember which keys to press. </p><p>If you're not sure whether the item is an indoor item or an outdoor item, go ahead and take a guess but try your best not to skip that choice. </p></div>","","",""
"","html-keyboard-response","3","41637","0.0-3.0","""event"",""trial"",""time""
""fullscreenenter"",""0"",""2737""
""fullscreenexit"",""2"",""12757""
","
","
","""event"",""trial"",""time""
""fullscreenenter"",""0"",""2737""
","""event"",""trial"",""time""
""fullscreenexit"",""2"",""12757""
","3102.100000023842","<div class='center'><p>Welcome to the third part of the study! First, you'll be shown pictures of items one at a time. For each picture, you have to decide if the item is typically found indoors or outdoors.</p><p>If you think it's usually found indoors, then press <b>v</b> key on your keyboard. If you think it's usually found outdoors, then press the <b>n</b> key.There will be reminders on the screen to help you remember which keys to press. </p><p>If you're not sure whether the item is an indoor item or an outdoor item, go ahead and take a guess but try your best not to skip that choice. </p><div><p><b>[Press the space bar to continue]</b></p></div>","32","","","","","","","",""
"","image","4","43643","0.0-4.0","""event"",""trial"",""time""
""fullscreenenter"",""0"",""2737""
""fullscreenexit"",""2"",""12757""
","
","
","""event"",""trial"",""time""
""fullscreenenter"",""0"",""2737""
","""event"",""trial"",""time""
""fullscreenexit"",""2"",""12757""
","null","run_exp/static/images/Set 6_rs/181a.jpg","null","","","","","","learn","SL",""
"","show_choice","5","45663","0.0-5.0","""event"",""trial"",""time""
""fullscreenenter"",""0"",""2737""
""fullscreenexit"",""2"",""12757""
","
","
","""event"",""trial"",""time""
""fullscreenenter"",""0"",""2737""
","""event"",""trial"",""time""
""fullscreenexit"",""2"",""12757""
","null","run_exp/static/images/blank.png","null","","","","","","learn","SL",""
"","html-keyboard-response","6","46173","0.0-6.0","""event"",""trial"",""time""
""fullscreenenter"",""0"",""2737""
""fullscreenexit"",""2"",""12757""
","
","
","""event"",""trial"",""time""
""fullscreenenter"",""0"",""2737""
","""event"",""trial"",""time""
""fullscreenexit"",""2"",""12757""
","null","<p></p>","null","","","","","","","",""
"","image","7","47492","0.0-7.0","""event"",""trial"",""time""
""fullscreenenter"",""0"",""2737""
""fullscreenexit"",""2"",""12757""
","
","
","""event"",""trial"",""time""
""fullscreenenter"",""0"",""2737""
","""event"",""trial"",""time""
""fullscreenexit"",""2"",""12757""
","1316.6999999284744","run_exp/static/images/Set 6_rs/066a.jpg","86","","","","","","learn","SL",""
"","show_choice","8","48189","0.0-8.0","""event"",""trial"",""time""
""fullscreenenter"",""0"",""2737""
""fullscreenexit"",""2"",""12757""
","
","
","""event"",""trial"",""time""
""fullscreenenter"",""0"",""2737""
","""event"",""trial"",""time""
""fullscreenexit"",""2"",""12757""
","null","run_exp/static/images/Set 6_rs/066a.jpg","null","","","","","","learn","SL",""
"","html-keyboard-response","9","48696","0.0-9.0","""event"",""trial"",""time""
""fullscreenenter"",""0"",""2737""
""fullscreenexit"",""2"",""12757""
","
","
","""event"",""trial"",""time""
""fullscreenenter"",""0"",""2737""
","""event"",""trial"",""time""
""fullscreenexit"",""2"",""12757""
","null","<p></p>","null","","","","","","","",""
"","image","10","50227","0.0-10.0","""event"",""trial"",""time""
""fullscreenenter"",""0"",""2737""
""fullscreenexit"",""2"",""12757""
","
","
","""event"",""trial"",""time""
""fullscreenenter"",""0"",""2737""
","""event"",""trial"",""time""
""fullscreenexit"",""2"",""12757""
","1529.4000000953674","run_exp/static/images/Set 6_rs/126a.jpg","86","","","","","","learn","SR",""
"","show_choice","11","50707","0.0-11.0","""event"",""trial"",""time""
""fullscreenenter"",""0"",""2737""
""fullscreenexit"",""2"",""12757""
","
","
","""event"",""trial"",""time""
""fullscreenenter"",""0"",""2737""
","""event"",""trial"",""time""
""fullscreenexit"",""2"",""12757""
","null","run_exp/static/images/Set 6_rs/126a.jpg","null","","","","","","learn","SR",""
"","html-keyboard-response","12","51224","0.0-12.0","""event"",""trial"",""time""
""fullscreenenter"",""0"",""2737""
""fullscreenexit"",""2"",""12757""
","
","
","""event"",""trial"",""time""
""fullscreenenter"",""0"",""2737""
","""event"",""trial"",""time""
""fullscreenexit"",""2"",""12757""
","null","<p></p>","null","","","","","","","",""
"","image","13","52550","0.0-13.0","""event"",""trial"",""time""
""fullscreenenter"",""0"",""2737""
""fullscreenexit"",""2"",""12757""
","
","
","""event"",""trial"",""time""
""fullscreenenter"",""0"",""2737""
","""event"",""trial"",""time""
""fullscreenexit"",""2"",""12757""
","1324.1000000238419","run_exp/static/images/Set 6_rs/024a.jpg","86","","","","","","learn","SR",""
"","show_choice","14","53232","0.0-14.0","""event"",""trial"",""time""
""fullscreenenter"",""0"",""2737""
""fullscreenexit"",""2"",""12757""
","
","
","""event"",""trial"",""time""
""fullscreenenter"",""0"",""2737""
","""event"",""trial"",""time""
""fullscreenexit"",""2"",""12757""
","null","run_exp/static/images/Set 6_rs/024a.jpg","null","","","","","","learn","SR",""
"","html-keyboard-response","15","53739","0.0-15.0","""event"",""trial"",""time""
""fullscreenenter"",""0"",""2737""
""fullscreenexit"",""2"",""12757""
","
","
","""event"",""trial"",""time""
""fullscreenenter"",""0"",""2737""
","""event"",""trial"",""time""
""fullscreenexit"",""2"",""12757""
","null","<p></p>","null","","","","","","","",""
"","image","16","54448","0.0-16.0","""event"",""trial"",""time""
""fullscreenenter"",""0"",""2737""
""fullscreenexit"",""2"",""12757""
","
","
","""event"",""trial"",""time""
""fullscreenenter"",""0"",""2737""
","""event"",""trial"",""time""
""fullscreenexit"",""2"",""12757""
","707.2000000476837","run_exp/static/images/Set 6_rs/075a.jpg","86","","","","","","learn","SR",""
"","show_choice","17","55755","0.0-17.0","""event"",""trial"",""time""
""fullscreenenter"",""0"",""2737""
""fullscreenexit"",""2"",""12757""
","
","
","""event"",""trial"",""time""
""fullscreenenter"",""0"",""2737""
","""event"",""trial"",""time""
""fullscreenexit"",""2"",""12757""
","null","run_exp/static/images/Set 6_rs/075a.jpg","null","","","","","","learn","SR",""
"","html-keyboard-response","18","56266","0.0-18.0","""event"",""trial"",""time""
""fullscreenenter"",""0"",""2737""
""fullscreenexit"",""2"",""12757""
","
","
","""event"",""trial"",""time""
""fullscreenenter"",""0"",""2737""
","""event"",""trial"",""time""
""fullscreenexit"",""2"",""12757""
","null","<p></p>","null","","","","","","","",""
"","image","19","57202","0.0-19.0","""event"",""trial"",""time""
""fullscreenenter"",""0"",""2737""
""fullscreenexit"",""2"",""12757""
","
","
","""event"",""trial"",""time""
""fullscreenenter"",""0"",""2737""
","""event"",""trial"",""time""
""fullscreenexit"",""2"",""12757""
","934.6999999284744","run_exp/static/images/Set 6_rs/008a.jpg","86","","","","","","learn","SL",""
"","show_choice","20","58271","0.0-20.0","""event"",""trial"",""time""
""fullscreenenter"",""0"",""2737""
""fullscreenexit"",""2"",""12757""
","
","
","""event"",""trial"",""time""
""fullscreenenter"",""0"",""2737""
","""event"",""trial"",""time""
""fullscreenexit"",""2"",""12757""
","null","run_exp/static/images/Set 6_rs/008a.jpg","null","","","","","","learn","SL",""
"","html-keyboard-response","21","58799","0.0-21.0","""event"",""trial"",""time""
""fullscreenenter"",""0"",""2737""
""fullscreenexit"",""2"",""12757""
","
","
","""event"",""trial"",""time""
""fullscreenenter"",""0"",""2737""
","""event"",""trial"",""time""
""fullscreenexit"",""2"",""12757""
","null","<p></p>","null","","","","","","","",""
"","image","22","60512","0.0-22.0","""event"",""trial"",""time""
""fullscreenenter"",""0"",""2737""
""fullscreenexit"",""2"",""12757""
","
","
","""event"",""trial"",""time""
""fullscreenenter"",""0"",""2737""
","""event"",""trial"",""time""
""fullscreenexit"",""2"",""12757""
","1710.8999999761581","run_exp/static/images/Set 6_rs/168a.jpg","78","","","","","","learn","SL",""
"","show_choice","23","60805","0.0-23.0","""event"",""trial"",""time""
""fullscreenenter"",""0"",""2737""
""fullscreenexit"",""2"",""12757""
","
","
","""event"",""trial"",""time""
""fullscreenenter"",""0"",""2737""
","""event"",""trial"",""time""
""fullscreenexit"",""2"",""12757""
","null","run_exp/static/images/Set 6_rs/168a.jpg","null","","","","","","learn","SL",""
"","html-keyboard-response","24","61317","0.0-24.0","""event"",""trial"",""time""
""fullscreenenter"",""0"",""2737""
""fullscreenexit"",""2"",""12757""
","
","
","""event"",""trial"",""time""
""fullscreenenter"",""0"",""2737""
","""event"",""trial"",""time""
""fullscreenexit"",""2"",""12757""
","null","<p></p>","null","","","","","","","",""
"","image","25","62839","0.0-25.0","""event"",""trial"",""time""
""fullscreenenter"",""0"",""2737""
""fullscreenexit"",""2"",""12757""
","
","
","""event"",""trial"",""time""
""fullscreenenter"",""0"",""2737""
","""event"",""trial"",""time""
""fullscreenexit"",""2"",""12757""
","1520","run_exp/static/images/Set 6_rs/017a.jpg","86","","","","","","learn","SL",""
"","show_choice","26","63341","0.0-26.0","""event"",""trial"",""time""
""fullscreenenter"",""0"",""2737""
""fullscreenexit"",""2"",""12757""
","
","
","""event"",""trial"",""time""
""fullscreenenter"",""0"",""2737""
","""event"",""trial"",""time""
""fullscreenexit"",""2"",""12757""
","null","run_exp/static/images/Set 6_rs/017a.jpg","null","","","","","","learn","SL",""
"","html-keyboard-response","27","63849","0.0-27.0","""event"",""trial"",""time""
""fullscreenenter"",""0"",""2737""
""fullscreenexit"",""2"",""12757""
","
","
","""event"",""trial"",""time""
""fullscreenenter"",""0"",""2737""
","""event"",""trial"",""time""
""fullscreenexit"",""2"",""12757""
","null","<p></p>","null","","","","","","","",""
"","image","28","65195","0.0-28.0","""event"",""trial"",""time""
""fullscreenenter"",""0"",""2737""
""fullscreenexit"",""2"",""12757""
","
","
","""event"",""trial"",""time""
""fullscreenenter"",""0"",""2737""
","""event"",""trial"",""time""
""fullscreenexit"",""2"",""12757""
","1343.2999999523163","run_exp/static/images/Set 6_rs/089a.jpg","86","","","","","","learn","SL",""
"","show_choice","29","65861","0.0-29.0","""event"",""trial"",""time""
""fullscreenenter"",""0"",""2737""
""fullscreenexit"",""2"",""12757""
","
","
","""event"",""trial"",""time""
""fullscreenenter"",""0"",""2737""
","""event"",""trial"",""time""
""fullscreenexit"",""2"",""12757""
","null","run_exp/static/images/Set 6_rs/089a.jpg","null","","","","","","learn","SL",""
"","html-keyboard-response","30","66369","0.0-30.0","""event"",""trial"",""time""
""fullscreenenter"",""0"",""2737""
""fullscreenexit"",""2"",""12757""
","
","
","""event"",""trial"",""time""
""fullscreenenter"",""0"",""2737""
","""event"",""trial"",""time""
""fullscreenexit"",""2"",""12757""
","null","<p></p>","null","","","","","","","",""
"","image","31","67508","0.0-31.0","""event"",""trial"",""time""
""fullscreenenter"",""0"",""2737""
""fullscreenexit"",""2"",""12757""
","
","
","""event"",""trial"",""time""
""fullscreenenter"",""0"",""2737""
","""event"",""trial"",""time""
""fullscreenexit"",""2"",""12757""
","1137.3999999761581","run_exp/static/images/Set 6_rs/131a.jpg","86","","","","","","learn","SR",""
"","show_choice","32","68390","0.0-32.0","""event"",""trial"",""time""
""fullscreenenter"",""0"",""2737""
""fullscreenexit"",""2"",""12757""
","
","
","""event"",""trial"",""time""
""fullscreenenter"",""0"",""2737""
","""event"",""trial"",""time""
""fullscreenexit"",""2"",""12757""
","null","run_exp/static/images/Set 6_rs/131a.jpg","null","","","","","","learn","SR",""
"","html-keyboard-response","33","68901","0.0-33.0","""event"",""trial"",""time""
""fullscreenenter"",""0"",""2737""
""fullscreenexit"",""2"",""12757""
","
","
","""event"",""trial"",""time""
""fullscreenenter"",""0"",""2737""
","""event"",""trial"",""time""
""fullscreenexit"",""2"",""12757""
","null","<p></p>","null","","","","","","","",""
"","image","34","70051","0.0-34.0","""event"",""trial"",""time""
""fullscreenenter"",""0"",""2737""
""fullscreenexit"",""2"",""12757""
","
","
","""event"",""trial"",""time""
""fullscreenenter"",""0"",""2737""
","""event"",""trial"",""time""
""fullscreenexit"",""2"",""12757""
","1148.5","run_exp/static/images/Set 6_rs/016a.jpg","86","","","","","","learn","SL",""
"","show_choice","35","70920","0.0-35.0","""event"",""trial"",""time""
""fullscreenenter"",""0"",""2737""
""fullscreenexit"",""2"",""12757""
","
","
","""event"",""trial"",""time""
""fullscreenenter"",""0"",""2737""
","""event"",""trial"",""time""
""fullscreenexit"",""2"",""12757""
","null","run_exp/static/images/Set 6_rs/016a.jpg","null","","","","","","learn","SL",""
"","html-keyboard-response","36","71424","0.0-36.0","""event"",""trial"",""time""
""fullscreenenter"",""0"",""2737""
""fullscreenexit"",""2"",""12757""
","
","
","""event"",""trial"",""time""
""fullscreenenter"",""0"",""2737""
","""event"",""trial"",""time""
""fullscreenexit"",""2"",""12757""
","null","<p></p>","null","","","","","","","",""
"","image","37","72249","0.0-37.0","""event"",""trial"",""time""
""fullscreenenter"",""0"",""2737""
""fullscreenexit"",""2"",""12757""
","
","
","""event"",""trial"",""time""
""fullscreenenter"",""0"",""2737""
","""event"",""trial"",""time""
""fullscreenexit"",""2"",""12757""
","823.8999999761581","run_exp/static/images/Set 6_rs/045a.jpg","86","","","","","","learn","SR",""
"","show_choice","38","73433","0.0-38.0","""event"",""trial"",""time""
""fullscreenenter"",""0"",""2737""
""fullscreenexit"",""2"",""12757""
","
","
","""event"",""trial"",""time""
""fullscreenenter"",""0"",""2737""
","""event"",""trial"",""time""
""fullscreenexit"",""2"",""12757""
","null","run_exp/static/images/Set 6_rs/045a.jpg","null","","","","","","learn","SR",""
"","html-keyboard-response","39","73948","0.0-39.0","""event"",""trial"",""time""
""fullscreenenter"",""0"",""2737""
""fullscreenexit"",""2"",""12757""
","
","
","""event"",""trial"",""time""
""fullscreenenter"",""0"",""2737""
","""event"",""trial"",""time""
""fullscreenexit"",""2"",""12757""
","null","<p></p>","null","","","","","","","",""
"","image","40","74664","0.0-40.0","""event"",""trial"",""time""
""fullscreenenter"",""0"",""2737""
""fullscreenexit"",""2"",""12757""
","
","
","""event"",""trial"",""time""
""fullscreenenter"",""0"",""2737""
","""event"",""trial"",""time""
""fullscreenexit"",""2"",""12757""
","714.6000000238419","run_exp/static/images/Set 6_rs/012a.jpg","86","","","","","","learn","SR",""
"","show_choice","41","75967","0.0-41.0","""event"",""trial"",""time""
""fullscreenenter"",""0"",""2737""
""fullscreenexit"",""2"",""12757""
","
","
","""event"",""trial"",""time""
""fullscreenenter"",""0"",""2737""
","""event"",""trial"",""time""
""fullscreenexit"",""2"",""12757""
","null","run_exp/static/images/Set 6_rs/012a.jpg","null","","","","","","learn","SR",""
"","html-keyboard-response","42","76483","0.0-42.0","""event"",""trial"",""time""
""fullscreenenter"",""0"",""2737""
""fullscreenexit"",""2"",""12757""
","
","
","""event"",""trial"",""time""
""fullscreenenter"",""0"",""2737""
","""event"",""trial"",""time""
""fullscreenexit"",""2"",""12757""
","null","<p></p>","null","","","","","","","",""
"","image","43","77340","0.0-43.0","""event"",""trial"",""time""
""fullscreenenter"",""0"",""2737""
""fullscreenexit"",""2"",""12757""
","
","
","""event"",""trial"",""time""
""fullscreenenter"",""0"",""2737""
","""event"",""trial"",""time""
""fullscreenexit"",""2"",""12757""
","855.4000000953674","run_exp/static/images/Set 6_rs/111a.jpg","86","","","","","","learn","SL",""
"","show_choice","44","78499","0.0-44.0","""event"",""trial"",""time""
""fullscreenenter"",""0"",""2737""
""fullscreenexit"",""2"",""12757""
","
","
","""event"",""trial"",""time""
""fullscreenenter"",""0"",""2737""
","""event"",""trial"",""time""
""fullscreenexit"",""2"",""12757""
","null","run_exp/static/images/Set 6_rs/111a.jpg","null","","","","","","learn","SL",""
"","html-keyboard-response","45","79017","0.0-45.0","""event"",""trial"",""time""
""fullscreenenter"",""0"",""2737""
""fullscreenexit"",""2"",""12757""
","
","
","""event"",""trial"",""time""
""fullscreenenter"",""0"",""2737""
","""event"",""trial"",""time""
""fullscreenexit"",""2"",""12757""
","null","<p></p>","null","","","","","","","",""
"","image","46","80245","0.0-46.0","""event"",""trial"",""time""
""fullscreenenter"",""0"",""2737""
""fullscreenexit"",""2"",""12757""
","
","
","""event"",""trial"",""time""
""fullscreenenter"",""0"",""2737""
","""event"",""trial"",""time""
""fullscreenexit"",""2"",""12757""
","1226.4000000953674","run_exp/static/images/Set 6_rs/036a.jpg","86","","","","","","learn","SL",""
"","show_choice","47","81028","0.0-47.0","""event"",""trial"",""time""
""fullscreenenter"",""0"",""2737""
""fullscreenexit"",""2"",""12757""
","
","
","""event"",""trial"",""time""
""fullscreenenter"",""0"",""2737""
","""event"",""trial"",""time""
""fullscreenexit"",""2"",""12757""
","null","run_exp/static/images/Set 6_rs/036a.jpg","null","","","","","","learn","SL",""
"","html-keyboard-response","48","81531","0.0-48.0","""event"",""trial"",""time""
""fullscreenenter"",""0"",""2737""
""fullscreenexit"",""2"",""12757""
","
","
","""event"",""trial"",""time""
""fullscreenenter"",""0"",""2737""
","""event"",""trial"",""time""
""fullscreenexit"",""2"",""12757""
","null","<p></p>","null","","","","","","","",""
"","image","49","82620","0.0-49.0","""event"",""trial"",""time""
""fullscreenenter"",""0"",""2737""
""fullscreenexit"",""2"",""12757""
","
","
","""event"",""trial"",""time""
""fullscreenenter"",""0"",""2737""
","""event"",""trial"",""time""
""fullscreenexit"",""2"",""12757""
","1087.1000000238419","run_exp/static/images/Set 6_rs/014a.jpg","86","","","","","","learn","SL",""
"","show_choice","50","83544","0.0-50.0","""event"",""trial"",""time""
""fullscreenenter"",""0"",""2737""
""fullscreenexit"",""2"",""12757""
","
","
","""event"",""trial"",""time""
""fullscreenenter"",""0"",""2737""
","""event"",""trial"",""time""
""fullscreenexit"",""2"",""12757""
","null","run_exp/static/images/Set 6_rs/014a.jpg","null","","","","","","learn","SL",""
"","html-keyboard-response","51","84047","0.0-51.0","""event"",""trial"",""time""
""fullscreenenter"",""0"",""2737""
""fullscreenexit"",""2"",""12757""
","
","
","""event"",""trial"",""time""
""fullscreenenter"",""0"",""2737""
","""event"",""trial"",""time""
""fullscreenexit"",""2"",""12757""
","null","<p></p>","null","","","","","","","",""
"","image","52","84961","0.0-52.0","""event"",""trial"",""time""
""fullscreenenter"",""0"",""2737""
""fullscreenexit"",""2"",""12757""
","
","
","""event"",""trial"",""time""
""fullscreenenter"",""0"",""2737""
","""event"",""trial"",""time""
""fullscreenexit"",""2"",""12757""
","912.2999999523163","run_exp/static/images/Set 6_rs/154a.jpg","86","","","","","","learn","SR",""
"","show_choice","53","86052","0.0-53.0","""event"",""trial"",""time""
""fullscreenenter"",""0"",""2737""
""fullscreenexit"",""2"",""12757""
","
","
","""event"",""trial"",""time""
""fullscreenenter"",""0"",""2737""
","""event"",""trial"",""time""
""fullscreenexit"",""2"",""12757""
","null","run_exp/static/images/Set 6_rs/154a.jpg","null","","","","","","learn","SR",""
"","html-keyboard-response","54","86566","0.0-54.0","""event"",""trial"",""time""
""fullscreenenter"",""0"",""2737""
""fullscreenexit"",""2"",""12757""
","
","
","""event"",""trial"",""time""
""fullscreenenter"",""0"",""2737""
","""event"",""trial"",""time""
""fullscreenexit"",""2"",""12757""
","null","<p></p>","null","","","","","","","",""
"","image","55","87778","0.0-55.0","""event"",""trial"",""time""
""fullscreenenter"",""0"",""2737""
""fullscreenexit"",""2"",""12757""
","
","
","""event"",""trial"",""time""
""fullscreenenter"",""0"",""2737""
","""event"",""trial"",""time""
""fullscreenexit"",""2"",""12757""
","1211.1000000238419","run_exp/static/images/Set 6_rs/019a.jpg","86","","","","","","learn","SL",""
"","show_choice","56","88570","0.0-56.0","""event"",""trial"",""time""
""fullscreenenter"",""0"",""2737""
""fullscreenexit"",""2"",""12757""
","
","
","""event"",""trial"",""time""
""fullscreenenter"",""0"",""2737""
","""event"",""trial"",""time""
""fullscreenexit"",""2"",""12757""
","null","run_exp/static/images/Set 6_rs/019a.jpg","null","","","","","","learn","SL",""
"","html-keyboard-response","57","89081","0.0-57.0","""event"",""trial"",""time""
""fullscreenenter"",""0"",""2737""
""fullscreenexit"",""2"",""12757""
","
","
","""event"",""trial"",""time""
""fullscreenenter"",""0"",""2737""
","""event"",""trial"",""time""
""fullscreenexit"",""2"",""12757""
","null","<p></p>","null","","","","","","","",""
"","image","58","90250","0.0-58.0","""event"",""trial"",""time""
""fullscreenenter"",""0"",""2737""
""fullscreenexit"",""2"",""12757""
","
","
","""event"",""trial"",""time""
""fullscreenenter"",""0"",""2737""
","""event"",""trial"",""time""
""fullscreenexit"",""2"",""12757""
","1167.8000000715256","run_exp/static/images/Set 6_rs/132a.jpg","86","","","","","","learn","SR",""
"","show_choice","59","91084","0.0-59.0","""event"",""trial"",""time""
""fullscreenenter"",""0"",""2737""
""fullscreenexit"",""2"",""12757""
","
","
","""event"",""trial"",""time""
""fullscreenenter"",""0"",""2737""
","""event"",""trial"",""time""
""fullscreenexit"",""2"",""12757""
","null","run_exp/static/images/Set 6_rs/132a.jpg","null","","","","","","learn","SR",""
"","html-keyboard-response","60","91597","0.0-60.0","""event"",""trial"",""time""
""fullscreenenter"",""0"",""2737""
""fullscreenexit"",""2"",""12757""
","
","
","""event"",""trial"",""time""
""fullscreenenter"",""0"",""2737""
","""event"",""trial"",""time""
""fullscreenexit"",""2"",""12757""
","null","<p></p>","null","","","","","","","",""
"","image","61","92649","0.0-61.0","""event"",""trial"",""time""
""fullscreenenter"",""0"",""2737""
""fullscreenexit"",""2"",""12757""
","
","
","""event"",""trial"",""time""
""fullscreenenter"",""0"",""2737""
","""event"",""trial"",""time""
""fullscreenexit"",""2"",""12757""
","1050.2999999523163","run_exp/static/images/Set 6_rs/088a.jpg","86","","","","","","learn","SR",""
"","show_choice","62","93601","0.0-62.0","""event"",""trial"",""time""
""fullscreenenter"",""0"",""2737""
""fullscreenexit"",""2"",""12757""
","
","
","""event"",""trial"",""time""
""fullscreenenter"",""0"",""2737""
","""event"",""trial"",""time""
""fullscreenexit"",""2"",""12757""
","null","run_exp/static/images/Set 6_rs/088a.jpg","null","","","","","","learn","SR",""
"","html-keyboard-response","63","94115","0.0-63.0","""event"",""trial"",""time""
""fullscreenenter"",""0"",""2737""
""fullscreenexit"",""2"",""12757""
","
","
","""event"",""trial"",""time""
""fullscreenenter"",""0"",""2737""
","""event"",""trial"",""time""
""fullscreenexit"",""2"",""12757""
","null","<p></p>","null","","","","","","","",""
"","image","64","95167","0.0-64.0","""event"",""trial"",""time""
""fullscreenenter"",""0"",""2737""
""fullscreenexit"",""2"",""12757""
","
","
","""event"",""trial"",""time""
""fullscreenenter"",""0"",""2737""
","""event"",""trial"",""time""
""fullscreenexit"",""2"",""12757""
","1049.7000000476837","run_exp/static/images/Set 6_rs/076a.jpg","78","","","","","","learn","SR",""
"","show_choice","65","96130","0.0-65.0","""event"",""trial"",""time""
""fullscreenenter"",""0"",""2737""
""fullscreenexit"",""2"",""12757""
","
","
","""event"",""trial"",""time""
""fullscreenenter"",""0"",""2737""
","""event"",""trial"",""time""
""fullscreenexit"",""2"",""12757""
","null","run_exp/static/images/Set 6_rs/076a.jpg","null","","","","","","learn","SR",""
"","html-keyboard-response","66","96645","0.0-66.0","""event"",""trial"",""time""
""fullscreenenter"",""0"",""2737""
""fullscreenexit"",""2"",""12757""
","
","
","""event"",""trial"",""time""
""fullscreenenter"",""0"",""2737""
","""event"",""trial"",""time""
""fullscreenexit"",""2"",""12757""
","null","<p></p>","null","","","","","","","",""
"","image","67","97441","0.0-67.0","""event"",""trial"",""time""
""fullscreenenter"",""0"",""2737""
""fullscreenexit"",""2"",""12757""
","
","
","""event"",""trial"",""time""
""fullscreenenter"",""0"",""2737""
","""event"",""trial"",""time""
""fullscreenexit"",""2"",""12757""
","794","run_exp/static/images/Set 6_rs/129a.jpg","86","","","","","","learn","SL",""
"","show_choice","68","98660","0.0-68.0","""event"",""trial"",""time""
""fullscreenenter"",""0"",""2737""
""fullscreenexit"",""2"",""12757""
","
","
","""event"",""trial"",""time""
""fullscreenenter"",""0"",""2737""
","""event"",""trial"",""time""
""fullscreenexit"",""2"",""12757""
","null","run_exp/static/images/Set 6_rs/129a.jpg","null","","","","","","learn","SL",""
"","html-keyboard-response","69","99164","0.0-69.0","""event"",""trial"",""time""
""fullscreenenter"",""0"",""2737""
""fullscreenexit"",""2"",""12757""
","
","
","""event"",""trial"",""time""
""fullscreenenter"",""0"",""2737""
","""event"",""trial"",""time""
""fullscreenexit"",""2"",""12757""
","null","<p></p>","null","","","","","","","",""
"","image","70","100428","0.0-70.0","""event"",""trial"",""time""
""fullscreenenter"",""0"",""2737""
""fullscreenexit"",""2"",""12757""
","
","
","""event"",""trial"",""time""
""fullscreenenter"",""0"",""2737""
","""event"",""trial"",""time""
""fullscreenexit"",""2"",""12757""
","1262.8999999761581","run_exp/static/images/Set 6_rs/172a.jpg","78","","","","","","learn","SR",""
"","show_choice","71","101177","0.0-71.0","""event"",""trial"",""time""
""fullscreenenter"",""0"",""2737""
""fullscreenexit"",""2"",""12757""
","
","
","""event"",""trial"",""time""
""fullscreenenter"",""0"",""2737""
","""event"",""trial"",""time""
""fullscreenexit"",""2"",""12757""
","null","run_exp/static/images/Set 6_rs/172a.jpg","null","","","","","","learn","SR",""
"","html-keyboard-response","72","101693","0.0-72.0","""event"",""trial"",""time""
""fullscreenenter"",""0"",""2737""
""fullscreenexit"",""2"",""12757""
","
","
","""event"",""trial"",""time""
""fullscreenenter"",""0"",""2737""
","""event"",""trial"",""time""
""fullscreenexit"",""2"",""12757""
","null","<p></p>","null","","","","","","","",""
"","image","73","103284","0.0-73.0","""event"",""trial"",""time""
""fullscreenenter"",""0"",""2737""
""fullscreenexit"",""2"",""12757""
","
","
","""event"",""trial"",""time""
""fullscreenenter"",""0"",""2737""
","""event"",""trial"",""time""
""fullscreenexit"",""2"",""12757""
","1589.7000000476837","run_exp/static/images/Set 6_rs/025a.jpg","78","","","","","","learn","SL",""
"","show_choice","74","103709","0.0-74.0","""event"",""trial"",""time""
""fullscreenenter"",""0"",""2737""
""fullscreenexit"",""2"",""12757""
","
","
","""event"",""trial"",""time""
""fullscreenenter"",""0"",""2737""
","""event"",""trial"",""time""
""fullscreenexit"",""2"",""12757""
","null","run_exp/static/images/Set 6_rs/025a.jpg","null","","","","","","learn","SL",""
"","html-keyboard-response","75","104214","0.0-75.0","""event"",""trial"",""time""
""fullscreenenter"",""0"",""2737""
""fullscreenexit"",""2"",""12757""
","
","
","""event"",""trial"",""time""
""fullscreenenter"",""0"",""2737""
","""event"",""trial"",""time""
""fullscreenexit"",""2"",""12757""
","null","<p></p>","null","","","","","","","",""
"","image","76","105679","0.0-76.0","""event"",""trial"",""time""
""fullscreenenter"",""0"",""2737""
""fullscreenexit"",""2"",""12757""
","
","
","""event"",""trial"",""time""
""fullscreenenter"",""0"",""2737""
","""event"",""trial"",""time""
""fullscreenexit"",""2"",""12757""
","1463.2000000476837","run_exp/static/images/Set 6_rs/061a.jpg","78","","","","","","learn","SR",""
"","show_choice","77","106227","0.0-77.0","""event"",""trial"",""time""
""fullscreenenter"",""0"",""2737""
""fullscreenexit"",""2"",""12757""
","
","
","""event"",""trial"",""time""
""fullscreenenter"",""0"",""2737""
","""event"",""trial"",""time""
""fullscreenexit"",""2"",""12757""
","null","run_exp/static/images/Set 6_rs/061a.jpg","null","","","","","","learn","SR",""
"","html-keyboard-response","78","106748","0.0-78.0","""event"",""trial"",""time""
""fullscreenenter"",""0"",""2737""
""fullscreenexit"",""2"",""12757""
","
","
","""event"",""trial"",""time""
""fullscreenenter"",""0"",""2737""
","""event"",""trial"",""time""
""fullscreenexit"",""2"",""12757""
","null","<p></p>","null","","","","","","","",""
"","image","79","107773","0.0-79.0","""event"",""trial"",""time""
""fullscreenenter"",""0"",""2737""
""fullscreenexit"",""2"",""12757""
","
","
","""event"",""trial"",""time""
""fullscreenenter"",""0"",""2737""
","""event"",""trial"",""time""
""fullscreenexit"",""2"",""12757""
","1023.6000000238419","run_exp/static/images/Set 6_rs/117a.jpg","86","","","","","","learn","SL",""
"","show_choice","80","108769","0.0-80.0","""event"",""trial"",""time""
""fullscreenenter"",""0"",""2737""
""fullscreenexit"",""2"",""12757""
","
","
","""event"",""trial"",""time""
""fullscreenenter"",""0"",""2737""
","""event"",""trial"",""time""
""fullscreenexit"",""2"",""12757""
","null","run_exp/static/images/Set 6_rs/117a.jpg","null","","","","","","learn","SL",""
"","html-keyboard-response","81","109275","0.0-81.0","""event"",""trial"",""time""
""fullscreenenter"",""0"",""2737""
""fullscreenexit"",""2"",""12757""
","
","
","""event"",""trial"",""time""
""fullscreenenter"",""0"",""2737""
","""event"",""trial"",""time""
""fullscreenexit"",""2"",""12757""
","null","<p></p>","null","","","","","","","",""
"","image","82","110562","0.0-82.0","""event"",""trial"",""time""
""fullscreenenter"",""0"",""2737""
""fullscreenexit"",""2"",""12757""
","
","
","""event"",""trial"",""time""
""fullscreenenter"",""0"",""2737""
","""event"",""trial"",""time""
""fullscreenexit"",""2"",""12757""
","1285.6000000238419","run_exp/static/images/Set 6_rs/150a.jpg","86","","","","","","learn","SR",""
"","show_choice","83","111291","0.0-83.0","""event"",""trial"",""time""
""fullscreenenter"",""0"",""2737""
""fullscreenexit"",""2"",""12757""
","
","
","""event"",""trial"",""time""
""fullscreenenter"",""0"",""2737""
","""event"",""trial"",""time""
""fullscreenexit"",""2"",""12757""
","null","run_exp/static/images/Set 6_rs/150a.jpg","null","","","","","","learn","SR",""
"","html-keyboard-response","84","111800","0.0-84.0","""event"",""trial"",""time""
""fullscreenenter"",""0"",""2737""
""fullscreenexit"",""2"",""12757""
","
","
","""event"",""trial"",""time""
""fullscreenenter"",""0"",""2737""
","""event"",""trial"",""time""
""fullscreenexit"",""2"",""12757""
","null","<p></p>","null","","","","","","","",""
"","image","85","113759","0.0-85.0","""event"",""trial"",""time""
""fullscreenenter"",""0"",""2737""
""fullscreenexit"",""2"",""12757""
","
","
","""event"",""trial"",""time""
""fullscreenenter"",""0"",""2737""
","""event"",""trial"",""time""
""fullscreenexit"",""2"",""12757""
","1957.3999999761581","run_exp/static/images/Set 6_rs/141a.jpg","78","","","","","","learn","SR",""
"","show_choice","86","113806","0.0-86.0","""event"",""trial"",""time""
""fullscreenenter"",""0"",""2737""
""fullscreenexit"",""2"",""12757""
","
","
","""event"",""trial"",""time""
""fullscreenenter"",""0"",""2737""
","""event"",""trial"",""time""
""fullscreenexit"",""2"",""12757""
","null","run_exp/static/images/Set 6_rs/141a.jpg","null","","","","","","learn","SR",""
"","html-keyboard-response","87","114323","0.0-87.0","""event"",""trial"",""time""
""fullscreenenter"",""0"",""2737""
""fullscreenexit"",""2"",""12757""
","
","
","""event"",""trial"",""time""
""fullscreenenter"",""0"",""2737""
","""event"",""trial"",""time""
""fullscreenexit"",""2"",""12757""
","null","<p></p>","null","","","","","","","",""
"","image","88","115436","0.0-88.0","""event"",""trial"",""time""
""fullscreenenter"",""0"",""2737""
""fullscreenexit"",""2"",""12757""
","
","
","""event"",""trial"",""time""
""fullscreenenter"",""0"",""2737""
","""event"",""trial"",""time""
""fullscreenexit"",""2"",""12757""
","1111.3999999761581","run_exp/static/images/Set 6_rs/112a.jpg","86","","","","","","learn","SR",""
"","show_choice","89","116348","0.0-89.0","""event"",""trial"",""time""
""fullscreenenter"",""0"",""2737""
""fullscreenexit"",""2"",""12757""
","
","
","""event"",""trial"",""time""
""fullscreenenter"",""0"",""2737""
","""event"",""trial"",""time""
""fullscreenexit"",""2"",""12757""
","null","run_exp/static/images/Set 6_rs/112a.jpg","null","","","","","","learn","SR",""
"","html-keyboard-response","90","116850","0.0-90.0","""event"",""trial"",""time""
""fullscreenenter"",""0"",""2737""
""fullscreenexit"",""2"",""12757""
","
","
","""event"",""trial"",""time""
""fullscreenenter"",""0"",""2737""
","""event"",""trial"",""time""
""fullscreenexit"",""2"",""12757""
","null","<p></p>","null","","","","","","","",""
"","image","91","118223","0.0-91.0","""event"",""trial"",""time""
""fullscreenenter"",""0"",""2737""
""fullscreenexit"",""2"",""12757""
","
","
","""event"",""trial"",""time""
""fullscreenenter"",""0"",""2737""
","""event"",""trial"",""time""
""fullscreenexit"",""2"",""12757""
","1370.8000000715256","run_exp/static/images/Set 6_rs/064a.jpg","86","","","","","","learn","SR",""
"","show_choice","92","118862","0.0-92.0","""event"",""trial"",""time""
""fullscreenenter"",""0"",""2737""
""fullscreenexit"",""2"",""12757""
","
","
","""event"",""trial"",""time""
""fullscreenenter"",""0"",""2737""
","""event"",""trial"",""time""
""fullscreenexit"",""2"",""12757""
","null","run_exp/static/images/Set 6_rs/064a.jpg","null","","","","","","learn","SR",""
"","html-keyboard-response","93","119369","0.0-93.0","""event"",""trial"",""time""
""fullscreenenter"",""0"",""2737""
""fullscreenexit"",""2"",""12757""
","
","
","""event"",""trial"",""time""
""fullscreenenter"",""0"",""2737""
","""event"",""trial"",""time""
""fullscreenexit"",""2"",""12757""
","null","<p></p>","null","","","","","","","",""
"","image","94","120697","0.0-94.0","""event"",""trial"",""time""
""fullscreenenter"",""0"",""2737""
""fullscreenexit"",""2"",""12757""
","
","
","""event"",""trial"",""time""
""fullscreenenter"",""0"",""2737""
","""event"",""trial"",""time""
""fullscreenexit"",""2"",""12757""
","1327.0999999046326","run_exp/static/images/Set 6_rs/191a.jpg","78","","","","","","learn","SL",""
"","show_choice","95","121376","0.0-95.0","""event"",""trial"",""time""
""fullscreenenter"",""0"",""2737""
""fullscreenexit"",""2"",""12757""
","
","
","""event"",""trial"",""time""
""fullscreenenter"",""0"",""2737""
","""event"",""trial"",""time""
""fullscreenexit"",""2"",""12757""
","null","run_exp/static/images/Set 6_rs/191a.jpg","null","","","","","","learn","SL",""
"","html-keyboard-response","96","121892","0.0-96.0","""event"",""trial"",""time""
""fullscreenenter"",""0"",""2737""
""fullscreenexit"",""2"",""12757""
","
","
","""event"",""trial"",""time""
""fullscreenenter"",""0"",""2737""
","""event"",""trial"",""time""
""fullscreenexit"",""2"",""12757""
","null","<p></p>","null","","","","","","","",""
"","image","97","123598","0.0-97.0","""event"",""trial"",""time""
""fullscreenenter"",""0"",""2737""
""fullscreenexit"",""2"",""12757""
","
","
","""event"",""trial"",""time""
""fullscreenenter"",""0"",""2737""
","""event"",""trial"",""time""
""fullscreenexit"",""2"",""12757""
","1704.3999999761581","run_exp/static/images/Set 6_rs/073a.jpg","86","","","","","","learn","SL",""
"","show_choice","98","123904","0.0-98.0","""event"",""trial"",""time""
""fullscreenenter"",""0"",""2737""
""fullscreenexit"",""2"",""12757""
","
","
","""event"",""trial"",""time""
""fullscreenenter"",""0"",""2737""
","""event"",""trial"",""time""
""fullscreenexit"",""2"",""12757""
","null","run_exp/static/images/Set 6_rs/073a.jpg","null","","","","","","learn","SL",""
"","html-keyboard-response","99","124419","0.0-99.0","""event"",""trial"",""time""
""fullscreenenter"",""0"",""2737""
""fullscreenexit"",""2"",""12757""
","
","
","""event"",""trial"",""time""
""fullscreenenter"",""0"",""2737""
","""event"",""trial"",""time""
""fullscreenexit"",""2"",""12757""
","null","<p></p>","null","","","","","","","",""
"","image","100","125907","0.0-100.0","""event"",""trial"",""time""
""fullscreenenter"",""0"",""2737""
""fullscreenexit"",""2"",""12757""
","
","
","""event"",""trial"",""time""
""fullscreenenter"",""0"",""2737""
","""event"",""trial"",""time""
""fullscreenexit"",""2"",""12757""
","1487","run_exp/static/images/Set 6_rs/074a.jpg","78","","","","","","learn","SL",""
"","show_choice","101","126436","0.0-101.0","""event"",""trial"",""time""
""fullscreenenter"",""0"",""2737""
""fullscreenexit"",""2"",""12757""
","
","
","""event"",""trial"",""time""
""fullscreenenter"",""0"",""2737""
","""event"",""trial"",""time""
""fullscreenexit"",""2"",""12757""
","null","run_exp/static/images/Set 6_rs/074a.jpg","null","","","","","","learn","SL",""
"","html-keyboard-response","102","126952","0.0-102.0","""event"",""trial"",""time""
""fullscreenenter"",""0"",""2737""
""fullscreenexit"",""2"",""12757""
","
","
","""event"",""trial"",""time""
""fullscreenenter"",""0"",""2737""
","""event"",""trial"",""time""
""fullscreenexit"",""2"",""12757""
","null","<p></p>","null","","","","","","","",""
"","image","103","127879","0.0-103.0","""event"",""trial"",""time""
""fullscreenenter"",""0"",""2737""
""fullscreenexit"",""2"",""12757""
","
","
","""event"",""trial"",""time""
""fullscreenenter"",""0"",""2737""
","""event"",""trial"",""time""
""fullscreenexit"",""2"",""12757""
","925.8999999761581","run_exp/static/images/Set 6_rs/071a.jpg","78","","","","","","learn","SL",""
"","show_choice","104","128963","0.0-104.0","""event"",""trial"",""time""
""fullscreenenter"",""0"",""2737""
""fullscreenexit"",""2"",""12757""
","
","
","""event"",""trial"",""time""
""fullscreenenter"",""0"",""2737""
","""event"",""trial"",""time""
""fullscreenexit"",""2"",""12757""
","null","run_exp/static/images/Set 6_rs/071a.jpg","null","","","","","","learn","SL",""
"","html-keyboard-response","105","129465","0.0-105.0","""event"",""trial"",""time""
""fullscreenenter"",""0"",""2737""
""fullscreenexit"",""2"",""12757""
","
","
","""event"",""trial"",""time""
""fullscreenenter"",""0"",""2737""
","""event"",""trial"",""time""
""fullscreenexit"",""2"",""12757""
","null","<p></p>","null","","","","","","","",""
"","image","106","130580","0.0-106.0","""event"",""trial"",""time""
""fullscreenenter"",""0"",""2737""
""fullscreenexit"",""2"",""12757""
","
","
","""event"",""trial"",""time""
""fullscreenenter"",""0"",""2737""
","""event"",""trial"",""time""
""fullscreenexit"",""2"",""12757""
","1113.7999999523163","run_exp/static/images/Set 6_rs/062a.jpg","86","","","","","","learn","SL",""
"","show_choice","107","131469","0.0-107.0","""event"",""trial"",""time""
""fullscreenenter"",""0"",""2737""
""fullscreenexit"",""2"",""12757""
","
","
","""event"",""trial"",""time""
""fullscreenenter"",""0"",""2737""
","""event"",""trial"",""time""
""fullscreenexit"",""2"",""12757""
","null","run_exp/static/images/Set 6_rs/062a.jpg","null","","","","","","learn","SL",""
"","html-keyboard-response","108","131982","0.0-108.0","""event"",""trial"",""time""
""fullscreenenter"",""0"",""2737""
""fullscreenexit"",""2"",""12757""
","
","
","""event"",""trial"",""time""
""fullscreenenter"",""0"",""2737""
","""event"",""trial"",""time""
""fullscreenexit"",""2"",""12757""
","null","<p></p>","null","","","","","","","",""
"","image","109","132900","0.0-109.0","""event"",""trial"",""time""
""fullscreenenter"",""0"",""2737""
""fullscreenexit"",""2"",""12757""
","
","
","""event"",""trial"",""time""
""fullscreenenter"",""0"",""2737""
","""event"",""trial"",""time""
""fullscreenexit"",""2"",""12757""
","916.4000000953674","run_exp/static/images/Set 6_rs/007a.jpg","86","","","","","","learn","SR",""
"","show_choice","110","133985","0.0-110.0","""event"",""trial"",""time""
""fullscreenenter"",""0"",""2737""
""fullscreenexit"",""2"",""12757""
","
","
","""event"",""trial"",""time""
""fullscreenenter"",""0"",""2737""
","""event"",""trial"",""time""
""fullscreenexit"",""2"",""12757""
","null","run_exp/static/images/Set 6_rs/007a.jpg","null","","","","","","learn","SR",""
"","html-keyboard-response","111","134499","0.0-111.0","""event"",""trial"",""time""
""fullscreenenter"",""0"",""2737""
""fullscreenexit"",""2"",""12757""
","
","
","""event"",""trial"",""time""
""fullscreenenter"",""0"",""2737""
","""event"",""trial"",""time""
""fullscreenexit"",""2"",""12757""
","null","<p></p>","null","","","","","","","",""
"","image","112","136098","0.0-112.0","""event"",""trial"",""time""
""fullscreenenter"",""0"",""2737""
""fullscreenexit"",""2"",""12757""
","
","
","""event"",""trial"",""time""
""fullscreenenter"",""0"",""2737""
","""event"",""trial"",""time""
""fullscreenexit"",""2"",""12757""
","1596.1000000238419","run_exp/static/images/Set 6_rs/152a.jpg","86","","","","","","learn","SR",""
"","show_choice","113","136518","0.0-113.0","""event"",""trial"",""time""
""fullscreenenter"",""0"",""2737""
""fullscreenexit"",""2"",""12757""
","
","
","""event"",""trial"",""time""
""fullscreenenter"",""0"",""2737""
","""event"",""trial"",""time""
""fullscreenexit"",""2"",""12757""
","null","run_exp/static/images/Set 6_rs/152a.jpg","null","","","","","","learn","SR",""
"","html-keyboard-response","114","137020","0.0-114.0","""event"",""trial"",""time""
""fullscreenenter"",""0"",""2737""
""fullscreenexit"",""2"",""12757""
","
","
","""event"",""trial"",""time""
""fullscreenenter"",""0"",""2737""
","""event"",""trial"",""time""
""fullscreenexit"",""2"",""12757""
","null","<p></p>","null","","","","","","","",""
"","image","115","137873","0.0-115.0","""event"",""trial"",""time""
""fullscreenenter"",""0"",""2737""
""fullscreenexit"",""2"",""12757""
","
","
","""event"",""trial"",""time""
""fullscreenenter"",""0"",""2737""
","""event"",""trial"",""time""
""fullscreenexit"",""2"",""12757""
","851.1000000238419","run_exp/static/images/Set 6_rs/079a.jpg","86","","","","","","learn","SL",""
"","show_choice","116","139031","0.0-116.0","""event"",""trial"",""time""
""fullscreenenter"",""0"",""2737""
""fullscreenexit"",""2"",""12757""
","
","
","""event"",""trial"",""time""
""fullscreenenter"",""0"",""2737""
","""event"",""trial"",""time""
""fullscreenexit"",""2"",""12757""
","null","run_exp/static/images/Set 6_rs/079a.jpg","null","","","","","","learn","SL",""
"","html-keyboard-response","117","139549","0.0-117.0","""event"",""trial"",""time""
""fullscreenenter"",""0"",""2737""
""fullscreenexit"",""2"",""12757""
","
","
","""event"",""trial"",""time""
""fullscreenenter"",""0"",""2737""
","""event"",""trial"",""time""
""fullscreenexit"",""2"",""12757""
","null","<p></p>","null","","","","","","","",""
"","image","118","140497","0.0-118.0","""event"",""trial"",""time""
""fullscreenenter"",""0"",""2737""
""fullscreenexit"",""2"",""12757""
","
","
","""event"",""trial"",""time""
""fullscreenenter"",""0"",""2737""
","""event"",""trial"",""time""
""fullscreenexit"",""2"",""12757""
","946.9000000953674","run_exp/static/images/Set 6_rs/122a.jpg","86","","","","","","learn","SR",""
"","show_choice","119","141552","0.0-119.0","""event"",""trial"",""time""
""fullscreenenter"",""0"",""2737""
""fullscreenexit"",""2"",""12757""
","
","
","""event"",""trial"",""time""
""fullscreenenter"",""0"",""2737""
","""event"",""trial"",""time""
""fullscreenexit"",""2"",""12757""
","null","run_exp/static/images/Set 6_rs/122a.jpg","null","","","","","","learn","SR",""
"","html-keyboard-response","120","142054","0.0-120.0","""event"",""trial"",""time""
""fullscreenenter"",""0"",""2737""
""fullscreenexit"",""2"",""12757""
","
","
","""event"",""trial"",""time""
""fullscreenenter"",""0"",""2737""
","""event"",""trial"",""time""
""fullscreenexit"",""2"",""12757""
","null","<p></p>","null","","","","","","","",""
"","image","121","143001","0.0-121.0","""event"",""trial"",""time""
""fullscreenenter"",""0"",""2737""
""fullscreenexit"",""2"",""12757""
","
","
","""event"",""trial"",""time""
""fullscreenenter"",""0"",""2737""
","""event"",""trial"",""time""
""fullscreenexit"",""2"",""12757""
","946","run_exp/static/images/Set 6_rs/050a.jpg","86","","","","","","learn","SL",""
"","show_choice","122","144057","0.0-122.0","""event"",""trial"",""time""
""fullscreenenter"",""0"",""2737""
""fullscreenexit"",""2"",""12757""
","
","
","""event"",""trial"",""time""
""fullscreenenter"",""0"",""2737""
","""event"",""trial"",""time""
""fullscreenexit"",""2"",""12757""
","null","run_exp/static/images/Set 6_rs/050a.jpg","null","","","","","","learn","SL",""
"","html-keyboard-response","123","144564","0.0-123.0","""event"",""trial"",""time""
""fullscreenenter"",""0"",""2737""
""fullscreenexit"",""2"",""12757""
","
","
","""event"",""trial"",""time""
""fullscreenenter"",""0"",""2737""
","""event"",""trial"",""time""
""fullscreenexit"",""2"",""12757""
","null","<p></p>","null","","","","","","","",""
"","image","124","145102","0.0-124.0","""event"",""trial"",""time""
""fullscreenenter"",""0"",""2737""
""fullscreenexit"",""2"",""12757""
","
","
","""event"",""trial"",""time""
""fullscreenenter"",""0"",""2737""
","""event"",""trial"",""time""
""fullscreenexit"",""2"",""12757""
","536.4000000953674","run_exp/static/images/Set 6_rs/169a.jpg","86","","","","","","learn","SR",""
"","show_choice","125","146582","0.0-125.0","""event"",""trial"",""time""
""fullscreenenter"",""0"",""2737""
""fullscreenexit"",""2"",""12757""
","
","
","""event"",""trial"",""time""
""fullscreenenter"",""0"",""2737""
","""event"",""trial"",""time""
""fullscreenexit"",""2"",""12757""
","null","run_exp/static/images/Set 6_rs/169a.jpg","null","","","","","","learn","SR",""
"","html-keyboard-response","126","147085","0.0-126.0","""event"",""trial"",""time""
""fullscreenenter"",""0"",""2737""
""fullscreenexit"",""2"",""12757""
","
","
","""event"",""trial"",""time""
""fullscreenenter"",""0"",""2737""
","""event"",""trial"",""time""
""fullscreenexit"",""2"",""12757""
","null","<p></p>","null","","","","","","","",""
"","image","127","148497","0.0-127.0","""event"",""trial"",""time""
""fullscreenenter"",""0"",""2737""
""fullscreenexit"",""2"",""12757""
","
","
","""event"",""trial"",""time""
""fullscreenenter"",""0"",""2737""
","""event"",""trial"",""time""
""fullscreenexit"",""2"",""12757""
","1409.8999999761581","run_exp/static/images/Set 6_rs/177a.jpg","78","","","","","","learn","SR",""
"","show_choice","128","149096","0.0-128.0","""event"",""trial"",""time""
""fullscreenenter"",""0"",""2737""
""fullscreenexit"",""2"",""12757""
","
","
","""event"",""trial"",""time""
""fullscreenenter"",""0"",""2737""
","""event"",""trial"",""time""
""fullscreenexit"",""2"",""12757""
","null","run_exp/static/images/Set 6_rs/177a.jpg","null","","","","","","learn","SR",""
"","html-keyboard-response","129","149598","0.0-129.0","""event"",""trial"",""time""
""fullscreenenter"",""0"",""2737""
""fullscreenexit"",""2"",""12757""
","
","
","""event"",""trial"",""time""
""fullscreenenter"",""0"",""2737""
","""event"",""trial"",""time""
""fullscreenexit"",""2"",""12757""
","null","<p></p>","null","","","","","","","",""
"","image","130","151270","0.0-130.0","""event"",""trial"",""time""
""fullscreenenter"",""0"",""2737""
""fullscreenexit"",""2"",""12757""
","
","
","""event"",""trial"",""time""
""fullscreenenter"",""0"",""2737""
","""event"",""trial"",""time""
""fullscreenexit"",""2"",""12757""
","1670.6999999284744","run_exp/static/images/Set 6_rs/186a.jpg","86","","","","","","learn","SR",""
"","show_choice","131","151614","0.0-131.0","""event"",""trial"",""time""
""fullscreenenter"",""0"",""2737""
""fullscreenexit"",""2"",""12757""
","
","
","""event"",""trial"",""time""
""fullscreenenter"",""0"",""2737""
","""event"",""trial"",""time""
""fullscreenexit"",""2"",""12757""
","null","run_exp/static/images/Set 6_rs/186a.jpg","null","","","","","","learn","SR",""
"","html-keyboard-response","132","152137","0.0-132.0","""event"",""trial"",""time""
""fullscreenenter"",""0"",""2737""
""fullscreenexit"",""2"",""12757""
","
","
","""event"",""trial"",""time""
""fullscreenenter"",""0"",""2737""
","""event"",""trial"",""time""
""fullscreenexit"",""2"",""12757""
","null","<p></p>","null","","","","","","","",""
"","image","133","154147","0.0-133.0","""event"",""trial"",""time""
""fullscreenenter"",""0"",""2737""
""fullscreenexit"",""2"",""12757""
","
","
","""event"",""trial"",""time""
""fullscreenenter"",""0"",""2737""
","""event"",""trial"",""time""
""fullscreenexit"",""2"",""12757""
","null","run_exp/static/images/Set 6_rs/055a.jpg","null","","","","","","learn","SL",""
"","show_choice","134","156171","0.0-134.0","""event"",""trial"",""time""
""fullscreenenter"",""0"",""2737""
""fullscreenexit"",""2"",""12757""
","
","
","""event"",""trial"",""time""
""fullscreenenter"",""0"",""2737""
","""event"",""trial"",""time""
""fullscreenexit"",""2"",""12757""
","null","run_exp/static/images/blank.png","null","","","","","","learn","SL",""
"","html-keyboard-response","135","156684","0.0-135.0","""event"",""trial"",""time""
""fullscreenenter"",""0"",""2737""
""fullscreenexit"",""2"",""12757""
","
","
","""event"",""trial"",""time""
""fullscreenenter"",""0"",""2737""
","""event"",""trial"",""time""
""fullscreenexit"",""2"",""12757""
","null","<p></p>","null","","","","","","","",""
"","image","136","158261","0.0-136.0","""event"",""trial"",""time""
""fullscreenenter"",""0"",""2737""
""fullscreenexit"",""2"",""12757""
","
","
","""event"",""trial"",""time""
""fullscreenenter"",""0"",""2737""
","""event"",""trial"",""time""
""fullscreenexit"",""2"",""12757""
","1571.4000000953674","run_exp/static/images/Set 6_rs/178a.jpg","78","","","","","","learn","SR",""
"","show_choice","137","158706","0.0-137.0","""event"",""trial"",""time""
""fullscreenenter"",""0"",""2737""
""fullscreenexit"",""2"",""12757""
","
","
","""event"",""trial"",""time""
""fullscreenenter"",""0"",""2737""
","""event"",""trial"",""time""
""fullscreenexit"",""2"",""12757""
","null","run_exp/static/images/Set 6_rs/178a.jpg","null","","","","","","learn","SR",""
"","html-keyboard-response","138","159228","0.0-138.0","""event"",""trial"",""time""
""fullscreenenter"",""0"",""2737""
""fullscreenexit"",""2"",""12757""
","
","
","""event"",""trial"",""time""
""fullscreenenter"",""0"",""2737""
","""event"",""trial"",""time""
""fullscreenexit"",""2"",""12757""
","null","<p></p>","null","","","","","","","",""
"","image","139","160349","0.0-139.0","""event"",""trial"",""time""
""fullscreenenter"",""0"",""2737""
""fullscreenexit"",""2"",""12757""
","
","
","""event"",""trial"",""time""
""fullscreenenter"",""0"",""2737""
","""event"",""trial"",""time""
""fullscreenexit"",""2"",""12757""
","1119.1000000238419","run_exp/static/images/Set 6_rs/057a.jpg","86","","","","","","learn","SL",""
"","show_choice","140","161244","0.0-140.0","""event"",""trial"",""time""
""fullscreenenter"",""0"",""2737""
""fullscreenexit"",""2"",""12757""
","
","
","""event"",""trial"",""time""
""fullscreenenter"",""0"",""2737""
","""event"",""trial"",""time""
""fullscreenexit"",""2"",""12757""
","null","run_exp/static/images/Set 6_rs/057a.jpg","null","","","","","","learn","SL",""
"","html-keyboard-response","141","161747","0.0-141.0","""event"",""trial"",""time""
""fullscreenenter"",""0"",""2737""
""fullscreenexit"",""2"",""12757""
","
","
","""event"",""trial"",""time""
""fullscreenenter"",""0"",""2737""
","""event"",""trial"",""time""
""fullscreenexit"",""2"",""12757""
","null","<p></p>","null","","","","","","","",""
"","image","142","162604","0.0-142.0","""event"",""trial"",""time""
""fullscreenenter"",""0"",""2737""
""fullscreenexit"",""2"",""12757""
","
","
","""event"",""trial"",""time""
""fullscreenenter"",""0"",""2737""
","""event"",""trial"",""time""
""fullscreenexit"",""2"",""12757""
","855.3999999761581","run_exp/static/images/Set 6_rs/116a.jpg","78","","","","","","learn","SL",""
"","show_choice","143","163759","0.0-143.0","""event"",""trial"",""time""
""fullscreenenter"",""0"",""2737""
""fullscreenexit"",""2"",""12757""
","
","
","""event"",""trial"",""time""
""fullscreenenter"",""0"",""2737""
","""event"",""trial"",""time""
""fullscreenexit"",""2"",""12757""
","null","run_exp/static/images/Set 6_rs/116a.jpg","null","","","","","","learn","SL",""
"","html-keyboard-response","144","164281","0.0-144.0","""event"",""trial"",""time""
""fullscreenenter"",""0"",""2737""
""fullscreenexit"",""2"",""12757""
","
","
","""event"",""trial"",""time""
""fullscreenenter"",""0"",""2737""
","""event"",""trial"",""time""
""fullscreenexit"",""2"",""12757""
","null","<p></p>","null","","","","","","","",""
"","image","145","165675","0.0-145.0","""event"",""trial"",""time""
""fullscreenenter"",""0"",""2737""
""fullscreenexit"",""2"",""12757""
","
","
","""event"",""trial"",""time""
""fullscreenenter"",""0"",""2737""
","""event"",""trial"",""time""
""fullscreenexit"",""2"",""12757""
","1392","run_exp/static/images/Set 6_rs/085a.jpg","86","","","","","","learn","SL",""
"","show_choice","146","166289","0.0-146.0","""event"",""trial"",""time""
""fullscreenenter"",""0"",""2737""
""fullscreenexit"",""2"",""12757""
","
","
","""event"",""trial"",""time""
""fullscreenenter"",""0"",""2737""
","""event"",""trial"",""time""
""fullscreenexit"",""2"",""12757""
","null","run_exp/static/images/Set 6_rs/085a.jpg","null","","","","","","learn","SL",""
"","html-keyboard-response","147","166797","0.0-147.0","""event"",""trial"",""time""
""fullscreenenter"",""0"",""2737""
""fullscreenexit"",""2"",""12757""
","
","
","""event"",""trial"",""time""
""fullscreenenter"",""0"",""2737""
","""event"",""trial"",""time""
""fullscreenexit"",""2"",""12757""
","null","<p></p>","null","","","","","","","",""
"","image","148","168650","0.0-148.0","""event"",""trial"",""time""
""fullscreenenter"",""0"",""2737""
""fullscreenexit"",""2"",""12757""
","
","
","""event"",""trial"",""time""
""fullscreenenter"",""0"",""2737""
","""event"",""trial"",""time""
""fullscreenexit"",""2"",""12757""
","1850.6999999284744","run_exp/static/images/Set 6_rs/070a.jpg","86","","","","","","learn","SR",""
"","show_choice","149","168809","0.0-149.0","""event"",""trial"",""time""
""fullscreenenter"",""0"",""2737""
""fullscreenexit"",""2"",""12757""
","
","
","""event"",""trial"",""time""
""fullscreenenter"",""0"",""2737""
","""event"",""trial"",""time""
""fullscreenexit"",""2"",""12757""
","null","run_exp/static/images/Set 6_rs/070a.jpg","null","","","","","","learn","SR",""
"","html-keyboard-response","150","169316","0.0-150.0","""event"",""trial"",""time""
""fullscreenenter"",""0"",""2737""
""fullscreenexit"",""2"",""12757""
","
","
","""event"",""trial"",""time""
""fullscreenenter"",""0"",""2737""
","""event"",""trial"",""time""
""fullscreenexit"",""2"",""12757""
","null","<p></p>","null","","","","","","","",""
"","image","151","170438","0.0-151.0","""event"",""trial"",""time""
""fullscreenenter"",""0"",""2737""
""fullscreenexit"",""2"",""12757""
","
","
","""event"",""trial"",""time""
""fullscreenenter"",""0"",""2737""
","""event"",""trial"",""time""
""fullscreenexit"",""2"",""12757""
","1120.1000000238419","run_exp/static/images/Set 6_rs/121a.jpg","86","","","","","","learn","SR",""
"","show_choice","152","171323","0.0-152.0","""event"",""trial"",""time""
""fullscreenenter"",""0"",""2737""
""fullscreenexit"",""2"",""12757""
","
","
","""event"",""trial"",""time""
""fullscreenenter"",""0"",""2737""
","""event"",""trial"",""time""
""fullscreenexit"",""2"",""12757""
","null","run_exp/static/images/Set 6_rs/121a.jpg","null","","","","","","learn","SR",""
"","html-keyboard-response","153","171827","0.0-153.0","""event"",""trial"",""time""
""fullscreenenter"",""0"",""2737""
""fullscreenexit"",""2"",""12757""
","
","
","""event"",""trial"",""time""
""fullscreenenter"",""0"",""2737""
","""event"",""trial"",""time""
""fullscreenexit"",""2"",""12757""
","null","<p></p>","null","","","","","","","",""
"","image","154","172783","0.0-154.0","""event"",""trial"",""time""
""fullscreenenter"",""0"",""2737""
""fullscreenexit"",""2"",""12757""
","
","
","""event"",""trial"",""time""
""fullscreenenter"",""0"",""2737""
","""event"",""trial"",""time""
""fullscreenexit"",""2"",""12757""
","954.5","run_exp/static/images/Set 6_rs/167a.jpg","86","","","","","","learn","SL",""
"","show_choice","155","173844","0.0-155.0","""event"",""trial"",""time""
""fullscreenenter"",""0"",""2737""
""fullscreenexit"",""2"",""12757""
","
","
","""event"",""trial"",""time""
""fullscreenenter"",""0"",""2737""
","""event"",""trial"",""time""
""fullscreenexit"",""2"",""12757""
","null","run_exp/static/images/Set 6_rs/167a.jpg","null","","","","","","learn","SL",""
"","html-keyboard-response","156","174363","0.0-156.0","""event"",""trial"",""time""
""fullscreenenter"",""0"",""2737""
""fullscreenexit"",""2"",""12757""
","
","
","""event"",""trial"",""time""
""fullscreenenter"",""0"",""2737""
","""event"",""trial"",""time""
""fullscreenexit"",""2"",""12757""
","null","<p></p>","null","","","","","","","",""
"","image","157","175754","0.0-157.0","""event"",""trial"",""time""
""fullscreenenter"",""0"",""2737""
""fullscreenexit"",""2"",""12757""
","
","
","""event"",""trial"",""time""
""fullscreenenter"",""0"",""2737""
","""event"",""trial"",""time""
""fullscreenexit"",""2"",""12757""
","1389.8000000715256","run_exp/static/images/Set 6_rs/108a.jpg","86","","","","","","learn","SR",""
"","show_choice","158","176371","0.0-158.0","""event"",""trial"",""time""
""fullscreenenter"",""0"",""2737""
""fullscreenexit"",""2"",""12757""
","
","
","""event"",""trial"",""time""
""fullscreenenter"",""0"",""2737""
","""event"",""trial"",""time""
""fullscreenexit"",""2"",""12757""
","null","run_exp/static/images/Set 6_rs/108a.jpg","null","","","","","","learn","SR",""
"","html-keyboard-response","159","176875","0.0-159.0","""event"",""trial"",""time""
""fullscreenenter"",""0"",""2737""
""fullscreenexit"",""2"",""12757""
","
","
","""event"",""trial"",""time""
""fullscreenenter"",""0"",""2737""
","""event"",""trial"",""time""
""fullscreenexit"",""2"",""12757""
","null","<p></p>","null","","","","","","","",""
"","image","160","178336","0.0-160.0","""event"",""trial"",""time""
""fullscreenenter"",""0"",""2737""
""fullscreenexit"",""2"",""12757""
","
","
","""event"",""trial"",""time""
""fullscreenenter"",""0"",""2737""
","""event"",""trial"",""time""
""fullscreenexit"",""2"",""12757""
","1459.1999999284744","run_exp/static/images/Set 6_rs/166a.jpg","86","","","","","","learn","SR",""
"","show_choice","161","178886","0.0-161.0","""event"",""trial"",""time""
""fullscreenenter"",""0"",""2737""
""fullscreenexit"",""2"",""12757""
","
","
","""event"",""trial"",""time""
""fullscreenenter"",""0"",""2737""
","""event"",""trial"",""time""
""fullscreenexit"",""2"",""12757""
","null","run_exp/static/images/Set 6_rs/166a.jpg","null","","","","","","learn","SR",""
"","html-keyboard-response","162","179403","0.0-162.0","""event"",""trial"",""time""
""fullscreenenter"",""0"",""2737""
""fullscreenexit"",""2"",""12757""
","
","
","""event"",""trial"",""time""
""fullscreenenter"",""0"",""2737""
","""event"",""trial"",""time""
""fullscreenexit"",""2"",""12757""
","null","<p></p>","null","","","","","","","",""
"","image","163","180065","0.0-163.0","""event"",""trial"",""time""
""fullscreenenter"",""0"",""2737""
""fullscreenexit"",""2"",""12757""
","
","
","""event"",""trial"",""time""
""fullscreenenter"",""0"",""2737""
","""event"",""trial"",""time""
""fullscreenexit"",""2"",""12757""
","660.6999999284744","run_exp/static/images/Set 6_rs/006a.jpg","86","","","","","","learn","SL",""
"","show_choice","164","181407","0.0-164.0","""event"",""trial"",""time""
""fullscreenenter"",""0"",""2737""
""fullscreenexit"",""2"",""12757""
","
","
","""event"",""trial"",""time""
""fullscreenenter"",""0"",""2737""
","""event"",""trial"",""time""
""fullscreenexit"",""2"",""12757""
","null","run_exp/static/images/Set 6_rs/006a.jpg","null","","","","","","learn","SL",""
"","html-keyboard-response","165","181923","0.0-165.0","""event"",""trial"",""time""
""fullscreenenter"",""0"",""2737""
""fullscreenexit"",""2"",""12757""
","
","
","""event"",""trial"",""time""
""fullscreenenter"",""0"",""2737""
","""event"",""trial"",""time""
""fullscreenexit"",""2"",""12757""
","null","<p></p>","null","","","","","","","",""
"","image","166","182619","0.0-166.0","""event"",""trial"",""time""
""fullscreenenter"",""0"",""2737""
""fullscreenexit"",""2"",""12757""
","
","
","""event"",""trial"",""time""
""fullscreenenter"",""0"",""2737""
","""event"",""trial"",""time""
""fullscreenexit"",""2"",""12757""
","694.1000000238419","run_exp/static/images/Set 6_rs/123a.jpg","86","","","","","","learn","SL",""
"","show_choice","167","183941","0.0-167.0","""event"",""trial"",""time""
""fullscreenenter"",""0"",""2737""
""fullscreenexit"",""2"",""12757""
","
","
","""event"",""trial"",""time""
""fullscreenenter"",""0"",""2737""
","""event"",""trial"",""time""
""fullscreenexit"",""2"",""12757""
","null","run_exp/static/images/Set 6_rs/123a.jpg","null","","","","","","learn","SL",""
"","html-keyboard-response","168","184448","0.0-168.0","""event"",""trial"",""time""
""fullscreenenter"",""0"",""2737""
""fullscreenexit"",""2"",""12757""
","
","
","""event"",""trial"",""time""
""fullscreenenter"",""0"",""2737""
","""event"",""trial"",""time""
""fullscreenexit"",""2"",""12757""
","null","<p></p>","null","","","","","","","",""
"","image","169","185926","0.0-169.0","""event"",""trial"",""time""
""fullscreenenter"",""0"",""2737""
""fullscreenexit"",""2"",""12757""
","
","
","""event"",""trial"",""time""
""fullscreenenter"",""0"",""2737""
","""event"",""trial"",""time""
""fullscreenexit"",""2"",""12757""
","1475.8000000715256","run_exp/static/images/Set 6_rs/063a.jpg","78","","","","","","learn","SR",""
"","show_choice","170","186465","0.0-170.0","""event"",""trial"",""time""
""fullscreenenter"",""0"",""2737""
""fullscreenexit"",""2"",""12757""
","
","
","""event"",""trial"",""time""
""fullscreenenter"",""0"",""2737""
","""event"",""trial"",""time""
""fullscreenexit"",""2"",""12757""
","null","run_exp/static/images/Set 6_rs/063a.jpg","null","","","","","","learn","SR",""
"","html-keyboard-response","171","186970","0.0-171.0","""event"",""trial"",""time""
""fullscreenenter"",""0"",""2737""
""fullscreenexit"",""2"",""12757""
","
","
","""event"",""trial"",""time""
""fullscreenenter"",""0"",""2737""
","""event"",""trial"",""time""
""fullscreenexit"",""2"",""12757""
","null","<p></p>","null","","","","","","","",""
"","image","172","188408","0.0-172.0","""event"",""trial"",""time""
""fullscreenenter"",""0"",""2737""
""fullscreenexit"",""2"",""12757""
","
","
","""event"",""trial"",""time""
""fullscreenenter"",""0"",""2737""
","""event"",""trial"",""time""
""fullscreenexit"",""2"",""12757""
","1435.6000000238419","run_exp/static/images/Set 6_rs/144a.jpg","86","","","","","","learn","SL",""
"","show_choice","173","188988","0.0-173.0","""event"",""trial"",""time""
""fullscreenenter"",""0"",""2737""
""fullscreenexit"",""2"",""12757""
","
","
","""event"",""trial"",""time""
""fullscreenenter"",""0"",""2737""
","""event"",""trial"",""time""
""fullscreenexit"",""2"",""12757""
","null","run_exp/static/images/Set 6_rs/144a.jpg","null","","","","","","learn","SL",""
"","html-keyboard-response","174","189504","0.0-174.0","""event"",""trial"",""time""
""fullscreenenter"",""0"",""2737""
""fullscreenexit"",""2"",""12757""
","
","
","""event"",""trial"",""time""
""fullscreenenter"",""0"",""2737""
","""event"",""trial"",""time""
""fullscreenexit"",""2"",""12757""
","null","<p></p>","null","","","","","","","",""
"","image","175","190282","0.0-175.0","""event"",""trial"",""time""
""fullscreenenter"",""0"",""2737""
""fullscreenexit"",""2"",""12757""
","
","
","""event"",""trial"",""time""
""fullscreenenter"",""0"",""2737""
","""event"",""trial"",""time""
""fullscreenexit"",""2"",""12757""
","775.6999999284744","run_exp/static/images/Set 6_rs/138a.jpg","86","","","","","","learn","SL",""
"","show_choice","176","191523","0.0-176.0","""event"",""trial"",""time""
""fullscreenenter"",""0"",""2737""
""fullscreenexit"",""2"",""12757""
","
","
","""event"",""trial"",""time""
""fullscreenenter"",""0"",""2737""
","""event"",""trial"",""time""
""fullscreenexit"",""2"",""12757""
","null","run_exp/static/images/Set 6_rs/138a.jpg","null","","","","","","learn","SL",""
"","html-keyboard-response","177","192045","0.0-177.0","""event"",""trial"",""time""
""fullscreenenter"",""0"",""2737""
""fullscreenexit"",""2"",""12757""
","
","
","""event"",""trial"",""time""
""fullscreenenter"",""0"",""2737""
","""event"",""trial"",""time""
""fullscreenexit"",""2"",""12757""
","null","<p></p>","null","","","","","","","",""
"","image","178","194051","0.0-178.0","""event"",""trial"",""time""
""fullscreenenter"",""0"",""2737""
""fullscreenexit"",""2"",""12757""
","
","
","""event"",""trial"",""time""
""fullscreenenter"",""0"",""2737""
","""event"",""trial"",""time""
""fullscreenexit"",""2"",""12757""
","null","run_exp/static/images/Set 6_rs/091a.jpg","null","","","","","","learn","SL",""
"","show_choice","179","196057","0.0-179.0","""event"",""trial"",""time""
""fullscreenenter"",""0"",""2737""
""fullscreenexit"",""2"",""12757""
","
","
","""event"",""trial"",""time""
""fullscreenenter"",""0"",""2737""
","""event"",""trial"",""time""
""fullscreenexit"",""2"",""12757""
","null","run_exp/static/images/blank.png","null","","","","","","learn","SL",""
"","html-keyboard-response","180","196565","0.0-180.0","""event"",""trial"",""time""
""fullscreenenter"",""0"",""2737""
""fullscreenexit"",""2"",""12757""
","
","
","""event"",""trial"",""time""
""fullscreenenter"",""0"",""2737""
","""event"",""trial"",""time""
""fullscreenexit"",""2"",""12757""
","null","<p></p>","null","","","","","","","",""
"","image","181","197648","0.0-181.0","""event"",""trial"",""time""
""fullscreenenter"",""0"",""2737""
""fullscreenexit"",""2"",""12757""
","
","
","""event"",""trial"",""time""
""fullscreenenter"",""0"",""2737""
","""event"",""trial"",""time""
""fullscreenexit"",""2"",""12757""
","1081","run_exp/static/images/Set 6_rs/187a.jpg","86","","","","","","learn","SR",""
"","show_choice","182","198572","0.0-182.0","""event"",""trial"",""time""
""fullscreenenter"",""0"",""2737""
""fullscreenexit"",""2"",""12757""
","
","
","""event"",""trial"",""time""
""fullscreenenter"",""0"",""2737""
","""event"",""trial"",""time""
""fullscreenexit"",""2"",""12757""
","null","run_exp/static/images/Set 6_rs/187a.jpg","null","","","","","","learn","SR",""
"","html-keyboard-response","183","199091","0.0-183.0","""event"",""trial"",""time""
""fullscreenenter"",""0"",""2737""
""fullscreenexit"",""2"",""12757""
","
","
","""event"",""trial"",""time""
""fullscreenenter"",""0"",""2737""
","""event"",""trial"",""time""
""fullscreenexit"",""2"",""12757""
","null","<p></p>","null","","","","","","","",""
"","image","184","200433","0.0-184.0","""event"",""trial"",""time""
""fullscreenenter"",""0"",""2737""
""fullscreenexit"",""2"",""12757""
","
","
","""event"",""trial"",""time""
""fullscreenenter"",""0"",""2737""
","""event"",""trial"",""time""
""fullscreenexit"",""2"",""12757""
","1340.2000000476837","run_exp/static/images/Set 6_rs/010a.jpg","86","","","","","","learn","SR",""
"","show_choice","185","201101","0.0-185.0","""event"",""trial"",""time""
""fullscreenenter"",""0"",""2737""
""fullscreenexit"",""2"",""12757""
","
","
","""event"",""trial"",""time""
""fullscreenenter"",""0"",""2737""
","""event"",""trial"",""time""
""fullscreenexit"",""2"",""12757""
","null","run_exp/static/images/Set 6_rs/010a.jpg","null","","","","","","learn","SR",""
"","html-keyboard-response","186","201619","0.0-186.0","""event"",""trial"",""time""
""fullscreenenter"",""0"",""2737""
""fullscreenexit"",""2"",""12757""
","
","
","""event"",""trial"",""time""
""fullscreenenter"",""0"",""2737""
","""event"",""trial"",""time""
""fullscreenexit"",""2"",""12757""
","null","<p></p>","null","","","","","","","",""
"","image","187","202568","0.0-187.0","""event"",""trial"",""time""
""fullscreenenter"",""0"",""2737""
""fullscreenexit"",""2"",""12757""
","
","
","""event"",""trial"",""time""
""fullscreenenter"",""0"",""2737""
","""event"",""trial"",""time""
""fullscreenexit"",""2"",""12757""
","947.2000000476837","run_exp/static/images/Set 6_rs/023a.jpg","86","","","","","","learn","SR",""
"","show_choice","188","203635","0.0-188.0","""event"",""trial"",""time""
""fullscreenenter"",""0"",""2737""
""fullscreenexit"",""2"",""12757""
","
","
","""event"",""trial"",""time""
""fullscreenenter"",""0"",""2737""
","""event"",""trial"",""time""
""fullscreenexit"",""2"",""12757""
","null","run_exp/static/images/Set 6_rs/023a.jpg","null","","","","","","learn","SR",""
"","html-keyboard-response","189","204153","0.0-189.0","""event"",""trial"",""time""
""fullscreenenter"",""0"",""2737""
""fullscreenexit"",""2"",""12757""
","
","
","""event"",""trial"",""time""
""fullscreenenter"",""0"",""2737""
","""event"",""trial"",""time""
""fullscreenexit"",""2"",""12757""
","null","<p></p>","null","","","","","","","",""
"","image","190","205397","0.0-190.0","""event"",""trial"",""time""
""fullscreenenter"",""0"",""2737""
""fullscreenexit"",""2"",""12757""
","
","
","""event"",""trial"",""time""
""fullscreenenter"",""0"",""2737""
","""event"",""trial"",""time""
""fullscreenexit"",""2"",""12757""
","1239.5","run_exp/static/images/Set 6_rs/134a.jpg","86","","","","","","learn","SR",""
"","show_choice","191","206176","0.0-191.0","""event"",""trial"",""time""
""fullscreenenter"",""0"",""2737""
""fullscreenexit"",""2"",""12757""
","
","
","""event"",""trial"",""time""
""fullscreenenter"",""0"",""2737""
","""event"",""trial"",""time""
""fullscreenexit"",""2"",""12757""
","null","run_exp/static/images/Set 6_rs/134a.jpg","null","","","","","","learn","SR",""
"","html-keyboard-response","192","206695","0.0-192.0","""event"",""trial"",""time""
""fullscreenenter"",""0"",""2737""
""fullscreenexit"",""2"",""12757""
","
","
","""event"",""trial"",""time""
""fullscreenenter"",""0"",""2737""
","""event"",""trial"",""time""
""fullscreenexit"",""2"",""12757""
","null","<p></p>","null","","","","","","","",""
"","image","193","207693","0.0-193.0","""event"",""trial"",""time""
""fullscreenenter"",""0"",""2737""
""fullscreenexit"",""2"",""12757""
","
","
","""event"",""trial"",""time""
""fullscreenenter"",""0"",""2737""
","""event"",""trial"",""time""
""fullscreenexit"",""2"",""12757""
","996","run_exp/static/images/Set 6_rs/095a.jpg","86","","","","","","learn","SL",""
"","show_choice","194","208700","0.0-194.0","""event"",""trial"",""time""
""fullscreenenter"",""0"",""2737""
""fullscreenexit"",""2"",""12757""
","
","
","""event"",""trial"",""time""
""fullscreenenter"",""0"",""2737""
","""event"",""trial"",""time""
""fullscreenexit"",""2"",""12757""
","null","run_exp/static/images/Set 6_rs/095a.jpg","null","","","","","","learn","SL",""
"","html-keyboard-response","195","209202","0.0-195.0","""event"",""trial"",""time""
""fullscreenenter"",""0"",""2737""
""fullscreenexit"",""2"",""12757""
","
","
","""event"",""trial"",""time""
""fullscreenenter"",""0"",""2737""
","""event"",""trial"",""time""
""fullscreenexit"",""2"",""12757""
","null","<p></p>","null","","","","","","","",""
"","test_intro","196","246457","0.0-196.0","""event"",""trial"",""time""
""fullscreenenter"",""0"",""2737""
""fullscreenexit"",""2"",""12757""
","
","
","""event"",""trial"",""time""
""fullscreenenter"",""0"",""2737""
","""event"",""trial"",""time""
""fullscreenexit"",""2"",""12757""
","null","run_exp/static/audio/clip_2_memory.m4a","null","","","","","<div class='center'><p>Now, lets see how much you remember about the items you just saw.  For each item, you need to indicate if it was <b>old</b> by pressing the <b>v</b> key, <b>similar</b> by pressing the <b>b</b> key, or <b>new</b> by pressing the <b>n</b> key.</p><p>Old refers to an item that you saw before in the indoor/outdoor game that you just played, new refers to an item you have <b>not</b> seen before within the indoor/outdoor game, and similar refers to an item that is similar to an item youve seen before but is not exactly the same. </p><p>Before we begin, lets go over some brief demonstrations to make sure you understand.</p></div>","","",""
"","html-keyboard-response","197","247146","0.0-197.0","""event"",""trial"",""time""
""fullscreenenter"",""0"",""2737""
""fullscreenexit"",""2"",""12757""
","
","
","""event"",""trial"",""time""
""fullscreenenter"",""0"",""2737""
","""event"",""trial"",""time""
""fullscreenexit"",""2"",""12757""
","687.5","<div class='center'><p>Now, lets see how much you remember about the items you just saw.  For each item, you need to indicate if it was <b>old</b> by pressing the <b>v</b> key, <b>similar</b> by pressing the <b>b</b> key, or <b>new</b> by pressing the <b>n</b> key.</p><p>Old refers to an item that you saw before in the indoor/outdoor game that you just played, new refers to an item you have <b>not</b> seen before within the indoor/outdoor game, and similar refers to an item that is similar to an item youve seen before but is not exactly the same. </p><p>Before we begin, lets go over some brief demonstrations to make sure you understand.</p><div><p><b>[Press the space bar to continue]</b></p></div>","32","","","","","","","",""
"","items","198","254665","0.0-198.0","""event"",""trial"",""time""
""fullscreenenter"",""0"",""2737""
""fullscreenexit"",""2"",""12757""
","
","
","""event"",""trial"",""time""
""fullscreenenter"",""0"",""2737""
","""event"",""trial"",""time""
""fullscreenexit"",""2"",""12757""
","null","run_exp/static/audio/clip_3_items.m4a","null","","","","","","","",""
"","mop","199","259185","0.0-199.0","""event"",""trial"",""time""
""fullscreenenter"",""0"",""2737""
""fullscreenexit"",""2"",""12757""
","
","
","""event"",""trial"",""time""
""fullscreenenter"",""0"",""2737""
","""event"",""trial"",""time""
""fullscreenexit"",""2"",""12757""
","null","run_exp/static/audio/clip_4_mop.m4a","null","","","","","","","",""
"","baseball","200","262696","0.0-200.0","""event"",""trial"",""time""
""fullscreenenter"",""0"",""2737""
""fullscreenexit"",""2"",""12757""
","
","
","""event"",""trial"",""time""
""fullscreenenter"",""0"",""2737""
","""event"",""trial"",""time""
""fullscreenexit"",""2"",""12757""
","null","run_exp/static/audio/clip_5_baseball.m4a","null","","","","","","","",""
"","trumpet","201","266203","0.0-201.0","""event"",""trial"",""time""
""fullscreenenter"",""0"",""2737""
""fullscreenexit"",""2"",""12757""
","
","
","""event"",""trial"",""time""
""fullscreenenter"",""0"",""2737""
","""event"",""trial"",""time""
""fullscreenexit"",""2"",""12757""
","null","run_exp/static/audio/clip_6_trumpet.m4a","null","","","","","","","",""
"","gummies","202","269711","0.0-202.0","""event"",""trial"",""time""
""fullscreenenter"",""0"",""2737""
""fullscreenexit"",""2"",""12757""
","
","
","""event"",""trial"",""time""
""fullscreenenter"",""0"",""2737""
","""event"",""trial"",""time""
""fullscreenexit"",""2"",""12757""
","null","run_exp/static/audio/clip_7_gummies.m4a","null","","","","","","","",""
"","osn","203","274225","0.0-203.0","""event"",""trial"",""time""
""fullscreenenter"",""0"",""2737""
""fullscreenexit"",""2"",""12757""
","
","
","""event"",""trial"",""time""
""fullscreenenter"",""0"",""2737""
","""event"",""trial"",""time""
""fullscreenexit"",""2"",""12757""
","null","run_exp/static/audio/clip_8_osn.m4a","null","","","","","","","",""
"","old_1","204","280745","0.0-204.0","""event"",""trial"",""time""
""fullscreenenter"",""0"",""2737""
""fullscreenexit"",""2"",""12757""
","
","
","""event"",""trial"",""time""
""fullscreenenter"",""0"",""2737""
","""event"",""trial"",""time""
""fullscreenexit"",""2"",""12757""
","null","run_exp/static/audio/clip_9_old_trumpet.m4a","null","","","","","","","",""
"","new_1","205","288252","0.0-205.0","""event"",""trial"",""time""
""fullscreenenter"",""0"",""2737""
""fullscreenexit"",""2"",""12757""
","
","
","""event"",""trial"",""time""
""fullscreenenter"",""0"",""2737""
","""event"",""trial"",""time""
""fullscreenexit"",""2"",""12757""
","null","run_exp/static/audio/clip_10_new_balloon.m4a","null","","","","","","","",""
"","similar_1a","206","292765","0.0-206.0","""event"",""trial"",""time""
""fullscreenenter"",""0"",""2737""
""fullscreenexit"",""2"",""12757""
","
","
","""event"",""trial"",""time""
""fullscreenenter"",""0"",""2737""
","""event"",""trial"",""time""
""fullscreenexit"",""2"",""12757""
","null","run_exp/static/audio/clip_11a_similar_mop.m4a","null","","","","","","","",""
"","similar_1b","207","299285","0.0-207.0","""event"",""trial"",""time""
""fullscreenenter"",""0"",""2737""
""fullscreenexit"",""2"",""12757""
","
","
","""event"",""trial"",""time""
""fullscreenenter"",""0"",""2737""
","""event"",""trial"",""time""
""fullscreenexit"",""2"",""12757""
","null","run_exp/static/audio/clip_11b_similar_mop.m4a","null","","","","","","","",""
"","new_2","208","302800","0.0-208.0","""event"",""trial"",""time""
""fullscreenenter"",""0"",""2737""
""fullscreenexit"",""2"",""12757""
","
","
","""event"",""trial"",""time""
""fullscreenenter"",""0"",""2737""
","""event"",""trial"",""time""
""fullscreenexit"",""2"",""12757""
","null","run_exp/static/audio/clip_12_new_stoplight.m4a","null","","","","","","","",""
"","old_2","209","306308","0.0-209.0","""event"",""trial"",""time""
""fullscreenenter"",""0"",""2737""
""fullscreenexit"",""2"",""12757""
","
","
","""event"",""trial"",""time""
""fullscreenenter"",""0"",""2737""
","""event"",""trial"",""time""
""fullscreenexit"",""2"",""12757""
","null","run_exp/static/audio/clip_13_old_baseball.m4a","null","","","","","","","",""
"","similar_2a","210","309825","0.0-210.0","""event"",""trial"",""time""
""fullscreenenter"",""0"",""2737""
""fullscreenexit"",""2"",""12757""
","
","
","""event"",""trial"",""time""
""fullscreenenter"",""0"",""2737""
","""event"",""trial"",""time""
""fullscreenexit"",""2"",""12757""
","null","run_exp/static/audio/clip_14a_similar_gummies.m4a","null","","","","","","","",""
"","similar_2b","211","317340","0.0-211.0","""event"",""trial"",""time""
""fullscreenenter"",""0"",""2737""
""fullscreenexit"",""2"",""12757""
","
","
","""event"",""trial"",""time""
""fullscreenenter"",""0"",""2737""
","""event"",""trial"",""time""
""fullscreenexit"",""2"",""12757""
","null","run_exp/static/audio/clip_14b_similar_gummies.m4a","null","","","","","","","",""
"","practice","212","359497","0.0-212.0","""event"",""trial"",""time""
""fullscreenenter"",""0"",""2737""
""fullscreenexit"",""2"",""12757""
","
","
","""event"",""trial"",""time""
""fullscreenenter"",""0"",""2737""
","""event"",""trial"",""time""
""fullscreenexit"",""2"",""12757""
","null","run_exp/static/audio/clip_15_practice.m4a","null","","","","","<div class='center'><p>Lets practice a little to make sure you understand the difference between new, similar, and old. Lets say you saw these three items in the indoor/outdoor game.</p><p> Try your best to remember these images because youll soon be tested on them in a practice game. In the practice game, youll be shown images and youll have to say if they are old (one of the three images belows), similar (similar to one of the images below but not exactly the same), or new (are not one of the images below nor similar to them).</p><p>Once you press the space bar youll be shown these images again but one at time. Then youll begin the practice game.</p><p><img src='run_exp/static/images/tutorial/test/three_indoor_outdoor.png' height='300'></p></div>","","",""
"","html-keyboard-response","213","362209","0.0-213.0","""event"",""trial"",""time""
""fullscreenenter"",""0"",""2737""
""fullscreenexit"",""2"",""12757""
","
","
","""event"",""trial"",""time""
""fullscreenenter"",""0"",""2737""
","""event"",""trial"",""time""
""fullscreenexit"",""2"",""12757""
","2709.100000023842","<div class='center'><p>Lets practice a little to make sure you understand the difference between new, similar, and old. Lets say you saw these three items in the indoor/outdoor game.</p><p> Try your best to remember these images because youll soon be tested on them in a practice game. In the practice game, youll be shown images and youll have to say if they are old (one of the three images belows), similar (similar to one of the images below but not exactly the same), or new (are not one of the images below nor similar to them).</p><p>Once you press the space bar youll be shown these images again but one at time. Then youll begin the practice game.</p><p><img src='run_exp/static/images/tutorial/test/three_indoor_outdoor.png' height='300'></p><div><p><b>[Press the space bar to continue]</b></p></div>","32","","","","","","","",""
"","planet","214","364212","0.0-214.0","""event"",""trial"",""time""
""fullscreenenter"",""0"",""2737""
""fullscreenexit"",""2"",""12757""
","
","
","""event"",""trial"",""time""
""fullscreenenter"",""0"",""2737""
","""event"",""trial"",""time""
""fullscreenexit"",""2"",""12757""
","null","run_exp/static/images/tutorial/test/008a.jpg","null","","","","","","","",""
"","boot","215","366225","0.0-215.0","""event"",""trial"",""time""
""fullscreenenter"",""0"",""2737""
""fullscreenexit"",""2"",""12757""
","
","
","""event"",""trial"",""time""
""fullscreenenter"",""0"",""2737""
","""event"",""trial"",""time""
""fullscreenexit"",""2"",""12757""
","null","run_exp/static/images/tutorial/test/011a.jpg","null","","","","","","","",""
"","lemon","216","368235","0.0-216.0","""event"",""trial"",""time""
""fullscreenenter"",""0"",""2737""
""fullscreenexit"",""2"",""12757""
","
","
","""event"",""trial"",""time""
""fullscreenenter"",""0"",""2737""
","""event"",""trial"",""time""
""fullscreenexit"",""2"",""12757""
","null","run_exp/static/images/tutorial/test/018a.jpg","null","","","","","","","",""
"","practice_q1","217","448011","0.0-217.0","""event"",""trial"",""time""
""fullscreenenter"",""0"",""2737""
""fullscreenexit"",""2"",""12757""
","
","
","""event"",""trial"",""time""
""fullscreenenter"",""0"",""2737""
","""event"",""trial"",""time""
""fullscreenexit"",""2"",""12757""
","79772.90000009537","run_exp/static/audio/clip_16_practice_question.m4a","78","","","","","","","",""
"","correct","218","450344","0.0-218.0-0.0","""event"",""trial"",""time""
""fullscreenenter"",""0"",""2737""
""fullscreenexit"",""2"",""12757""
","
","
","""event"",""trial"",""time""
""fullscreenenter"",""0"",""2737""
","""event"",""trial"",""time""
""fullscreenexit"",""2"",""12757""
","null","run_exp/static/audio/clip_17_correct.m4a","null","","","","","<div class='center'><p>That's correct!</p></div>","","",""
"","html-keyboard-response","219","451092","0.0-218.0-1.0","""event"",""trial"",""time""
""fullscreenenter"",""0"",""2737""
""fullscreenexit"",""2"",""12757""
","
","
","""event"",""trial"",""time""
""fullscreenenter"",""0"",""2737""
","""event"",""trial"",""time""
""fullscreenexit"",""2"",""12757""
","747.2999999523163","<div class='center'><p>That's correct!</p><div><p><b>[Press the space bar to continue]</b></p></div>","32","","","","","","","",""
"","practice_q2","220","456014","0.0-218.0-2.0","""event"",""trial"",""time""
""fullscreenenter"",""0"",""2737""
""fullscreenexit"",""2"",""12757""
","
","
","""event"",""trial"",""time""
""fullscreenenter"",""0"",""2737""
","""event"",""trial"",""time""
""fullscreenexit"",""2"",""12757""
","4919","run_exp/static/audio/clip_16_practice_question.m4a","86","","","","","","","",""
"","correct","221","457903","0.0-219.0-0.0","""event"",""trial"",""time""
""fullscreenenter"",""0"",""2737""
""fullscreenexit"",""2"",""12757""
","
","
","""event"",""trial"",""time""
""fullscreenenter"",""0"",""2737""
","""event"",""trial"",""time""
""fullscreenexit"",""2"",""12757""
","null","run_exp/static/audio/clip_17_correct.m4a","null","","","","","<div class='center'><p>That's correct!</p></div>","","",""
"","html-keyboard-response","222","459133","0.0-219.0-1.0","""event"",""trial"",""time""
""fullscreenenter"",""0"",""2737""
""fullscreenexit"",""2"",""12757""
","
","
","""event"",""trial"",""time""
""fullscreenenter"",""0"",""2737""
","""event"",""trial"",""time""
""fullscreenexit"",""2"",""12757""
","1227.8000000715256","<div class='center'><p>That's correct!</p><div><p><b>[Press the space bar to continue]</b></p></div>","32","","","","","","","",""
"","practice_q3","223","461289","0.0-219.0-2.0","""event"",""trial"",""time""
""fullscreenenter"",""0"",""2737""
""fullscreenexit"",""2"",""12757""
","
","
","""event"",""trial"",""time""
""fullscreenenter"",""0"",""2737""
","""event"",""trial"",""time""
""fullscreenexit"",""2"",""12757""
","2154.7999999523163","run_exp/static/audio/clip_16_practice_question.m4a","66","","","","","","","",""
"","correct","224","463343","0.0-220.0-0.0","""event"",""trial"",""time""
""fullscreenenter"",""0"",""2737""
""fullscreenexit"",""2"",""12757""
","
","
","""event"",""trial"",""time""
""fullscreenenter"",""0"",""2737""
","""event"",""trial"",""time""
""fullscreenexit"",""2"",""12757""
","null","run_exp/static/audio/clip_17_correct.m4a","null","","","","","<div class='center'><p>That's correct!</p></div>","","",""
"","html-keyboard-response","225","463891","0.0-220.0-1.0","""event"",""trial"",""time""
""fullscreenenter"",""0"",""2737""
""fullscreenexit"",""2"",""12757""
","
","
","""event"",""trial"",""time""
""fullscreenenter"",""0"",""2737""
","""event"",""trial"",""time""
""fullscreenexit"",""2"",""12757""
","546.2999999523163","<div class='center'><p>That's correct!</p><div><p><b>[Press the space bar to continue]</b></p></div>","32","","","","","","","",""
"","begin_text","226","482383","0.0-221.0-0.0","""event"",""trial"",""time""
""fullscreenenter"",""0"",""2737""
""fullscreenexit"",""2"",""12757""
","
","
","""event"",""trial"",""time""
""fullscreenenter"",""0"",""2737""
","""event"",""trial"",""time""
""fullscreenexit"",""2"",""12757""
","null","run_exp/static/audio/clip_22_begin_test.m4a","null","","","","","<div class='center'><p>On to the real game where well test your memory of items from the indoor/outdoor game. For each item, you need to indicate if the item is <b>old</b> by pressing the <b>v</b> key, <b>similar</b> by pressing the <b>b</b> key, or <b>new</b> by pressing the <b>n</b> key. </p></div>","","",""
"","html-keyboard-response","227","483290","0.0-221.0-1.0","""event"",""trial"",""time""
""fullscreenenter"",""0"",""2737""
""fullscreenexit"",""2"",""12757""
","
","
","""event"",""trial"",""time""
""fullscreenenter"",""0"",""2737""
","""event"",""trial"",""time""
""fullscreenexit"",""2"",""12757""
","904.4000000953674","<div class='center'><p>On to the real game where well test your memory of items from the indoor/outdoor game. For each item, you need to indicate if the item is <b>old</b> by pressing the <b>v</b> key, <b>similar</b> by pressing the <b>b</b> key, or <b>new</b> by pressing the <b>n</b> key. </p><div><p><b>[Press the space bar to continue]</b></p></div>","32","","","","","","","",""
"","image","228","484610","0.0-222.0-0.0","""event"",""trial"",""time""
""fullscreenenter"",""0"",""2737""
""fullscreenexit"",""2"",""12757""
","
","
","""event"",""trial"",""time""
""fullscreenenter"",""0"",""2737""
","""event"",""trial"",""time""
""fullscreenexit"",""2"",""12757""
","1317.7000000476837","run_exp/static/images/Set 6_rs/050b.jpg","86","","","","","","test","TL","3"
"","show_choice","229","485117","0.0-222.0-1.0","""event"",""trial"",""time""
""fullscreenenter"",""0"",""2737""
""fullscreenexit"",""2"",""12757""
","
","
","""event"",""trial"",""time""
""fullscreenenter"",""0"",""2737""
","""event"",""trial"",""time""
""fullscreenexit"",""2"",""12757""
","null","run_exp/static/images/Set 6_rs/050b.jpg","null","","","","","","test","TL",""
"","html-keyboard-response","230","485632","0.0-222.0-2.0","""event"",""trial"",""time""
""fullscreenenter"",""0"",""2737""
""fullscreenexit"",""2"",""12757""
","
","
","""event"",""trial"",""time""
""fullscreenenter"",""0"",""2737""
","""event"",""trial"",""time""
""fullscreenexit"",""2"",""12757""
","null","<p></p>","null","","","","","","","",""
"","image","231","487012","0.0-223.0-0.0","""event"",""trial"",""time""
""fullscreenenter"",""0"",""2737""
""fullscreenexit"",""2"",""12757""
","
","
","""event"",""trial"",""time""
""fullscreenenter"",""0"",""2737""
","""event"",""trial"",""time""
""fullscreenexit"",""2"",""12757""
","1378.2000000476837","run_exp/static/images/Set 6_rs/055b.jpg","66","","","","","","test","TL","4"
"","show_choice","232","487532","0.0-223.0-1.0","""event"",""trial"",""time""
""fullscreenenter"",""0"",""2737""
""fullscreenexit"",""2"",""12757""
","
","
","""event"",""trial"",""time""
""fullscreenenter"",""0"",""2737""
","""event"",""trial"",""time""
""fullscreenexit"",""2"",""12757""
","null","run_exp/static/images/Set 6_rs/055b.jpg","null","","","","","","test","TL",""
"","html-keyboard-response","233","488052","0.0-223.0-2.0","""event"",""trial"",""time""
""fullscreenenter"",""0"",""2737""
""fullscreenexit"",""2"",""12757""
","
","
","""event"",""trial"",""time""
""fullscreenenter"",""0"",""2737""
","""event"",""trial"",""time""
""fullscreenexit"",""2"",""12757""
","null","<p></p>","null","","","","","","","",""
"","image","234","489898","0.0-224.0-0.0","""event"",""trial"",""time""
""fullscreenenter"",""0"",""2737""
""fullscreenexit"",""2"",""12757""
","
","
","""event"",""trial"",""time""
""fullscreenenter"",""0"",""2737""
","""event"",""trial"",""time""
""fullscreenexit"",""2"",""12757""
","1844.3999999761581","run_exp/static/images/Set 6_rs/191b.jpg","86","","","","","","test","TL","2"
"","show_choice","235","490413","0.0-224.0-1.0","""event"",""trial"",""time""
""fullscreenenter"",""0"",""2737""
""fullscreenexit"",""2"",""12757""
","
","
","""event"",""trial"",""time""
""fullscreenenter"",""0"",""2737""
","""event"",""trial"",""time""
""fullscreenexit"",""2"",""12757""
","null","run_exp/static/images/Set 6_rs/191b.jpg","null","","","","","","test","TL",""
"","html-keyboard-response","236","490920","0.0-224.0-2.0","""event"",""trial"",""time""
""fullscreenenter"",""0"",""2737""
""fullscreenexit"",""2"",""12757""
","
","
","""event"",""trial"",""time""
""fullscreenenter"",""0"",""2737""
","""event"",""trial"",""time""
""fullscreenexit"",""2"",""12757""
","null","<p></p>","null","","","","","","","",""
"","image","237","492827","0.0-225.0-0.0","""event"",""trial"",""time""
""fullscreenenter"",""0"",""2737""
""fullscreenexit"",""2"",""12757""
","
","
","""event"",""trial"",""time""
""fullscreenenter"",""0"",""2737""
","""event"",""trial"",""time""
""fullscreenexit"",""2"",""12757""
","1905.1000000238419","run_exp/static/images/Set 6_rs/118a.jpg","78","","","","","","test","TF","5"
"","show_choice","238","493343","0.0-225.0-1.0","""event"",""trial"",""time""
""fullscreenenter"",""0"",""2737""
""fullscreenexit"",""2"",""12757""
","
","
","""event"",""trial"",""time""
""fullscreenenter"",""0"",""2737""
","""event"",""trial"",""time""
""fullscreenexit"",""2"",""12757""
","null","run_exp/static/images/Set 6_rs/118a.jpg","null","","","","","","test","TF",""
"","html-keyboard-response","239","493847","0.0-225.0-2.0","""event"",""trial"",""time""
""fullscreenenter"",""0"",""2737""
""fullscreenexit"",""2"",""12757""
","
","
","""event"",""trial"",""time""
""fullscreenenter"",""0"",""2737""
","""event"",""trial"",""time""
""fullscreenexit"",""2"",""12757""
","null","<p></p>","null","","","","","","","",""
"","image","240","495586","0.0-226.0-0.0","""event"",""trial"",""time""
""fullscreenenter"",""0"",""2737""
""fullscreenexit"",""2"",""12757""
","
","
","""event"",""trial"",""time""
""fullscreenenter"",""0"",""2737""
","""event"",""trial"",""time""
""fullscreenexit"",""2"",""12757""
","1737.4000000953674","run_exp/static/images/Set 6_rs/057b.jpg","86","","","","","","test","TL","1"
"","show_choice","241","496092","0.0-226.0-1.0","""event"",""trial"",""time""
""fullscreenenter"",""0"",""2737""
""fullscreenexit"",""2"",""12757""
","
","
","""event"",""trial"",""time""
""fullscreenenter"",""0"",""2737""
","""event"",""trial"",""time""
""fullscreenexit"",""2"",""12757""
","null","run_exp/static/images/Set 6_rs/057b.jpg","null","","","","","","test","TL",""
"","html-keyboard-response","242","496621","0.0-226.0-2.0","""event"",""trial"",""time""
""fullscreenenter"",""0"",""2737""
""fullscreenexit"",""2"",""12757""
","
","
","""event"",""trial"",""time""
""fullscreenenter"",""0"",""2737""
","""event"",""trial"",""time""
""fullscreenexit"",""2"",""12757""
","null","<p></p>","null","","","","","","","",""
"","image","243","498145","0.0-227.0-0.0","""event"",""trial"",""time""
""fullscreenenter"",""0"",""2737""
""fullscreenexit"",""2"",""12757""
","
","
","""event"",""trial"",""time""
""fullscreenenter"",""0"",""2737""
","""event"",""trial"",""time""
""fullscreenexit"",""2"",""12757""
","1522.3999999761581","run_exp/static/images/Set 6_rs/171a.jpg","66","","","","","","test","TF","1"
"","show_choice","244","498650","0.0-227.0-1.0","""event"",""trial"",""time""
""fullscreenenter"",""0"",""2737""
""fullscreenexit"",""2"",""12757""
","
","
","""event"",""trial"",""time""
""fullscreenenter"",""0"",""2737""
","""event"",""trial"",""time""
""fullscreenexit"",""2"",""12757""
","null","run_exp/static/images/Set 6_rs/171a.jpg","null","","","","","","test","TF",""
"","html-keyboard-response","245","499154","0.0-227.0-2.0","""event"",""trial"",""time""
""fullscreenenter"",""0"",""2737""
""fullscreenexit"",""2"",""12757""
","
","
","""event"",""trial"",""time""
""fullscreenenter"",""0"",""2737""
","""event"",""trial"",""time""
""fullscreenexit"",""2"",""12757""
","null","<p></p>","null","","","","","","","",""
"","image","246","501301","0.0-228.0-0.0","""event"",""trial"",""time""
""fullscreenenter"",""0"",""2737""
""fullscreenexit"",""2"",""12757""
","
","
","""event"",""trial"",""time""
""fullscreenenter"",""0"",""2737""
","""event"",""trial"",""time""
""fullscreenexit"",""2"",""12757""
","2145.2999999523163","run_exp/static/images/Set 6_rs/071b.jpg","66","","","","","","test","TL","4"
"","show_choice","247","501820","0.0-228.0-1.0","""event"",""trial"",""time""
""fullscreenenter"",""0"",""2737""
""fullscreenexit"",""2"",""12757""
","
","
","""event"",""trial"",""time""
""fullscreenenter"",""0"",""2737""
","""event"",""trial"",""time""
""fullscreenexit"",""2"",""12757""
","null","run_exp/static/images/Set 6_rs/071b.jpg","null","","","","","","test","TL",""
"","html-keyboard-response","248","502333","0.0-228.0-2.0","""event"",""trial"",""time""
""fullscreenenter"",""0"",""2737""
""fullscreenexit"",""2"",""12757""
","
","
","""event"",""trial"",""time""
""fullscreenenter"",""0"",""2737""
","""event"",""trial"",""time""
""fullscreenexit"",""2"",""12757""
","null","<p></p>","null","","","","","","","",""
"","image","249","503733","0.0-229.0-0.0","""event"",""trial"",""time""
""fullscreenenter"",""0"",""2737""
""fullscreenexit"",""2"",""12757""
","
","
","""event"",""trial"",""time""
""fullscreenenter"",""0"",""2737""
","""event"",""trial"",""time""
""fullscreenexit"",""2"",""12757""
","1398.2000000476837","run_exp/static/images/Set 6_rs/045a.jpg","86","","","","","","test","TR","2"
"","show_choice","250","504245","0.0-229.0-1.0","""event"",""trial"",""time""
""fullscreenenter"",""0"",""2737""
""fullscreenexit"",""2"",""12757""
","
","
","""event"",""trial"",""time""
""fullscreenenter"",""0"",""2737""
","""event"",""trial"",""time""
""fullscreenexit"",""2"",""12757""
","null","run_exp/static/images/Set 6_rs/045a.jpg","null","","","","","","test","TR",""
"","html-keyboard-response","251","504764","0.0-229.0-2.0","""event"",""trial"",""time""
""fullscreenenter"",""0"",""2737""
""fullscreenexit"",""2"",""12757""
","
","
","""event"",""trial"",""time""
""fullscreenenter"",""0"",""2737""
","""event"",""trial"",""time""
