"success","trial_type","trial_index","time_elapsed","internal_node_id","rt","stimulus","key_press","subject_id","participant_id","age","gender","prompt","phase","condition","lure_bin"
"true","fullscreen","0","3522","0.0-0.0","","","","","","","","","","",""
"","pavlovia","1","3524","0.0-1.0","","","","","","","","","","",""
"","welcome","2","39231","0.0-2.0","null","run_exp/static/audio/clip_1_welcome.m4a","null","59","231","10","female","<div class='center'><p>This is your last game of the experiment! First, you'll be shown pictures of items one at a time. For each picture, you have to decide if the item is typically found indoors or outdoors.</p><p>If you think it's usually found indoors, then press <b>v</b> key on your keyboard. If you think it's usually found outdoors, then press the <b>n</b> key.There will be reminders on the screen to help you remember which keys to press. </p><p>If you're not sure whether the item is an indoor item or outdoor item, go ahead and take a guess but try your best not to skip that choice. </p></div>","","",""
"","html-keyboard-response","3","39756","0.0-3.0","523.6000003814697","<div class='center'><p>This is your last game of the experiment! First, you'll be shown pictures of items one at a time. For each picture, you have to decide if the item is typically found indoors or outdoors.</p><p>If you think it's usually found indoors, then press <b>v</b> key on your keyboard. If you think it's usually found outdoors, then press the <b>n</b> key.There will be reminders on the screen to help you remember which keys to press. </p><p>If you're not sure whether the item is an indoor item or outdoor item, go ahead and take a guess but try your best not to skip that choice. </p><div><p><b>[Press the space bar to continue]</b></p></div>","32","","","","","","","",""
"","image","4","41761","0.0-4.0","null","run_exp/static/images/Set 6_rs/006a.jpg","null","","","","","","learn","SL",""
"","show_choice","5","43765","0.0-5.0","null","run_exp/static/images/blank.png","null","","","","","","learn","SL",""
"","html-keyboard-response","6","44268","0.0-6.0","null","<p></p>","null","","","","","","","",""
"","image","7","44932","0.0-7.0","663.0999999046326","run_exp/static/images/Set 6_rs/169a.jpg","86","","","","","","learn","SR",""
"","show_choice","8","46274","0.0-8.0","null","run_exp/static/images/Set 6_rs/169a.jpg","null","","","","","","learn","SR",""
"","html-keyboard-response","9","46775","0.0-9.0","null","<p></p>","null","","","","","","","",""
"","image","10","47772","0.0-10.0","995.3999996185303","run_exp/static/images/Set 6_rs/016a.jpg","86","","","","","","learn","SL",""
"","show_choice","11","48782","0.0-11.0","null","run_exp/static/images/Set 6_rs/016a.jpg","null","","","","","","learn","SL",""
"","html-keyboard-response","12","49287","0.0-12.0","null","<p></p>","null","","","","","","","",""
"","image","13","50084","0.0-13.0","794.9000000953674","run_exp/static/images/Set 6_rs/123a.jpg","78","","","","","","learn","SL",""
"","show_choice","14","51291","0.0-14.0","null","run_exp/static/images/Set 6_rs/123a.jpg","null","","","","","","learn","SL",""
"","html-keyboard-response","15","51793","0.0-15.0","null","<p></p>","null","","","","","","","",""
"","image","16","52635","0.0-16.0","840.8000001907349","run_exp/static/images/Set 6_rs/187a.jpg","78","","","","","","learn","SR",""
"","show_choice","17","53795","0.0-17.0","null","run_exp/static/images/Set 6_rs/187a.jpg","null","","","","","","learn","SR",""
"","html-keyboard-response","18","54299","0.0-18.0","null","<p></p>","null","","","","","","","",""
"","image","19","55227","0.0-19.0","927","run_exp/static/images/Set 6_rs/154a.jpg","86","","","","","","learn","SR",""
"","show_choice","20","56304","0.0-20.0","null","run_exp/static/images/Set 6_rs/154a.jpg","null","","","","","","learn","SR",""
"","html-keyboard-response","21","56806","0.0-21.0","null","<p></p>","null","","","","","","","",""
"","image","22","57851","0.0-22.0","1044.0999999046326","run_exp/static/images/Set 6_rs/117a.jpg","86","","","","","","learn","SL",""
"","show_choice","23","58808","0.0-23.0","null","run_exp/static/images/Set 6_rs/117a.jpg","null","","","","","","learn","SL",""
"","html-keyboard-response","24","59311","0.0-24.0","null","<p></p>","null","","","","","","","",""
"","image","25","60611","0.0-25.0","1299.6999998092651","run_exp/static/images/Set 6_rs/064a.jpg","78","","","","","","learn","SR",""
"","show_choice","26","61312","0.0-26.0","null","run_exp/static/images/Set 6_rs/064a.jpg","null","","","","","","learn","SR",""
"","html-keyboard-response","27","61815","0.0-27.0","null","<p></p>","null","","","","","","","",""
"","image","28","62955","0.0-28.0","1139.5","run_exp/static/images/Set 6_rs/066a.jpg","78","","","","","","learn","SL",""
"","show_choice","29","63819","0.0-29.0","null","run_exp/static/images/Set 6_rs/066a.jpg","null","","","","","","learn","SL",""
"","html-keyboard-response","30","64325","0.0-30.0","null","<p></p>","null","","","","","","","",""
"","image","31","65899","0.0-31.0","1573.3000001907349","run_exp/static/images/Set 6_rs/045a.jpg","78","","","","","","learn","SR",""
"","show_choice","32","66331","0.0-32.0","null","run_exp/static/images/Set 6_rs/045a.jpg","null","","","","","","learn","SR",""
"","html-keyboard-response","33","66835","0.0-33.0","null","<p></p>","null","","","","","","","",""
"","image","34","67419","0.0-34.0","583.5","run_exp/static/images/Set 6_rs/168a.jpg","86","","","","","","learn","SL",""
"","show_choice","35","68841","0.0-35.0","null","run_exp/static/images/Set 6_rs/168a.jpg","null","","","","","","learn","SL",""
"","html-keyboard-response","36","69347","0.0-36.0","null","<p></p>","null","","","","","","","",""
"","image","37","70371","0.0-37.0","1022.8000001907349","run_exp/static/images/Set 6_rs/150a.jpg","86","","","","","","learn","SR",""
"","show_choice","38","71353","0.0-38.0","null","run_exp/static/images/Set 6_rs/150a.jpg","null","","","","","","learn","SR",""
"","html-keyboard-response","39","71854","0.0-39.0","null","<p></p>","null","","","","","","","",""
"","image","40","72435","0.0-40.0","580.2000002861023","run_exp/static/images/Set 6_rs/025a.jpg","86","","","","","","learn","SL",""
"","show_choice","41","73860","0.0-41.0","null","run_exp/static/images/Set 6_rs/025a.jpg","null","","","","","","learn","SL",""
"","html-keyboard-response","42","74362","0.0-42.0","null","<p></p>","null","","","","","","","",""
"","image","43","74883","0.0-43.0","520.2000002861023","run_exp/static/images/Set 6_rs/088a.jpg","78","","","","","","learn","SR",""
"","show_choice","44","76365","0.0-44.0","null","run_exp/static/images/Set 6_rs/088a.jpg","null","","","","","","learn","SR",""
"","html-keyboard-response","45","76869","0.0-45.0","null","<p></p>","null","","","","","","","",""
"","image","46","78123","0.0-46.0","1253.0999999046326","run_exp/static/images/Set 6_rs/076a.jpg","86","","","","","","learn","SR",""
"","show_choice","47","78875","0.0-47.0","null","run_exp/static/images/Set 6_rs/076a.jpg","null","","","","","","learn","SR",""
"","html-keyboard-response","48","79381","0.0-48.0","null","<p></p>","null","","","","","","","",""
"","image","49","79819","0.0-49.0","437.40000009536743","run_exp/static/images/Set 6_rs/012a.jpg","78","","","","","","learn","SR",""
"","show_choice","50","81387","0.0-50.0","null","run_exp/static/images/Set 6_rs/012a.jpg","null","","","","","","learn","SR",""
"","html-keyboard-response","51","81889","0.0-51.0","null","<p></p>","null","","","","","","","",""
"","image","52","82459","0.0-52.0","568.9000000953674","run_exp/static/images/Set 6_rs/063a.jpg","78","","","","","","learn","SR",""
"","show_choice","53","83896","0.0-53.0","null","run_exp/static/images/Set 6_rs/063a.jpg","null","","","","","","learn","SR",""
"","html-keyboard-response","54","84400","0.0-54.0","null","<p></p>","null","","","","","","","",""
"","image","55","85123","0.0-55.0","722","run_exp/static/images/Set 6_rs/062a.jpg","86","","","","","","learn","SL",""
"","show_choice","56","86404","0.0-56.0","null","run_exp/static/images/Set 6_rs/062a.jpg","null","","","","","","learn","SL",""
"","html-keyboard-response","57","86905","0.0-57.0","null","<p></p>","null","","","","","","","",""
"","image","58","87875","0.0-58.0","969","run_exp/static/images/Set 6_rs/036a.jpg","86","","","","","","learn","SL",""
"","show_choice","59","88907","0.0-59.0","null","run_exp/static/images/Set 6_rs/036a.jpg","null","","","","","","learn","SL",""
"","html-keyboard-response","60","89409","0.0-60.0","null","<p></p>","null","","","","","","","",""
"","image","61","90523","0.0-61.0","1113.4000000953674","run_exp/static/images/Set 6_rs/122a.jpg","86","","","","","","learn","SR",""
"","show_choice","62","91411","0.0-62.0","null","run_exp/static/images/Set 6_rs/122a.jpg","null","","","","","","learn","SR",""
"","html-keyboard-response","63","91914","0.0-63.0","null","<p></p>","null","","","","","","","",""
"","image","64","92811","0.0-64.0","896.5999999046326","run_exp/static/images/Set 6_rs/141a.jpg","86","","","","","","learn","SR",""
"","show_choice","65","93918","0.0-65.0","null","run_exp/static/images/Set 6_rs/141a.jpg","null","","","","","","learn","SR",""
"","html-keyboard-response","66","94419","0.0-66.0","null","<p></p>","null","","","","","","","",""
"","image","67","95315","0.0-67.0","894.9000000953674","run_exp/static/images/Set 6_rs/129a.jpg","86","","","","","","learn","SL",""
"","show_choice","68","96422","0.0-68.0","null","run_exp/static/images/Set 6_rs/129a.jpg","null","","","","","","learn","SL",""
"","html-keyboard-response","69","96927","0.0-69.0","null","<p></p>","null","","","","","","","",""
"","image","70","97715","0.0-70.0","786.4000000953674","run_exp/static/images/Set 6_rs/177a.jpg","86","","","","","","learn","SR",""
"","show_choice","71","98934","0.0-71.0","null","run_exp/static/images/Set 6_rs/177a.jpg","null","","","","","","learn","SR",""
"","html-keyboard-response","72","99438","0.0-72.0","null","<p></p>","null","","","","","","","",""
"","image","73","99995","0.0-73.0","555.8000001907349","run_exp/static/images/Set 6_rs/111a.jpg","78","","","","","","learn","SL",""
"","show_choice","74","101445","0.0-74.0","null","run_exp/static/images/Set 6_rs/111a.jpg","null","","","","","","learn","SL",""
"","html-keyboard-response","75","101946","0.0-75.0","null","<p></p>","null","","","","","","","",""
"","image","76","103203","0.0-76.0","1256.5","run_exp/static/images/Set 6_rs/152a.jpg","86","","","","","","learn","SR",""
"","show_choice","77","103952","0.0-77.0","null","run_exp/static/images/Set 6_rs/152a.jpg","null","","","","","","learn","SR",""
"","html-keyboard-response","78","104457","0.0-78.0","null","<p></p>","null","","","","","","","",""
"","image","79","105235","0.0-79.0","777.4000000953674","run_exp/static/images/Set 6_rs/089a.jpg","86","","","","","","learn","SL",""
"","show_choice","80","106459","0.0-80.0","null","run_exp/static/images/Set 6_rs/089a.jpg","null","","","","","","learn","SL",""
"","html-keyboard-response","81","106964","0.0-81.0","null","<p></p>","null","","","","","","","",""
"","image","82","107851","0.0-82.0","886","run_exp/static/images/Set 6_rs/010a.jpg","86","","","","","","learn","SR",""
"","show_choice","83","108966","0.0-83.0","null","run_exp/static/images/Set 6_rs/010a.jpg","null","","","","","","learn","SR",""
"","html-keyboard-response","84","109467","0.0-84.0","null","<p></p>","null","","","","","","","",""
"","image","85","110339","0.0-85.0","870.7000002861023","run_exp/static/images/Set 6_rs/019a.jpg","86","","","","","","learn","SL",""
"","show_choice","86","111471","0.0-86.0","null","run_exp/static/images/Set 6_rs/019a.jpg","null","","","","","","learn","SL",""
"","html-keyboard-response","87","111976","0.0-87.0","null","<p></p>","null","","","","","","","",""
"","image","88","112731","0.0-88.0","753.4000000953674","run_exp/static/images/Set 6_rs/116a.jpg","86","","","","","","learn","SL",""
"","show_choice","89","113983","0.0-89.0","null","run_exp/static/images/Set 6_rs/116a.jpg","null","","","","","","learn","SL",""
"","html-keyboard-response","90","114484","0.0-90.0","null","<p></p>","null","","","","","","","",""
"","image","91","115339","0.0-91.0","853.5999999046326","run_exp/static/images/Set 6_rs/071a.jpg","86","","","","","","learn","SL",""
"","show_choice","92","116490","0.0-92.0","null","run_exp/static/images/Set 6_rs/071a.jpg","null","","","","","","learn","SL",""
"","html-keyboard-response","93","116995","0.0-93.0","null","<p></p>","null","","","","","","","",""
"","image","94","117603","0.0-94.0","606.6000003814697","run_exp/static/images/Set 6_rs/007a.jpg","86","","","","","","learn","SR",""
"","show_choice","95","119002","0.0-95.0","null","run_exp/static/images/Set 6_rs/007a.jpg","null","","","","","","learn","SR",""
"","html-keyboard-response","96","119503","0.0-96.0","null","<p></p>","null","","","","","","","",""
"","image","97","119667","0.0-97.0","163.19999980926514","run_exp/static/images/Set 6_rs/067a.jpg","78","","","","","","learn","SL",""
"","show_choice","98","121504","0.0-98.0","null","run_exp/static/images/Set 6_rs/067a.jpg","null","","","","","","learn","SL",""
"","html-keyboard-response","99","122005","0.0-99.0","null","<p></p>","null","","","","","","","",""
"","image","100","122491","0.0-100.0","484.90000009536743","run_exp/static/images/Set 6_rs/131a.jpg","78","","","","","","learn","SR",""
"","show_choice","101","124007","0.0-101.0","null","run_exp/static/images/Set 6_rs/131a.jpg","null","","","","","","learn","SR",""
"","html-keyboard-response","102","124509","0.0-102.0","null","<p></p>","null","","","","","","","",""
"","image","103","124955","0.0-103.0","444.59999990463257","run_exp/static/images/Set 6_rs/138a.jpg","86","","","","","","learn","SL",""
"","show_choice","104","126512","0.0-104.0","null","run_exp/static/images/Set 6_rs/138a.jpg","null","","","","","","learn","SL",""
"","html-keyboard-response","105","127016","0.0-105.0","null","<p></p>","null","","","","","","","",""
"","image","106","127315","0.0-106.0","298.2000002861023","run_exp/static/images/Set 6_rs/132a.jpg","86","","","","","","learn","SR",""
"","show_choice","107","129020","0.0-107.0","null","run_exp/static/images/Set 6_rs/132a.jpg","null","","","","","","learn","SR",""
"","html-keyboard-response","108","129522","0.0-108.0","null","<p></p>","null","","","","","","","",""
"","image","109","130107","0.0-109.0","583.6000003814697","run_exp/static/images/Set 6_rs/112a.jpg","86","","","","","","learn","SR",""
"","show_choice","110","131529","0.0-110.0","null","run_exp/static/images/Set 6_rs/112a.jpg","null","","","","","","learn","SR",""
"","html-keyboard-response","111","132031","0.0-111.0","null","<p></p>","null","","","","","","","",""
"","image","112","132723","0.0-112.0","690.3999996185303","run_exp/static/images/Set 6_rs/008a.jpg","86","","","","","","learn","SL",""
"","show_choice","113","134036","0.0-113.0","null","run_exp/static/images/Set 6_rs/008a.jpg","null","","","","","","learn","SL",""
"","html-keyboard-response","114","134537","0.0-114.0","null","<p></p>","null","","","","","","","",""
"","image","115","135323","0.0-115.0","784.9000000953674","run_exp/static/images/Set 6_rs/178a.jpg","78","","","","","","learn","SR",""
"","show_choice","116","136541","0.0-116.0","null","run_exp/static/images/Set 6_rs/178a.jpg","null","","","","","","learn","SR",""
"","html-keyboard-response","117","137042","0.0-117.0","null","<p></p>","null","","","","","","","",""
"","image","118","137619","0.0-118.0","575.5","run_exp/static/images/Set 6_rs/079a.jpg","86","","","","","","learn","SL",""
"","show_choice","119","139044","0.0-119.0","null","run_exp/static/images/Set 6_rs/079a.jpg","null","","","","","","learn","SL",""
"","html-keyboard-response","120","139550","0.0-120.0","null","<p></p>","null","","","","","","","",""
"","image","121","140043","0.0-121.0","492.30000019073486","run_exp/static/images/Set 6_rs/074a.jpg","86","","","","","","learn","SL",""
"","show_choice","122","141556","0.0-122.0","null","run_exp/static/images/Set 6_rs/074a.jpg","null","","","","","","learn","SL",""
"","html-keyboard-response","123","142061","0.0-123.0","null","<p></p>","null","","","","","","","",""
"","image","124","142555","0.0-124.0","492.40000009536743","run_exp/static/images/Set 6_rs/167a.jpg","86","","","","","","learn","SL",""
"","show_choice","125","144068","0.0-125.0","null","run_exp/static/images/Set 6_rs/167a.jpg","null","","","","","","learn","SL",""
"","html-keyboard-response","126","144573","0.0-126.0","null","<p></p>","null","","","","","","","",""
"","image","127","144939","0.0-127.0","364.30000019073486","run_exp/static/images/Set 6_rs/061a.jpg","86","","","","","","learn","SR",""
"","show_choice","128","146580","0.0-128.0","null","run_exp/static/images/Set 6_rs/061a.jpg","null","","","","","","learn","SR",""
"","html-keyboard-response","129","147081","0.0-129.0","null","<p></p>","null","","","","","","","",""
"","image","130","147467","0.0-130.0","385","run_exp/static/images/Set 6_rs/017a.jpg","78","","","","","","learn","SL",""
"","show_choice","131","149087","0.0-131.0","null","run_exp/static/images/Set 6_rs/017a.jpg","null","","","","","","learn","SL",""
"","html-keyboard-response","132","149588","0.0-132.0","null","<p></p>","null","","","","","","","",""
"","image","133","150131","0.0-133.0","542.1999998092651","run_exp/static/images/Set 6_rs/024a.jpg","78","","","","","","learn","SR",""
"","show_choice","134","151594","0.0-134.0","null","run_exp/static/images/Set 6_rs/024a.jpg","null","","","","","","learn","SR",""
"","html-keyboard-response","135","152099","0.0-135.0","null","<p></p>","null","","","","","","","",""
"","image","136","152483","0.0-136.0","383.09999990463257","run_exp/static/images/Set 6_rs/085a.jpg","78","","","","","","learn","SL",""
"","show_choice","137","154101","0.0-137.0","null","run_exp/static/images/Set 6_rs/085a.jpg","null","","","","","","learn","SL",""
"","html-keyboard-response","138","154602","0.0-138.0","null","<p></p>","null","","","","","","","",""
"","image","139","154898","0.0-139.0","295.30000019073486","run_exp/static/images/Set 6_rs/091a.jpg","86","","","","","","learn","SL",""
"","show_choice","140","156603","0.0-140.0","null","run_exp/static/images/Set 6_rs/091a.jpg","null","","","","","","learn","SL",""
"","html-keyboard-response","141","157105","0.0-141.0","null","<p></p>","null","","","","","","","",""
"","image","142","157395","0.0-142.0","288.6000003814697","run_exp/static/images/Set 6_rs/126a.jpg","86","","","","","","learn","SR",""
"","show_choice","143","159108","0.0-143.0","null","run_exp/static/images/Set 6_rs/126a.jpg","null","","","","","","learn","SR",""
"","html-keyboard-response","144","159610","0.0-144.0","null","<p></p>","null","","","","","","","",""
"","image","145","161123","0.0-145.0","1511.5","run_exp/static/images/Set 6_rs/172a.jpg","78","","","","","","learn","SR",""
"","show_choice","146","161614","0.0-146.0","null","run_exp/static/images/Set 6_rs/172a.jpg","null","","","","","","learn","SR",""
"","html-keyboard-response","147","162115","0.0-147.0","null","<p></p>","null","","","","","","","",""
"","image","148","162939","0.0-148.0","822.8000001907349","run_exp/static/images/Set 6_rs/166a.jpg","78","","","","","","learn","SR",""
"","show_choice","149","164118","0.0-149.0","null","run_exp/static/images/Set 6_rs/166a.jpg","null","","","","","","learn","SR",""
"","html-keyboard-response","150","164623","0.0-150.0","null","<p></p>","null","","","","","","","",""
"","image","151","164651","0.0-151.0","26.799999713897705","run_exp/static/images/Set 6_rs/134a.jpg","78","","","","","","learn","SR",""
"","show_choice","152","166629","0.0-152.0","null","run_exp/static/images/Set 6_rs/134a.jpg","null","","","","","","learn","SR",""
"","html-keyboard-response","153","167135","0.0-153.0","null","<p></p>","null","","","","","","","",""
"","image","154","167627","0.0-154.0","490.7999997138977","run_exp/static/images/Set 6_rs/057a.jpg","78","","","","","","learn","SL",""
"","show_choice","155","169141","0.0-155.0","null","run_exp/static/images/Set 6_rs/057a.jpg","null","","","","","","learn","SL",""
"","html-keyboard-response","156","169647","0.0-156.0","null","<p></p>","null","","","","","","","",""
"","image","157","170067","0.0-157.0","418.90000009536743","run_exp/static/images/Set 6_rs/181a.jpg","78","","","","","","learn","SL",""
"","show_choice","158","171649","0.0-158.0","null","run_exp/static/images/Set 6_rs/181a.jpg","null","","","","","","learn","SL",""
"","html-keyboard-response","159","172155","0.0-159.0","null","<p></p>","null","","","","","","","",""
"","image","160","173131","0.0-160.0","974.9000000953674","run_exp/static/images/Set 6_rs/095a.jpg","78","","","","","","learn","SL",""
"","show_choice","161","174158","0.0-161.0","null","run_exp/static/images/Set 6_rs/095a.jpg","null","","","","","","learn","SL",""
"","html-keyboard-response","162","174664","0.0-162.0","null","<p></p>","null","","","","","","","",""
"","image","163","175099","0.0-163.0","433.2999997138977","run_exp/static/images/Set 6_rs/191a.jpg","78","","","","","","learn","SL",""
"","show_choice","164","176667","0.0-164.0","null","run_exp/static/images/Set 6_rs/191a.jpg","null","","","","","","learn","SL",""
"","html-keyboard-response","165","177173","0.0-165.0","null","<p></p>","null","","","","","","","",""
"","image","166","177331","0.0-166.0","156.89999961853027","run_exp/static/images/Set 6_rs/023a.jpg","86","","","","","","learn","SR",""
"","show_choice","167","179179","0.0-167.0","null","run_exp/static/images/Set 6_rs/023a.jpg","null","","","","","","learn","SR",""
"","html-keyboard-response","168","179684","0.0-168.0","null","<p></p>","null","","","","","","","",""
"","image","169","179955","0.0-169.0","270","run_exp/static/images/Set 6_rs/186a.jpg","86","","","","","","learn","SR",""
"","show_choice","170","181688","0.0-170.0","null","run_exp/static/images/Set 6_rs/186a.jpg","null","","","","","","learn","SR",""
"","html-keyboard-response","171","182192","0.0-171.0","null","<p></p>","null","","","","","","","",""
"","image","172","183171","0.0-172.0","978.5","run_exp/static/images/Set 6_rs/121a.jpg","86","","","","","","learn","SR",""
"","show_choice","173","184198","0.0-173.0","null","run_exp/static/images/Set 6_rs/121a.jpg","null","","","","","","learn","SR",""
"","html-keyboard-response","174","184699","0.0-174.0","null","<p></p>","null","","","","","","","",""
"","image","175","185026","0.0-175.0","326.7000002861023","run_exp/static/images/Set 6_rs/055a.jpg","78","","","","","","learn","SL",""
"","show_choice","176","186702","0.0-176.0","null","run_exp/static/images/Set 6_rs/055a.jpg","null","","","","","","learn","SL",""
"","html-keyboard-response","177","187203","0.0-177.0","null","<p></p>","null","","","","","","","",""
"","image","178","187618","0.0-178.0","415","run_exp/static/images/Set 6_rs/144a.jpg","86","","","","","","learn","SL",""
"","show_choice","179","189204","0.0-179.0","null","run_exp/static/images/Set 6_rs/144a.jpg","null","","","","","","learn","SL",""
"","html-keyboard-response","180","189706","0.0-180.0","null","<p></p>","null","","","","","","","",""
"","image","181","190131","0.0-181.0","424.1000003814697","run_exp/static/images/Set 6_rs/060a.jpg","86","","","","","","learn","SL",""
"","show_choice","182","191708","0.0-182.0","null","run_exp/static/images/Set 6_rs/060a.jpg","null","","","","","","learn","SL",""
"","html-keyboard-response","183","192210","0.0-183.0","null","<p></p>","null","","","","","","","",""
"","image","184","192955","0.0-184.0","743.6000003814697","run_exp/static/images/Set 6_rs/148a.jpg","86","","","","","","learn","SR",""
"","show_choice","185","194211","0.0-185.0","null","run_exp/static/images/Set 6_rs/148a.jpg","null","","","","","","learn","SR",""
"","html-keyboard-response","186","194713","0.0-186.0","null","<p></p>","null","","","","","","","",""
"","image","187","195731","0.0-187.0","1016.6000003814697","run_exp/static/images/Set 6_rs/108a.jpg","78","","","","","","learn","SR",""
"","show_choice","188","196718","0.0-188.0","null","run_exp/static/images/Set 6_rs/108a.jpg","null","","","","","","learn","SR",""
"","html-keyboard-response","189","197222","0.0-189.0","null","<p></p>","null","","","","","","","",""
"","image","190","198571","0.0-190.0","1347.3000001907349","run_exp/static/images/Set 6_rs/075a.jpg","86","","","","","","learn","SR",""
"","show_choice","191","199223","0.0-191.0","null","run_exp/static/images/Set 6_rs/075a.jpg","null","","","","","","learn","SR",""
"","html-keyboard-response","192","199729","0.0-192.0","null","<p></p>","null","","","","","","","",""
"","image","193","200803","0.0-193.0","1072.5999999046326","run_exp/static/images/Set 6_rs/073a.jpg","78","","","","","","learn","SL",""
"","show_choice","194","201733","0.0-194.0","null","run_exp/static/images/Set 6_rs/073a.jpg","null","","","","","","learn","SL",""
"","html-keyboard-response","195","202239","0.0-195.0","null","<p></p>","null","","","","","","","",""
"","test_intro","196","243814","0.0-196.0","null","run_exp/static/audio/clip_2_memory.m4a","null","","","","","<div class='center'><p>Now, let’s see how much you remember about the items you just saw.  For each item, you need to indicate if it was <b>old</b> by pressing the <b>v</b> key, <b>similar</b> by pressing the <b>b</b> key, or <b>new</b> by pressing the <b>n</b> key.</p><p>Old refers to an item that you saw before in the indoor/outdoor game that you just played, new refers to an item you have <b>not</b> seen before within the indoor/outdoor game, and similar refers to an item that is similar to an item you’ve seen before but is not exactly the same. </p><p>Before we begin, let’s go over some brief demonstrations to make sure you understand.</p></div>","","",""
"","html-keyboard-response","197","244995","0.0-197.0","1179.7999997138977","<div class='center'><p>Now, let’s see how much you remember about the items you just saw.  For each item, you need to indicate if it was <b>old</b> by pressing the <b>v</b> key, <b>similar</b> by pressing the <b>b</b> key, or <b>new</b> by pressing the <b>n</b> key.</p><p>Old refers to an item that you saw before in the indoor/outdoor game that you just played, new refers to an item you have <b>not</b> seen before within the indoor/outdoor game, and similar refers to an item that is similar to an item you’ve seen before but is not exactly the same. </p><p>Before we begin, let’s go over some brief demonstrations to make sure you understand.</p><div><p><b>[Press the space bar to continue]</b></p></div>","32","","","","","","","",""
"","items","198","252501","0.0-198.0","null","run_exp/static/audio/clip_3_items.m4a","null","","","","","","","",""
"","mop","199","257003","0.0-199.0","null","run_exp/static/audio/clip_4_mop.m4a","null","","","","","","","",""
"","baseball","200","260504","0.0-200.0","null","run_exp/static/audio/clip_5_baseball.m4a","null","","","","","","","",""
"","trumpet","201","264006","0.0-201.0","null","run_exp/static/audio/clip_6_trumpet.m4a","null","","","","","","","",""
"","gummies","202","267507","0.0-202.0","null","run_exp/static/audio/clip_7_gummies.m4a","null","","","","","","","",""
"","osn","203","272009","0.0-203.0","null","run_exp/static/audio/clip_8_osn.m4a","null","","","","","","","",""
"","old_1","204","278513","0.0-204.0","null","run_exp/static/audio/clip_9_old_trumpet.m4a","null","","","","","","","",""
"","new_1","205","286018","0.0-205.0","null","run_exp/static/audio/clip_10_new_balloon.m4a","null","","","","","","","",""
"","similar_1a","206","290524","0.0-206.0","null","run_exp/static/audio/clip_11a_similar_mop.m4a","null","","","","","","","",""
"","similar_1b","207","297031","0.0-207.0","null","run_exp/static/audio/clip_11b_similar_mop.m4a","null","","","","","","","",""
"","new_2","208","300535","0.0-208.0","null","run_exp/static/audio/clip_12_new_stoplight.m4a","null","","","","","","","",""
"","old_2","209","304041","0.0-209.0","null","run_exp/static/audio/clip_13_old_baseball.m4a","null","","","","","","","",""
"","similar_2a","210","307546","0.0-210.0","null","run_exp/static/audio/clip_14a_similar_gummies.m4a","null","","","","","","","",""
"","similar_2b","211","315048","0.0-211.0","null","run_exp/static/audio/clip_14b_similar_gummies.m4a","null","","","","","","","",""
"","practice","212","330796","0.0-212.0","null","run_exp/static/audio/clip_15_practice.m4a","null","","","","","<div class='center'><p>Ok, let’s practice a little to make sure you understand the difference between new, similar, and old. Let’s say you saw these three items in the indoor/outdoor game. Study these because you’ll be tested on them soon in this practice game. </p><p><img src='run_exp/static/images/tutorial/test/three_indoor_outdoor.png' height='300'></p></div>","","",""
"","html-keyboard-response","213","344594","0.0-213.0","13798.099999904633","<div class='center'><p>Ok, let’s practice a little to make sure you understand the difference between new, similar, and old. Let’s say you saw these three items in the indoor/outdoor game. Study these because you’ll be tested on them soon in this practice game. </p><p><img src='run_exp/static/images/tutorial/test/three_indoor_outdoor.png' height='300'></p><div><p><b>[Press the space bar to continue]</b></p></div>","32","","","","","","","",""
"","practice_q1","214","347690","0.0-214.0","3094.2999997138977","run_exp/static/audio/clip_16_practice_question.m4a","86","","","","","","","",""
"","incorrect_q1","215","350515","0.0-215.0-0.0","null","run_exp/static/audio/clip_18_incorrect_new.m4a","null","","","","","<div class='center'><p>That’s incorrect. It’s new.</p></div>","","",""
"","html-keyboard-response","216","351506","0.0-215.0-1.0","990.9000000953674","<div class='center'><p>That’s incorrect. It’s new.</p><div><p><b>[Press the space bar to continue]</b></p></div>","32","","","","","","","",""
"","practice_q2","217","352178","0.0-215.0-2.0","670.6999998092651","run_exp/static/audio/clip_16_practice_question.m4a","78","","","","","","","",""
"","incorrect_q2","218","355228","0.0-216.0-0.0","null","run_exp/static/audio/clip_19_incorrect_old.m4a","null","","","","","<div class='center'><p>That’s incorrect. It’s old.</p></div>","","",""
"","html-keyboard-response","219","356186","0.0-216.0-1.0","957.4000000953674","<div class='center'><p>That’s incorrect. It’s old.</p><div><p><b>[Press the space bar to continue]</b></p></div>","32","","","","","","","",""
"","practice_q3","220","358306","0.0-216.0-2.0","2119.2000002861023","run_exp/static/audio/clip_16_practice_question.m4a","66","","","","","","","",""
"","correct","221","360197","0.0-217.0-0.0","null","run_exp/static/audio/clip_17_correct.m4a","null","","","","","<div class='center'><p>That's correct!</p></div>","","",""
"","html-keyboard-response","222","360978","0.0-217.0-1.0","780.0999999046326","<div class='center'><p>That's correct!</p><div><p><b>[Press the space bar to continue]</b></p></div>","32","","","","","","","",""
"","repeat","223","365700","0.0-218.0-0.0","null","run_exp/static/audio/clip_21_practice_again.m4a","null","","","","","<div class='center'><p>Oops. you missed at least one of these questions. Let's try practiceing again. </p></div>","","",""
"","html-keyboard-response","224","366410","0.0-218.0-1.0","708.9000000953674","<div class='center'><p>Oops. you missed at least one of these questions. Let's try practiceing again. </p><div><p><b>[Press the space bar to continue]</b></p></div>","32","","","","","","","",""
"","practice_q1","225","371498","0.0-218.0-2.0","5087.5","run_exp/static/audio/clip_16_practice_question.m4a","66","","","","","","","",""
"","incorrect_q1","226","374338","0.0-219.0-0.0","null","run_exp/static/audio/clip_18_incorrect_new.m4a","null","","","","","<div class='center'><p>That’s incorrect. It’s new.</p></div>","","",""
"","html-keyboard-response","227","375546","0.0-219.0-1.0","1207.1999998092651","<div class='center'><p>That’s incorrect. It’s new.</p><div><p><b>[Press the space bar to continue]</b></p></div>","32","","","","","","","",""
"","practice_q2","228","380426","0.0-219.0-2.0","4879.39999961853","run_exp/static/audio/clip_16_practice_question.m4a","86","","","","","","","",""
"","correct","229","382326","0.0-220.0-0.0","null","run_exp/static/audio/clip_17_correct.m4a","null","","","","","<div class='center'><p>That's correct!</p></div>","","",""
"","html-keyboard-response","230","384050","0.0-220.0-1.0","1723.5999999046326","<div class='center'><p>That's correct!</p><div><p><b>[Press the space bar to continue]</b></p></div>","32","","","","","","","",""
"","practice_q3","231","389066","0.0-220.0-2.0","5015.300000190735","run_exp/static/audio/clip_16_practice_question.m4a","78","","","","","","","",""
"","incorrect_q3","232","391800","0.0-221.0-0.0","null","run_exp/static/audio/clip_20_incorrect_similar.m4a","null","","","","","<div class='center'><p>That’s incorrect. It’s similar.</p><p><img src='run_exp/static/images/tutorial/test/boot_comparison.png' height='300'></p></div>","","",""
"","html-keyboard-response","233","392666","0.0-221.0-1.0","866.0999999046326","<div class='center'><p>That’s incorrect. It’s similar.</p><p><img src='run_exp/static/images/tutorial/test/boot_comparison.png' height='300'></p><div><p><b>[Press the space bar to continue]</b></p></div>","32","","","","","","","",""
"","repeat","234","397395","0.0-222.0-0.0","null","run_exp/static/audio/clip_21_practice_again.m4a","null","","","","","<div class='center'><p>Oops. you missed at least one of these questions. Let's try practiceing again. </p></div>","","",""
"","html-keyboard-response","235","402346","0.0-222.0-1.0","4949.400000095367","<div class='center'><p>Oops. you missed at least one of these questions. Let's try practiceing again. </p><div><p><b>[Press the space bar to continue]</b></p></div>","32","","","","","","","",""
"","practice_q1","236","406730","0.0-222.0-2.0","4383.60000038147","run_exp/static/audio/clip_16_practice_question.m4a","86","","","","","","","",""
"","incorrect_q1","237","409563","0.0-223.0-0.0","null","run_exp/static/audio/clip_18_incorrect_new.m4a","null","","","","","<div class='center'><p>That’s incorrect. It’s new.</p></div>","","",""
"","html-keyboard-response","238","412090","0.0-223.0-1.0","2526","<div class='center'><p>That’s incorrect. It’s new.</p><div><p><b>[Press the space bar to continue]</b></p></div>","32","","","","","","","",""
"","practice_q2","239","415346","0.0-223.0-2.0","3256","run_exp/static/audio/clip_16_practice_question.m4a","66","","","","","","","",""
"","incorrect_q2","240","418386","0.0-224.0-0.0","null","run_exp/static/audio/clip_19_incorrect_old.m4a","null","","","","","<div class='center'><p>That’s incorrect. It’s old.</p></div>","","",""
"","html-keyboard-response","241","418970","0.0-224.0-1.0","583.2000002861023","<div class='center'><p>That’s incorrect. It’s old.</p><div><p><b>[Press the space bar to continue]</b></p></div>","32","","","","","","","",""
"","practice_q3","242","421298","0.0-224.0-2.0","2327.4000000953674","run_exp/static/audio/clip_16_practice_question.m4a","86","","","","","","","",""
"","incorrect_q3","243","424145","0.0-225.0-0.0","null","run_exp/static/audio/clip_20_incorrect_similar.m4a","null","","","","","<div class='center'><p>That’s incorrect. It’s similar.</p><p><img src='run_exp/static/images/tutorial/test/boot_comparison.png' height='300'></p></div>","","",""
"","html-keyboard-response","244","425346","0.0-225.0-1.0","1200.5999999046326","<div class='center'><p>That’s incorrect. It’s similar.</p><p><img src='run_exp/static/images/tutorial/test/boot_comparison.png' height='300'></p><div><p><b>[Press the space bar to continue]</b></p></div>","32","","","","","","","",""
"","begin_text","245","440399","0.0-226.0-0.0","null","run_exp/static/audio/clip_22_begin_test.m4a","null","","","","","<div class='center'><p>Now it’s your turn. For each item, you need to indicate if the item is <b>old</b> by pressing the <b>v</b> key, <b>similar</b> by pressing the <b>b</b> key, or <b>new</b> by pressing the <b>n</b> key. </p></div>","","",""
"","html-keyboard-response","246","441026","0.0-226.0-1.0","626.0999999046326","<div class='center'><p>Now it’s your turn. For each item, you need to indicate if the item is <b>old</b> by pressing the <b>v</b> key, <b>similar</b> by pressing the <b>b</b> key, or <b>new</b> by pressing the <b>n</b> key. </p><div><p><b>[Press the space bar to continue]</b></p></div>","32","","","","","","","",""
"","image","247","442577","0.0-227.0-0.0","1550.7999997138977","run_exp/static/images/Set 6_rs/010a.jpg","86","","","","","","test","TR","5"
"","show_choice","248","443078","0.0-227.0-1.0","null","run_exp/static/images/Set 6_rs/010a.jpg","null","","","","","","test","TR",""
"","html-keyboard-response","249","443580","0.0-227.0-2.0","null","<p></p>","null","","","","","","","",""
"","image","250","444578","0.0-228.0-0.0","997.1999998092651","run_exp/static/images/Set 6_rs/079b.jpg","78","","","","","","test","TL","5"
"","show_choice","251","445082","0.0-228.0-1.0","null","run_exp/static/images/Set 6_rs/079b.jpg","null","","","","","","test","TL",""
"","html-keyboard-response","252","445585","0.0-228.0-2.0","null","<p></p>","null","","","","","","","",""
"","image","253","446530","0.0-229.0-0.0","943.8000001907349","run_exp/static/images/Set 6_rs/025b.jpg","66","","","","","","test","TL","5"
"","show_choice","254","447031","0.0-229.0-1.0","null","run_exp/static/images/Set 6_rs/025b.jpg","null","","","","","","test","TL",""
"","html-keyboard-response","255","447534","0.0-229.0-2.0","null","<p></p>","null","","","","","","","",""
"","image","256","447898","0.0-230.0-0.0","362.59999990463257","run_exp/static/images/Set 6_rs/052a.jpg","86","","","","","","test","TF","1"
"","show_choice","257","448402","0.0-230.0-1.0","null","run_exp/static/images/Set 6_rs/052a.jpg","null","","","","","","test","TF",""
"","html-keyboard-response","258","448904","0.0-230.0-2.0","null","<p></p>","null","","","","","","","",""
"","image","259","449282","0.0-231.0-0.0","376.7000002861023","run_exp/static/images/Set 6_rs/189a.jpg","86","","","","","","test","TF","5"
"","show_choice","260","449787","0.0-231.0-1.0","null","run_exp/static/images/Set 6_rs/189a.jpg","null","","","","","","test","TF",""
"","html-keyboard-response","261","450290","0.0-231.0-2.0","null","<p></p>","null","","","","","","","",""
"","image","262","450778","0.0-232.0-0.0","486.80000019073486","run_exp/static/images/Set 6_rs/187a.jpg","78","","","","","","test","TR","3"
"","show_choice","263","451282","0.0-232.0-1.0","null","run_exp/static/images/Set 6_rs/187a.jpg","null","","","","","","test","TR",""
"","html-keyboard-response","264","451786","0.0-232.0-2.0","null","<p></p>","null","","","","","","","",""
"","image","265","452153","0.0-233.0-0.0","366.40000009536743","run_exp/static/images/Set 6_rs/074b.jpg","78","","","","","","test","TL","4"
"","show_choice","266","452654","0.0-233.0-1.0","null","run_exp/static/images/Set 6_rs/074b.jpg","null","","","","","","test","TL",""
"","html-keyboard-response","267","453159","0.0-233.0-2.0","null","<p></p>","null","","","","","","","",""
"","image","268","453553","0.0-234.0-0.0","393.40000009536743","run_exp/static/images/Set 6_rs/008b.jpg","78","","","","","","test","TL","2"
"","show_choice","269","454059","0.0-234.0-1.0","null","run_exp/static/images/Set 6_rs/008b.jpg","null","","","","","","test","TL",""
"","html-keyboard-response","270","454565","0.0-234.0-2.0","null","<p></p>","null","","","","","","","",""
"","image","271","454793","0.0-235.0-0.0","227.80000019073486","run_exp/static/images/Set 6_rs/001a.jpg","66","","","","","","test","TF","1"
"","show_choice","272","455298","0.0-235.0-1.0","null","run_exp/static/images/Set 6_rs/001a.jpg","null","","","","","","test","TF",""
"","html-keyboard-response","273","455799","0.0-235.0-2.0","null","<p></p>","null","","","","","","","",""
"","image","274","456074","0.0-236.0-0.0","273.40000009536743","run_exp/static/images/Set 6_rs/012a.jpg","86","","","","","","test","TR","1"
"","show_choice","275","456574","0.0-236.0-1.0","null","run_exp/static/images/Set 6_rs/012a.jpg","null","","","","","","test","TR",""
"","html-keyboard-response","276","457080","0.0-236.0-2.0","null","<p></p>","null","","","","","","","",""
"","image","277","458545","0.0-237.0-0.0","1464.6999998092651","run_exp/static/images/Set 6_rs/117b.jpg","86","","","","","","test","TL","5"
"","show_choice","278","459051","0.0-237.0-1.0","null","run_exp/static/images/Set 6_rs/117b.jpg","null","","","","","","test","TL",""
"","html-keyboard-response","279","459556","0.0-237.0-2.0","null","<p></p>","null","","","","","","","",""
"","image","280","460409","0.0-238.0-0.0","852.5","run_exp/static/images/Set 6_rs/132a.jpg","78","","","","","","test","TR","5"
"","show_choice","281","460912","0.0-238.0-1.0","null","run_exp/static/images/Set 6_rs/132a.jpg","null","","","","","","test","TR",""
"","html-keyboard-response","282","461416","0.0-238.0-2.0","null","<p></p>","null","","","","","","","",""
"","image","283","462561","0.0-239.0-0.0","1144.4000000953674","run_exp/static/images/Set 6_rs/035a.jpg","78","","","","","","test","TF","4"
"","show_choice","284","463067","0.0-239.0-1.0","null","run_exp/static/images/Set 6_rs/035a.jpg","null","","","","","","test","TF",""
"","html-keyboard-response","285","463568","0.0-239.0-2.0","null","<p></p>","null","","","","","","","",""
"","image","286","464273","0.0-240.0-0.0","704.9000000953674","run_exp/static/images/Set 6_rs/131a.jpg","78","","","","","","test","TR","5"
"","show_choice","287","464779","0.0-240.0-1.0","null","run_exp/static/images/Set 6_rs/131a.jpg","null","","","","","","test","TR",""
"","html-keyboard-response","288","465285","0.0-240.0-2.0","null","<p></p>","null","","","","","","","",""
"","image","289","465801","0.0-241.0-0.0","515.6000003814697","run_exp/static/images/Set 6_rs/118a.jpg","78","","","","","","test","TF","5"
"","show_choice","290","466302","0.0-241.0-1.0","null","run_exp/static/images/Set 6_rs/118a.jpg","null","","","","","","test","TF",""
"","html-keyboard-response","291","466804","0.0-241.0-2.0","null","<p></p>","null","","","","","","","",""
"","image","292","467361","0.0-242.0-0.0","556.7000002861023","run_exp/static/images/Set 6_rs/133a.jpg","78","","","","","","test","TF","4"
"","show_choice","293","467864","0.0-242.0-1.0","null","run_exp/static/images/Set 6_rs/133a.jpg","null","","","","","","test","TF",""
"","html-keyboard-response","294","468370","0.0-242.0-2.0","null","<p></p>","null","","","","","","","",""
"","image","295","468649","0.0-243.0-0.0","278.30000019073486","run_exp/static/images/Set 6_rs/140a.jpg","66","","","","","","test","TF","1"
"","show_choice","296","469154","0.0-243.0-1.0","null","run_exp/static/images/Set 6_rs/140a.jpg","null","","","","","","test","TF",""
"","html-keyboard-response","297","469655","0.0-243.0-2.0","null","<p></p>","null","","","","","","","",""
"","image","298","469729","0.0-244.0-0.0","72.90000009536743","run_exp/static/images/Set 6_rs/006b.jpg","78","","","","","","test","TL","2"
"","show_choice","299","470230","0.0-244.0-1.0","null","run_exp/static/images/Set 6_rs/006b.jpg","null","","","","","","test","TL",""
"","html-keyboard-response","300","470735","0.0-244.0-2.0","null","<p></p>","null","","","","","","","",""
"","image","301","471585","0.0-245.0-0.0","849.3000001907349","run_exp/static/images/Set 6_rs/019b.jpg","66","","","","","","test","TL","2"
"","show_choice","302","472091","0.0-245.0-1.0","null","run_exp/static/images/Set 6_rs/019b.jpg","null","","","","","","test","TL",""
"","html-keyboard-response","303","472593","0.0-245.0-2.0","null","<p></p>","null","","","","","","","",""
"","image","304","473177","0.0-246.0-0.0","583.8000001907349","run_exp/static/images/Set 6_rs/023a.jpg","86","","","","","","test","TR","3"
"","show_choice","305","473681","0.0-246.0-1.0","null","run_exp/static/images/Set 6_rs/023a.jpg","null","","","","","","test","TR",""
"","html-keyboard-response","306","474183","0.0-246.0-2.0","null","<p></p>","null","","","","","","","",""
"","image","307","474489","0.0-247.0-0.0","304.80000019073486","run_exp/static/images/Set 6_rs/149a.jpg","86","","","","","","test","TF","1"
"","show_choice","308","474995","0.0-247.0-1.0","null","run_exp/static/images/Set 6_rs/149a.jpg","null","","","","","","test","TF",""
"","html-keyboard-response","309","475501","0.0-247.0-2.0","null","<p></p>","null","","","","","","","",""
"","image","310","476225","0.0-248.0-0.0","723.5","run_exp/static/images/Set 6_rs/109a.jpg","86","","","","","","test","TF","5"
"","show_choice","311","476731","0.0-248.0-1.0","null","run_exp/static/images/Set 6_rs/109a.jpg","null","","","","","","test","TF",""
"","html-keyboard-response","312","477235","0.0-248.0-2.0","null","<p></p>","null","","","","","","","",""
"","image","313","477777","0.0-249.0-0.0","541.8000001907349","run_exp/static/images/Set 6_rs/048a.jpg","66","","","","","","test","TF","4"
"","show_choice","314","478283","0.0-249.0-1.0","null","run_exp/static/images/Set 6_rs/048a.jpg","null","","","","","","test","TF",""
"","html-keyboard-response","315","478789","0.0-249.0-2.0","null","<p></p>","null","","","","","","","",""
"","image","316","479545","0.0-250.0-0.0","755.5","run_exp/static/images/Set 6_rs/167b.jpg","66","","","","","","test","TL","2"
"","show_choice","317","480048","0.0-250.0-1.0","null","run_exp/static/images/Set 6_rs/167b.jpg","null","","","","","","test","TL",""
"","html-keyboard-response","318","480552","0.0-250.0-2.0","null","<p></p>","null","","","","","","","",""
"","image","319","481361","0.0-251.0-0.0","807.7999997138977","run_exp/static/images/Set 6_rs/136a.jpg","78","","","","","","test","TF","4"
"","show_choice","320","481865","0.0-251.0-1.0","null","run_exp/static/images/Set 6_rs/136a.jpg","null","","","","","","test","TF",""
"","html-keyboard-response","321","482371","0.0-251.0-2.0","null","<p></p>","null","","","","","","","",""
"","image","322","483641","0.0-252.0-0.0","1269.9000000953674","run_exp/static/images/Set 6_rs/064a.jpg","86","","","","","","test","TR","5"
"","show_choice","323","484143","0.0-252.0-1.0","null","run_exp/static/images/Set 6_rs/064a.jpg","null","","","","","","test","TR",""
"","html-keyboard-response","324","484648","0.0-252.0-2.0","null","<p></p>","null","","","","","","","",""
"","image","325","485673","0.0-253.0-0.0","1024.6000003814697","run_exp/static/images/Set 6_rs/141a.jpg","86","","","","","","test","TR","2"
"","show_choice","326","486179","0.0-253.0-1.0","null","run_exp/static/images/Set 6_rs/141a.jpg","null","","","","","","test","TR",""
"","html-keyboard-response","327","486681","0.0-253.0-2.0","null","<p></p>","null","","","","","","","",""
"","image","328","487441","0.0-254.0-0.0","758.7999997138977","run_exp/static/images/Set 6_rs/166a.jpg","86","","","","","","test","TR","1"
"","show_choice","329","487945","0.0-254.0-1.0","null","run_exp/static/images/Set 6_rs/166a.jpg","null","","","","","","test","TR",""
"","html-keyboard-response","330","488448","0.0-254.0-2.0","null","<p></p>","null","","","","","","","",""
"","image","331","489201","0.0-255.0-0.0","752.1999998092651","run_exp/static/images/Set 6_rs/190a.jpg","78","","","","","","test","TF","3"
"","show_choice","332","489702","0.0-255.0-1.0","null","run_exp/static/images/Set 6_rs/190a.jpg","null","","","","","","test","TF",""
"","html-keyboard-response","333","490204","0.0-255.0-2.0","null","<p></p>","null","","","","","","","",""
"","image","334","490969","0.0-256.0-0.0","764.6000003814697","run_exp/static/images/Set 6_rs/061a.jpg","86","","","","","","test","TR","5"
"","show_choice","335","491475","0.0-256.0-1.0","null","run_exp/static/images/Set 6_rs/061a.jpg","null","","","","","","test","TR",""
"","html-keyboard-response","336","491981","0.0-256.0-2.0","null","<p></p>","null","","","","","","","",""
"","image","337","492625","0.0-257.0-0.0","643.5999999046326","run_exp/static/images/Set 6_rs/089b.jpg","86","","","","","","test","TL","4"
"","show_choice","338","493131","0.0-257.0-1.0","null","run_exp/static/images/Set 6_rs/089b.jpg","null","","","","","","test","TL",""
"","html-keyboard-response","339","493633","0.0-257.0-2.0","null","<p></p>","null","","","","","","","",""
"","image","340","494017","0.0-258.0-0.0","383","run_exp/static/images/Set 6_rs/060b.jpg","78","","","","","","test","TL","3"
"","show_choice","341","494522","0.0-258.0-1.0","null","run_exp/static/images/Set 6_rs/060b.jpg","null","","","","","","test","TL",""
"","html-keyboard-response","342","495023","0.0-258.0-2.0","null","<p></p>","null","","","","","","","",""
"","image","343","495721","0.0-259.0-0.0","697.0999999046326","run_exp/static/images/Set 6_rs/062b.jpg","78","","","","","","test","TL","1"
"","show_choice","344","496222","0.0-259.0-1.0","null","run_exp/static/images/Set 6_rs/062b.jpg","null","","","","","","test","TL",""
"","html-keyboard-response","345","496723","0.0-259.0-2.0","null","<p></p>","null","","","","","","","",""
"","image","346","497473","0.0-260.0-0.0","748.5999999046326","run_exp/static/images/Set 6_rs/021a.jpg","86","","","","","","test","TF","2"
"","show_choice","347","497974","0.0-260.0-1.0","null","run_exp/static/images/Set 6_rs/021a.jpg","null","","","","","","test","TF",""
"","html-keyboard-response","348","498478","0.0-260.0-2.0","null","<p></p>","null","","","","","","","",""
"","image","349","498857","0.0-261.0-0.0","378.59999990463257","run_exp/static/images/Set 6_rs/057b.jpg","66","","","","","","test","TL","1"
"","show_choice","350","499363","0.0-261.0-1.0","null","run_exp/static/images/Set 6_rs/057b.jpg","null","","","","","","test","TL",""
"","html-keyboard-response","351","499869","0.0-261.0-2.0","null","<p></p>","null","","","","","","","",""
"","image","352","500409","0.0-262.0-0.0","539.4000000953674","run_exp/static/images/Set 6_rs/168b.jpg","66","","","","","","test","TL","3"
"","show_choice","353","500911","0.0-262.0-1.0","null","run_exp/static/images/Set 6_rs/168b.jpg","null","","","","","","test","TL",""
"","html-keyboard-response","354","501415","0.0-262.0-2.0","null","<p></p>","null","","","","","","","",""
"","image","355","501992","0.0-263.0-0.0","576.6999998092651","run_exp/static/images/Set 6_rs/078a.jpg","86","","","","","","test","TF","1"
"","show_choice","356","502496","0.0-263.0-1.0","null","run_exp/static/images/Set 6_rs/078a.jpg","null","","","","","","test","TF",""
"","html-keyboard-response","357","503002","0.0-263.0-2.0","null","<p></p>","null","","","","","","","",""
"","image","358","503337","0.0-264.0-0.0","334.3999996185303","run_exp/static/images/Set 6_rs/138b.jpg","78","","","","","","test","TL","1"
"","show_choice","359","503842","0.0-264.0-1.0","null","run_exp/static/images/Set 6_rs/138b.jpg","null","","","","","","test","TL",""
"","html-keyboard-response","360","504346","0.0-264.0-2.0","null","<p></p>","null","","","","","","","",""
"","image","361","504665","0.0-265.0-0.0","318.5","run_exp/static/images/Set 6_rs/144b.jpg","78","","","","","","test","TL","4"
"","show_choice","362","505169","0.0-265.0-1.0","null","run_exp/static/images/Set 6_rs/144b.jpg","null","","","","","","test","TL",""
"","html-keyboard-response","363","505675","0.0-265.0-2.0","null","<p></p>","null","","","","","","","",""
"","image","364","506025","0.0-266.0-0.0","349","run_exp/static/images/Set 6_rs/171a.jpg","78","","","","","","test","TF","1"
"","show_choice","365","506528","0.0-266.0-1.0","null","run_exp/static/images/Set 6_rs/171a.jpg","null","","","","","","test","TF",""
"","html-keyboard-response","366","507033","0.0-266.0-2.0","null","<p></p>","null","","","","","","","",""
"","image","367","507385","0.0-267.0-0.0","351.19999980926514","run_exp/static/images/Set 6_rs/007a.jpg","86","","","","","","test","TR","3"
"","show_choice","368","507890","0.0-267.0-1.0","null","run_exp/static/images/Set 6_rs/007a.jpg","null","","","","","","test","TR",""
"","html-keyboard-response","369","508392","0.0-267.0-2.0","null","<p></p>","null","","","","","","","",""
"","image","370","508713","0.0-268.0-0.0","320.59999990463257","run_exp/static/images/Set 6_rs/170a.jpg","78","","","","","","test","TF","2"
"","show_choice","371","509214","0.0-268.0-1.0","null","run_exp/static/images/Set 6_rs/170a.jpg","null","","","","","","test","TF",""
"","html-keyboard-response","372","509719","0.0-268.0-2.0","null","<p></p>","null","","","","","","","",""
"","image","373","509961","0.0-269.0-0.0","241.5","run_exp/static/images/Set 6_rs/108a.jpg","86","","","","","","test","TR","5"
"","show_choice","374","510465","0.0-269.0-1.0","null","run_exp/static/images/Set 6_rs/108a.jpg","null","","","","","","test","TR",""
"","html-keyboard-response","375","510967","0.0-269.0-2.0","null","<p></p>","null","","","","","","","",""
"","image","376","511225","0.0-270.0-0.0","256.90000009536743","run_exp/static/images/Set 6_rs/129b.jpg","66","","","","","","test","TL","1"
"","show_choice","377","511731","0.0-270.0-1.0","null","run_exp/static/images/Set 6_rs/129b.jpg","null","","","","","","test","TL",""
"","html-keyboard-response","378","512236","0.0-270.0-2.0","null","<p></p>","null","","","","","","","",""
"","image","379","512609","0.0-271.0-0.0","371.5","run_exp/static/images/Set 6_rs/016b.jpg","86","","","","","","test","TL","1"
"","show_choice","380","513111","0.0-271.0-1.0","null","run_exp/static/images/Set 6_rs/016b.jpg","null","","","","","","test","TL",""
"","html-keyboard-response","381","513614","0.0-271.0-2.0","null","<p></p>","null","","","","","","","",""
"","image","382","513921","0.0-272.0-0.0","305.90000009536743","run_exp/static/images/Set 6_rs/065a.jpg","78","","","","","","test","TF","3"
"","show_choice","383","514424","0.0-272.0-1.0","null","run_exp/static/images/Set 6_rs/065a.jpg","null","","","","","","test","TF",""
"","html-keyboard-response","384","514929","0.0-272.0-2.0","null","<p></p>","null","","","","","","","",""
"","image","385","515161","0.0-273.0-0.0","231.09999990463257","run_exp/static/images/Set 6_rs/022a.jpg","66","","","","","","test","TF","4"
"","show_choice","386","515667","0.0-273.0-1.0","null","run_exp/static/images/Set 6_rs/022a.jpg","null","","","","","","test","TF",""
"","html-keyboard-response","387","516173","0.0-273.0-2.0","null","<p></p>","null","","","","","","","",""
"","image","388","517121","0.0-274.0-0.0","947.4000000953674","run_exp/static/images/Set 6_rs/148a.jpg","86","","","","","","test","TR","2"
"","show_choice","389","517627","0.0-274.0-1.0","null","run_exp/static/images/Set 6_rs/148a.jpg","null","","","","","","test","TR",""
"","html-keyboard-response","390","518129","0.0-274.0-2.0","null","<p></p>","null","","","","","","","",""
"","image","391","518337","0.0-275.0-0.0","207.09999990463257","run_exp/static/images/Set 6_rs/090a.jpg","78","","","","","","test","TF","5"
"","show_choice","392","518838","0.0-275.0-1.0","null","run_exp/static/images/Set 6_rs/090a.jpg","null","","","","","","test","TF",""
"","html-keyboard-response","393","519344","0.0-275.0-2.0","null","<p></p>","null","","","","","","","",""
"","image","394","519769","0.0-276.0-0.0","423.8999996185303","run_exp/static/images/Set 6_rs/100a.jpg","66","","","","","","test","TF","2"
"","show_choice","395","520274","0.0-276.0-1.0","null","run_exp/static/images/Set 6_rs/100a.jpg","null","","","","","","test","TF",""
"","html-keyboard-response","396","520776","0.0-276.0-2.0","null","<p></p>","null","","","","","","","",""
"","image","397","521025","0.0-277.0-0.0","247.2999997138977","run_exp/static/images/Set 6_rs/036b.jpg","86","","","","","","test","TL","4"
"","show_choice","398","521526","0.0-277.0-1.0","null","run_exp/static/images/Set 6_rs/036b.jpg","null","","","","","","test","TL",""
"","html-keyboard-response","399","522027","0.0-277.0-2.0","null","<p></p>","null","","","","","","","",""
"","image","400","522041","0.0-278.0-0.0","12.800000190734863","run_exp/static/images/Set 6_rs/105a.jpg","66","","","","","","test","TF","5"
"","show_choice","401","522544","0.0-278.0-1.0","null","run_exp/static/images/Set 6_rs/105a.jpg","null","","","","","","test","TF",""
"","html-keyboard-response","402","523049","0.0-278.0-2.0","null","<p></p>","null","","","","","","","",""
"","image","403","523145","0.0-279.0-0.0","94.40000009536743","run_exp/static/images/Set 6_rs/122a.jpg","78","","","","","","test","TR","5"
"","show_choice","404","523646","0.0-279.0-1.0","null","run_exp/static/images/Set 6_rs/122a.jpg","null","","","","","","test","TR",""
"","html-keyboard-response","405","524149","0.0-279.0-2.0","null","<p></p>","null","","","","","","","",""
"","image","406","524241","0.0-280.0-0.0","91","run_exp/static/images/Set 6_rs/063a.jpg","66","","","","","","test","TR","2"
"","show_choice","407","524743","0.0-280.0-1.0","null","run_exp/static/images/Set 6_rs/063a.jpg","null","","","","","","test","TR",""
"","html-keyboard-response","408","525245","0.0-280.0-2.0","null","<p></p>","null","","","","","","","",""
"","image","409","525681","0.0-281.0-0.0","435.5","run_exp/static/images/Set 6_rs/088a.jpg","78","","","","","","test","TR","2"
"","show_choice","410","526187","0.0-281.0-1.0","null","run_exp/static/images/Set 6_rs/088a.jpg","null","","","","","","test","TR",""
"","html-keyboard-response","411","526688","0.0-281.0-2.0","null","<p></p>","null","","","","","","","",""
"","image","412","527233","0.0-282.0-0.0","543.5999999046326","run_exp/static/images/Set 6_rs/091b.jpg","86","","","","","","test","TL","3"
"","show_choice","413","527738","0.0-282.0-1.0","null","run_exp/static/images/Set 6_rs/091b.jpg","null","","","","","","test","TL",""
"","html-keyboard-response","414","528244","0.0-282.0-2.0","null","<p></p>","null","","","","","","","",""
"","image","415","528609","0.0-283.0-0.0","363.5","run_exp/static/images/Set 6_rs/017b.jpg","78","","","","","","test","TL","3"
"","show_choice","416","529111","0.0-283.0-1.0","null","run_exp/static/images/Set 6_rs/017b.jpg","null","","","","","","test","TL",""
"","html-keyboard-response","417","529613","0.0-283.0-2.0","null","<p></p>","null","","","","","","","",""
"","image","418","529633","0.0-284.0-0.0","18.799999713897705","run_exp/static/images/Set 6_rs/073b.jpg","78","","","","","","test","TL","3"
"","show_choice","419","530138","0.0-284.0-1.0","null","run_exp/static/images/Set 6_rs/073b.jpg","null","","","","","","test","TL",""
"","html-keyboard-response","420","530643","0.0-284.0-2.0","null","<p></p>","null","","","","","","","",""
"","image","421","530665","0.0-285.0-0.0","21.199999809265137","run_exp/static/images/Set 6_rs/055b.jpg","78","","","","","","test","TL","4"
"","show_choice","422","531170","0.0-285.0-1.0","null","run_exp/static/images/Set 6_rs/055b.jpg","null","","","","","","test","TL",""
"","html-keyboard-response","423","531676","0.0-285.0-2.0","null","<p></p>","null","","","","","","","",""
"","image","424","531889","0.0-286.0-0.0","211.7000002861023","run_exp/static/images/Set 6_rs/067b.jpg","86","","","","","","test","TL","5"
"","show_choice","425","532394","0.0-286.0-1.0","null","run_exp/static/images/Set 6_rs/067b.jpg","null","","","","","","test","TL",""
"","html-keyboard-response","426","532900","0.0-286.0-2.0","null","<p></p>","null","","","","","","","",""
"","image","427","533121","0.0-287.0-0.0","219.5","run_exp/static/images/Set 6_rs/172a.jpg","78","","","","","","test","TR","1"
"","show_choice","428","533622","0.0-287.0-1.0","null","run_exp/static/images/Set 6_rs/172a.jpg","null","","","","","","test","TR",""
"","html-keyboard-response","429","534123","0.0-287.0-2.0","null","<p></p>","null","","","","","","","",""
"","image","430","534833","0.0-288.0-0.0","708.3999996185303","run_exp/static/images/Set 6_rs/097a.jpg","66","","","","","","test","TF","5"
"","show_choice","431","535338","0.0-288.0-1.0","null","run_exp/static/images/Set 6_rs/097a.jpg","null","","","","","","test","TF",""
"","html-keyboard-response","432","535840","0.0-288.0-2.0","null","<p></p>","null","","","","","","","",""
"","image","433","535993","0.0-289.0-0.0","152.30000019073486","run_exp/static/images/Set 6_rs/028a.jpg","78","","","","","","test","TF","1"
"","show_choice","434","536499","0.0-289.0-1.0","null","run_exp/static/images/Set 6_rs/028a.jpg","null","","","","","","test","TF",""
"","html-keyboard-response","435","537000","0.0-289.0-2.0","null","<p></p>","null","","","","","","","",""
"","image","436","537201","0.0-290.0-0.0","200.69999980926514","run_exp/static/images/Set 6_rs/071b.jpg","86","","","","","","test","TL","4"
"","show_choice","437","537702","0.0-290.0-1.0","null","run_exp/static/images/Set 6_rs/071b.jpg","null","","","","","","test","TL",""
"","html-keyboard-response","438","538203","0.0-290.0-2.0","null","<p></p>","null","","","","","","","",""
"","image","439","538833","0.0-291.0-0.0","628.8000001907349","run_exp/static/images/Set 6_rs/011a.jpg","78","","","","","","test","TF","3"
"","show_choice","440","539339","0.0-291.0-1.0","null","run_exp/static/images/Set 6_rs/011a.jpg","null","","","","","","test","TF",""
"","html-keyboard-response","441","539845","0.0-291.0-2.0","null","<p></p>","null","","","","","","","",""
"","image","442","540089","0.0-292.0-0.0","243.30000019073486","run_exp/static/images/Set 6_rs/126a.jpg","66","","","","","","test","TR","2"
"","show_choice","443","540595","0.0-292.0-1.0","null","run_exp/static/images/Set 6_rs/126a.jpg","null","","","","","","test","TR",""
"","html-keyboard-response","444","541096","0.0-292.0-2.0","null","<p></p>","null","","","","","","","",""
"","image","445","541513","0.0-293.0-0.0","416.1000003814697","run_exp/static/images/Set 6_rs/076a.jpg","86","","","","","","test","TR","4"
"","show_choice","446","542016","0.0-293.0-1.0","null","run_exp/static/images/Set 6_rs/076a.jpg","null","","","","","","test","TR",""
"","html-keyboard-response","447","542521","0.0-293.0-2.0","null","<p></p>","null","","","","","","","",""
"","image","448","542625","0.0-294.0-0.0","102.7999997138977","run_exp/static/images/Set 6_rs/095b.jpg","78","","","","","","test","TL","5"
"","show_choice","449","543130","0.0-294.0-1.0","null","run_exp/static/images/Set 6_rs/095b.jpg","null","","","","","","test","TL",""
"","html-keyboard-response","450","543633","0.0-294.0-2.0","null","<p></p>","null","","","","","","","",""
"","image","451","544257","0.0-295.0-0.0","623","run_exp/static/images/Set 6_rs/191b.jpg","66","","","","","","test","TL","2"
"","show_choice","452","544760","0.0-295.0-1.0","null","run_exp/static/images/Set 6_rs/191b.jpg","null","","","","","","test","TL",""
"","html-keyboard-response","453","545266","0.0-295.0-2.0","null","<p></p>","null","","","","","","","",""
"","image","454","545497","0.0-296.0-0.0","229.7000002861023","run_exp/static/images/Set 6_rs/024a.jpg","86","","","","","","test","TR","5"
"","show_choice","455","545999","0.0-296.0-1.0","null","run_exp/static/images/Set 6_rs/024a.jpg","null","","","","","","test","TR",""
"","html-keyboard-response","456","546500","0.0-296.0-2.0","null","<p></p>","null","","","","","","","",""
"","image","457","546937","0.0-297.0-0.0","435.90000009536743","run_exp/static/images/Set 6_rs/169a.jpg","78","","","","","","test","TR","4"
"","show_choice","458","547442","0.0-297.0-1.0","null","run_exp/static/images/Set 6_rs/169a.jpg","null","","","","","","test","TR",""
"","html-keyboard-response","459","547944","0.0-297.0-2.0","null","<p></p>","null","","","","","","","",""
"","image","460","548265","0.0-298.0-0.0","320.40000009536743","run_exp/static/images/Set 6_rs/056a.jpg","86","","","","","","test","TF","3"
"","show_choice","461","548770","0.0-298.0-1.0","null","run_exp/static/images/Set 6_rs/056a.jpg","null","","","","","","test","TF",""
"","html-keyboard-response","462","549273","0.0-298.0-2.0","null","<p></p>","null","","","","","","","",""
"","image","463","549705","0.0-299.0-0.0","430.40000009536743","run_exp/static/images/Set 6_rs/181b.jpg","66","","","","","","test","TL","1"
"","show_choice","464","550206","0.0-299.0-1.0","null","run_exp/static/images/Set 6_rs/181b.jpg","null","","","","","","test","TL",""
"","html-keyboard-response","465","550707","0.0-299.0-2.0","null","<p></p>","null","","","","","","","",""
"","image","466","550745","0.0-300.0-0.0","36.59999990463257","run_exp/static/images/Set 6_rs/188a.jpg","78","","","","","","test","TF","3"
"","show_choice","467","551246","0.0-300.0-1.0","null","run_exp/static/images/Set 6_rs/188a.jpg","null","","","","","","test","TF",""
"","html-keyboard-response","468","551752","0.0-300.0-2.0","null","<p></p>","null","","","","","","","",""
"","image","469","552073","0.0-301.0-0.0","320.2000002861023","run_exp/static/images/Set 6_rs/112a.jpg","86","","","","","","test","TR","5"
"","show_choice","470","552578","0.0-301.0-1.0","null","run_exp/static/images/Set 6_rs/112a.jpg","null","","","","","","test","TR",""
"","html-keyboard-response","471","553084","0.0-301.0-2.0","null","<p></p>","null","","","","","","","",""
"","image","472","553121","0.0-302.0-0.0","36","run_exp/static/images/Set 6_rs/177a.jpg","66","","","","","","test","TR","5"
"","show_choice","473","553626","0.0-302.0-1.0","null","run_exp/static/images/Set 6_rs/177a.jpg","null","","","","","","test","TR",""
"","html-keyboard-response","474","554132","0.0-302.0-2.0","null","<p></p>","null","","","","","","","",""
"","image","475","554193","0.0-303.0-0.0","59.59999990463257","run_exp/static/images/Set 6_rs/077a.jpg","78","","","","","","test","TF","3"
"","show_choice","476","554697","0.0-303.0-1.0","null","run_exp/static/images/Set 6_rs/077a.jpg","null","","","","","","test","TF",""
"","html-keyboard-response","477","555201","0.0-303.0-2.0","null","<p></p>","null","","","","","","","",""
"","image","478","555218","0.0-304.0-0.0","16.299999713897705","run_exp/static/images/Set 6_rs/075a.jpg","66","","","","","","test","TR","1"
"","show_choice","479","555723","0.0-304.0-1.0","null","run_exp/static/images/Set 6_rs/075a.jpg","null","","","","","","test","TR",""
"","html-keyboard-response","480","556229","0.0-304.0-2.0","null","<p></p>","null","","","","","","","",""
"","image","481","556313","0.0-305.0-0.0","82.60000038146973","run_exp/static/images/Set 6_rs/152a.jpg","86","","","","","","test","TR","2"
"","show_choice","482","556817","0.0-305.0-1.0","null","run_exp/static/images/Set 6_rs/152a.jpg","null","","","","","","test","TR",""
"","html-keyboard-response","483","557321","0.0-305.0-2.0","null","<p></p>","null","","","","","","","",""
"","image","484","557409","0.0-306.0-0.0","86.89999961853027","run_exp/static/images/Set 6_rs/154a.jpg","86","","","","","","test","TR","3"
"","show_choice","485","557911","0.0-306.0-1.0","null","run_exp/static/images/Set 6_rs/154a.jpg","null","","","","","","test","TR",""
"","html-keyboard-response","486","558412","0.0-306.0-2.0","null","<p></p>","null","","","","","","","",""
"","image","487","558721","0.0-307.0-0.0","308.3999996185303","run_exp/static/images/Set 6_rs/116b.jpg","86","","","","","","test","TL","2"
"","show_choice","488","559224","0.0-307.0-1.0","null","run_exp/static/images/Set 6_rs/116b.jpg","null","","","","","","test","TL",""
"","html-keyboard-response","489","559731","0.0-307.0-2.0","null","<p></p>","null","","","","","","","",""
"","image","490","559801","0.0-308.0-0.0","69.40000009536743","run_exp/static/images/Set 6_rs/155a.jpg","78","","","","","","test","TF","4"
"","show_choice","491","560302","0.0-308.0-1.0","null","run_exp/static/images/Set 6_rs/155a.jpg","null","","","","","","test","TF",""
"","html-keyboard-response","492","560803","0.0-308.0-2.0","null","<p></p>","null","","","","","","","",""
"","image","493","561377","0.0-309.0-0.0","572.7000002861023","run_exp/static/images/Set 6_rs/150a.jpg","78","","","","","","test","TR","1"
"","show_choice","494","561882","0.0-309.0-1.0","null","run_exp/static/images/Set 6_rs/150a.jpg","null","","","","","","test","TR",""
"","html-keyboard-response","495","562388","0.0-309.0-2.0","null","<p></p>","null","","","","","","","",""
"","image","496","562561","0.0-310.0-0.0","171.5","run_exp/static/images/Set 6_rs/186a.jpg","78","","","","","","test","TR","5"
"","show_choice","497","563065","0.0-310.0-1.0","null","run_exp/static/images/Set 6_rs/186a.jpg","null","","","","","","test","TR",""
"","html-keyboard-response","498","563571","0.0-310.0-2.0","null","<p></p>","null","","","","","","","",""
"","image","499","563857","0.0-311.0-0.0","284.40000009536743","run_exp/static/images/Set 6_rs/047a.jpg","78","","","","","","test","TF","3"
"","show_choice","500","564362","0.0-311.0-1.0","null","run_exp/static/images/Set 6_rs/047a.jpg","null","","","","","","test","TF",""
"","html-keyboard-response","501","564868","0.0-311.0-2.0","null","<p></p>","null","","","","","","","",""
"","image","502","565633","0.0-312.0-0.0","763.3999996185303","run_exp/static/images/Set 6_rs/085b.jpg","66","","","","","","test","TL","1"
"","show_choice","503","566138","0.0-312.0-1.0","null","run_exp/static/images/Set 6_rs/085b.jpg","null","","","","","","test","TL",""
"","html-keyboard-response","504","566640","0.0-312.0-2.0","null","<p></p>","null","","","","","","","",""
"","image","505","567577","0.0-313.0-0.0","935.8000001907349","run_exp/static/images/Set 6_rs/123b.jpg","86","","","","","","test","TL","2"
"","show_choice","506","568082","0.0-313.0-1.0","null","run_exp/static/images/Set 6_rs/123b.jpg","null","","","","","","test","TL",""
"","html-keyboard-response","507","568586","0.0-313.0-2.0","null","<p></p>","null","","","","","","","",""
"","image","508","568729","0.0-314.0-0.0","142","run_exp/static/images/Set 6_rs/066b.jpg","78","","","","","","test","TL","5"
"","show_choice","509","569230","0.0-314.0-1.0","null","run_exp/static/images/Set 6_rs/066b.jpg","null","","","","","","test","TL",""
"","html-keyboard-response","510","569736","0.0-314.0-2.0","null","<p></p>","null","","","","","","","",""
"","image","511","570097","0.0-315.0-0.0","359.8999996185303","run_exp/static/images/Set 6_rs/176a.jpg","66","","","","","","test","TF","4"
"","show_choice","512","570602","0.0-315.0-1.0","null","run_exp/static/images/Set 6_rs/176a.jpg","null","","","","","","test","TF",""
"","html-keyboard-response","513","571103","0.0-315.0-2.0","null","<p></p>","null","","","","","","","",""
"","image","514","571112","0.0-316.0-0.0","8.099999904632568","run_exp/static/images/Set 6_rs/111b.jpg","78","","","","","","test","TL","3"
"","show_choice","515","571616","0.0-316.0-1.0","null","run_exp/static/images/Set 6_rs/111b.jpg","null","","","","","","test","TL",""
"","html-keyboard-response","516","572121","0.0-316.0-2.0","null","<p></p>","null","","","","","","","",""
"","image","517","572377","0.0-317.0-0.0","255.10000038146973","run_exp/static/images/Set 6_rs/121a.jpg","86","","","","","","test","TR","4"
"","show_choice","518","572882","0.0-317.0-1.0","null","run_exp/static/images/Set 6_rs/121a.jpg","null","","","","","","test","TR",""
"","html-keyboard-response","519","573385","0.0-317.0-2.0","null","<p></p>","null","","","","","","","",""
"","image","520","573449","0.0-318.0-0.0","62.59999990463257","run_exp/static/images/Set 6_rs/134a.jpg","78","","","","","","test","TR","3"
"","show_choice","521","573950","0.0-318.0-1.0","null","run_exp/static/images/Set 6_rs/134a.jpg","null","","","","","","test","TR",""
"","html-keyboard-response","522","574456","0.0-318.0-2.0","null","<p></p>","null","","","","","","","",""
"","image","523","575081","0.0-319.0-0.0","624.2000002861023","run_exp/static/images/Set 6_rs/086a.jpg","86","","","","","","test","TF","1"
"","show_choice","524","575585","0.0-319.0-1.0","null","run_exp/static/images/Set 6_rs/086a.jpg","null","","","","","","test","TF",""
"","html-keyboard-response","525","576092","0.0-319.0-2.0","null","<p></p>","null","","","","","","","",""
"","image","526","576313","0.0-320.0-0.0","220.09999990463257","run_exp/static/images/Set 6_rs/015a.jpg","78","","","","","","test","TF","4"
"","show_choice","527","576816","0.0-320.0-1.0","null","run_exp/static/images/Set 6_rs/015a.jpg","null","","","","","","test","TF",""
"","html-keyboard-response","528","577320","0.0-320.0-2.0","null","<p></p>","null","","","","","","","",""
"","image","529","577649","0.0-321.0-0.0","327.40000009536743","run_exp/static/images/Set 6_rs/045a.jpg","66","","","","","","test","TR","2"
"","show_choice","530","578150","0.0-321.0-1.0","null","run_exp/static/images/Set 6_rs/045a.jpg","null","","","","","","test","TR",""
"","html-keyboard-response","531","578656","0.0-321.0-2.0","null","<p></p>","null","","","","","","","",""
"","image","532","579609","0.0-322.0-0.0","951.1999998092651","run_exp/static/images/Set 6_rs/178a.jpg","78","","","","","","test","TR","3"
"","show_choice","533","580111","0.0-322.0-1.0","null","run_exp/static/images/Set 6_rs/178a.jpg","null","","","","","","test","TR",""
"","html-keyboard-response","534","580615","0.0-322.0-2.0","null","<p></p>","null","","","","","","","",""
"","all_done","535","587754","0.0-323.0-0.0","null","run_exp/static/audio/clip_23_all_done.m4a","null","","","","","<div class='center'><p>You are finished with all three parts of the experiment! You can press the space bar to end the game now. </p></div>","","",""
"","html-keyboard-response","536","588657","0.0-323.0-1.0","902.4000000953674","<div class='center'><p>You are finished with all three parts of the experiment! You can press the space bar to end the game now. </p><div><p><b>[Press the space bar to continue]</b></p></div>","32","","","","","","","",""
