"success","trial_type","trial_index","time_elapsed","internal_node_id","interactions","blur_events","focus_events","fullscreenenter_events","fullscreenexit_events","rt","stimulus","key_press","subject_id","participant_id","age","gender","prompt","phase","condition","lure_bin"
"true","fullscreen","0","11079","0.0-0.0","""event"",""trial"",""time""
""fullscreenenter"",""0"",""10105""
","
","
","""event"",""trial"",""time""
""fullscreenenter"",""0"",""10105""
","
","","","","","","","","","","",""
"","pavlovia","1","11084","0.0-1.0","""event"",""trial"",""time""
""fullscreenenter"",""0"",""10105""
","
","
","""event"",""trial"",""time""
""fullscreenenter"",""0"",""10105""
","
","","","","","","","","","","",""
"","welcome","2","45903","0.0-2.0","""event"",""trial"",""time""
""fullscreenenter"",""0"",""10105""
","
","
","""event"",""trial"",""time""
""fullscreenenter"",""0"",""10105""
","
","null","run_exp/static/audio/clip_1_welcome.m4a","null","2028","1811","21","Male","<div class='center'><p>Welcome to the third part of the study! First, you'll be shown pictures of items one at a time. For each picture, you have to decide if the item is typically found indoors or outdoors.</p><p>If you think it's usually found indoors, then press <b>v</b> key on your keyboard. If you think it's usually found outdoors, then press the <b>n</b> key.There will be reminders on the screen to help you remember which keys to press. </p><p>If you're not sure whether the item is an indoor item or an outdoor item, go ahead and take a guess but try your best not to skip that choice. </p></div>","","",""
"","html-keyboard-response","3","107204","0.0-3.0","""event"",""trial"",""time""
""fullscreenenter"",""0"",""10105""
","
","
","""event"",""trial"",""time""
""fullscreenenter"",""0"",""10105""
","
","61299.40000000596","<div class='center'><p>Welcome to the third part of the study! First, you'll be shown pictures of items one at a time. For each picture, you have to decide if the item is typically found indoors or outdoors.</p><p>If you think it's usually found indoors, then press <b>v</b> key on your keyboard. If you think it's usually found outdoors, then press the <b>n</b> key.There will be reminders on the screen to help you remember which keys to press. </p><p>If you're not sure whether the item is an indoor item or an outdoor item, go ahead and take a guess but try your best not to skip that choice. </p><div><p><b>[Press the space bar to continue]</b></p></div>","32","","","","","","","",""
"","image","4","109217","0.0-4.0","""event"",""trial"",""time""
""fullscreenenter"",""0"",""10105""
","
","
","""event"",""trial"",""time""
""fullscreenenter"",""0"",""10105""
","
","null","run_exp/static/images/Set 6_rs/131a.jpg","null","","","","","","learn","SR",""
"","show_choice","5","111221","0.0-5.0","""event"",""trial"",""time""
""fullscreenenter"",""0"",""10105""
","
","
","""event"",""trial"",""time""
""fullscreenenter"",""0"",""10105""
","
","null","run_exp/static/images/blank.png","null","","","","","","learn","SR",""
"","html-keyboard-response","6","111725","0.0-6.0","""event"",""trial"",""time""
""fullscreenenter"",""0"",""10105""
","
","
","""event"",""trial"",""time""
""fullscreenenter"",""0"",""10105""
","
","null","<p></p>","null","","","","","","","",""
"","image","7","113729","0.0-7.0","""event"",""trial"",""time""
""fullscreenenter"",""0"",""10105""
","
","
","""event"",""trial"",""time""
""fullscreenenter"",""0"",""10105""
","
","null","run_exp/static/images/Set 6_rs/154a.jpg","null","","","","","","learn","SR",""
"","show_choice","8","115735","0.0-8.0","""event"",""trial"",""time""
""fullscreenenter"",""0"",""10105""
","
","
","""event"",""trial"",""time""
""fullscreenenter"",""0"",""10105""
","
","null","run_exp/static/images/blank.png","null","","","","","","learn","SR",""
"","html-keyboard-response","9","116237","0.0-9.0","""event"",""trial"",""time""
""fullscreenenter"",""0"",""10105""
","
","
","""event"",""trial"",""time""
""fullscreenenter"",""0"",""10105""
","
","null","<p></p>","null","","","","","","","",""
"","image","10","117560","0.0-10.0","""event"",""trial"",""time""
""fullscreenenter"",""0"",""10105""
","
","
","""event"",""trial"",""time""
""fullscreenenter"",""0"",""10105""
","
","1321.4000000059605","run_exp/static/images/Set 6_rs/064a.jpg","86","","","","","","learn","SR",""
"","show_choice","11","118244","0.0-11.0","""event"",""trial"",""time""
""fullscreenenter"",""0"",""10105""
","
","
","""event"",""trial"",""time""
""fullscreenenter"",""0"",""10105""
","
","null","run_exp/static/images/Set 6_rs/064a.jpg","null","","","","","","learn","SR",""
"","html-keyboard-response","12","118745","0.0-12.0","""event"",""trial"",""time""
""fullscreenenter"",""0"",""10105""
","
","
","""event"",""trial"",""time""
""fullscreenenter"",""0"",""10105""
","
","null","<p></p>","null","","","","","","","",""
"","image","13","120757","0.0-13.0","""event"",""trial"",""time""
""fullscreenenter"",""0"",""10105""
","
","
","""event"",""trial"",""time""
""fullscreenenter"",""0"",""10105""
","
","null","run_exp/static/images/Set 6_rs/166a.jpg","null","","","","","","learn","SR",""
"","show_choice","14","122763","0.0-14.0","""event"",""trial"",""time""
""fullscreenenter"",""0"",""10105""
","
","
","""event"",""trial"",""time""
""fullscreenenter"",""0"",""10105""
","
","null","run_exp/static/images/blank.png","null","","","","","","learn","SR",""
"","html-keyboard-response","15","123268","0.0-15.0","""event"",""trial"",""time""
""fullscreenenter"",""0"",""10105""
","
","
","""event"",""trial"",""time""
""fullscreenenter"",""0"",""10105""
","
","null","<p></p>","null","","","","","","","",""
"","image","16","124940","0.0-16.0","""event"",""trial"",""time""
""fullscreenenter"",""0"",""10105""
","
","
","""event"",""trial"",""time""
""fullscreenenter"",""0"",""10105""
","
","1671.5999999940395","run_exp/static/images/Set 6_rs/123a.jpg","86","","","","","","learn","SL",""
"","show_choice","17","125273","0.0-17.0","""event"",""trial"",""time""
""fullscreenenter"",""0"",""10105""
","
","
","""event"",""trial"",""time""
""fullscreenenter"",""0"",""10105""
","
","null","run_exp/static/images/Set 6_rs/123a.jpg","null","","","","","","learn","SL",""
"","html-keyboard-response","18","125778","0.0-18.0","""event"",""trial"",""time""
""fullscreenenter"",""0"",""10105""
","
","
","""event"",""trial"",""time""
""fullscreenenter"",""0"",""10105""
","
","null","<p></p>","null","","","","","","","",""
"","image","19","127615","0.0-19.0","""event"",""trial"",""time""
""fullscreenenter"",""0"",""10105""
","
","
","""event"",""trial"",""time""
""fullscreenenter"",""0"",""10105""
","
","1835.5","run_exp/static/images/Set 6_rs/187a.jpg","86","","","","","","learn","SR",""
"","show_choice","20","127781","0.0-20.0","""event"",""trial"",""time""
""fullscreenenter"",""0"",""10105""
","
","
","""event"",""trial"",""time""
""fullscreenenter"",""0"",""10105""
","
","null","run_exp/static/images/Set 6_rs/187a.jpg","null","","","","","","learn","SR",""
"","html-keyboard-response","21","128297","0.0-21.0","""event"",""trial"",""time""
""fullscreenenter"",""0"",""10105""
","
","
","""event"",""trial"",""time""
""fullscreenenter"",""0"",""10105""
","
","null","<p></p>","null","","","","","","","",""
"","image","22","130093","0.0-22.0","""event"",""trial"",""time""
""fullscreenenter"",""0"",""10105""
","
","
","""event"",""trial"",""time""
""fullscreenenter"",""0"",""10105""
","
","1795.2000000178814","run_exp/static/images/Set 6_rs/167a.jpg","86","","","","","","learn","SL",""
"","show_choice","23","130302","0.0-23.0","""event"",""trial"",""time""
""fullscreenenter"",""0"",""10105""
","
","
","""event"",""trial"",""time""
""fullscreenenter"",""0"",""10105""
","
","null","run_exp/static/images/Set 6_rs/167a.jpg","null","","","","","","learn","SL",""
"","html-keyboard-response","24","130806","0.0-24.0","""event"",""trial"",""time""
""fullscreenenter"",""0"",""10105""
","
","
","""event"",""trial"",""time""
""fullscreenenter"",""0"",""10105""
","
","null","<p></p>","null","","","","","","","",""
"","image","25","132817","0.0-25.0","""event"",""trial"",""time""
""fullscreenenter"",""0"",""10105""
","
","
","""event"",""trial"",""time""
""fullscreenenter"",""0"",""10105""
","
","null","run_exp/static/images/Set 6_rs/066a.jpg","null","","","","","","learn","SL",""
"","show_choice","26","134821","0.0-26.0","""event"",""trial"",""time""
""fullscreenenter"",""0"",""10105""
","
","
","""event"",""trial"",""time""
""fullscreenenter"",""0"",""10105""
","
","null","run_exp/static/images/blank.png","null","","","","","","learn","SL",""
"","html-keyboard-response","27","135336","0.0-27.0","""event"",""trial"",""time""
""fullscreenenter"",""0"",""10105""
","
","
","""event"",""trial"",""time""
""fullscreenenter"",""0"",""10105""
","
","null","<p></p>","null","","","","","","","",""
"","image","28","136436","0.0-28.0","""event"",""trial"",""time""
""fullscreenenter"",""0"",""10105""
","
","
","""event"",""trial"",""time""
""fullscreenenter"",""0"",""10105""
","
","1098","run_exp/static/images/Set 6_rs/095a.jpg","86","","","","","","learn","SL",""
"","show_choice","29","137342","0.0-29.0","""event"",""trial"",""time""
""fullscreenenter"",""0"",""10105""
","
","
","""event"",""trial"",""time""
""fullscreenenter"",""0"",""10105""
","
","null","run_exp/static/images/Set 6_rs/095a.jpg","null","","","","","","learn","SL",""
"","html-keyboard-response","30","137846","0.0-30.0","""event"",""trial"",""time""
""fullscreenenter"",""0"",""10105""
","
","
","""event"",""trial"",""time""
""fullscreenenter"",""0"",""10105""
","
","null","<p></p>","null","","","","","","","",""
"","image","31","138950","0.0-31.0","""event"",""trial"",""time""
""fullscreenenter"",""0"",""10105""
","
","
","""event"",""trial"",""time""
""fullscreenenter"",""0"",""10105""
","
","1101.800000011921","run_exp/static/images/Set 6_rs/036a.jpg","86","","","","","","learn","SL",""
"","show_choice","32","139862","0.0-32.0","""event"",""trial"",""time""
""fullscreenenter"",""0"",""10105""
","
","
","""event"",""trial"",""time""
""fullscreenenter"",""0"",""10105""
","
","null","run_exp/static/images/Set 6_rs/036a.jpg","null","","","","","","learn","SL",""
"","html-keyboard-response","33","140379","0.0-33.0","""event"",""trial"",""time""
""fullscreenenter"",""0"",""10105""
","
","
","""event"",""trial"",""time""
""fullscreenenter"",""0"",""10105""
","
","null","<p></p>","null","","","","","","","",""
"","image","34","141365","0.0-34.0","""event"",""trial"",""time""
""fullscreenenter"",""0"",""10105""
","
","
","""event"",""trial"",""time""
""fullscreenenter"",""0"",""10105""
","
","984.9000000059605","run_exp/static/images/Set 6_rs/122a.jpg","86","","","","","","learn","SR",""
"","show_choice","35","142392","0.0-35.0","""event"",""trial"",""time""
""fullscreenenter"",""0"",""10105""
","
","
","""event"",""trial"",""time""
""fullscreenenter"",""0"",""10105""
","
","null","run_exp/static/images/Set 6_rs/122a.jpg","null","","","","","","learn","SR",""
"","html-keyboard-response","36","142908","0.0-36.0","""event"",""trial"",""time""
""fullscreenenter"",""0"",""10105""
","
","
","""event"",""trial"",""time""
""fullscreenenter"",""0"",""10105""
","
","null","<p></p>","null","","","","","","","",""
"","image","37","144089","0.0-37.0","""event"",""trial"",""time""
""fullscreenenter"",""0"",""10105""
","
","
","""event"",""trial"",""time""
""fullscreenenter"",""0"",""10105""
","
","1180.5","run_exp/static/images/Set 6_rs/134a.jpg","86","","","","","","learn","SR",""
"","show_choice","38","144920","0.0-38.0","""event"",""trial"",""time""
""fullscreenenter"",""0"",""10105""
","
","
","""event"",""trial"",""time""
""fullscreenenter"",""0"",""10105""
","
","null","run_exp/static/images/Set 6_rs/134a.jpg","null","","","","","","learn","SR",""
"","html-keyboard-response","39","145436","0.0-39.0","""event"",""trial"",""time""
""fullscreenenter"",""0"",""10105""
","
","
","""event"",""trial"",""time""
""fullscreenenter"",""0"",""10105""
","
","null","<p></p>","null","","","","","","","",""
"","image","40","146901","0.0-40.0","""event"",""trial"",""time""
""fullscreenenter"",""0"",""10105""
","
","
","""event"",""trial"",""time""
""fullscreenenter"",""0"",""10105""
","
","1464","run_exp/static/images/Set 6_rs/023a.jpg","86","","","","","","learn","SR",""
"","show_choice","41","147445","0.0-41.0","""event"",""trial"",""time""
""fullscreenenter"",""0"",""10105""
","
","
","""event"",""trial"",""time""
""fullscreenenter"",""0"",""10105""
","
","null","run_exp/static/images/Set 6_rs/023a.jpg","null","","","","","","learn","SR",""
"","html-keyboard-response","42","147948","0.0-42.0","""event"",""trial"",""time""
""fullscreenenter"",""0"",""10105""
","
","
","""event"",""trial"",""time""
""fullscreenenter"",""0"",""10105""
","
","null","<p></p>","null","","","","","","","",""
"","image","43","149741","0.0-43.0","""event"",""trial"",""time""
""fullscreenenter"",""0"",""10105""
","
","
","""event"",""trial"",""time""
""fullscreenenter"",""0"",""10105""
","
","1792.5","run_exp/static/images/Set 6_rs/062a.jpg","86","","","","","","learn","SL",""
"","show_choice","44","149957","0.0-44.0","""event"",""trial"",""time""
""fullscreenenter"",""0"",""10105""
","
","
","""event"",""trial"",""time""
""fullscreenenter"",""0"",""10105""
","
","null","run_exp/static/images/Set 6_rs/062a.jpg","null","","","","","","learn","SL",""
"","html-keyboard-response","45","150460","0.0-45.0","""event"",""trial"",""time""
""fullscreenenter"",""0"",""10105""
","
","
","""event"",""trial"",""time""
""fullscreenenter"",""0"",""10105""
","
","null","<p></p>","null","","","","","","","",""
"","image","46","151550","0.0-46.0","""event"",""trial"",""time""
""fullscreenenter"",""0"",""10105""
","
","
","""event"",""trial"",""time""
""fullscreenenter"",""0"",""10105""
","
","1087.9000000059605","run_exp/static/images/Set 6_rs/063a.jpg","86","","","","","","learn","SR",""
"","show_choice","47","152474","0.0-47.0","""event"",""trial"",""time""
""fullscreenenter"",""0"",""10105""
","
","
","""event"",""trial"",""time""
""fullscreenenter"",""0"",""10105""
","
","null","run_exp/static/images/Set 6_rs/063a.jpg","null","","","","","","learn","SR",""
"","html-keyboard-response","48","152989","0.0-48.0","""event"",""trial"",""time""
""fullscreenenter"",""0"",""10105""
","
","
","""event"",""trial"",""time""
""fullscreenenter"",""0"",""10105""
","
","null","<p></p>","null","","","","","","","",""
"","image","49","154998","0.0-49.0","""event"",""trial"",""time""
""fullscreenenter"",""0"",""10105""
","
","
","""event"",""trial"",""time""
""fullscreenenter"",""0"",""10105""
","
","null","run_exp/static/images/Set 6_rs/177a.jpg","null","","","","","","learn","SR",""
"","show_choice","50","157012","0.0-50.0","""event"",""trial"",""time""
""fullscreenenter"",""0"",""10105""
","
","
","""event"",""trial"",""time""
""fullscreenenter"",""0"",""10105""
","
","null","run_exp/static/images/blank.png","null","","","","","","learn","SR",""
"","html-keyboard-response","51","157527","0.0-51.0","""event"",""trial"",""time""
""fullscreenenter"",""0"",""10105""
","
","
","""event"",""trial"",""time""
""fullscreenenter"",""0"",""10105""
","
","null","<p></p>","null","","","","","","","",""
"","image","52","158572","0.0-52.0","""event"",""trial"",""time""
""fullscreenenter"",""0"",""10105""
","
","
","""event"",""trial"",""time""
""fullscreenenter"",""0"",""10105""
","
","1043.5999999940395","run_exp/static/images/Set 6_rs/116a.jpg","86","","","","","","learn","SL",""
"","show_choice","53","159538","0.0-53.0","""event"",""trial"",""time""
""fullscreenenter"",""0"",""10105""
","
","
","""event"",""trial"",""time""
""fullscreenenter"",""0"",""10105""
","
","null","run_exp/static/images/Set 6_rs/116a.jpg","null","","","","","","learn","SL",""
"","html-keyboard-response","54","160055","0.0-54.0","""event"",""trial"",""time""
""fullscreenenter"",""0"",""10105""
","
","
","""event"",""trial"",""time""
""fullscreenenter"",""0"",""10105""
","
","null","<p></p>","null","","","","","","","",""
"","image","55","161066","0.0-55.0","""event"",""trial"",""time""
""fullscreenenter"",""0"",""10105""
","
","
","""event"",""trial"",""time""
""fullscreenenter"",""0"",""10105""
","
","1009.1999999880791","run_exp/static/images/Set 6_rs/112a.jpg","86","","","","","","learn","SR",""
"","show_choice","56","162063","0.0-56.0","""event"",""trial"",""time""
""fullscreenenter"",""0"",""10105""
","
","
","""event"",""trial"",""time""
""fullscreenenter"",""0"",""10105""
","
","null","run_exp/static/images/Set 6_rs/112a.jpg","null","","","","","","learn","SR",""
"","html-keyboard-response","57","162579","0.0-57.0","""event"",""trial"",""time""
""fullscreenenter"",""0"",""10105""
","
","
","""event"",""trial"",""time""
""fullscreenenter"",""0"",""10105""
","
","null","<p></p>","null","","","","","","","",""
"","image","58","163492","0.0-58.0","""event"",""trial"",""time""
""fullscreenenter"",""0"",""10105""
","
","
","""event"",""trial"",""time""
""fullscreenenter"",""0"",""10105""
","
","910.4000000059605","run_exp/static/images/Set 6_rs/075a.jpg","86","","","","","","learn","SR",""
"","show_choice","59","164588","0.0-59.0","""event"",""trial"",""time""
""fullscreenenter"",""0"",""10105""
","
","
","""event"",""trial"",""time""
""fullscreenenter"",""0"",""10105""
","
","null","run_exp/static/images/Set 6_rs/075a.jpg","null","","","","","","learn","SR",""
"","html-keyboard-response","60","165090","0.0-60.0","""event"",""trial"",""time""
""fullscreenenter"",""0"",""10105""
","
","
","""event"",""trial"",""time""
""fullscreenenter"",""0"",""10105""
","
","null","<p></p>","null","","","","","","","",""
"","image","61","167031","0.0-61.0","""event"",""trial"",""time""
""fullscreenenter"",""0"",""10105""
","
","
","""event"",""trial"",""time""
""fullscreenenter"",""0"",""10105""
","
","1940.1000000238419","run_exp/static/images/Set 6_rs/010a.jpg","86","","","","","","learn","SR",""
"","show_choice","62","167102","0.0-62.0","""event"",""trial"",""time""
""fullscreenenter"",""0"",""10105""
","
","
","""event"",""trial"",""time""
""fullscreenenter"",""0"",""10105""
","
","null","run_exp/static/images/Set 6_rs/010a.jpg","null","","","","","","learn","SR",""
"","html-keyboard-response","63","167619","0.0-63.0","""event"",""trial"",""time""
""fullscreenenter"",""0"",""10105""
","
","
","""event"",""trial"",""time""
""fullscreenenter"",""0"",""10105""
","
","null","<p></p>","null","","","","","","","",""
"","image","64","169623","0.0-64.0","""event"",""trial"",""time""
""fullscreenenter"",""0"",""10105""
","
","
","""event"",""trial"",""time""
""fullscreenenter"",""0"",""10105""
","
","null","run_exp/static/images/Set 6_rs/076a.jpg","null","","","","","","learn","SR",""
"","show_choice","65","171637","0.0-65.0","""event"",""trial"",""time""
""fullscreenenter"",""0"",""10105""
","
","
","""event"",""trial"",""time""
""fullscreenenter"",""0"",""10105""
","
","null","run_exp/static/images/blank.png","null","","","","","","learn","SR",""
"","html-keyboard-response","66","172139","0.0-66.0","""event"",""trial"",""time""
""fullscreenenter"",""0"",""10105""
","
","
","""event"",""trial"",""time""
""fullscreenenter"",""0"",""10105""
","
","null","<p></p>","null","","","","","","","",""
"","image","67","174148","0.0-67.0","""event"",""trial"",""time""
""fullscreenenter"",""0"",""10105""
","
","
","""event"",""trial"",""time""
""fullscreenenter"",""0"",""10105""
","
","null","run_exp/static/images/Set 6_rs/017a.jpg","null","","","","","","learn","SL",""
"","show_choice","68","176163","0.0-68.0","""event"",""trial"",""time""
""fullscreenenter"",""0"",""10105""
","
","
","""event"",""trial"",""time""
""fullscreenenter"",""0"",""10105""
","
","null","run_exp/static/images/blank.png","null","","","","","","learn","SL",""
"","html-keyboard-response","69","176666","0.0-69.0","""event"",""trial"",""time""
""fullscreenenter"",""0"",""10105""
","
","
","""event"",""trial"",""time""
""fullscreenenter"",""0"",""10105""
","
","null","<p></p>","null","","","","","","","",""
"","image","70","178629","0.0-70.0","""event"",""trial"",""time""
""fullscreenenter"",""0"",""10105""
","
","
","""event"",""trial"",""time""
""fullscreenenter"",""0"",""10105""
","
","1961.199999988079","run_exp/static/images/Set 6_rs/008a.jpg","78","","","","","","learn","SL",""
"","show_choice","71","178667","0.0-71.0","""event"",""trial"",""time""
""fullscreenenter"",""0"",""10105""
","
","
","""event"",""trial"",""time""
""fullscreenenter"",""0"",""10105""
","
","null","run_exp/static/images/Set 6_rs/008a.jpg","null","","","","","","learn","SL",""
"","html-keyboard-response","72","179170","0.0-72.0","""event"",""trial"",""time""
""fullscreenenter"",""0"",""10105""
","
","
","""event"",""trial"",""time""
""fullscreenenter"",""0"",""10105""
","
","null","<p></p>","null","","","","","","","",""
"","image","73","181187","0.0-73.0","""event"",""trial"",""time""
""fullscreenenter"",""0"",""10105""
","
","
","""event"",""trial"",""time""
""fullscreenenter"",""0"",""10105""
","
","null","run_exp/static/images/Set 6_rs/168a.jpg","null","","","","","","learn","SL",""
"","show_choice","74","183201","0.0-74.0","""event"",""trial"",""time""
""fullscreenenter"",""0"",""10105""
","
","
","""event"",""trial"",""time""
""fullscreenenter"",""0"",""10105""
","
","null","run_exp/static/images/blank.png","null","","","","","","learn","SL",""
"","html-keyboard-response","75","183704","0.0-75.0","""event"",""trial"",""time""
""fullscreenenter"",""0"",""10105""
","
","
","""event"",""trial"",""time""
""fullscreenenter"",""0"",""10105""
","
","null","<p></p>","null","","","","","","","",""
"","image","76","184734","0.0-76.0","""event"",""trial"",""time""
""fullscreenenter"",""0"",""10105""
","
","
","""event"",""trial"",""time""
""fullscreenenter"",""0"",""10105""
","
","1029","run_exp/static/images/Set 6_rs/070a.jpg","86","","","","","","learn","SR",""
"","show_choice","77","185713","0.0-77.0","""event"",""trial"",""time""
""fullscreenenter"",""0"",""10105""
","
","
","""event"",""trial"",""time""
""fullscreenenter"",""0"",""10105""
","
","null","run_exp/static/images/Set 6_rs/070a.jpg","null","","","","","","learn","SR",""
"","html-keyboard-response","78","186216","0.0-78.0","""event"",""trial"",""time""
""fullscreenenter"",""0"",""10105""
","
","
","""event"",""trial"",""time""
""fullscreenenter"",""0"",""10105""
","
","null","<p></p>","null","","","","","","","",""
"","image","79","187180","0.0-79.0","""event"",""trial"",""time""
""fullscreenenter"",""0"",""10105""
","
","
","""event"",""trial"",""time""
""fullscreenenter"",""0"",""10105""
","
","961.5","run_exp/static/images/Set 6_rs/061a.jpg","78","","","","","","learn","SR",""
"","show_choice","80","188221","0.0-80.0","""event"",""trial"",""time""
""fullscreenenter"",""0"",""10105""
","
","
","""event"",""trial"",""time""
""fullscreenenter"",""0"",""10105""
","
","null","run_exp/static/images/Set 6_rs/061a.jpg","null","","","","","","learn","SR",""
"","html-keyboard-response","81","188726","0.0-81.0","""event"",""trial"",""time""
""fullscreenenter"",""0"",""10105""
","
","
","""event"",""trial"",""time""
""fullscreenenter"",""0"",""10105""
","
","null","<p></p>","null","","","","","","","",""
"","image","82","190157","0.0-82.0","""event"",""trial"",""time""
""fullscreenenter"",""0"",""10105""
","
","
","""event"",""trial"",""time""
""fullscreenenter"",""0"",""10105""
","
","1429.800000011921","run_exp/static/images/Set 6_rs/150a.jpg","86","","","","","","learn","SR",""
"","show_choice","83","190743","0.0-83.0","""event"",""trial"",""time""
""fullscreenenter"",""0"",""10105""
","
","
","""event"",""trial"",""time""
""fullscreenenter"",""0"",""10105""
","
","null","run_exp/static/images/Set 6_rs/150a.jpg","null","","","","","","learn","SR",""
"","html-keyboard-response","84","191258","0.0-84.0","""event"",""trial"",""time""
""fullscreenenter"",""0"",""10105""
","
","
","""event"",""trial"",""time""
""fullscreenenter"",""0"",""10105""
","
","null","<p></p>","null","","","","","","","",""
"","image","85","193213","0.0-85.0","""event"",""trial"",""time""
""fullscreenenter"",""0"",""10105""
","
","
","""event"",""trial"",""time""
""fullscreenenter"",""0"",""10105""
","
","1954.1000000238419","run_exp/static/images/Set 6_rs/074a.jpg","78","","","","","","learn","SL",""
"","show_choice","86","193272","0.0-86.0","""event"",""trial"",""time""
""fullscreenenter"",""0"",""10105""
","
","
","""event"",""trial"",""time""
""fullscreenenter"",""0"",""10105""
","
","null","run_exp/static/images/Set 6_rs/074a.jpg","null","","","","","","learn","SL",""
"","html-keyboard-response","87","193775","0.0-87.0","""event"",""trial"",""time""
""fullscreenenter"",""0"",""10105""
","
","
","""event"",""trial"",""time""
""fullscreenenter"",""0"",""10105""
","
","null","<p></p>","null","","","","","","","",""
"","image","88","194883","0.0-88.0","""event"",""trial"",""time""
""fullscreenenter"",""0"",""10105""
","
","
","""event"",""trial"",""time""
""fullscreenenter"",""0"",""10105""
","
","1105.7000000178814","run_exp/static/images/Set 6_rs/178a.jpg","78","","","","","","learn","SR",""
"","show_choice","89","195784","0.0-89.0","""event"",""trial"",""time""
""fullscreenenter"",""0"",""10105""
","
","
","""event"",""trial"",""time""
""fullscreenenter"",""0"",""10105""
","
","null","run_exp/static/images/Set 6_rs/178a.jpg","null","","","","","","learn","SR",""
"","html-keyboard-response","90","196298","0.0-90.0","""event"",""trial"",""time""
""fullscreenenter"",""0"",""10105""
","
","
","""event"",""trial"",""time""
""fullscreenenter"",""0"",""10105""
","
","null","<p></p>","null","","","","","","","",""
"","image","91","197377","0.0-91.0","""event"",""trial"",""time""
""fullscreenenter"",""0"",""10105""
","
","
","""event"",""trial"",""time""
""fullscreenenter"",""0"",""10105""
","
","1078","run_exp/static/images/Set 6_rs/055a.jpg","78","","","","","","learn","SL",""
"","show_choice","92","198304","0.0-92.0","""event"",""trial"",""time""
""fullscreenenter"",""0"",""10105""
","
","
","""event"",""trial"",""time""
""fullscreenenter"",""0"",""10105""
","
","null","run_exp/static/images/Set 6_rs/055a.jpg","null","","","","","","learn","SL",""
"","html-keyboard-response","93","198819","0.0-93.0","""event"",""trial"",""time""
""fullscreenenter"",""0"",""10105""
","
","
","""event"",""trial"",""time""
""fullscreenenter"",""0"",""10105""
","
","null","<p></p>","null","","","","","","","",""
"","image","94","200431","0.0-94.0","""event"",""trial"",""time""
""fullscreenenter"",""0"",""10105""
","
","
","""event"",""trial"",""time""
""fullscreenenter"",""0"",""10105""
","
","1610.199999988079","run_exp/static/images/Set 6_rs/152a.jpg","86","","","","","","learn","SR",""
"","show_choice","95","200833","0.0-95.0","""event"",""trial"",""time""
""fullscreenenter"",""0"",""10105""
","
","
","""event"",""trial"",""time""
""fullscreenenter"",""0"",""10105""
","
","null","run_exp/static/images/Set 6_rs/152a.jpg","null","","","","","","learn","SR",""
"","html-keyboard-response","96","201350","0.0-96.0","""event"",""trial"",""time""
""fullscreenenter"",""0"",""10105""
","
","
","""event"",""trial"",""time""
""fullscreenenter"",""0"",""10105""
","
","null","<p></p>","null","","","","","","","",""
"","image","97","202972","0.0-97.0","""event"",""trial"",""time""
""fullscreenenter"",""0"",""10105""
","
","
","""event"",""trial"",""time""
""fullscreenenter"",""0"",""10105""
","
","1619.699999988079","run_exp/static/images/Set 6_rs/057a.jpg","86","","","","","","learn","SL",""
"","show_choice","98","203367","0.0-98.0","""event"",""trial"",""time""
""fullscreenenter"",""0"",""10105""
","
","
","""event"",""trial"",""time""
""fullscreenenter"",""0"",""10105""
","
","null","run_exp/static/images/Set 6_rs/057a.jpg","null","","","","","","learn","SL",""
"","html-keyboard-response","99","203882","0.0-99.0","""event"",""trial"",""time""
""fullscreenenter"",""0"",""10105""
","
","
","""event"",""trial"",""time""
""fullscreenenter"",""0"",""10105""
","
","null","<p></p>","null","","","","","","","",""
"","image","100","205234","0.0-100.0","""event"",""trial"",""time""
""fullscreenenter"",""0"",""10105""
","
","
","""event"",""trial"",""time""
""fullscreenenter"",""0"",""10105""
","
","1349.4000000059605","run_exp/static/images/Set 6_rs/129a.jpg","86","","","","","","learn","SL",""
"","show_choice","101","205890","0.0-101.0","""event"",""trial"",""time""
""fullscreenenter"",""0"",""10105""
","
","
","""event"",""trial"",""time""
""fullscreenenter"",""0"",""10105""
","
","null","run_exp/static/images/Set 6_rs/129a.jpg","null","","","","","","learn","SL",""
"","html-keyboard-response","102","206392","0.0-102.0","""event"",""trial"",""time""
""fullscreenenter"",""0"",""10105""
","
","
","""event"",""trial"",""time""
""fullscreenenter"",""0"",""10105""
","
","null","<p></p>","null","","","","","","","",""
"","image","103","207319","0.0-103.0","""event"",""trial"",""time""
""fullscreenenter"",""0"",""10105""
","
","
","""event"",""trial"",""time""
""fullscreenenter"",""0"",""10105""
","
","925.9000000059605","run_exp/static/images/Set 6_rs/088a.jpg","78","","","","","","learn","SR",""
"","show_choice","104","208396","0.0-104.0","""event"",""trial"",""time""
""fullscreenenter"",""0"",""10105""
","
","
","""event"",""trial"",""time""
""fullscreenenter"",""0"",""10105""
","
","null","run_exp/static/images/Set 6_rs/088a.jpg","null","","","","","","learn","SR",""
"","html-keyboard-response","105","208910","0.0-105.0","""event"",""trial"",""time""
""fullscreenenter"",""0"",""10105""
","
","
","""event"",""trial"",""time""
""fullscreenenter"",""0"",""10105""
","
","null","<p></p>","null","","","","","","","",""
"","image","106","210083","0.0-106.0","""event"",""trial"",""time""
""fullscreenenter"",""0"",""10105""
","
","
","""event"",""trial"",""time""
""fullscreenenter"",""0"",""10105""
","
","1171.4000000059605","run_exp/static/images/Set 6_rs/172a.jpg","78","","","","","","learn","SR",""
"","show_choice","107","210918","0.0-107.0","""event"",""trial"",""time""
""fullscreenenter"",""0"",""10105""
","
","
","""event"",""trial"",""time""
""fullscreenenter"",""0"",""10105""
","
","null","run_exp/static/images/Set 6_rs/172a.jpg","null","","","","","","learn","SR",""
"","html-keyboard-response","108","211421","0.0-108.0","""event"",""trial"",""time""
""fullscreenenter"",""0"",""10105""
","
","
","""event"",""trial"",""time""
""fullscreenenter"",""0"",""10105""
","
","null","<p></p>","null","","","","","","","",""
"","image","109","212991","0.0-109.0","""event"",""trial"",""time""
""fullscreenenter"",""0"",""10105""
","
","
","""event"",""trial"",""time""
""fullscreenenter"",""0"",""10105""
","
","1569.9000000059605","run_exp/static/images/Set 6_rs/016a.jpg","86","","","","","","learn","SL",""
"","show_choice","110","213437","0.0-110.0","""event"",""trial"",""time""
""fullscreenenter"",""0"",""10105""
","
","
","""event"",""trial"",""time""
""fullscreenenter"",""0"",""10105""
","
","null","run_exp/static/images/Set 6_rs/016a.jpg","null","","","","","","learn","SL",""
"","html-keyboard-response","111","213953","0.0-111.0","""event"",""trial"",""time""
""fullscreenenter"",""0"",""10105""
","
","
","""event"",""trial"",""time""
""fullscreenenter"",""0"",""10105""
","
","null","<p></p>","null","","","","","","","",""
"","image","112","215860","0.0-112.0","""event"",""trial"",""time""
""fullscreenenter"",""0"",""10105""
","
","
","""event"",""trial"",""time""
""fullscreenenter"",""0"",""10105""
","
","1906.800000011921","run_exp/static/images/Set 6_rs/050a.jpg","86","","","","","","learn","SL",""
"","show_choice","113","215966","0.0-113.0","""event"",""trial"",""time""
""fullscreenenter"",""0"",""10105""
","
","
","""event"",""trial"",""time""
""fullscreenenter"",""0"",""10105""
","
","null","run_exp/static/images/Set 6_rs/050a.jpg","null","","","","","","learn","SL",""
"","html-keyboard-response","114","216468","0.0-114.0","""event"",""trial"",""time""
""fullscreenenter"",""0"",""10105""
","
","
","""event"",""trial"",""time""
""fullscreenenter"",""0"",""10105""
","
","null","<p></p>","null","","","","","","","",""
"","image","115","217589","0.0-115.0","""event"",""trial"",""time""
""fullscreenenter"",""0"",""10105""
","
","
","""event"",""trial"",""time""
""fullscreenenter"",""0"",""10105""
","
","1120.300000011921","run_exp/static/images/Set 6_rs/019a.jpg","86","","","","","","learn","SL",""
"","show_choice","116","218482","0.0-116.0","""event"",""trial"",""time""
""fullscreenenter"",""0"",""10105""
","
","
","""event"",""trial"",""time""
""fullscreenenter"",""0"",""10105""
","
","null","run_exp/static/images/Set 6_rs/019a.jpg","null","","","","","","learn","SL",""
"","html-keyboard-response","117","218988","0.0-117.0","""event"",""trial"",""time""
""fullscreenenter"",""0"",""10105""
","
","
","""event"",""trial"",""time""
""fullscreenenter"",""0"",""10105""
","
","null","<p></p>","null","","","","","","","",""
"","image","118","219807","0.0-118.0","""event"",""trial"",""time""
""fullscreenenter"",""0"",""10105""
","
","
","""event"",""trial"",""time""
""fullscreenenter"",""0"",""10105""
","
","817.1999999880791","run_exp/static/images/Set 6_rs/007a.jpg","86","","","","","","learn","SR",""
"","show_choice","119","220997","0.0-119.0","""event"",""trial"",""time""
""fullscreenenter"",""0"",""10105""
","
","
","""event"",""trial"",""time""
""fullscreenenter"",""0"",""10105""
","
","null","run_exp/static/images/Set 6_rs/007a.jpg","null","","","","","","learn","SR",""
"","html-keyboard-response","120","221511","0.0-120.0","""event"",""trial"",""time""
""fullscreenenter"",""0"",""10105""
","
","
","""event"",""trial"",""time""
""fullscreenenter"",""0"",""10105""
","
","null","<p></p>","null","","","","","","","",""
"","image","121","222927","0.0-121.0","""event"",""trial"",""time""
""fullscreenenter"",""0"",""10105""
","
","
","""event"",""trial"",""time""
""fullscreenenter"",""0"",""10105""
","
","1415.5","run_exp/static/images/Set 6_rs/111a.jpg","86","","","","","","learn","SL",""
"","show_choice","122","223516","0.0-122.0","""event"",""trial"",""time""
""fullscreenenter"",""0"",""10105""
","
","
","""event"",""trial"",""time""
""fullscreenenter"",""0"",""10105""
","
","null","run_exp/static/images/Set 6_rs/111a.jpg","null","","","","","","learn","SL",""
"","html-keyboard-response","123","224020","0.0-123.0","""event"",""trial"",""time""
""fullscreenenter"",""0"",""10105""
","
","
","""event"",""trial"",""time""
""fullscreenenter"",""0"",""10105""
","
","null","<p></p>","null","","","","","","","",""
"","image","124","225771","0.0-124.0","""event"",""trial"",""time""
""fullscreenenter"",""0"",""10105""
","
","
","""event"",""trial"",""time""
""fullscreenenter"",""0"",""10105""
","
","1750.4000000059605","run_exp/static/images/Set 6_rs/071a.jpg","78","","","","","","learn","SL",""
"","show_choice","125","226025","0.0-125.0","""event"",""trial"",""time""
""fullscreenenter"",""0"",""10105""
","
","
","""event"",""trial"",""time""
""fullscreenenter"",""0"",""10105""
","
","null","run_exp/static/images/Set 6_rs/071a.jpg","null","","","","","","learn","SL",""
"","html-keyboard-response","126","226529","0.0-126.0","""event"",""trial"",""time""
""fullscreenenter"",""0"",""10105""
","
","
","""event"",""trial"",""time""
""fullscreenenter"",""0"",""10105""
","
","null","<p></p>","null","","","","","","","",""
"","image","127","227581","0.0-127.0","""event"",""trial"",""time""
""fullscreenenter"",""0"",""10105""
","
","
","""event"",""trial"",""time""
""fullscreenenter"",""0"",""10105""
","
","1051.300000011921","run_exp/static/images/Set 6_rs/079a.jpg","86","","","","","","learn","SL",""
"","show_choice","128","228537","0.0-128.0","""event"",""trial"",""time""
""fullscreenenter"",""0"",""10105""
","
","
","""event"",""trial"",""time""
""fullscreenenter"",""0"",""10105""
","
","null","run_exp/static/images/Set 6_rs/079a.jpg","null","","","","","","learn","SL",""
"","html-keyboard-response","129","229041","0.0-129.0","""event"",""trial"",""time""
""fullscreenenter"",""0"",""10105""
","
","
","""event"",""trial"",""time""
""fullscreenenter"",""0"",""10105""
","
","null","<p></p>","null","","","","","","","",""
"","image","130","230539","0.0-130.0","""event"",""trial"",""time""
""fullscreenenter"",""0"",""10105""
","
","
","""event"",""trial"",""time""
""fullscreenenter"",""0"",""10105""
","
","1497.9000000059605","run_exp/static/images/Set 6_rs/169a.jpg","86","","","","","","learn","SR",""
"","show_choice","131","231045","0.0-131.0","""event"",""trial"",""time""
""fullscreenenter"",""0"",""10105""
","
","
","""event"",""trial"",""time""
""fullscreenenter"",""0"",""10105""
","
","null","run_exp/static/images/Set 6_rs/169a.jpg","null","","","","","","learn","SR",""
"","html-keyboard-response","132","231560","0.0-132.0","""event"",""trial"",""time""
""fullscreenenter"",""0"",""10105""
","
","
","""event"",""trial"",""time""
""fullscreenenter"",""0"",""10105""
","
","null","<p></p>","null","","","","","","","",""
"","image","133","233562","0.0-133.0","""event"",""trial"",""time""
""fullscreenenter"",""0"",""10105""
","
","
","""event"",""trial"",""time""
""fullscreenenter"",""0"",""10105""
","
","null","run_exp/static/images/Set 6_rs/132a.jpg","null","","","","","","learn","SR",""
"","show_choice","134","235574","0.0-134.0","""event"",""trial"",""time""
""fullscreenenter"",""0"",""10105""
","
","
","""event"",""trial"",""time""
""fullscreenenter"",""0"",""10105""
","
","null","run_exp/static/images/blank.png","null","","","","","","learn","SR",""
"","html-keyboard-response","135","236079","0.0-135.0","""event"",""trial"",""time""
""fullscreenenter"",""0"",""10105""
","
","
","""event"",""trial"",""time""
""fullscreenenter"",""0"",""10105""
","
","null","<p></p>","null","","","","","","","",""
"","image","136","236987","0.0-136.0","""event"",""trial"",""time""
""fullscreenenter"",""0"",""10105""
","
","
","""event"",""trial"",""time""
""fullscreenenter"",""0"",""10105""
","
","906.7000000178814","run_exp/static/images/Set 6_rs/024a.jpg","86","","","","","","learn","SR",""
"","show_choice","137","238087","0.0-137.0","""event"",""trial"",""time""
""fullscreenenter"",""0"",""10105""
","
","
","""event"",""trial"",""time""
""fullscreenenter"",""0"",""10105""
","
","null","run_exp/static/images/Set 6_rs/024a.jpg","null","","","","","","learn","SR",""
"","html-keyboard-response","138","238603","0.0-138.0","""event"",""trial"",""time""
""fullscreenenter"",""0"",""10105""
","
","
","""event"",""trial"",""time""
""fullscreenenter"",""0"",""10105""
","
","null","<p></p>","null","","","","","","","",""
"","image","139","239901","0.0-139.0","""event"",""trial"",""time""
""fullscreenenter"",""0"",""10105""
","
","
","""event"",""trial"",""time""
""fullscreenenter"",""0"",""10105""
","
","1297.9000000059605","run_exp/static/images/Set 6_rs/014a.jpg","86","","","","","","learn","SL",""
"","show_choice","140","240612","0.0-140.0","""event"",""trial"",""time""
""fullscreenenter"",""0"",""10105""
","
","
","""event"",""trial"",""time""
""fullscreenenter"",""0"",""10105""
","
","null","run_exp/static/images/Set 6_rs/014a.jpg","null","","","","","","learn","SL",""
"","html-keyboard-response","141","241113","0.0-141.0","""event"",""trial"",""time""
""fullscreenenter"",""0"",""10105""
","
","
","""event"",""trial"",""time""
""fullscreenenter"",""0"",""10105""
","
","null","<p></p>","null","","","","","","","",""
"","image","142","242360","0.0-142.0","""event"",""trial"",""time""
""fullscreenenter"",""0"",""10105""
","
","
","""event"",""trial"",""time""
""fullscreenenter"",""0"",""10105""
","
","1245.3999999761581","run_exp/static/images/Set 6_rs/186a.jpg","86","","","","","","learn","SR",""
"","show_choice","143","243120","0.0-143.0","""event"",""trial"",""time""
""fullscreenenter"",""0"",""10105""
","
","
","""event"",""trial"",""time""
""fullscreenenter"",""0"",""10105""
","
","null","run_exp/static/images/Set 6_rs/186a.jpg","null","","","","","","learn","SR",""
"","html-keyboard-response","144","243624","0.0-144.0","""event"",""trial"",""time""
""fullscreenenter"",""0"",""10105""
","
","
","""event"",""trial"",""time""
""fullscreenenter"",""0"",""10105""
","
","null","<p></p>","null","","","","","","","",""
"","image","145","245468","0.0-145.0","""event"",""trial"",""time""
""fullscreenenter"",""0"",""10105""
","
","
","""event"",""trial"",""time""
""fullscreenenter"",""0"",""10105""
","
","1843.4000000059605","run_exp/static/images/Set 6_rs/006a.jpg","86","","","","","","learn","SL",""
"","show_choice","146","245629","0.0-146.0","""event"",""trial"",""time""
""fullscreenenter"",""0"",""10105""
","
","
","""event"",""trial"",""time""
""fullscreenenter"",""0"",""10105""
","
","null","run_exp/static/images/Set 6_rs/006a.jpg","null","","","","","","learn","SL",""
"","html-keyboard-response","147","246133","0.0-147.0","""event"",""trial"",""time""
""fullscreenenter"",""0"",""10105""
","
","
","""event"",""trial"",""time""
""fullscreenenter"",""0"",""10105""
","
","null","<p></p>","null","","","","","","","",""
"","image","148","247438","0.0-148.0","""event"",""trial"",""time""
""fullscreenenter"",""0"",""10105""
","
","
","""event"",""trial"",""time""
""fullscreenenter"",""0"",""10105""
","
","1303.5","run_exp/static/images/Set 6_rs/108a.jpg","78","","","","","","learn","SR",""
"","show_choice","149","248144","0.0-149.0","""event"",""trial"",""time""
""fullscreenenter"",""0"",""10105""
","
","
","""event"",""trial"",""time""
""fullscreenenter"",""0"",""10105""
","
","null","run_exp/static/images/Set 6_rs/108a.jpg","null","","","","","","learn","SR",""
"","html-keyboard-response","150","248648","0.0-150.0","""event"",""trial"",""time""
""fullscreenenter"",""0"",""10105""
","
","
","""event"",""trial"",""time""
""fullscreenenter"",""0"",""10105""
","
","null","<p></p>","null","","","","","","","",""
"","image","151","249746","0.0-151.0","""event"",""trial"",""time""
""fullscreenenter"",""0"",""10105""
","
","
","""event"",""trial"",""time""
""fullscreenenter"",""0"",""10105""
","
","1097.699999988079","run_exp/static/images/Set 6_rs/144a.jpg","86","","","","","","learn","SL",""
"","show_choice","152","250660","0.0-152.0","""event"",""trial"",""time""
""fullscreenenter"",""0"",""10105""
","
","
","""event"",""trial"",""time""
""fullscreenenter"",""0"",""10105""
","
","null","run_exp/static/images/Set 6_rs/144a.jpg","null","","","","","","learn","SL",""
"","html-keyboard-response","153","251176","0.0-153.0","""event"",""trial"",""time""
""fullscreenenter"",""0"",""10105""
","
","
","""event"",""trial"",""time""
""fullscreenenter"",""0"",""10105""
","
","null","<p></p>","null","","","","","","","",""
"","image","154","252126","0.0-154.0","""event"",""trial"",""time""
""fullscreenenter"",""0"",""10105""
","
","
","""event"",""trial"",""time""
""fullscreenenter"",""0"",""10105""
","
","948.5","run_exp/static/images/Set 6_rs/138a.jpg","78","","","","","","learn","SL",""
"","show_choice","155","253186","0.0-155.0","""event"",""trial"",""time""
""fullscreenenter"",""0"",""10105""
","
","
","""event"",""trial"",""time""
""fullscreenenter"",""0"",""10105""
","
","null","run_exp/static/images/Set 6_rs/138a.jpg","null","","","","","","learn","SL",""
"","html-keyboard-response","156","253700","0.0-156.0","""event"",""trial"",""time""
""fullscreenenter"",""0"",""10105""
","
","
","""event"",""trial"",""time""
""fullscreenenter"",""0"",""10105""
","
","null","<p></p>","null","","","","","","","",""
"","image","157","254477","0.0-157.0","""event"",""trial"",""time""
""fullscreenenter"",""0"",""10105""
","
","
","""event"",""trial"",""time""
""fullscreenenter"",""0"",""10105""
","
","775.6999999880791","run_exp/static/images/Set 6_rs/181a.jpg","78","","","","","","learn","SL",""
"","show_choice","158","255704","0.0-158.0","""event"",""trial"",""time""
""fullscreenenter"",""0"",""10105""
","
","
","""event"",""trial"",""time""
""fullscreenenter"",""0"",""10105""
","
","null","run_exp/static/images/Set 6_rs/181a.jpg","null","","","","","","learn","SL",""
"","html-keyboard-response","159","256220","0.0-159.0","""event"",""trial"",""time""
""fullscreenenter"",""0"",""10105""
","
","
","""event"",""trial"",""time""
""fullscreenenter"",""0"",""10105""
","
","null","<p></p>","null","","","","","","","",""
"","image","160","258169","0.0-160.0","""event"",""trial"",""time""
""fullscreenenter"",""0"",""10105""
","
","
","""event"",""trial"",""time""
""fullscreenenter"",""0"",""10105""
","
","1948.2999999821186","run_exp/static/images/Set 6_rs/089a.jpg","86","","","","","","learn","SL",""
"","show_choice","161","258226","0.0-161.0","""event"",""trial"",""time""
""fullscreenenter"",""0"",""10105""
","
","
","""event"",""trial"",""time""
""fullscreenenter"",""0"",""10105""
","
","null","run_exp/static/images/Set 6_rs/089a.jpg","null","","","","","","learn","SL",""
"","html-keyboard-response","162","258729","0.0-162.0","""event"",""trial"",""time""
""fullscreenenter"",""0"",""10105""
","
","
","""event"",""trial"",""time""
""fullscreenenter"",""0"",""10105""
","
","null","<p></p>","null","","","","","","","",""
"","image","163","260735","0.0-163.0","""event"",""trial"",""time""
""fullscreenenter"",""0"",""10105""
","
","
","""event"",""trial"",""time""
""fullscreenenter"",""0"",""10105""
","
","null","run_exp/static/images/Set 6_rs/012a.jpg","null","","","","","","learn","SR",""
"","show_choice","164","262742","0.0-164.0","""event"",""trial"",""time""
""fullscreenenter"",""0"",""10105""
","
","
","""event"",""trial"",""time""
""fullscreenenter"",""0"",""10105""
","
","null","run_exp/static/images/blank.png","null","","","","","","learn","SR",""
"","html-keyboard-response","165","263247","0.0-165.0","""event"",""trial"",""time""
""fullscreenenter"",""0"",""10105""
","
","
","""event"",""trial"",""time""
""fullscreenenter"",""0"",""10105""
","
","null","<p></p>","null","","","","","","","",""
"","image","166","264642","0.0-166.0","""event"",""trial"",""time""
""fullscreenenter"",""0"",""10105""
","
","
","""event"",""trial"",""time""
""fullscreenenter"",""0"",""10105""
","
","1393.699999988079","run_exp/static/images/Set 6_rs/045a.jpg","86","","","","","","learn","SR",""
"","show_choice","167","265260","0.0-167.0","""event"",""trial"",""time""
""fullscreenenter"",""0"",""10105""
","
","
","""event"",""trial"",""time""
""fullscreenenter"",""0"",""10105""
","
","null","run_exp/static/images/Set 6_rs/045a.jpg","null","","","","","","learn","SR",""
"","html-keyboard-response","168","265763","0.0-168.0","""event"",""trial"",""time""
""fullscreenenter"",""0"",""10105""
","
","
","""event"",""trial"",""time""
""fullscreenenter"",""0"",""10105""
","
","null","<p></p>","null","","","","","","","",""
"","image","169","266650","0.0-169.0","""event"",""trial"",""time""
""fullscreenenter"",""0"",""10105""
","
","
","""event"",""trial"",""time""
""fullscreenenter"",""0"",""10105""
","
","887","run_exp/static/images/Set 6_rs/025a.jpg","78","","","","","","learn","SL",""
"","show_choice","170","267774","0.0-170.0","""event"",""trial"",""time""
""fullscreenenter"",""0"",""10105""
","
","
","""event"",""trial"",""time""
""fullscreenenter"",""0"",""10105""
","
","null","run_exp/static/images/Set 6_rs/025a.jpg","null","","","","","","learn","SL",""
"","html-keyboard-response","171","268289","0.0-171.0","""event"",""trial"",""time""
""fullscreenenter"",""0"",""10105""
","
","
","""event"",""trial"",""time""
""fullscreenenter"",""0"",""10105""
","
","null","<p></p>","null","","","","","","","",""
"","image","172","270279","0.0-172.0","""event"",""trial"",""time""
""fullscreenenter"",""0"",""10105""
","
","
","""event"",""trial"",""time""
""fullscreenenter"",""0"",""10105""
","
","1987.9000000059605","run_exp/static/images/Set 6_rs/121a.jpg","86","","","","","","learn","SR",""
"","show_choice","173","270294","0.0-173.0","""event"",""trial"",""time""
""fullscreenenter"",""0"",""10105""
","
","
","""event"",""trial"",""time""
""fullscreenenter"",""0"",""10105""
","
","null","run_exp/static/images/Set 6_rs/121a.jpg","null","","","","","","learn","SR",""
"","html-keyboard-response","174","270799","0.0-174.0","""event"",""trial"",""time""
""fullscreenenter"",""0"",""10105""
","
","
","""event"",""trial"",""time""
""fullscreenenter"",""0"",""10105""
","
","null","<p></p>","null","","","","","","","",""
"","image","175","272808","0.0-175.0","""event"",""trial"",""time""
""fullscreenenter"",""0"",""10105""
","
","
","""event"",""trial"",""time""
""fullscreenenter"",""0"",""10105""
","
","null","run_exp/static/images/Set 6_rs/117a.jpg","null","","","","","","learn","SL",""
"","show_choice","176","274811","0.0-176.0","""event"",""trial"",""time""
""fullscreenenter"",""0"",""10105""
","
","
","""event"",""trial"",""time""
""fullscreenenter"",""0"",""10105""
","
","null","run_exp/static/images/blank.png","null","","","","","","learn","SL",""
"","html-keyboard-response","177","275325","0.0-177.0","""event"",""trial"",""time""
""fullscreenenter"",""0"",""10105""
","
","
","""event"",""trial"",""time""
""fullscreenenter"",""0"",""10105""
","
","null","<p></p>","null","","","","","","","",""
"","image","178","277162","0.0-178.0","""event"",""trial"",""time""
""fullscreenenter"",""0"",""10105""
","
","
","""event"",""trial"",""time""
""fullscreenenter"",""0"",""10105""
","
","1835.7999999821186","run_exp/static/images/Set 6_rs/141a.jpg","78","","","","","","learn","SR",""
"","show_choice","179","277327","0.0-179.0","""event"",""trial"",""time""
""fullscreenenter"",""0"",""10105""
","
","
","""event"",""trial"",""time""
""fullscreenenter"",""0"",""10105""
","
","null","run_exp/static/images/Set 6_rs/141a.jpg","null","","","","","","learn","SR",""
"","html-keyboard-response","180","277843","0.0-180.0","""event"",""trial"",""time""
""fullscreenenter"",""0"",""10105""
","
","
","""event"",""trial"",""time""
""fullscreenenter"",""0"",""10105""
","
","null","<p></p>","null","","","","","","","",""
"","image","181","279850","0.0-181.0","""event"",""trial"",""time""
""fullscreenenter"",""0"",""10105""
","
","
","""event"",""trial"",""time""
""fullscreenenter"",""0"",""10105""
","
","null","run_exp/static/images/Set 6_rs/091a.jpg","null","","","","","","learn","SL",""
"","show_choice","182","281861","0.0-182.0","""event"",""trial"",""time""
""fullscreenenter"",""0"",""10105""
","
","
","""event"",""trial"",""time""
""fullscreenenter"",""0"",""10105""
","
","null","run_exp/static/images/blank.png","null","","","","","","learn","SL",""
"","html-keyboard-response","183","282366","0.0-183.0","""event"",""trial"",""time""
""fullscreenenter"",""0"",""10105""
","
","
","""event"",""trial"",""time""
""fullscreenenter"",""0"",""10105""
","
","null","<p></p>","null","","","","","","","",""
"","image","184","284377","0.0-184.0","""event"",""trial"",""time""
""fullscreenenter"",""0"",""10105""
","
","
","""event"",""trial"",""time""
""fullscreenenter"",""0"",""10105""
","
","null","run_exp/static/images/Set 6_rs/126a.jpg","null","","","","","","learn","SR",""
"","show_choice","185","286385","0.0-185.0","""event"",""trial"",""time""
""fullscreenenter"",""0"",""10105""
","
","
","""event"",""trial"",""time""
""fullscreenenter"",""0"",""10105""
","
","null","run_exp/static/images/blank.png","null","","","","","","learn","SR",""
"","html-keyboard-response","186","286886","0.0-186.0","""event"",""trial"",""time""
""fullscreenenter"",""0"",""10105""
","
","
","""event"",""trial"",""time""
""fullscreenenter"",""0"",""10105""
","
","null","<p></p>","null","","","","","","","",""
"","image","187","288042","0.0-187.0","""event"",""trial"",""time""
""fullscreenenter"",""0"",""10105""
","
","
","""event"",""trial"",""time""
""fullscreenenter"",""0"",""10105""
","
","1154.5999999940395","run_exp/static/images/Set 6_rs/085a.jpg","86","","","","","","learn","SL",""
"","show_choice","188","288892","0.0-188.0","""event"",""trial"",""time""
""fullscreenenter"",""0"",""10105""
","
","
","""event"",""trial"",""time""
""fullscreenenter"",""0"",""10105""
","
","null","run_exp/static/images/Set 6_rs/085a.jpg","null","","","","","","learn","SL",""
"","html-keyboard-response","189","289394","0.0-189.0","""event"",""trial"",""time""
""fullscreenenter"",""0"",""10105""
","
","
","""event"",""trial"",""time""
""fullscreenenter"",""0"",""10105""
","
","null","<p></p>","null","","","","","","","",""
"","image","190","290407","0.0-190.0","""event"",""trial"",""time""
""fullscreenenter"",""0"",""10105""
","
","
","""event"",""trial"",""time""
""fullscreenenter"",""0"",""10105""
","
","1012.7999999821186","run_exp/static/images/Set 6_rs/191a.jpg","78","","","","","","learn","SL",""
"","show_choice","191","291409","0.0-191.0","""event"",""trial"",""time""
""fullscreenenter"",""0"",""10105""
","
","
","""event"",""trial"",""time""
""fullscreenenter"",""0"",""10105""
","
","null","run_exp/static/images/Set 6_rs/191a.jpg","null","","","","","","learn","SL",""
"","html-keyboard-response","192","291914","0.0-192.0","""event"",""trial"",""time""
""fullscreenenter"",""0"",""10105""
","
","
","""event"",""trial"",""time""
""fullscreenenter"",""0"",""10105""
","
","null","<p></p>","null","","","","","","","",""
"","image","193","292890","0.0-193.0","""event"",""trial"",""time""
""fullscreenenter"",""0"",""10105""
","
","
","""event"",""trial"",""time""
""fullscreenenter"",""0"",""10105""
","
","974.8000000119209","run_exp/static/images/Set 6_rs/073a.jpg","86","","","","","","learn","SL",""
"","show_choice","194","293918","0.0-194.0","""event"",""trial"",""time""
""fullscreenenter"",""0"",""10105""
","
","
","""event"",""trial"",""time""
""fullscreenenter"",""0"",""10105""
","
","null","run_exp/static/images/Set 6_rs/073a.jpg","null","","","","","","learn","SL",""
"","html-keyboard-response","195","294425","0.0-195.0","""event"",""trial"",""time""
""fullscreenenter"",""0"",""10105""
","
","
","""event"",""trial"",""time""
""fullscreenenter"",""0"",""10105""
","
","null","<p></p>","null","","","","","","","",""
"","test_intro","196","331305","0.0-196.0","""event"",""trial"",""time""
""fullscreenenter"",""0"",""10105""
","
","
","""event"",""trial"",""time""
""fullscreenenter"",""0"",""10105""
","
","null","run_exp/static/audio/clip_2_memory.m4a","null","","","","","<div class='center'><p>Now, lets see how much you remember about the items you just saw.  For each item, you need to indicate if it was <b>old</b> by pressing the <b>v</b> key, <b>similar</b> by pressing the <b>b</b> key, or <b>new</b> by pressing the <b>n</b> key.</p><p>Old refers to an item that you saw before in the indoor/outdoor game that you just played, new refers to an item you have <b>not</b> seen before within the indoor/outdoor game, and similar refers to an item that is similar to an item youve seen before but is not exactly the same. </p><p>Before we begin, lets go over some brief demonstrations to make sure you understand.</p></div>","","",""
"","html-keyboard-response","197","339715","0.0-197.0","""event"",""trial"",""time""
""fullscreenenter"",""0"",""10105""
","
","
","""event"",""trial"",""time""
""fullscreenenter"",""0"",""10105""
","
","8408.100000023842","<div class='center'><p>Now, lets see how much you remember about the items you just saw.  For each item, you need to indicate if it was <b>old</b> by pressing the <b>v</b> key, <b>similar</b> by pressing the <b>b</b> key, or <b>new</b> by pressing the <b>n</b> key.</p><p>Old refers to an item that you saw before in the indoor/outdoor game that you just played, new refers to an item you have <b>not</b> seen before within the indoor/outdoor game, and similar refers to an item that is similar to an item youve seen before but is not exactly the same. </p><p>Before we begin, lets go over some brief demonstrations to make sure you understand.</p><div><p><b>[Press the space bar to continue]</b></p></div>","32","","","","","","","",""
"","items","198","347222","0.0-198.0","""event"",""trial"",""time""
""fullscreenenter"",""0"",""10105""
","
","
","""event"",""trial"",""time""
""fullscreenenter"",""0"",""10105""
","
","null","run_exp/static/audio/clip_3_items.m4a","null","","","","","","","",""
"","mop","199","351738","0.0-199.0","""event"",""trial"",""time""
""fullscreenenter"",""0"",""10105""
","
","
","""event"",""trial"",""time""
""fullscreenenter"",""0"",""10105""
","
","null","run_exp/static/audio/clip_4_mop.m4a","null","","","","","","","",""
"","baseball","200","355248","0.0-200.0","""event"",""trial"",""time""
""fullscreenenter"",""0"",""10105""
","
","
","""event"",""trial"",""time""
""fullscreenenter"",""0"",""10105""
","
","null","run_exp/static/audio/clip_5_baseball.m4a","null","","","","","","","",""
"","trumpet","201","358755","0.0-201.0","""event"",""trial"",""time""
""fullscreenenter"",""0"",""10105""
","
","
","""event"",""trial"",""time""
""fullscreenenter"",""0"",""10105""
","
","null","run_exp/static/audio/clip_6_trumpet.m4a","null","","","","","","","",""
"","gummies","202","362265","0.0-202.0","""event"",""trial"",""time""
""fullscreenenter"",""0"",""10105""
","
","
","""event"",""trial"",""time""
""fullscreenenter"",""0"",""10105""
","
","null","run_exp/static/audio/clip_7_gummies.m4a","null","","","","","","","",""
"","osn","203","366770","0.0-203.0","""event"",""trial"",""time""
""fullscreenenter"",""0"",""10105""
","
","
","""event"",""trial"",""time""
""fullscreenenter"",""0"",""10105""
","
","null","run_exp/static/audio/clip_8_osn.m4a","null","","","","","","","",""
"","old_1","204","373284","0.0-204.0","""event"",""trial"",""time""
""fullscreenenter"",""0"",""10105""
","
","
","""event"",""trial"",""time""
""fullscreenenter"",""0"",""10105""
","
","null","run_exp/static/audio/clip_9_old_trumpet.m4a","null","","","","","","","",""
"","new_1","205","380795","0.0-205.0","""event"",""trial"",""time""
""fullscreenenter"",""0"",""10105""
","
","
","""event"",""trial"",""time""
""fullscreenenter"",""0"",""10105""
","
","null","run_exp/static/audio/clip_10_new_balloon.m4a","null","","","","","","","",""
"","similar_1a","206","385310","0.0-206.0","""event"",""trial"",""time""
""fullscreenenter"",""0"",""10105""
","
","
","""event"",""trial"",""time""
""fullscreenenter"",""0"",""10105""
","
","null","run_exp/static/audio/clip_11a_similar_mop.m4a","null","","","","","","","",""
"","similar_1b","207","391817","0.0-207.0","""event"",""trial"",""time""
""fullscreenenter"",""0"",""10105""
","
","
","""event"",""trial"",""time""
""fullscreenenter"",""0"",""10105""
","
","null","run_exp/static/audio/clip_11b_similar_mop.m4a","null","","","","","","","",""
"","new_2","208","395327","0.0-208.0","""event"",""trial"",""time""
""fullscreenenter"",""0"",""10105""
","
","
","""event"",""trial"",""time""
""fullscreenenter"",""0"",""10105""
","
","null","run_exp/static/audio/clip_12_new_stoplight.m4a","null","","","","","","","",""
"","old_2","209","398840","0.0-209.0","""event"",""trial"",""time""
""fullscreenenter"",""0"",""10105""
","
","
","""event"",""trial"",""time""
""fullscreenenter"",""0"",""10105""
","
","null","run_exp/static/audio/clip_13_old_baseball.m4a","null","","","","","","","",""
"","similar_2a","210","402357","0.0-210.0","""event"",""trial"",""time""
""fullscreenenter"",""0"",""10105""
","
","
","""event"",""trial"",""time""
""fullscreenenter"",""0"",""10105""
","
","null","run_exp/static/audio/clip_14a_similar_gummies.m4a","null","","","","","","","",""
"","similar_2b","211","409871","0.0-211.0","""event"",""trial"",""time""
""fullscreenenter"",""0"",""10105""
","
","
","""event"",""trial"",""time""
""fullscreenenter"",""0"",""10105""
","
","null","run_exp/static/audio/clip_14b_similar_gummies.m4a","null","","","","","","","",""
"","practice","212","451985","0.0-212.0","""event"",""trial"",""time""
""fullscreenenter"",""0"",""10105""
","
","
","""event"",""trial"",""time""
""fullscreenenter"",""0"",""10105""
","
","null","run_exp/static/audio/clip_15_practice.m4a","null","","","","","<div class='center'><p>Lets practice a little to make sure you understand the difference between new, similar, and old. Lets say you saw these three items in the indoor/outdoor game.</p><p> Try your best to remember these images because youll soon be tested on them in a practice game. In the practice game, youll be shown images and youll have to say if they are old (one of the three images belows), similar (similar to one of the images below but not exactly the same), or new (are not one of the images below nor similar to them).</p><p>Once you press the space bar youll be shown these images again but one at time. Then youll begin the practice game.</p><p><img src='run_exp/static/images/tutorial/test/three_indoor_outdoor.png' height='300'></p></div>","","",""
"","html-keyboard-response","213","452519","0.0-213.0","""event"",""trial"",""time""
""fullscreenenter"",""0"",""10105""
","
","
","""event"",""trial"",""time""
""fullscreenenter"",""0"",""10105""
","
","532.8999999761581","<div class='center'><p>Lets practice a little to make sure you understand the difference between new, similar, and old. Lets say you saw these three items in the indoor/outdoor game.</p><p> Try your best to remember these images because youll soon be tested on them in a practice game. In the practice game, youll be shown images and youll have to say if they are old (one of the three images belows), similar (similar to one of the images below but not exactly the same), or new (are not one of the images below nor similar to them).</p><p>Once you press the space bar youll be shown these images again but one at time. Then youll begin the practice game.</p><p><img src='run_exp/static/images/tutorial/test/three_indoor_outdoor.png' height='300'></p><div><p><b>[Press the space bar to continue]</b></p></div>","32","","","","","","","",""
"","planet","214","454525","0.0-214.0","""event"",""trial"",""time""
""fullscreenenter"",""0"",""10105""
","
","
","""event"",""trial"",""time""
""fullscreenenter"",""0"",""10105""
","
","null","run_exp/static/images/tutorial/test/008a.jpg","null","","","","","","","",""
"","boot","215","456538","0.0-215.0","""event"",""trial"",""time""
""fullscreenenter"",""0"",""10105""
","
","
","""event"",""trial"",""time""
""fullscreenenter"",""0"",""10105""
","
","null","run_exp/static/images/tutorial/test/011a.jpg","null","","","","","","","",""
"","lemon","216","458554","0.0-216.0","""event"",""trial"",""time""
""fullscreenenter"",""0"",""10105""
","
","
","""event"",""trial"",""time""
""fullscreenenter"",""0"",""10105""
","
","null","run_exp/static/images/tutorial/test/018a.jpg","null","","","","","","","",""
"","practice_q1","217","463281","0.0-217.0","""event"",""trial"",""time""
""fullscreenenter"",""0"",""10105""
","
","
","""event"",""trial"",""time""
""fullscreenenter"",""0"",""10105""
","
","4725.299999982119","run_exp/static/audio/clip_16_practice_question.m4a","78","","","","","","","",""
"","correct","218","465205","0.0-218.0-0.0","""event"",""trial"",""time""
""fullscreenenter"",""0"",""10105""
","
","
","""event"",""trial"",""time""
""fullscreenenter"",""0"",""10105""
","
","null","run_exp/static/audio/clip_17_correct.m4a","null","","","","","<div class='center'><p>That's correct!</p></div>","","",""
"","html-keyboard-response","219","468219","0.0-218.0-1.0","""event"",""trial"",""time""
""fullscreenenter"",""0"",""10105""
","
","
","""event"",""trial"",""time""
""fullscreenenter"",""0"",""10105""
","
","3011","<div class='center'><p>That's correct!</p><div><p><b>[Press the space bar to continue]</b></p></div>","32","","","","","","","",""
"","practice_q2","220","473191","0.0-218.0-2.0","""event"",""trial"",""time""
""fullscreenenter"",""0"",""10105""
","
","
","""event"",""trial"",""time""
""fullscreenenter"",""0"",""10105""
","
","4972.4000000059605","run_exp/static/audio/clip_16_practice_question.m4a","78","","","","","","","",""
"","incorrect_q2","221","476244","0.0-219.0-0.0","""event"",""trial"",""time""
""fullscreenenter"",""0"",""10105""
","
","
","""event"",""trial"",""time""
""fullscreenenter"",""0"",""10105""
","
","null","run_exp/static/audio/clip_19_incorrect_old.m4a","null","","","","","<div class='center'><p>Thats incorrect. Its old.</p></div>","","",""
"","html-keyboard-response","222","477545","0.0-219.0-1.0","""event"",""trial"",""time""
""fullscreenenter"",""0"",""10105""
","
","
","""event"",""trial"",""time""
""fullscreenenter"",""0"",""10105""
","
","1300.2000000178814","<div class='center'><p>Thats incorrect. Its old.</p><div><p><b>[Press the space bar to continue]</b></p></div>","32","","","","","","","",""
"","practice_q3","223","481888","0.0-219.0-2.0","""event"",""trial"",""time""
""fullscreenenter"",""0"",""10105""
","
","
","""event"",""trial"",""time""
""fullscreenenter"",""0"",""10105""
","
","4341.899999976158","run_exp/static/audio/clip_16_practice_question.m4a","86","","","","","","","",""
"","incorrect_q3","224","484624","0.0-220.0-0.0","""event"",""trial"",""time""
""fullscreenenter"",""0"",""10105""
","
","
","""event"",""trial"",""time""
""fullscreenenter"",""0"",""10105""
","
","null","run_exp/static/audio/clip_20_incorrect_similar.m4a","null","","","","","<div class='center'><p>Thats incorrect. Its similar.</p><p><img src='run_exp/static/images/tutorial/test/boot_comparison.png' height='300'></p></div>","","",""
"","html-keyboard-response","225","485601","0.0-220.0-1.0","""event"",""trial"",""time""
""fullscreenenter"",""0"",""10105""
","
","
","""event"",""trial"",""time""
""fullscreenenter"",""0"",""10105""
","
","975.4000000059605","<div class='center'><p>Thats incorrect. Its similar.</p><p><img src='run_exp/static/images/tutorial/test/boot_comparison.png' height='300'></p><div><p><b>[Press the space bar to continue]</b></p></div>","32","","","","","","","",""
"","repeat","226","490344","0.0-221.0-0.0","""event"",""trial"",""time""
""fullscreenenter"",""0"",""10105""
","
","
","""event"",""trial"",""time""
""fullscreenenter"",""0"",""10105""
","
","null","run_exp/static/audio/clip_21_practice_again.m4a","null","","","","","<div class='center'><p>Oops. you missed at least one of these questions. Let's try practicing again. </p></div>","","",""
"","html-keyboard-response","227","492685","0.0-221.0-1.0","""event"",""trial"",""time""
""fullscreenenter"",""0"",""10105""
","
","
","""event"",""trial"",""time""
""fullscreenenter"",""0"",""10105""
","
","2340","<div class='center'><p>Oops. you missed at least one of these questions. Let's try practicing again. </p><div><p><b>[Press the space bar to continue]</b></p></div>","32","","","","","","","",""
"","practice_q1","228","497897","0.0-221.0-2.0","""event"",""trial"",""time""
""fullscreenenter"",""0"",""10105""
","
","
","""event"",""trial"",""time""
""fullscreenenter"",""0"",""10105""
","
","5208.5999999940395","run_exp/static/audio/clip_16_practice_question.m4a","78","","","","","","","",""
"","correct","229","499805","0.0-222.0-0.0","""event"",""trial"",""time""
""fullscreenenter"",""0"",""10105""
","
","
","""event"",""trial"",""time""
""fullscreenenter"",""0"",""10105""
","
","null","run_exp/static/audio/clip_17_correct.m4a","null","","","","","<div class='center'><p>That's correct!</p></div>","","",""
"","html-keyboard-response","230","500782","0.0-222.0-1.0","""event"",""trial"",""time""
""fullscreenenter"",""0"",""10105""
","
","
","""event"",""trial"",""time""
""fullscreenenter"",""0"",""10105""
","
","976.0999999940395","<div class='center'><p>That's correct!</p><div><p><b>[Press the space bar to continue]</b></p></div>","32","","","","","","","",""
"","practice_q2","231","504205","0.0-222.0-2.0","""event"",""trial"",""time""
""fullscreenenter"",""0"",""10105""
","
","
","""event"",""trial"",""time""
""fullscreenenter"",""0"",""10105""
","
","3422.199999988079","run_exp/static/audio/clip_16_practice_question.m4a","86","","","","","","","",""
"","correct","232","506104","0.0-223.0-0.0","""event"",""trial"",""time""
""fullscreenenter"",""0"",""10105""
","
","
","""event"",""trial"",""time""
""fullscreenenter"",""0"",""10105""
","
","null","run_exp/static/audio/clip_17_correct.m4a","null","","","","","<div class='center'><p>That's correct!</p></div>","","",""
"","html-keyboard-response","233","507583","0.0-223.0-1.0","""event"",""trial"",""time""
""fullscreenenter"",""0"",""10105""
","
","
","""event"",""trial"",""time""
""fullscreenenter"",""0"",""10105""
","
","1478","<div class='center'><p>That's correct!</p><div><p><b>[Press the space bar to continue]</b></p></div>","32","","","","","","","",""
"","practice_q3","234","510029","0.0-223.0-2.0","""event"",""trial"",""time""
""fullscreenenter"",""0"",""10105""
","
","
","""event"",""trial"",""time""
""fullscreenenter"",""0"",""10105""
","
","2444","run_exp/static/audio/clip_16_practice_question.m4a","66","","","","","","","",""
"","correct","235","512105","0.0-224.0-0.0","""event"",""trial"",""time""
""fullscreenenter"",""0"",""10105""
","
","
","""event"",""trial"",""time""
""fullscreenenter"",""0"",""10105""
","
","null","run_exp/static/audio/clip_17_correct.m4a","null","","","","","<div class='center'><p>That's correct!</p></div>","","",""
"","html-keyboard-response","236","512928","0.0-224.0-1.0","""event"",""trial"",""time""
""fullscreenenter"",""0"",""10105""
","
","
","""event"",""trial"",""time""
""fullscreenenter"",""0"",""10105""
","
","822.2999999821186","<div class='center'><p>That's correct!</p><div><p><b>[Press the space bar to continue]</b></p></div>","32","","","","","","","",""
"","begin_text","237","531425","0.0-225.0-0.0","""event"",""trial"",""time""
""fullscreenenter"",""0"",""10105""
","
","
","""event"",""trial"",""time""
""fullscreenenter"",""0"",""10105""
","
","null","run_exp/static/audio/clip_22_begin_test.m4a","null","","","","","<div class='center'><p>On to the real game where well test your memory of items from the indoor/outdoor game. For each item, you need to indicate if the item is <b>old</b> by pressing the <b>v</b> key, <b>similar</b> by pressing the <b>b</b> key, or <b>new</b> by pressing the <b>n</b> key. </p></div>","","",""
"","html-keyboard-response","238","532844","0.0-225.0-1.0","""event"",""trial"",""time""
""fullscreenenter"",""0"",""10105""
","
","
","""event"",""trial"",""time""
""fullscreenenter"",""0"",""10105""
","
","1418.2999999821186","<div class='center'><p>On to the real game where well test your memory of items from the indoor/outdoor game. For each item, you need to indicate if the item is <b>old</b> by pressing the <b>v</b> key, <b>similar</b> by pressing the <b>b</b> key, or <b>new</b> by pressing the <b>n</b> key. </p><div><p><b>[Press the space bar to continue]</b></p></div>","32","","","","","","","",""
"","image","239","534144","0.0-226.0-0.0","""event"",""trial"",""time""
""fullscreenenter"",""0"",""10105""
","
","
","""event"",""trial"",""time""
""fullscreenenter"",""0"",""10105""
","
","1298","run_exp/static/images/Set 6_rs/100a.jpg","78","","","","","","test","TF","2"
"","show_choice","240","534648","0.0-226.0-1.0","""event"",""trial"",""time""
""fullscreenenter"",""0"",""10105""
","
","
","""event"",""trial"",""time""
""fullscreenenter"",""0"",""10105""
","
","null","run_exp/static/images/Set 6_rs/100a.jpg","null","","","","","","test","TF",""
"","html-keyboard-response","241","535152","0.0-226.0-2.0","""event"",""trial"",""time""
""fullscreenenter"",""0"",""10105""
","
","
","""event"",""trial"",""time""
""fullscreenenter"",""0"",""10105""
","
","null","<p></p>","null","","","","","","","",""
"","image","242","536671","0.0-227.0-0.0","""event"",""trial"",""time""
""fullscreenenter"",""0"",""10105""
","
","
","""event"",""trial"",""time""
""fullscreenenter"",""0"",""10105""
","
","1516.4000000059605","run_exp/static/images/Set 6_rs/008b.jpg","78","","","","","","test","TL","2"
"","show_choice","243","537178","0.0-227.0-1.0","""event"",""trial"",""time""
""fullscreenenter"",""0"",""10105""
","
","
","""event"",""trial"",""time""
""fullscreenenter"",""0"",""10105""
","
","null","run_exp/static/images/Set 6_rs/008b.jpg","null","","","","","","test","TL",""
"","html-keyboard-response","244","537690","0.0-227.0-2.0","""event"",""trial"",""time""
""fullscreenenter"",""0"",""10105""
","
","
","""event"",""trial"",""time""
""fullscreenenter"",""0"",""10105""
","
","null","<p></p>","null","","","","","","","",""
"","image","245","539166","0.0-228.0-0.0","""event"",""trial"",""time""
""fullscreenenter"",""0"",""10105""
","
","
","""event"",""trial"",""time""
""fullscreenenter"",""0"",""10105""
","
","1475.4000000059605","run_exp/static/images/Set 6_rs/061a.jpg","78","","","","","","test","TR","5"
"","show_choice","246","539674","0.0-228.0-1.0","""event"",""trial"",""time""
""fullscreenenter"",""0"",""10105""
","
","
","""event"",""trial"",""time""
""fullscreenenter"",""0"",""10105""
","
","null","run_exp/static/images/Set 6_rs/061a.jpg","null","","","","","","test","TR",""
"","html-keyboard-response","247","540186","0.0-228.0-2.0","""event"",""trial"",""time""
""fullscreenenter"",""0"",""10105""
","
","
","""event"",""trial"",""time""
""fullscreenenter"",""0"",""10105""
","
","null","<p></p>","null","","","","","","","",""
"","image","248","541878","0.0-229.0-0.0","""event"",""trial"",""time""
""fullscreenenter"",""0"",""10105""
","
","
","""event"",""trial"",""time""
""fullscreenenter"",""0"",""10105""
","
","1690.8999999761581","run_exp/static/images/Set 6_rs/190a.jpg","78","","","","","","test","TF","3"
"","show_choice","249","542384","0.0-229.0-1.0","""event"",""trial"",""time""
""fullscreenenter"",""0"",""10105""
","
","
","""event"",""trial"",""time""
""fullscreenenter"",""0"",""10105""
","
","null","run_exp/static/images/Set 6_rs/190a.jpg","null","","","","","","test","TF",""
"","html-keyboard-response","250","542899","0.0-229.0-2.0","""event"",""trial"",""time""
""fullscreenenter"",""0"",""10105""
","
","
","""event"",""trial"",""time""
""fullscreenenter"",""0"",""10105""
","
","null","<p></p>","null","","","","","","","",""
"","image","251","544826","0.0-230.0-0.0","""event"",""trial"",""time""
""fullscreenenter"",""0"",""10105""
","
","
","""event"",""trial"",""time""
""fullscreenenter"",""0"",""10105""
","
","1925.9000000059605","run_exp/static/images/Set 6_rs/063a.jpg","86","","","","","","test","TR","2"
"","show_choice","252","545329","0.0-230.0-1.0","""event"",""trial"",""time""
""fullscreenenter"",""0"",""10105""
","
","
","""event"",""trial"",""time""
""fullscreenenter"",""0"",""10105""
","
","null","run_exp/static/images/Set 6_rs/063a.jpg","null","","","","","","test","TR",""
"","html-keyboard-response","253","545839","0.0-230.0-2.0","""event"",""trial"",""time""
""fullscreenenter"",""0"",""10105""
","
","
","""event"",""trial"",""time""
""fullscreenenter"",""0"",""10105""
","
","null","<p></p>","null","","","","","","","",""
"","image","254","547220","0.0-231.0-0.0","""event"",""trial"",""time""
""fullscreenenter"",""0"",""10105""
","
","
","""event"",""trial"",""time""
""fullscreenenter"",""0"",""10105""
","
","1379.9000000059605","run_exp/static/images/Set 6_rs/062b.jpg","86","","","","","","test","TL","1"
"","show_choice","255","547727","0.0-231.0-1.0","""event"",""trial"",""time""
""fullscreenenter"",""0"",""10105""
","
","
","""event"",""trial"",""time""
""fullscreenenter"",""0"",""10105""
","
","null","run_exp/static/images/Set 6_rs/062b.jpg","null","","","","","","test","TL",""
"","html-keyboard-response","256","548237","0.0-231.0-2.0","""event"",""trial"",""time""
""fullscreenenter"",""0"",""10105""
","
","
","""event"",""trial"",""time""
""fullscreenenter"",""0"",""10105""
","
","null","<p></p>","null","","","","","","","",""
"","image","257","549130","0.0-232.0-0.0","""event"",""trial"",""time""
""fullscreenenter"",""0"",""10105""
","
","
","""event"",""trial"",""time""
""fullscreenenter"",""0"",""10105""
","
","891.5","run_exp/static/images/Set 6_rs/024a.jpg","86","","","","","","test","TR","5"
"","show_choice","258","549634","0.0-232.0-1.0","""event"",""trial"",""time""
""fullscreenenter"",""0"",""10105""
","
","
","""event"",""trial"",""time""
""fullscreenenter"",""0"",""10105""
","
","null","run_exp/static/images/Set 6_rs/024a.jpg","null","","","","","","test","TR",""
"","html-keyboard-response","259","550149","0.0-232.0-2.0","""event"",""trial"",""time""
""fullscreenenter"",""0"",""10105""
","
","
","""event"",""trial"",""time""
""fullscreenenter"",""0"",""10105""
","
","null","<p></p>","null","","","","","","","",""
"","image","260","552108","0.0-233.0-0.0","""event"",""trial"",""time""
""fullscreenenter"",""0"",""10105""
","
","
","""event"",""trial"",""time""
""fullscreenenter"",""0"",""10105""
","
","1956.2000000178814","run_exp/static/images/Set 6_rs/123b.jpg","86","","","","","","test","TL","2"
"","show_choice","261","552613","0.0-233.0-1.0","""event"",""trial"",""time""
""fullscreenenter"",""0"",""10105""
","
","
","""event"",""trial"",""time""
""fullscreenenter"",""0"",""10105""
","
","null","run_exp/static/images/Set 6_rs/123b.jpg","null","","","","","","test","TL",""
"","html-keyboard-response","262","553128","0.0-233.0-2.0","""event"",""trial"",""time""
""fullscreenenter"",""0"",""10105""
","
","
","""event"",""trial"",""time""
""fullscreenenter"",""0"",""10105""
","
","null","<p></p>","null","","","","","","","",""
"","image","263","554178","0.0-234.0-0.0","""event"",""trial"",""time""
""fullscreenenter"",""0"",""10105""
","
","
","""event"",""trial"",""time""
""fullscreenenter"",""0"",""10105""
","
","1048.699999988079","run_exp/static/images/Set 6_rs/112a.jpg","86","","","","","","test","TR","5"
"","show_choice","264","554690","0.0-234.0-1.0","""event"",""trial"",""time""
""fullscreenenter"",""0"",""10105""
","
","
","""event"",""trial"",""time""
""fullscreenenter"",""0"",""10105""
","
","null","run_exp/static/images/Set 6_rs/112a.jpg","null","","","","","","test","TR",""
"","html-keyboard-response","265","555201","0.0-234.0-2.0","""event"",""trial"",""time""
""fullscreenenter"",""0"",""10105""
","
","
","""event"",""trial"",""time""
""fullscreenenter"",""0"",""10105""
","
","null","<p></p>","null","","","","","","","",""
"","image","266","557882","0.0-235.0-0.0","""event"",""trial"",""time""
""fullscreenenter"",""0"",""10105""
","
","
","""event"",""trial"",""time""
""fullscreenenter"",""0"",""10105""
","
","2679.699999988079","run_exp/static/images/Set 6_rs/005a.jpg","86","","","","","","test","TF","5"
"","show_choice","267","558386","0.0-235.0-1.0","""event"",""trial"",""time""
""fullscreenenter"",""0"",""10105""
","
","
","""event"",""trial"",""time""
""fullscreenenter"",""0"",""10105""
","
","null","run_exp/static/images/Set 6_rs/005a.jpg","null","","","","","","test","TF",""
"","html-keyboard-response","268","558887","0.0-235.0-2.0","""event"",""trial"",""time""
""fullscreenenter"",""0"",""10105""
","
","
","""event"",""trial"",""time""
""fullscreenenter"",""0"",""10105""
","
","null","<p></p>","null","","","","","","","",""
"","image","269","560091","0.0-236.0-0.0","""event"",""trial"",""time""
""fullscreenenter"",""0"",""10105""
","
","
","""event"",""trial"",""time""
""fullscreenenter"",""0"",""10105""
","
","1203.5","run_exp/static/images/Set 6_rs/166a.jpg","86","","","","","","test","TR","1"
"","show_choice","270","560604","0.0-236.0-1.0","""event"",""trial"",""time""
""fullscreenenter"",""0"",""10105""
","
","
","""event"",""trial"",""time""
""fullscreenenter"",""0"",""10105""
","
","null","run_exp/static/images/Set 6_rs/166a.jpg","null","","","","","","test","TR",""
"","html-keyboard-response","271","561116","0.0-236.0-2.0","""event"",""trial"",""time""
""fullscreenenter"",""0"",""10105""
","
","
","""event"",""trial"",""time""
""fullscreenenter"",""0"",""10105""
","
","null","<p></p>","null","","","","","","","",""
"","image","272","562585","0.0-237.0-0.0","""event"",""trial"",""time""
""fullscreenenter"",""0"",""10105""
","
","
","""event"",""trial"",""time""
""fullscreenenter"",""0"",""10105""
","
","1468.4000000059605","run_exp/static/images/Set 6_rs/170a.jpg","78","","","","","","test","TF","2"
"","show_choice","273","563094","0.0-237.0-1.0","""event"",""trial"",""time""
""fullscreenenter"",""0"",""10105""
","
","
","""event"",""trial"",""time""
""fullscreenenter"",""0"",""10105""
","
","null","run_exp/static/images/Set 6_rs/170a.jpg","null","","","","","","test","TF",""
"","html-keyboard-response","274","563607","0.0-237.0-2.0","""event"",""trial"",""time""
""fullscreenenter"",""0"",""10105""
","
","
","""event"",""trial"",""time""
""fullscreenenter"",""0"",""10105""
","
","null","<p></p>","null","","","","","","","",""
"","image","275","565070","0.0-238.0-0.0","""event"",""trial"",""time""
""fullscreenenter"",""0"",""10105""
","
","
","""event"",""trial"",""time""
""fullscreenenter"",""0"",""10105""
","
","1462.3999999761581","run_exp/static/images/Set 6_rs/006b.jpg","86","","","","","","test","TL","2"
"","show_choice","276","565581","0.0-238.0-1.0","""event"",""trial"",""time""
""fullscreenenter"",""0"",""10105""
","
","
","""event"",""trial"",""time""
""fullscreenenter"",""0"",""10105""
","
","null","run_exp/static/images/Set 6_rs/006b.jpg","null","","","","","","test","TL",""
"","html-keyboard-response","277","566095","0.0-238.0-2.0","""event"",""trial"",""time""
""fullscreenenter"",""0"",""10105""
","
","
","""event"",""trial"",""time""
""fullscreenenter"",""0"",""10105""
","
","null","<p></p>","null","","","","","","","",""
"","image","278","567684","0.0-239.0-0.0","""event"",""trial"",""time""
""fullscreenenter"",""0"",""10105""
","
","
","""event"",""trial"",""time""
""fullscreenenter"",""0"",""10105""
","
","1588","run_exp/static/images/Set 6_rs/116b.jpg","78","","","","","","test","TL","2"
"","show_choice","279","568200","0.0-239.0-1.0","""event"",""trial"",""time""
""fullscreenenter"",""0"",""10105""
","
","
","""event"",""trial"",""time""
""fullscreenenter"",""0"",""10105""
","
","null","run_exp/static/images/Set 6_rs/116b.jpg","null","","","","","","test","TL",""
"","html-keyboard-response","280","568712","0.0-239.0-2.0","""event"",""trial"",""time""
""fullscreenenter"",""0"",""10105""
","
","
","""event"",""trial"",""time""
""fullscreenenter"",""0"",""10105""
","
","null","<p></p>","null","","","","","","","",""
"","image","281","569910","0.0-240.0-0.0","""event"",""trial"",""time""
""fullscreenenter"",""0"",""10105""
","
","
","""event"",""trial"",""time""
""fullscreenenter"",""0"",""10105""
","
","1196.800000011921","run_exp/static/images/Set 6_rs/169a.jpg","86","","","","","","test","TR","4"
"","show_choice","282","570412","0.0-240.0-1.0","""event"",""trial"",""time""
""fullscreenenter"",""0"",""10105""
","
","
","""event"",""trial"",""time""
""fullscreenenter"",""0"",""10105""
","
","null","run_exp/static/images/Set 6_rs/169a.jpg","null","","","","","","test","TR",""
"","html-keyboard-response","283","570915","0.0-240.0-2.0","""event"",""trial"",""time""
""fullscreenenter"",""0"",""10105""
","
","
","""event"",""trial"",""time""
""fullscreenenter"",""0"",""10105""
","
","null","<p></p>","null","","","","","","","",""
"","image","284","572176","0.0-241.0-0.0","""event"",""trial"",""time""
""fullscreenenter"",""0"",""10105""
","
","
","""event"",""trial"",""time""
""fullscreenenter"",""0"",""10105""
","
","1257.8999999761581","run_exp/static/images/Set 6_rs/056a.jpg","78","","","","","","test","TF","3"
"","show_choice","285","572683","0.0-241.0-1.0","""event"",""trial"",""time""
""fullscreenenter"",""0"",""10105""
","
","
","""event"",""trial"",""time""
""fullscreenenter"",""0"",""10105""
","
","null","run_exp/static/images/Set 6_rs/056a.jpg","null","","","","","","test","TF",""
"","html-keyboard-response","286","573194","0.0-241.0-2.0","""event"",""trial"",""time""
""fullscreenenter"",""0"",""10105""
","
","
","""event"",""trial"",""time""
""fullscreenenter"",""0"",""10105""
","
","null","<p></p>","null","","","","","","","",""
"","image","287","574502","0.0-242.0-0.0","""event"",""trial"",""time""
""fullscreenenter"",""0"",""10105""
","
","
","""event"",""trial"",""time""
""fullscreenenter"",""0"",""10105""
","
","1306.699999988079","run_exp/static/images/Set 6_rs/077a.jpg","78","","","","","","test","TF","3"
"","show_choice","288","575007","0.0-242.0-1.0","""event"",""trial"",""time""
""fullscreenenter"",""0"",""10105""
","
","
","""event"",""trial"",""time""
""fullscreenenter"",""0"",""10105""
","
","null","run_exp/static/images/Set 6_rs/077a.jpg","null","","","","","","test","TF",""
"","html-keyboard-response","289","575521","0.0-242.0-2.0","""event"",""trial"",""time""
""fullscreenenter"",""0"",""10105""
","
","
","""event"",""trial"",""time""
""fullscreenenter"",""0"",""10105""
","
","null","<p></p>","null","","","","","","","",""
"","image","290","577084","0.0-243.0-0.0","""event"",""trial"",""time""
""fullscreenenter"",""0"",""10105""
","
","
","""event"",""trial"",""time""
""fullscreenenter"",""0"",""10105""
","
","1561.699999988079","run_exp/static/images/Set 6_rs/014b.jpg","86","","","","","","test","TL","5"
"","show_choice","291","577599","0.0-243.0-1.0","""event"",""trial"",""time""
""fullscreenenter"",""0"",""10105""
","
","
","""event"",""trial"",""time""
""fullscreenenter"",""0"",""10105""
","
","null","run_exp/static/images/Set 6_rs/014b.jpg","null","","","","","","test","TL",""
"","html-keyboard-response","292","578116","0.0-243.0-2.0","""event"",""trial"",""time""
""fullscreenenter"",""0"",""10105""
","
","
","""event"",""trial"",""time""
""fullscreenenter"",""0"",""10105""
","
","null","<p></p>","null","","","","","","","",""
"","image","293","579197","0.0-244.0-0.0","""event"",""trial"",""time""
""fullscreenenter"",""0"",""10105""
","
","
","""event"",""trial"",""time""
""fullscreenenter"",""0"",""10105""
","
","1079.5999999940395","run_exp/static/images/Set 6_rs/188a.jpg","78","","","","","","test","TF","3"
"","show_choice","294","579705","0.0-244.0-1.0","""event"",""trial"",""time""
""fullscreenenter"",""0"",""10105""
","
","
","""event"",""trial"",""time""
""fullscreenenter"",""0"",""10105""
","
","null","run_exp/static/images/Set 6_rs/188a.jpg","null","","","","","","test","TF",""
"","html-keyboard-response","295","580219","0.0-244.0-2.0","""event"",""trial"",""time""
""fullscreenenter"",""0"",""10105""
","
","
","""event"",""trial"",""time""
""fullscreenenter"",""0"",""10105""
","
","null","<p></p>","null","","","","","","","",""
"","image","296","582860","0.0-245.0-0.0","""event"",""trial"",""time""
""fullscreenenter"",""0"",""10105""
","
","
","""event"",""trial"",""time""
""fullscreenenter"",""0"",""10105""
","
","2639.199999988079","run_exp/static/images/Set 6_rs/016b.jpg","86","","","","","","test","TL","1"
"","show_choice","297","583373","0.0-245.0-1.0","""event"",""trial"",""time""
""fullscreenenter"",""0"",""10105""
","
","
","""event"",""trial"",""time""
""fullscreenenter"",""0"",""10105""
","
","null","run_exp/static/images/Set 6_rs/016b.jpg","null","","","","","","test","TL",""
"","html-keyboard-response","298","583889","0.0-245.0-2.0","""event"",""trial"",""time""
""fullscreenenter"",""0"",""10105""
","
","
","""event"",""trial"",""time""
""fullscreenenter"",""0"",""10105""
","
","null","<p></p>","null","","","","","","","",""
"","image","299","585434","0.0-246.0-0.0","""event"",""trial"",""time""
""fullscreenenter"",""0"",""10105""
","
","
","""event"",""trial"",""time""
""fullscreenenter"",""0"",""10105""
","
","1543","run_exp/static/images/Set 6_rs/055b.jpg","86","","","","","","test","TL","4"
"","show_choice","300","585935","0.0-246.0-1.0","""event"",""trial"",""time""
""fullscreenenter"",""0"",""10105""
","
","
","""event"",""trial"",""time""
""fullscreenenter"",""0"",""10105""
","
","null","run_exp/static/images/Set 6_rs/055b.jpg","null","","","","","","test","TL",""
"","html-keyboard-response","301","586448","0.0-246.0-2.0","""event"",""trial"",""time""
""fullscreenenter"",""0"",""10105""
","
","
","""event"",""trial"",""time""
""fullscreenenter"",""0"",""10105""
","
","null","<p></p>","null","","","","","","","",""
"","image","302","587698","0.0-247.0-0.0","""event"",""trial"",""time""
""fullscreenenter"",""0"",""10105""
","
","
","""event"",""trial"",""time""
""fullscreenenter"",""0"",""10105""
","
","1248.5","run_exp/static/images/Set 6_rs/176a.jpg","78","","","","","","test","TF","4"
"","show_choice","303","588201","0.0-247.0-1.0","""event"",""trial"",""time""
""fullscreenenter"",""0"",""10105""
","
","
","""event"",""trial"",""time""
""fullscreenenter"",""0"",""10105""
","
","null","run_exp/static/images/Set 6_rs/176a.jpg","null","","","","","","test","TF",""
"","html-keyboard-response","304","588713","0.0-247.0-2.0","""event"",""trial"",""time""
""fullscreenenter"",""0"",""10105""
","
","
","""event"",""trial"",""time""
""fullscreenenter"",""0"",""10105""
","
","null","<p></p>","null","","","","","","","",""
"","image","305","590437","0.0-248.0-0.0","""event"",""trial"",""time""
""fullscreenenter"",""0"",""10105""
","
","
","""event"",""trial"",""time""
""fullscreenenter"",""0"",""10105""
","
","1723.5","run_exp/static/images/Set 6_rs/079b.jpg","86","","","","","","test","TL","5"
"","show_choice","306","590953","0.0-248.0-1.0","""event"",""trial"",""time""
""fullscreenenter"",""0"",""10105""
","
","
","""event"",""trial"",""time""
""fullscreenenter"",""0"",""10105""
","
","null","run_exp/static/images/Set 6_rs/079b.jpg","null","","","","","","test","TL",""
"","html-keyboard-response","307","591467","0.0-248.0-2.0","""event"",""trial"",""time""
""fullscreenenter"",""0"",""10105""
","
","
","""event"",""trial"",""time""
""fullscreenenter"",""0"",""10105""
","
","null","<p></p>","null","","","","","","","",""
"","image","308","593235","0.0-249.0-0.0","""event"",""trial"",""time""
""fullscreenenter"",""0"",""10105""
","
","
","""event"",""trial"",""time""
""fullscreenenter"",""0"",""10105""
","
","1766.300000011921","run_exp/static/images/Set 6_rs/017b.jpg","78","","","","","","test","TL","3"
"","show_choice","309","593741","0.0-249.0-1.0","""event"",""trial"",""time""
""fullscreenenter"",""0"",""10105""
","
","
","""event"",""trial"",""time""
""fullscreenenter"",""0"",""10105""
","
","null","run_exp/static/images/Set 6_rs/017b.jpg","null","","","","","","test","TL",""
"","html-keyboard-response","310","594255","0.0-249.0-2.0","""event"",""trial"",""time""
""fullscreenenter"",""0"",""10105""
","
","
","""event"",""trial"",""time""
""fullscreenenter"",""0"",""10105""
","
","null","<p></p>","null","","","","","","","",""
"","image","311","595230","0.0-250.0-0.0","""event"",""trial"",""time""
""fullscreenenter"",""0"",""10105""
","
","
","""event"",""trial"",""time""
""fullscreenenter"",""0"",""10105""
","
","973.7999999821186","run_exp/static/images/Set 6_rs/057b.jpg","86","","","","","","test","TL","1"
"","show_choice","312","595738","0.0-250.0-1.0","""event"",""trial"",""time""
""fullscreenenter"",""0"",""10105""
","
","
","""event"",""trial"",""time""
""fullscreenenter"",""0"",""10105""
","
","null","run_exp/static/images/Set 6_rs/057b.jpg","null","","","","","","test","TL",""
"","html-keyboard-response","313","596254","0.0-250.0-2.0","""event"",""trial"",""time""
""fullscreenenter"",""0"",""10105""
","
","
","""event"",""trial"",""time""
""fullscreenenter"",""0"",""10105""
","
","null","<p></p>","null","","","","","","","",""
"","image","314","597329","0.0-251.0-0.0","""event"",""trial"",""time""
""fullscreenenter"",""0"",""10105""
","
","
","""event"",""trial"",""time""
""fullscreenenter"",""0"",""10105""
","
","1073.8999999761581","run_exp/static/images/Set 6_rs/172a.jpg","86","","","","","","test","TR","1"
"","show_choice","315","597840","0.0-251.0-1.0","""event"",""trial"",""time""
""fullscreenenter"",""0"",""10105""
","
","
","""event"",""trial"",""time""
""fullscreenenter"",""0"",""10105""
","
","null","run_exp/static/images/Set 6_rs/172a.jpg","null","","","","","","test","TR",""
"","html-keyboard-response","316","598351","0.0-251.0-2.0","""event"",""trial"",""time""
""fullscreenenter"",""0"",""10105""
","
","
","""event"",""trial"",""time""
""fullscreenenter"",""0"",""10105""
","
","null","<p></p>","null","","","","","","","",""
"","image","317","599380","0.0-252.0-0.0","""event"",""trial"",""time""
""fullscreenenter"",""0"",""10105""
","
","
","""event"",""trial"",""time""
""fullscreenenter"",""0"",""10105""
","
","1027.5","run_exp/static/images/Set 6_rs/028a.jpg","78","","","","","","test","TF","1"
"","show_choice","318","599892","0.0-252.0-1.0","""event"",""trial"",""time""
""fullscreenenter"",""0"",""10105""
","
","
","""event"",""trial"",""time""
""fullscreenenter"",""0"",""10105""
","
","null","run_exp/static/images/Set 6_rs/028a.jpg","null","","","","","","test","TF",""
"","html-keyboard-response","319","600402","0.0-252.0-2.0","""event"",""trial"",""time""
""fullscreenenter"",""0"",""10105""
","
","
","""event"",""trial"",""time""
""fullscreenenter"",""0"",""10105""
","
","null","<p></p>","null","","","","","","","",""
"","image","320","601498","0.0-253.0-0.0","""event"",""trial"",""time""
""fullscreenenter"",""0"",""10105""
","
","
","""event"",""trial"",""time""
""fullscreenenter"",""0"",""10105""
","
","1095.3999999761581","run_exp/static/images/Set 6_rs/025b.jpg","78","","","","","","test","TL","5"
"","show_choice","321","602009","0.0-253.0-1.0","""event"",""trial"",""time""
""fullscreenenter"",""0"",""10105""
","
","
","""event"",""trial"",""time""
""fullscreenenter"",""0"",""10105""
","
","null","run_exp/static/images/Set 6_rs/025b.jpg","null","","","","","","test","TL",""
"","html-keyboard-response","322","602522","0.0-253.0-2.0","""event"",""trial"",""time""
""fullscreenenter"",""0"",""10105""
","
","
","""event"",""trial"",""time""
""fullscreenenter"",""0"",""10105""
","
","null","<p></p>","null","","","","","","","",""
"","image","323","603403","0.0-254.0-0.0","""event"",""trial"",""time""
""fullscreenenter"",""0"",""10105""
","
","
","""event"",""trial"",""time""
""fullscreenenter"",""0"",""10105""
","
","880.0999999940395","run_exp/static/images/Set 6_rs/140a.jpg","78","","","","","","test","TF","1"
"","show_choice","324","603906","0.0-254.0-1.0","""event"",""trial"",""time""
""fullscreenenter"",""0"",""10105""
","
","
","""event"",""trial"",""time""
""fullscreenenter"",""0"",""10105""
","
","null","run_exp/static/images/Set 6_rs/140a.jpg","null","","","","","","test","TF",""
"","html-keyboard-response","325","604408","0.0-254.0-2.0","""event"",""trial"",""time""
""fullscreenenter"",""0"",""10105""
","
","
","""event"",""trial"",""time""
""fullscreenenter"",""0"",""10105""
","
","null","<p></p>","null","","","","","","","",""
"","image","326","605998","0.0-255.0-0.0","""event"",""trial"",""time""
""fullscreenenter"",""0"",""10105""
","
","
","""event"",""trial"",""time""
""fullscreenenter"",""0"",""10105""
","
","1585.800000011921","run_exp/static/images/Set 6_rs/023a.jpg","86","","","","","","test","TR","3"
"","show_choice","327","606501","0.0-255.0-1.0","""event"",""trial"",""time""
""fullscreenenter"",""0"",""10105""
","
","
","""event"",""trial"",""time""
""fullscreenenter"",""0"",""10105""
","
","null","run_exp/static/images/Set 6_rs/023a.jpg","null","","","","","","test","TR",""
"","html-keyboard-response","328","607007","0.0-255.0-2.0","""event"",""trial"",""time""
""fullscreenenter"",""0"",""10105""
","
","
","""event"",""trial"",""time""
""fullscreenenter"",""0"",""10105""
","
","null","<p></p>","null","","","","","","","",""
"","image","329","608022","0.0-256.0-0.0","""event"",""trial"",""time""
""fullscreenenter"",""0"",""10105""
","
","
","""event"",""trial"",""time""
""fullscreenenter"",""0"",""10105""
","
","1013.2999999821186","run_exp/static/images/Set 6_rs/095b.jpg","78","","","","","","test","TL","5"
"","show_choice","330","608527","0.0-256.0-1.0","""event"",""trial"",""time""
""fullscreenenter"",""0"",""10105""
","
","
","""event"",""trial"",""time""
""fullscreenenter"",""0"",""10105""
","
","null","run_exp/static/images/Set 6_rs/095b.jpg","null","","","","","","test","TL",""
"","html-keyboard-response","331","609043","0.0-256.0-2.0","""event"",""trial"",""time""
""fullscreenenter"",""0"",""10105""
","
","
","""event"",""trial"",""time""
""fullscreenenter"",""0"",""10105""
","
","null","<p></p>","null","","","","","","","",""
"","image","332","610930","0.0-257.0-0.0","""event"",""trial"",""time""
""fullscreenenter"",""0"",""10105""
","
","
","""event"",""trial"",""time""
""fullscreenenter"",""0"",""10105""
","
","1886.1000000238419","run_exp/static/images/Set 6_rs/181b.jpg","78","","","","","","test","TL","1"
"","show_choice","333","611444","0.0-257.0-1.0","""event"",""trial"",""time""
""fullscreenenter"",""0"",""10105""
","
","
","""event"",""trial"",""time""
""fullscreenenter"",""0"",""10105""
","
","null","run_exp/static/images/Set 6_rs/181b.jpg","null","","","","","","test","TL",""
"","html-keyboard-response","334","611959","0.0-257.0-2.0","""event"",""trial"",""time""
""fullscreenenter"",""0"",""10105""
","
","
","""event"",""trial"",""time""
""fullscreenenter"",""0"",""10105""
","
","null","<p></p>","null","","","","","","","",""
"","image","335","612960","0.0-258.0-0.0","""event"",""trial"",""time""
""fullscreenenter"",""0"",""10105""
","
","
","""event"",""trial"",""time""
""fullscreenenter"",""0"",""10105""
","
","999.7999999821186","run_exp/static/images/Set 6_rs/122a.jpg","78","","","","","","test","TR","5"
