"success","trial_type","trial_index","time_elapsed","internal_node_id","interactions","blur_events","focus_events","fullscreenenter_events","fullscreenexit_events","rt","stimulus","key_press","subject_id","participant_id","age","gender","prompt","phase","condition","lure_bin"
"true","fullscreen","0","4290","0.0-0.0","""event"",""trial"",""time""
""focus"",""0"",""0""
""blur"",""0"",""0""
""focus"",""0"",""0""
""blur"",""0"",""0""
""focus"",""0"",""0""
""blur"",""0"",""0""
""focus"",""0"",""0""
""fullscreenenter"",""0"",""3490""
","""event"",""trial"",""time""
""blur"",""0"",""0""
""blur"",""0"",""0""
""blur"",""0"",""0""
","""event"",""trial"",""time""
""focus"",""0"",""0""
""focus"",""0"",""0""
""focus"",""0"",""0""
""focus"",""0"",""0""
","""event"",""trial"",""time""
""fullscreenenter"",""0"",""3490""
","
","","","","","","","","","","",""
"","pavlovia","1","4299","0.0-1.0","""event"",""trial"",""time""
""focus"",""0"",""0""
""blur"",""0"",""0""
""focus"",""0"",""0""
""blur"",""0"",""0""
""focus"",""0"",""0""
""blur"",""0"",""0""
""focus"",""0"",""0""
""fullscreenenter"",""0"",""3490""
""fullscreenexit"",""2"",""4723""
""blur"",""2"",""29394""
""focus"",""2"",""31491""
","""event"",""trial"",""time""
""blur"",""0"",""0""
""blur"",""0"",""0""
""blur"",""0"",""0""
""blur"",""2"",""29394""
","""event"",""trial"",""time""
""focus"",""0"",""0""
""focus"",""0"",""0""
""focus"",""0"",""0""
""focus"",""0"",""0""
""focus"",""2"",""31491""
","""event"",""trial"",""time""
""fullscreenenter"",""0"",""3490""
","""event"",""trial"",""time""
""fullscreenexit"",""2"",""4723""
","","","","","","","","","","",""
"","welcome","2","39241","0.0-2.0","""event"",""trial"",""time""
""focus"",""0"",""0""
""blur"",""0"",""0""
""focus"",""0"",""0""
""blur"",""0"",""0""
""focus"",""0"",""0""
""blur"",""0"",""0""
""focus"",""0"",""0""
""fullscreenenter"",""0"",""3490""
""fullscreenexit"",""2"",""4723""
""blur"",""2"",""29394""
""focus"",""2"",""31491""
","""event"",""trial"",""time""
""blur"",""0"",""0""
""blur"",""0"",""0""
""blur"",""0"",""0""
""blur"",""2"",""29394""
","""event"",""trial"",""time""
""focus"",""0"",""0""
""focus"",""0"",""0""
""focus"",""0"",""0""
""focus"",""0"",""0""
""focus"",""2"",""31491""
","""event"",""trial"",""time""
""fullscreenenter"",""0"",""3490""
","""event"",""trial"",""time""
""fullscreenexit"",""2"",""4723""
","null","run_exp/static/audio/clip_1_welcome.m4a","null","534","37","16","Male","<div class='center'><p>Welcome to the third part of the study! First, you'll be shown pictures of items one at a time. For each picture, you have to decide if the item is typically found indoors or outdoors.</p><p>If you think it's usually found indoors, then press <b>v</b> key on your keyboard. If you think it's usually found outdoors, then press the <b>n</b> key.There will be reminders on the screen to help you remember which keys to press. </p><p>If you're not sure whether the item is an indoor item or an outdoor item, go ahead and take a guess but try your best not to skip that choice. </p></div>","","",""
"","html-keyboard-response","3","40321","0.0-3.0","""event"",""trial"",""time""
""focus"",""0"",""0""
""blur"",""0"",""0""
""focus"",""0"",""0""
""blur"",""0"",""0""
""focus"",""0"",""0""
""blur"",""0"",""0""
""focus"",""0"",""0""
""fullscreenenter"",""0"",""3490""
""fullscreenexit"",""2"",""4723""
""blur"",""2"",""29394""
""focus"",""2"",""31491""
","""event"",""trial"",""time""
""blur"",""0"",""0""
""blur"",""0"",""0""
""blur"",""0"",""0""
""blur"",""2"",""29394""
","""event"",""trial"",""time""
""focus"",""0"",""0""
""focus"",""0"",""0""
""focus"",""0"",""0""
""focus"",""0"",""0""
""focus"",""2"",""31491""
","""event"",""trial"",""time""
""fullscreenenter"",""0"",""3490""
","""event"",""trial"",""time""
""fullscreenexit"",""2"",""4723""
","1073","<div class='center'><p>Welcome to the third part of the study! First, you'll be shown pictures of items one at a time. For each picture, you have to decide if the item is typically found indoors or outdoors.</p><p>If you think it's usually found indoors, then press <b>v</b> key on your keyboard. If you think it's usually found outdoors, then press the <b>n</b> key.There will be reminders on the screen to help you remember which keys to press. </p><p>If you're not sure whether the item is an indoor item or an outdoor item, go ahead and take a guess but try your best not to skip that choice. </p><div><p><b>[Press the space bar to continue]</b></p></div>","32","","","","","","","",""
"","image","4","42113","0.0-4.0","""event"",""trial"",""time""
""focus"",""0"",""0""
""blur"",""0"",""0""
""focus"",""0"",""0""
""blur"",""0"",""0""
""focus"",""0"",""0""
""blur"",""0"",""0""
""focus"",""0"",""0""
""fullscreenenter"",""0"",""3490""
""fullscreenexit"",""2"",""4723""
""blur"",""2"",""29394""
""focus"",""2"",""31491""
","""event"",""trial"",""time""
""blur"",""0"",""0""
""blur"",""0"",""0""
""blur"",""0"",""0""
""blur"",""2"",""29394""
","""event"",""trial"",""time""
""focus"",""0"",""0""
""focus"",""0"",""0""
""focus"",""0"",""0""
""focus"",""0"",""0""
""focus"",""2"",""31491""
","""event"",""trial"",""time""
""fullscreenenter"",""0"",""3490""
","""event"",""trial"",""time""
""fullscreenexit"",""2"",""4723""
","1789","run_exp/static/images/Set 6_rs/007a.jpg","86","","","","","","learn","SR",""
"","show_choice","5","42327","0.0-5.0","""event"",""trial"",""time""
""focus"",""0"",""0""
""blur"",""0"",""0""
""focus"",""0"",""0""
""blur"",""0"",""0""
""focus"",""0"",""0""
""blur"",""0"",""0""
""focus"",""0"",""0""
""fullscreenenter"",""0"",""3490""
""fullscreenexit"",""2"",""4723""
""blur"",""2"",""29394""
""focus"",""2"",""31491""
","""event"",""trial"",""time""
""blur"",""0"",""0""
""blur"",""0"",""0""
""blur"",""0"",""0""
""blur"",""2"",""29394""
","""event"",""trial"",""time""
""focus"",""0"",""0""
""focus"",""0"",""0""
""focus"",""0"",""0""
""focus"",""0"",""0""
""focus"",""2"",""31491""
","""event"",""trial"",""time""
""fullscreenenter"",""0"",""3490""
","""event"",""trial"",""time""
""fullscreenexit"",""2"",""4723""
","null","run_exp/static/images/Set 6_rs/007a.jpg","null","","","","","","learn","SR",""
"","html-keyboard-response","6","42829","0.0-6.0","""event"",""trial"",""time""
""focus"",""0"",""0""
""blur"",""0"",""0""
""focus"",""0"",""0""
""blur"",""0"",""0""
""focus"",""0"",""0""
""blur"",""0"",""0""
""focus"",""0"",""0""
""fullscreenenter"",""0"",""3490""
""fullscreenexit"",""2"",""4723""
""blur"",""2"",""29394""
""focus"",""2"",""31491""
","""event"",""trial"",""time""
""blur"",""0"",""0""
""blur"",""0"",""0""
""blur"",""0"",""0""
""blur"",""2"",""29394""
","""event"",""trial"",""time""
""focus"",""0"",""0""
""focus"",""0"",""0""
""focus"",""0"",""0""
""focus"",""0"",""0""
""focus"",""2"",""31491""
","""event"",""trial"",""time""
""fullscreenenter"",""0"",""3490""
","""event"",""trial"",""time""
""fullscreenexit"",""2"",""4723""
","null","<p></p>","null","","","","","","","",""
"","image","7","44145","0.0-7.0","""event"",""trial"",""time""
""focus"",""0"",""0""
""blur"",""0"",""0""
""focus"",""0"",""0""
""blur"",""0"",""0""
""focus"",""0"",""0""
""blur"",""0"",""0""
""focus"",""0"",""0""
""fullscreenenter"",""0"",""3490""
""fullscreenexit"",""2"",""4723""
""blur"",""2"",""29394""
""focus"",""2"",""31491""
","""event"",""trial"",""time""
""blur"",""0"",""0""
""blur"",""0"",""0""
""blur"",""0"",""0""
""blur"",""2"",""29394""
","""event"",""trial"",""time""
""focus"",""0"",""0""
""focus"",""0"",""0""
""focus"",""0"",""0""
""focus"",""0"",""0""
""focus"",""2"",""31491""
","""event"",""trial"",""time""
""fullscreenenter"",""0"",""3490""
","""event"",""trial"",""time""
""fullscreenexit"",""2"",""4723""
","1314","run_exp/static/images/Set 6_rs/177a.jpg","78","","","","","","learn","SR",""
"","show_choice","8","44833","0.0-8.0","""event"",""trial"",""time""
""focus"",""0"",""0""
""blur"",""0"",""0""
""focus"",""0"",""0""
""blur"",""0"",""0""
""focus"",""0"",""0""
""blur"",""0"",""0""
""focus"",""0"",""0""
""fullscreenenter"",""0"",""3490""
""fullscreenexit"",""2"",""4723""
""blur"",""2"",""29394""
""focus"",""2"",""31491""
","""event"",""trial"",""time""
""blur"",""0"",""0""
""blur"",""0"",""0""
""blur"",""0"",""0""
""blur"",""2"",""29394""
","""event"",""trial"",""time""
""focus"",""0"",""0""
""focus"",""0"",""0""
""focus"",""0"",""0""
""focus"",""0"",""0""
""focus"",""2"",""31491""
","""event"",""trial"",""time""
""fullscreenenter"",""0"",""3490""
","""event"",""trial"",""time""
""fullscreenexit"",""2"",""4723""
","null","run_exp/static/images/Set 6_rs/177a.jpg","null","","","","","","learn","SR",""
"","html-keyboard-response","9","45334","0.0-9.0","""event"",""trial"",""time""
""focus"",""0"",""0""
""blur"",""0"",""0""
""focus"",""0"",""0""
""blur"",""0"",""0""
""focus"",""0"",""0""
""blur"",""0"",""0""
""focus"",""0"",""0""
""fullscreenenter"",""0"",""3490""
""fullscreenexit"",""2"",""4723""
""blur"",""2"",""29394""
""focus"",""2"",""31491""
","""event"",""trial"",""time""
""blur"",""0"",""0""
""blur"",""0"",""0""
""blur"",""0"",""0""
""blur"",""2"",""29394""
","""event"",""trial"",""time""
""focus"",""0"",""0""
""focus"",""0"",""0""
""focus"",""0"",""0""
""focus"",""0"",""0""
""focus"",""2"",""31491""
","""event"",""trial"",""time""
""fullscreenenter"",""0"",""3490""
","""event"",""trial"",""time""
""fullscreenexit"",""2"",""4723""
","null","<p></p>","null","","","","","","","",""
"","image","10","46049","0.0-10.0","""event"",""trial"",""time""
""focus"",""0"",""0""
""blur"",""0"",""0""
""focus"",""0"",""0""
""blur"",""0"",""0""
""focus"",""0"",""0""
""blur"",""0"",""0""
""focus"",""0"",""0""
""fullscreenenter"",""0"",""3490""
""fullscreenexit"",""2"",""4723""
""blur"",""2"",""29394""
""focus"",""2"",""31491""
","""event"",""trial"",""time""
""blur"",""0"",""0""
""blur"",""0"",""0""
""blur"",""0"",""0""
""blur"",""2"",""29394""
","""event"",""trial"",""time""
""focus"",""0"",""0""
""focus"",""0"",""0""
""focus"",""0"",""0""
""focus"",""0"",""0""
""focus"",""2"",""31491""
","""event"",""trial"",""time""
""fullscreenenter"",""0"",""3490""
","""event"",""trial"",""time""
""fullscreenexit"",""2"",""4723""
","711","run_exp/static/images/Set 6_rs/057a.jpg","86","","","","","","learn","SL",""
"","show_choice","11","47341","0.0-11.0","""event"",""trial"",""time""
""focus"",""0"",""0""
""blur"",""0"",""0""
""focus"",""0"",""0""
""blur"",""0"",""0""
""focus"",""0"",""0""
""blur"",""0"",""0""
""focus"",""0"",""0""
""fullscreenenter"",""0"",""3490""
""fullscreenexit"",""2"",""4723""
""blur"",""2"",""29394""
""focus"",""2"",""31491""
","""event"",""trial"",""time""
""blur"",""0"",""0""
""blur"",""0"",""0""
""blur"",""0"",""0""
""blur"",""2"",""29394""
","""event"",""trial"",""time""
""focus"",""0"",""0""
""focus"",""0"",""0""
""focus"",""0"",""0""
""focus"",""0"",""0""
""focus"",""2"",""31491""
","""event"",""trial"",""time""
""fullscreenenter"",""0"",""3490""
","""event"",""trial"",""time""
""fullscreenexit"",""2"",""4723""
","null","run_exp/static/images/Set 6_rs/057a.jpg","null","","","","","","learn","SL",""
"","html-keyboard-response","12","47843","0.0-12.0","""event"",""trial"",""time""
""focus"",""0"",""0""
""blur"",""0"",""0""
""focus"",""0"",""0""
""blur"",""0"",""0""
""focus"",""0"",""0""
""blur"",""0"",""0""
""focus"",""0"",""0""
""fullscreenenter"",""0"",""3490""
""fullscreenexit"",""2"",""4723""
""blur"",""2"",""29394""
""focus"",""2"",""31491""
","""event"",""trial"",""time""
""blur"",""0"",""0""
""blur"",""0"",""0""
""blur"",""0"",""0""
""blur"",""2"",""29394""
","""event"",""trial"",""time""
""focus"",""0"",""0""
""focus"",""0"",""0""
""focus"",""0"",""0""
""focus"",""0"",""0""
""focus"",""2"",""31491""
","""event"",""trial"",""time""
""fullscreenenter"",""0"",""3490""
","""event"",""trial"",""time""
""fullscreenexit"",""2"",""4723""
","null","<p></p>","null","","","","","","","",""
"","image","13","48384","0.0-13.0","""event"",""trial"",""time""
""focus"",""0"",""0""
""blur"",""0"",""0""
""focus"",""0"",""0""
""blur"",""0"",""0""
""focus"",""0"",""0""
""blur"",""0"",""0""
""focus"",""0"",""0""
""fullscreenenter"",""0"",""3490""
""fullscreenexit"",""2"",""4723""
""blur"",""2"",""29394""
""focus"",""2"",""31491""
","""event"",""trial"",""time""
""blur"",""0"",""0""
""blur"",""0"",""0""
""blur"",""0"",""0""
""blur"",""2"",""29394""
","""event"",""trial"",""time""
""focus"",""0"",""0""
""focus"",""0"",""0""
""focus"",""0"",""0""
""focus"",""0"",""0""
""focus"",""2"",""31491""
","""event"",""trial"",""time""
""fullscreenenter"",""0"",""3490""
","""event"",""trial"",""time""
""fullscreenexit"",""2"",""4723""
","540","run_exp/static/images/Set 6_rs/024a.jpg","86","","","","","","learn","SR",""
"","show_choice","14","49846","0.0-14.0","""event"",""trial"",""time""
""focus"",""0"",""0""
""blur"",""0"",""0""
""focus"",""0"",""0""
""blur"",""0"",""0""
""focus"",""0"",""0""
""blur"",""0"",""0""
""focus"",""0"",""0""
""fullscreenenter"",""0"",""3490""
""fullscreenexit"",""2"",""4723""
""blur"",""2"",""29394""
""focus"",""2"",""31491""
","""event"",""trial"",""time""
""blur"",""0"",""0""
""blur"",""0"",""0""
""blur"",""0"",""0""
""blur"",""2"",""29394""
","""event"",""trial"",""time""
""focus"",""0"",""0""
""focus"",""0"",""0""
""focus"",""0"",""0""
""focus"",""0"",""0""
""focus"",""2"",""31491""
","""event"",""trial"",""time""
""fullscreenenter"",""0"",""3490""
","""event"",""trial"",""time""
""fullscreenexit"",""2"",""4723""
","null","run_exp/static/images/Set 6_rs/024a.jpg","null","","","","","","learn","SR",""
"","html-keyboard-response","15","50347","0.0-15.0","""event"",""trial"",""time""
""focus"",""0"",""0""
""blur"",""0"",""0""
""focus"",""0"",""0""
""blur"",""0"",""0""
""focus"",""0"",""0""
""blur"",""0"",""0""
""focus"",""0"",""0""
""fullscreenenter"",""0"",""3490""
""fullscreenexit"",""2"",""4723""
""blur"",""2"",""29394""
""focus"",""2"",""31491""
","""event"",""trial"",""time""
""blur"",""0"",""0""
""blur"",""0"",""0""
""blur"",""0"",""0""
""blur"",""2"",""29394""
","""event"",""trial"",""time""
""focus"",""0"",""0""
""focus"",""0"",""0""
""focus"",""0"",""0""
""focus"",""0"",""0""
""focus"",""2"",""31491""
","""event"",""trial"",""time""
""fullscreenenter"",""0"",""3490""
","""event"",""trial"",""time""
""fullscreenexit"",""2"",""4723""
","null","<p></p>","null","","","","","","","",""
"","image","16","50961","0.0-16.0","""event"",""trial"",""time""
""focus"",""0"",""0""
""blur"",""0"",""0""
""focus"",""0"",""0""
""blur"",""0"",""0""
""focus"",""0"",""0""
""blur"",""0"",""0""
""focus"",""0"",""0""
""fullscreenenter"",""0"",""3490""
""fullscreenexit"",""2"",""4723""
""blur"",""2"",""29394""
""focus"",""2"",""31491""
","""event"",""trial"",""time""
""blur"",""0"",""0""
""blur"",""0"",""0""
""blur"",""0"",""0""
""blur"",""2"",""29394""
","""event"",""trial"",""time""
""focus"",""0"",""0""
""focus"",""0"",""0""
""focus"",""0"",""0""
""focus"",""0"",""0""
""focus"",""2"",""31491""
","""event"",""trial"",""time""
""fullscreenenter"",""0"",""3490""
","""event"",""trial"",""time""
""fullscreenexit"",""2"",""4723""
","612","run_exp/static/images/Set 6_rs/075a.jpg","86","","","","","","learn","SR",""
"","show_choice","17","52350","0.0-17.0","""event"",""trial"",""time""
""focus"",""0"",""0""
""blur"",""0"",""0""
""focus"",""0"",""0""
""blur"",""0"",""0""
""focus"",""0"",""0""
""blur"",""0"",""0""
""focus"",""0"",""0""
""fullscreenenter"",""0"",""3490""
""fullscreenexit"",""2"",""4723""
""blur"",""2"",""29394""
""focus"",""2"",""31491""
","""event"",""trial"",""time""
""blur"",""0"",""0""
""blur"",""0"",""0""
""blur"",""0"",""0""
""blur"",""2"",""29394""
","""event"",""trial"",""time""
""focus"",""0"",""0""
""focus"",""0"",""0""
""focus"",""0"",""0""
""focus"",""0"",""0""
""focus"",""2"",""31491""
","""event"",""trial"",""time""
""fullscreenenter"",""0"",""3490""
","""event"",""trial"",""time""
""fullscreenexit"",""2"",""4723""
","null","run_exp/static/images/Set 6_rs/075a.jpg","null","","","","","","learn","SR",""
"","html-keyboard-response","18","52852","0.0-18.0","""event"",""trial"",""time""
""focus"",""0"",""0""
""blur"",""0"",""0""
""focus"",""0"",""0""
""blur"",""0"",""0""
""focus"",""0"",""0""
""blur"",""0"",""0""
""focus"",""0"",""0""
""fullscreenenter"",""0"",""3490""
""fullscreenexit"",""2"",""4723""
""blur"",""2"",""29394""
""focus"",""2"",""31491""
","""event"",""trial"",""time""
""blur"",""0"",""0""
""blur"",""0"",""0""
""blur"",""0"",""0""
""blur"",""2"",""29394""
","""event"",""trial"",""time""
""focus"",""0"",""0""
""focus"",""0"",""0""
""focus"",""0"",""0""
""focus"",""0"",""0""
""focus"",""2"",""31491""
","""event"",""trial"",""time""
""fullscreenenter"",""0"",""3490""
","""event"",""trial"",""time""
""fullscreenexit"",""2"",""4723""
","null","<p></p>","null","","","","","","","",""
"","image","19","53360","0.0-19.0","""event"",""trial"",""time""
""focus"",""0"",""0""
""blur"",""0"",""0""
""focus"",""0"",""0""
""blur"",""0"",""0""
""focus"",""0"",""0""
""blur"",""0"",""0""
""focus"",""0"",""0""
""fullscreenenter"",""0"",""3490""
""fullscreenexit"",""2"",""4723""
""blur"",""2"",""29394""
""focus"",""2"",""31491""
","""event"",""trial"",""time""
""blur"",""0"",""0""
""blur"",""0"",""0""
""blur"",""0"",""0""
""blur"",""2"",""29394""
","""event"",""trial"",""time""
""focus"",""0"",""0""
""focus"",""0"",""0""
""focus"",""0"",""0""
""focus"",""0"",""0""
""focus"",""2"",""31491""
","""event"",""trial"",""time""
""fullscreenenter"",""0"",""3490""
","""event"",""trial"",""time""
""fullscreenexit"",""2"",""4723""
","507","run_exp/static/images/Set 6_rs/181a.jpg","86","","","","","","learn","SL",""
"","show_choice","20","54854","0.0-20.0","""event"",""trial"",""time""
""focus"",""0"",""0""
""blur"",""0"",""0""
""focus"",""0"",""0""
""blur"",""0"",""0""
""focus"",""0"",""0""
""blur"",""0"",""0""
""focus"",""0"",""0""
""fullscreenenter"",""0"",""3490""
""fullscreenexit"",""2"",""4723""
""blur"",""2"",""29394""
""focus"",""2"",""31491""
","""event"",""trial"",""time""
""blur"",""0"",""0""
""blur"",""0"",""0""
""blur"",""0"",""0""
""blur"",""2"",""29394""
","""event"",""trial"",""time""
""focus"",""0"",""0""
""focus"",""0"",""0""
""focus"",""0"",""0""
""focus"",""0"",""0""
""focus"",""2"",""31491""
","""event"",""trial"",""time""
""fullscreenenter"",""0"",""3490""
","""event"",""trial"",""time""
""fullscreenexit"",""2"",""4723""
","null","run_exp/static/images/Set 6_rs/181a.jpg","null","","","","","","learn","SL",""
"","html-keyboard-response","21","55355","0.0-21.0","""event"",""trial"",""time""
""focus"",""0"",""0""
""blur"",""0"",""0""
""focus"",""0"",""0""
""blur"",""0"",""0""
""focus"",""0"",""0""
""blur"",""0"",""0""
""focus"",""0"",""0""
""fullscreenenter"",""0"",""3490""
""fullscreenexit"",""2"",""4723""
""blur"",""2"",""29394""
""focus"",""2"",""31491""
","""event"",""trial"",""time""
""blur"",""0"",""0""
""blur"",""0"",""0""
""blur"",""0"",""0""
""blur"",""2"",""29394""
","""event"",""trial"",""time""
""focus"",""0"",""0""
""focus"",""0"",""0""
""focus"",""0"",""0""
""focus"",""0"",""0""
""focus"",""2"",""31491""
","""event"",""trial"",""time""
""fullscreenenter"",""0"",""3490""
","""event"",""trial"",""time""
""fullscreenexit"",""2"",""4723""
","null","<p></p>","null","","","","","","","",""
"","image","22","56849","0.0-22.0","""event"",""trial"",""time""
""focus"",""0"",""0""
""blur"",""0"",""0""
""focus"",""0"",""0""
""blur"",""0"",""0""
""focus"",""0"",""0""
""blur"",""0"",""0""
""focus"",""0"",""0""
""fullscreenenter"",""0"",""3490""
""fullscreenexit"",""2"",""4723""
""blur"",""2"",""29394""
""focus"",""2"",""31491""
","""event"",""trial"",""time""
""blur"",""0"",""0""
""blur"",""0"",""0""
""blur"",""0"",""0""
""blur"",""2"",""29394""
","""event"",""trial"",""time""
""focus"",""0"",""0""
""focus"",""0"",""0""
""focus"",""0"",""0""
""focus"",""0"",""0""
""focus"",""2"",""31491""
","""event"",""trial"",""time""
""fullscreenenter"",""0"",""3490""
","""event"",""trial"",""time""
""fullscreenexit"",""2"",""4723""
","1492","run_exp/static/images/Set 6_rs/064a.jpg","86","","","","","","learn","SR",""
"","show_choice","23","57357","0.0-23.0","""event"",""trial"",""time""
""focus"",""0"",""0""
""blur"",""0"",""0""
""focus"",""0"",""0""
""blur"",""0"",""0""
""focus"",""0"",""0""
""blur"",""0"",""0""
""focus"",""0"",""0""
""fullscreenenter"",""0"",""3490""
""fullscreenexit"",""2"",""4723""
""blur"",""2"",""29394""
""focus"",""2"",""31491""
","""event"",""trial"",""time""
""blur"",""0"",""0""
""blur"",""0"",""0""
""blur"",""0"",""0""
""blur"",""2"",""29394""
","""event"",""trial"",""time""
""focus"",""0"",""0""
""focus"",""0"",""0""
""focus"",""0"",""0""
""focus"",""0"",""0""
""focus"",""2"",""31491""
","""event"",""trial"",""time""
""fullscreenenter"",""0"",""3490""
","""event"",""trial"",""time""
""fullscreenexit"",""2"",""4723""
","null","run_exp/static/images/Set 6_rs/064a.jpg","null","","","","","","learn","SR",""
"","html-keyboard-response","24","57858","0.0-24.0","""event"",""trial"",""time""
""focus"",""0"",""0""
""blur"",""0"",""0""
""focus"",""0"",""0""
""blur"",""0"",""0""
""focus"",""0"",""0""
""blur"",""0"",""0""
""focus"",""0"",""0""
""fullscreenenter"",""0"",""3490""
""fullscreenexit"",""2"",""4723""
""blur"",""2"",""29394""
""focus"",""2"",""31491""
","""event"",""trial"",""time""
""blur"",""0"",""0""
""blur"",""0"",""0""
""blur"",""0"",""0""
""blur"",""2"",""29394""
","""event"",""trial"",""time""
""focus"",""0"",""0""
""focus"",""0"",""0""
""focus"",""0"",""0""
""focus"",""0"",""0""
""focus"",""2"",""31491""
","""event"",""trial"",""time""
""fullscreenenter"",""0"",""3490""
","""event"",""trial"",""time""
""fullscreenexit"",""2"",""4723""
","null","<p></p>","null","","","","","","","",""
"","image","25","58641","0.0-25.0","""event"",""trial"",""time""
""focus"",""0"",""0""
""blur"",""0"",""0""
""focus"",""0"",""0""
""blur"",""0"",""0""
""focus"",""0"",""0""
""blur"",""0"",""0""
""focus"",""0"",""0""
""fullscreenenter"",""0"",""3490""
""fullscreenexit"",""2"",""4723""
""blur"",""2"",""29394""
""focus"",""2"",""31491""
","""event"",""trial"",""time""
""blur"",""0"",""0""
""blur"",""0"",""0""
""blur"",""0"",""0""
""blur"",""2"",""29394""
","""event"",""trial"",""time""
""focus"",""0"",""0""
""focus"",""0"",""0""
""focus"",""0"",""0""
""focus"",""0"",""0""
""focus"",""2"",""31491""
","""event"",""trial"",""time""
""fullscreenenter"",""0"",""3490""
","""event"",""trial"",""time""
""fullscreenexit"",""2"",""4723""
","781","run_exp/static/images/Set 6_rs/036a.jpg","86","","","","","","learn","SL",""
"","show_choice","26","59862","0.0-26.0","""event"",""trial"",""time""
""focus"",""0"",""0""
""blur"",""0"",""0""
""focus"",""0"",""0""
""blur"",""0"",""0""
""focus"",""0"",""0""
""blur"",""0"",""0""
""focus"",""0"",""0""
""fullscreenenter"",""0"",""3490""
""fullscreenexit"",""2"",""4723""
""blur"",""2"",""29394""
""focus"",""2"",""31491""
","""event"",""trial"",""time""
""blur"",""0"",""0""
""blur"",""0"",""0""
""blur"",""0"",""0""
""blur"",""2"",""29394""
","""event"",""trial"",""time""
""focus"",""0"",""0""
""focus"",""0"",""0""
""focus"",""0"",""0""
""focus"",""0"",""0""
""focus"",""2"",""31491""
","""event"",""trial"",""time""
""fullscreenenter"",""0"",""3490""
","""event"",""trial"",""time""
""fullscreenexit"",""2"",""4723""
","null","run_exp/static/images/Set 6_rs/036a.jpg","null","","","","","","learn","SL",""
"","html-keyboard-response","27","60363","0.0-27.0","""event"",""trial"",""time""
""focus"",""0"",""0""
""blur"",""0"",""0""
""focus"",""0"",""0""
""blur"",""0"",""0""
""focus"",""0"",""0""
""blur"",""0"",""0""
""focus"",""0"",""0""
""fullscreenenter"",""0"",""3490""
""fullscreenexit"",""2"",""4723""
""blur"",""2"",""29394""
""focus"",""2"",""31491""
","""event"",""trial"",""time""
""blur"",""0"",""0""
""blur"",""0"",""0""
""blur"",""0"",""0""
""blur"",""2"",""29394""
","""event"",""trial"",""time""
""focus"",""0"",""0""
""focus"",""0"",""0""
""focus"",""0"",""0""
""focus"",""0"",""0""
""focus"",""2"",""31491""
","""event"",""trial"",""time""
""fullscreenenter"",""0"",""3490""
","""event"",""trial"",""time""
""fullscreenexit"",""2"",""4723""
","null","<p></p>","null","","","","","","","",""
"","image","28","61296","0.0-28.0","""event"",""trial"",""time""
""focus"",""0"",""0""
""blur"",""0"",""0""
""focus"",""0"",""0""
""blur"",""0"",""0""
""focus"",""0"",""0""
""blur"",""0"",""0""
""focus"",""0"",""0""
""fullscreenenter"",""0"",""3490""
""fullscreenexit"",""2"",""4723""
""blur"",""2"",""29394""
""focus"",""2"",""31491""
","""event"",""trial"",""time""
""blur"",""0"",""0""
""blur"",""0"",""0""
""blur"",""0"",""0""
""blur"",""2"",""29394""
","""event"",""trial"",""time""
""focus"",""0"",""0""
""focus"",""0"",""0""
""focus"",""0"",""0""
""focus"",""0"",""0""
""focus"",""2"",""31491""
","""event"",""trial"",""time""
""fullscreenenter"",""0"",""3490""
","""event"",""trial"",""time""
""fullscreenexit"",""2"",""4723""
","932","run_exp/static/images/Set 6_rs/144a.jpg","86","","","","","","learn","SL",""
"","show_choice","29","62367","0.0-29.0","""event"",""trial"",""time""
""focus"",""0"",""0""
""blur"",""0"",""0""
""focus"",""0"",""0""
""blur"",""0"",""0""
""focus"",""0"",""0""
""blur"",""0"",""0""
""focus"",""0"",""0""
""fullscreenenter"",""0"",""3490""
""fullscreenexit"",""2"",""4723""
""blur"",""2"",""29394""
""focus"",""2"",""31491""
","""event"",""trial"",""time""
""blur"",""0"",""0""
""blur"",""0"",""0""
""blur"",""0"",""0""
""blur"",""2"",""29394""
","""event"",""trial"",""time""
""focus"",""0"",""0""
""focus"",""0"",""0""
""focus"",""0"",""0""
""focus"",""0"",""0""
""focus"",""2"",""31491""
","""event"",""trial"",""time""
""fullscreenenter"",""0"",""3490""
","""event"",""trial"",""time""
""fullscreenexit"",""2"",""4723""
","null","run_exp/static/images/Set 6_rs/144a.jpg","null","","","","","","learn","SL",""
"","html-keyboard-response","30","62868","0.0-30.0","""event"",""trial"",""time""
""focus"",""0"",""0""
""blur"",""0"",""0""
""focus"",""0"",""0""
""blur"",""0"",""0""
""focus"",""0"",""0""
""blur"",""0"",""0""
""focus"",""0"",""0""
""fullscreenenter"",""0"",""3490""
""fullscreenexit"",""2"",""4723""
""blur"",""2"",""29394""
""focus"",""2"",""31491""
","""event"",""trial"",""time""
""blur"",""0"",""0""
""blur"",""0"",""0""
""blur"",""0"",""0""
""blur"",""2"",""29394""
","""event"",""trial"",""time""
""focus"",""0"",""0""
""focus"",""0"",""0""
""focus"",""0"",""0""
""focus"",""0"",""0""
""focus"",""2"",""31491""
","""event"",""trial"",""time""
""fullscreenenter"",""0"",""3490""
","""event"",""trial"",""time""
""fullscreenexit"",""2"",""4723""
","null","<p></p>","null","","","","","","","",""
"","image","31","63521","0.0-31.0","""event"",""trial"",""time""
""focus"",""0"",""0""
""blur"",""0"",""0""
""focus"",""0"",""0""
""blur"",""0"",""0""
""focus"",""0"",""0""
""blur"",""0"",""0""
""focus"",""0"",""0""
""fullscreenenter"",""0"",""3490""
""fullscreenexit"",""2"",""4723""
""blur"",""2"",""29394""
""focus"",""2"",""31491""
","""event"",""trial"",""time""
""blur"",""0"",""0""
""blur"",""0"",""0""
""blur"",""0"",""0""
""blur"",""2"",""29394""
","""event"",""trial"",""time""
""focus"",""0"",""0""
""focus"",""0"",""0""
""focus"",""0"",""0""
""focus"",""0"",""0""
""focus"",""2"",""31491""
","""event"",""trial"",""time""
""fullscreenenter"",""0"",""3490""
","""event"",""trial"",""time""
""fullscreenexit"",""2"",""4723""
","651","run_exp/static/images/Set 6_rs/187a.jpg","86","","","","","","learn","SR",""
"","show_choice","32","64871","0.0-32.0","""event"",""trial"",""time""
""focus"",""0"",""0""
""blur"",""0"",""0""
""focus"",""0"",""0""
""blur"",""0"",""0""
""focus"",""0"",""0""
""blur"",""0"",""0""
""focus"",""0"",""0""
""fullscreenenter"",""0"",""3490""
""fullscreenexit"",""2"",""4723""
""blur"",""2"",""29394""
""focus"",""2"",""31491""
","""event"",""trial"",""time""
""blur"",""0"",""0""
""blur"",""0"",""0""
""blur"",""0"",""0""
""blur"",""2"",""29394""
","""event"",""trial"",""time""
""focus"",""0"",""0""
""focus"",""0"",""0""
""focus"",""0"",""0""
""focus"",""0"",""0""
""focus"",""2"",""31491""
","""event"",""trial"",""time""
""fullscreenenter"",""0"",""3490""
","""event"",""trial"",""time""
""fullscreenexit"",""2"",""4723""
","null","run_exp/static/images/Set 6_rs/187a.jpg","null","","","","","","learn","SR",""
"","html-keyboard-response","33","65371","0.0-33.0","""event"",""trial"",""time""
""focus"",""0"",""0""
""blur"",""0"",""0""
""focus"",""0"",""0""
""blur"",""0"",""0""
""focus"",""0"",""0""
""blur"",""0"",""0""
""focus"",""0"",""0""
""fullscreenenter"",""0"",""3490""
""fullscreenexit"",""2"",""4723""
""blur"",""2"",""29394""
""focus"",""2"",""31491""
","""event"",""trial"",""time""
""blur"",""0"",""0""
""blur"",""0"",""0""
""blur"",""0"",""0""
""blur"",""2"",""29394""
","""event"",""trial"",""time""
""focus"",""0"",""0""
""focus"",""0"",""0""
""focus"",""0"",""0""
""focus"",""0"",""0""
""focus"",""2"",""31491""
","""event"",""trial"",""time""
""fullscreenenter"",""0"",""3490""
","""event"",""trial"",""time""
""fullscreenexit"",""2"",""4723""
","null","<p></p>","null","","","","","","","",""
"","image","34","66512","0.0-34.0","""event"",""trial"",""time""
""focus"",""0"",""0""
""blur"",""0"",""0""
""focus"",""0"",""0""
""blur"",""0"",""0""
""focus"",""0"",""0""
""blur"",""0"",""0""
""focus"",""0"",""0""
""fullscreenenter"",""0"",""3490""
""fullscreenexit"",""2"",""4723""
""blur"",""2"",""29394""
""focus"",""2"",""31491""
","""event"",""trial"",""time""
""blur"",""0"",""0""
""blur"",""0"",""0""
""blur"",""0"",""0""
""blur"",""2"",""29394""
","""event"",""trial"",""time""
""focus"",""0"",""0""
""focus"",""0"",""0""
""focus"",""0"",""0""
""focus"",""0"",""0""
""focus"",""2"",""31491""
","""event"",""trial"",""time""
""fullscreenenter"",""0"",""3490""
","""event"",""trial"",""time""
""fullscreenexit"",""2"",""4723""
","1139","run_exp/static/images/Set 6_rs/150a.jpg","86","","","","","","learn","SR",""
"","show_choice","35","67375","0.0-35.0","""event"",""trial"",""time""
""focus"",""0"",""0""
""blur"",""0"",""0""
""focus"",""0"",""0""
""blur"",""0"",""0""
""focus"",""0"",""0""
""blur"",""0"",""0""
""focus"",""0"",""0""
""fullscreenenter"",""0"",""3490""
""fullscreenexit"",""2"",""4723""
""blur"",""2"",""29394""
""focus"",""2"",""31491""
","""event"",""trial"",""time""
""blur"",""0"",""0""
""blur"",""0"",""0""
""blur"",""0"",""0""
""blur"",""2"",""29394""
","""event"",""trial"",""time""
""focus"",""0"",""0""
""focus"",""0"",""0""
""focus"",""0"",""0""
""focus"",""0"",""0""
""focus"",""2"",""31491""
","""event"",""trial"",""time""
""fullscreenenter"",""0"",""3490""
","""event"",""trial"",""time""
""fullscreenexit"",""2"",""4723""
","null","run_exp/static/images/Set 6_rs/150a.jpg","null","","","","","","learn","SR",""
"","html-keyboard-response","36","67876","0.0-36.0","""event"",""trial"",""time""
""focus"",""0"",""0""
""blur"",""0"",""0""
""focus"",""0"",""0""
""blur"",""0"",""0""
""focus"",""0"",""0""
""blur"",""0"",""0""
""focus"",""0"",""0""
""fullscreenenter"",""0"",""3490""
""fullscreenexit"",""2"",""4723""
""blur"",""2"",""29394""
""focus"",""2"",""31491""
","""event"",""trial"",""time""
""blur"",""0"",""0""
""blur"",""0"",""0""
""blur"",""0"",""0""
""blur"",""2"",""29394""
","""event"",""trial"",""time""
""focus"",""0"",""0""
""focus"",""0"",""0""
""focus"",""0"",""0""
""focus"",""0"",""0""
""focus"",""2"",""31491""
","""event"",""trial"",""time""
""fullscreenenter"",""0"",""3490""
","""event"",""trial"",""time""
""fullscreenexit"",""2"",""4723""
","null","<p></p>","null","","","","","","","",""
"","image","37","68705","0.0-37.0","""event"",""trial"",""time""
""focus"",""0"",""0""
""blur"",""0"",""0""
""focus"",""0"",""0""
""blur"",""0"",""0""
""focus"",""0"",""0""
""blur"",""0"",""0""
""focus"",""0"",""0""
""fullscreenenter"",""0"",""3490""
""fullscreenexit"",""2"",""4723""
""blur"",""2"",""29394""
""focus"",""2"",""31491""
","""event"",""trial"",""time""
""blur"",""0"",""0""
""blur"",""0"",""0""
""blur"",""0"",""0""
""blur"",""2"",""29394""
","""event"",""trial"",""time""
""focus"",""0"",""0""
""focus"",""0"",""0""
""focus"",""0"",""0""
""focus"",""0"",""0""
""focus"",""2"",""31491""
","""event"",""trial"",""time""
""fullscreenenter"",""0"",""3490""
","""event"",""trial"",""time""
""fullscreenexit"",""2"",""4723""
","828","run_exp/static/images/Set 6_rs/122a.jpg","86","","","","","","learn","SR",""
"","show_choice","38","69879","0.0-38.0","""event"",""trial"",""time""
""focus"",""0"",""0""
""blur"",""0"",""0""
""focus"",""0"",""0""
""blur"",""0"",""0""
""focus"",""0"",""0""
""blur"",""0"",""0""
""focus"",""0"",""0""
""fullscreenenter"",""0"",""3490""
""fullscreenexit"",""2"",""4723""
""blur"",""2"",""29394""
""focus"",""2"",""31491""
","""event"",""trial"",""time""
""blur"",""0"",""0""
""blur"",""0"",""0""
""blur"",""0"",""0""
""blur"",""2"",""29394""
","""event"",""trial"",""time""
""focus"",""0"",""0""
""focus"",""0"",""0""
""focus"",""0"",""0""
""focus"",""0"",""0""
""focus"",""2"",""31491""
","""event"",""trial"",""time""
""fullscreenenter"",""0"",""3490""
","""event"",""trial"",""time""
""fullscreenexit"",""2"",""4723""
","null","run_exp/static/images/Set 6_rs/122a.jpg","null","","","","","","learn","SR",""
"","html-keyboard-response","39","70379","0.0-39.0","""event"",""trial"",""time""
""focus"",""0"",""0""
""blur"",""0"",""0""
""focus"",""0"",""0""
""blur"",""0"",""0""
""focus"",""0"",""0""
""blur"",""0"",""0""
""focus"",""0"",""0""
""fullscreenenter"",""0"",""3490""
""fullscreenexit"",""2"",""4723""
""blur"",""2"",""29394""
""focus"",""2"",""31491""
","""event"",""trial"",""time""
""blur"",""0"",""0""
""blur"",""0"",""0""
""blur"",""0"",""0""
""blur"",""2"",""29394""
","""event"",""trial"",""time""
""focus"",""0"",""0""
""focus"",""0"",""0""
""focus"",""0"",""0""
""focus"",""0"",""0""
""focus"",""2"",""31491""
","""event"",""trial"",""time""
""fullscreenenter"",""0"",""3490""
","""event"",""trial"",""time""
""fullscreenexit"",""2"",""4723""
","null","<p></p>","null","","","","","","","",""
"","image","40","71248","0.0-40.0","""event"",""trial"",""time""
""focus"",""0"",""0""
""blur"",""0"",""0""
""focus"",""0"",""0""
""blur"",""0"",""0""
""focus"",""0"",""0""
""blur"",""0"",""0""
""focus"",""0"",""0""
""fullscreenenter"",""0"",""3490""
""fullscreenexit"",""2"",""4723""
""blur"",""2"",""29394""
""focus"",""2"",""31491""
","""event"",""trial"",""time""
""blur"",""0"",""0""
""blur"",""0"",""0""
""blur"",""0"",""0""
""blur"",""2"",""29394""
","""event"",""trial"",""time""
""focus"",""0"",""0""
""focus"",""0"",""0""
""focus"",""0"",""0""
""focus"",""0"",""0""
""focus"",""2"",""31491""
","""event"",""trial"",""time""
""fullscreenenter"",""0"",""3490""
","""event"",""trial"",""time""
""fullscreenexit"",""2"",""4723""
","868","run_exp/static/images/Set 6_rs/025a.jpg","78","","","","","","learn","SL",""
"","show_choice","41","72380","0.0-41.0","""event"",""trial"",""time""
""focus"",""0"",""0""
""blur"",""0"",""0""
""focus"",""0"",""0""
""blur"",""0"",""0""
""focus"",""0"",""0""
""blur"",""0"",""0""
""focus"",""0"",""0""
""fullscreenenter"",""0"",""3490""
""fullscreenexit"",""2"",""4723""
""blur"",""2"",""29394""
""focus"",""2"",""31491""
","""event"",""trial"",""time""
""blur"",""0"",""0""
""blur"",""0"",""0""
""blur"",""0"",""0""
""blur"",""2"",""29394""
","""event"",""trial"",""time""
""focus"",""0"",""0""
""focus"",""0"",""0""
""focus"",""0"",""0""
""focus"",""0"",""0""
""focus"",""2"",""31491""
","""event"",""trial"",""time""
""fullscreenenter"",""0"",""3490""
","""event"",""trial"",""time""
""fullscreenexit"",""2"",""4723""
","null","run_exp/static/images/Set 6_rs/025a.jpg","null","","","","","","learn","SL",""
"","html-keyboard-response","42","72882","0.0-42.0","""event"",""trial"",""time""
""focus"",""0"",""0""
""blur"",""0"",""0""
""focus"",""0"",""0""
""blur"",""0"",""0""
""focus"",""0"",""0""
""blur"",""0"",""0""
""focus"",""0"",""0""
""fullscreenenter"",""0"",""3490""
""fullscreenexit"",""2"",""4723""
""blur"",""2"",""29394""
""focus"",""2"",""31491""
","""event"",""trial"",""time""
""blur"",""0"",""0""
""blur"",""0"",""0""
""blur"",""0"",""0""
""blur"",""2"",""29394""
","""event"",""trial"",""time""
""focus"",""0"",""0""
""focus"",""0"",""0""
""focus"",""0"",""0""
""focus"",""0"",""0""
""focus"",""2"",""31491""
","""event"",""trial"",""time""
""fullscreenenter"",""0"",""3490""
","""event"",""trial"",""time""
""fullscreenexit"",""2"",""4723""
","null","<p></p>","null","","","","","","","",""
"","image","43","73568","0.0-43.0","""event"",""trial"",""time""
""focus"",""0"",""0""
""blur"",""0"",""0""
""focus"",""0"",""0""
""blur"",""0"",""0""
""focus"",""0"",""0""
""blur"",""0"",""0""
""focus"",""0"",""0""
""fullscreenenter"",""0"",""3490""
""fullscreenexit"",""2"",""4723""
""blur"",""2"",""29394""
""focus"",""2"",""31491""
","""event"",""trial"",""time""
""blur"",""0"",""0""
""blur"",""0"",""0""
""blur"",""0"",""0""
""blur"",""2"",""29394""
","""event"",""trial"",""time""
""focus"",""0"",""0""
""focus"",""0"",""0""
""focus"",""0"",""0""
""focus"",""0"",""0""
""focus"",""2"",""31491""
","""event"",""trial"",""time""
""fullscreenenter"",""0"",""3490""
","""event"",""trial"",""time""
""fullscreenexit"",""2"",""4723""
","685","run_exp/static/images/Set 6_rs/079a.jpg","86","","","","","","learn","SL",""
"","show_choice","44","74884","0.0-44.0","""event"",""trial"",""time""
""focus"",""0"",""0""
""blur"",""0"",""0""
""focus"",""0"",""0""
""blur"",""0"",""0""
""focus"",""0"",""0""
""blur"",""0"",""0""
""focus"",""0"",""0""
""fullscreenenter"",""0"",""3490""
""fullscreenexit"",""2"",""4723""
""blur"",""2"",""29394""
""focus"",""2"",""31491""
","""event"",""trial"",""time""
""blur"",""0"",""0""
""blur"",""0"",""0""
""blur"",""0"",""0""
""blur"",""2"",""29394""
","""event"",""trial"",""time""
""focus"",""0"",""0""
""focus"",""0"",""0""
""focus"",""0"",""0""
""focus"",""0"",""0""
""focus"",""2"",""31491""
","""event"",""trial"",""time""
""fullscreenenter"",""0"",""3490""
","""event"",""trial"",""time""
""fullscreenexit"",""2"",""4723""
","null","run_exp/static/images/Set 6_rs/079a.jpg","null","","","","","","learn","SL",""
"","html-keyboard-response","45","75386","0.0-45.0","""event"",""trial"",""time""
""focus"",""0"",""0""
""blur"",""0"",""0""
""focus"",""0"",""0""
""blur"",""0"",""0""
""focus"",""0"",""0""
""blur"",""0"",""0""
""focus"",""0"",""0""
""fullscreenenter"",""0"",""3490""
""fullscreenexit"",""2"",""4723""
""blur"",""2"",""29394""
""focus"",""2"",""31491""
","""event"",""trial"",""time""
""blur"",""0"",""0""
""blur"",""0"",""0""
""blur"",""0"",""0""
""blur"",""2"",""29394""
","""event"",""trial"",""time""
""focus"",""0"",""0""
""focus"",""0"",""0""
""focus"",""0"",""0""
""focus"",""0"",""0""
""focus"",""2"",""31491""
","""event"",""trial"",""time""
""fullscreenenter"",""0"",""3490""
","""event"",""trial"",""time""
""fullscreenexit"",""2"",""4723""
","null","<p></p>","null","","","","","","","",""
"","image","46","76128","0.0-46.0","""event"",""trial"",""time""
""focus"",""0"",""0""
""blur"",""0"",""0""
""focus"",""0"",""0""
""blur"",""0"",""0""
""focus"",""0"",""0""
""blur"",""0"",""0""
""focus"",""0"",""0""
""fullscreenenter"",""0"",""3490""
""fullscreenexit"",""2"",""4723""
""blur"",""2"",""29394""
""focus"",""2"",""31491""
","""event"",""trial"",""time""
""blur"",""0"",""0""
""blur"",""0"",""0""
""blur"",""0"",""0""
""blur"",""2"",""29394""
","""event"",""trial"",""time""
""focus"",""0"",""0""
""focus"",""0"",""0""
""focus"",""0"",""0""
""focus"",""0"",""0""
""focus"",""2"",""31491""
","""event"",""trial"",""time""
""fullscreenenter"",""0"",""3490""
","""event"",""trial"",""time""
""fullscreenexit"",""2"",""4723""
","740","run_exp/static/images/Set 6_rs/073a.jpg","86","","","","","","learn","SL",""
"","show_choice","47","77389","0.0-47.0","""event"",""trial"",""time""
""focus"",""0"",""0""
""blur"",""0"",""0""
""focus"",""0"",""0""
""blur"",""0"",""0""
""focus"",""0"",""0""
""blur"",""0"",""0""
""focus"",""0"",""0""
""fullscreenenter"",""0"",""3490""
""fullscreenexit"",""2"",""4723""
""blur"",""2"",""29394""
""focus"",""2"",""31491""
","""event"",""trial"",""time""
""blur"",""0"",""0""
""blur"",""0"",""0""
""blur"",""0"",""0""
""blur"",""2"",""29394""
","""event"",""trial"",""time""
""focus"",""0"",""0""
""focus"",""0"",""0""
""focus"",""0"",""0""
""focus"",""0"",""0""
""focus"",""2"",""31491""
","""event"",""trial"",""time""
""fullscreenenter"",""0"",""3490""
","""event"",""trial"",""time""
""fullscreenexit"",""2"",""4723""
","null","run_exp/static/images/Set 6_rs/073a.jpg","null","","","","","","learn","SL",""
"","html-keyboard-response","48","77889","0.0-48.0","""event"",""trial"",""time""
""focus"",""0"",""0""
""blur"",""0"",""0""
""focus"",""0"",""0""
""blur"",""0"",""0""
""focus"",""0"",""0""
""blur"",""0"",""0""
""focus"",""0"",""0""
""fullscreenenter"",""0"",""3490""
""fullscreenexit"",""2"",""4723""
""blur"",""2"",""29394""
""focus"",""2"",""31491""
","""event"",""trial"",""time""
""blur"",""0"",""0""
""blur"",""0"",""0""
""blur"",""0"",""0""
""blur"",""2"",""29394""
","""event"",""trial"",""time""
""focus"",""0"",""0""
""focus"",""0"",""0""
""focus"",""0"",""0""
""focus"",""0"",""0""
""focus"",""2"",""31491""
","""event"",""trial"",""time""
""fullscreenenter"",""0"",""3490""
","""event"",""trial"",""time""
""fullscreenexit"",""2"",""4723""
","null","<p></p>","null","","","","","","","",""
"","image","49","78832","0.0-49.0","""event"",""trial"",""time""
""focus"",""0"",""0""
""blur"",""0"",""0""
""focus"",""0"",""0""
""blur"",""0"",""0""
""focus"",""0"",""0""
""blur"",""0"",""0""
""focus"",""0"",""0""
""fullscreenenter"",""0"",""3490""
""fullscreenexit"",""2"",""4723""
""blur"",""2"",""29394""
""focus"",""2"",""31491""
","""event"",""trial"",""time""
""blur"",""0"",""0""
""blur"",""0"",""0""
""blur"",""0"",""0""
""blur"",""2"",""29394""
","""event"",""trial"",""time""
""focus"",""0"",""0""
""focus"",""0"",""0""
""focus"",""0"",""0""
""focus"",""0"",""0""
""focus"",""2"",""31491""
","""event"",""trial"",""time""
""fullscreenenter"",""0"",""3490""
","""event"",""trial"",""time""
""fullscreenexit"",""2"",""4723""
","941","run_exp/static/images/Set 6_rs/076a.jpg","78","","","","","","learn","SR",""
"","show_choice","50","79893","0.0-50.0","""event"",""trial"",""time""
""focus"",""0"",""0""
""blur"",""0"",""0""
""focus"",""0"",""0""
""blur"",""0"",""0""
""focus"",""0"",""0""
""blur"",""0"",""0""
""focus"",""0"",""0""
""fullscreenenter"",""0"",""3490""
""fullscreenexit"",""2"",""4723""
""blur"",""2"",""29394""
""focus"",""2"",""31491""
","""event"",""trial"",""time""
""blur"",""0"",""0""
""blur"",""0"",""0""
""blur"",""0"",""0""
""blur"",""2"",""29394""
","""event"",""trial"",""time""
""focus"",""0"",""0""
""focus"",""0"",""0""
""focus"",""0"",""0""
""focus"",""0"",""0""
""focus"",""2"",""31491""
","""event"",""trial"",""time""
""fullscreenenter"",""0"",""3490""
","""event"",""trial"",""time""
""fullscreenexit"",""2"",""4723""
","null","run_exp/static/images/Set 6_rs/076a.jpg","null","","","","","","learn","SR",""
"","html-keyboard-response","51","80394","0.0-51.0","""event"",""trial"",""time""
""focus"",""0"",""0""
""blur"",""0"",""0""
""focus"",""0"",""0""
""blur"",""0"",""0""
""focus"",""0"",""0""
""blur"",""0"",""0""
""focus"",""0"",""0""
""fullscreenenter"",""0"",""3490""
""fullscreenexit"",""2"",""4723""
""blur"",""2"",""29394""
""focus"",""2"",""31491""
","""event"",""trial"",""time""
""blur"",""0"",""0""
""blur"",""0"",""0""
""blur"",""0"",""0""
""blur"",""2"",""29394""
","""event"",""trial"",""time""
""focus"",""0"",""0""
""focus"",""0"",""0""
""focus"",""0"",""0""
""focus"",""0"",""0""
""focus"",""2"",""31491""
","""event"",""trial"",""time""
""fullscreenenter"",""0"",""3490""
","""event"",""trial"",""time""
""fullscreenexit"",""2"",""4723""
","null","<p></p>","null","","","","","","","",""
"","image","52","81376","0.0-52.0","""event"",""trial"",""time""
""focus"",""0"",""0""
""blur"",""0"",""0""
""focus"",""0"",""0""
""blur"",""0"",""0""
""focus"",""0"",""0""
""blur"",""0"",""0""
""focus"",""0"",""0""
""fullscreenenter"",""0"",""3490""
""fullscreenexit"",""2"",""4723""
""blur"",""2"",""29394""
""focus"",""2"",""31491""
","""event"",""trial"",""time""
""blur"",""0"",""0""
""blur"",""0"",""0""
""blur"",""0"",""0""
""blur"",""2"",""29394""
","""event"",""trial"",""time""
""focus"",""0"",""0""
""focus"",""0"",""0""
""focus"",""0"",""0""
""focus"",""0"",""0""
""focus"",""2"",""31491""
","""event"",""trial"",""time""
""fullscreenenter"",""0"",""3490""
","""event"",""trial"",""time""
""fullscreenexit"",""2"",""4723""
","980","run_exp/static/images/Set 6_rs/017a.jpg","86","","","","","","learn","SL",""
"","show_choice","53","82397","0.0-53.0","""event"",""trial"",""time""
""focus"",""0"",""0""
""blur"",""0"",""0""
""focus"",""0"",""0""
""blur"",""0"",""0""
""focus"",""0"",""0""
""blur"",""0"",""0""
""focus"",""0"",""0""
""fullscreenenter"",""0"",""3490""
""fullscreenexit"",""2"",""4723""
""blur"",""2"",""29394""
""focus"",""2"",""31491""
","""event"",""trial"",""time""
""blur"",""0"",""0""
""blur"",""0"",""0""
""blur"",""0"",""0""
""blur"",""2"",""29394""
","""event"",""trial"",""time""
""focus"",""0"",""0""
""focus"",""0"",""0""
""focus"",""0"",""0""
""focus"",""0"",""0""
""focus"",""2"",""31491""
","""event"",""trial"",""time""
""fullscreenenter"",""0"",""3490""
","""event"",""trial"",""time""
""fullscreenexit"",""2"",""4723""
","null","run_exp/static/images/Set 6_rs/017a.jpg","null","","","","","","learn","SL",""
"","html-keyboard-response","54","82898","0.0-54.0","""event"",""trial"",""time""
""focus"",""0"",""0""
""blur"",""0"",""0""
""focus"",""0"",""0""
""blur"",""0"",""0""
""focus"",""0"",""0""
""blur"",""0"",""0""
""focus"",""0"",""0""
""fullscreenenter"",""0"",""3490""
""fullscreenexit"",""2"",""4723""
""blur"",""2"",""29394""
""focus"",""2"",""31491""
","""event"",""trial"",""time""
""blur"",""0"",""0""
""blur"",""0"",""0""
""blur"",""0"",""0""
""blur"",""2"",""29394""
","""event"",""trial"",""time""
""focus"",""0"",""0""
""focus"",""0"",""0""
""focus"",""0"",""0""
""focus"",""0"",""0""
""focus"",""2"",""31491""
","""event"",""trial"",""time""
""fullscreenenter"",""0"",""3490""
","""event"",""trial"",""time""
""fullscreenexit"",""2"",""4723""
","null","<p></p>","null","","","","","","","",""
"","image","55","83568","0.0-55.0","""event"",""trial"",""time""
""focus"",""0"",""0""
""blur"",""0"",""0""
""focus"",""0"",""0""
""blur"",""0"",""0""
""focus"",""0"",""0""
""blur"",""0"",""0""
""focus"",""0"",""0""
""fullscreenenter"",""0"",""3490""
""fullscreenexit"",""2"",""4723""
""blur"",""2"",""29394""
""focus"",""2"",""31491""
","""event"",""trial"",""time""
""blur"",""0"",""0""
""blur"",""0"",""0""
""blur"",""0"",""0""
""blur"",""2"",""29394""
","""event"",""trial"",""time""
""focus"",""0"",""0""
""focus"",""0"",""0""
""focus"",""0"",""0""
""focus"",""0"",""0""
""focus"",""2"",""31491""
","""event"",""trial"",""time""
""fullscreenenter"",""0"",""3490""
","""event"",""trial"",""time""
""fullscreenexit"",""2"",""4723""
","670","run_exp/static/images/Set 6_rs/186a.jpg","86","","","","","","learn","SR",""
"","show_choice","56","84899","0.0-56.0","""event"",""trial"",""time""
""focus"",""0"",""0""
""blur"",""0"",""0""
""focus"",""0"",""0""
""blur"",""0"",""0""
""focus"",""0"",""0""
""blur"",""0"",""0""
""focus"",""0"",""0""
""fullscreenenter"",""0"",""3490""
""fullscreenexit"",""2"",""4723""
""blur"",""2"",""29394""
""focus"",""2"",""31491""
","""event"",""trial"",""time""
""blur"",""0"",""0""
""blur"",""0"",""0""
""blur"",""0"",""0""
""blur"",""2"",""29394""
","""event"",""trial"",""time""
""focus"",""0"",""0""
""focus"",""0"",""0""
""focus"",""0"",""0""
""focus"",""0"",""0""
""focus"",""2"",""31491""
","""event"",""trial"",""time""
""fullscreenenter"",""0"",""3490""
","""event"",""trial"",""time""
""fullscreenexit"",""2"",""4723""
","null","run_exp/static/images/Set 6_rs/186a.jpg","null","","","","","","learn","SR",""
"","html-keyboard-response","57","85400","0.0-57.0","""event"",""trial"",""time""
""focus"",""0"",""0""
""blur"",""0"",""0""
""focus"",""0"",""0""
""blur"",""0"",""0""
""focus"",""0"",""0""
""blur"",""0"",""0""
""focus"",""0"",""0""
""fullscreenenter"",""0"",""3490""
""fullscreenexit"",""2"",""4723""
""blur"",""2"",""29394""
""focus"",""2"",""31491""
","""event"",""trial"",""time""
""blur"",""0"",""0""
""blur"",""0"",""0""
""blur"",""0"",""0""
""blur"",""2"",""29394""
","""event"",""trial"",""time""
""focus"",""0"",""0""
""focus"",""0"",""0""
""focus"",""0"",""0""
""focus"",""0"",""0""
""focus"",""2"",""31491""
","""event"",""trial"",""time""
""fullscreenenter"",""0"",""3490""
","""event"",""trial"",""time""
""fullscreenexit"",""2"",""4723""
","null","<p></p>","null","","","","","","","",""
"","image","58","86256","0.0-58.0","""event"",""trial"",""time""
""focus"",""0"",""0""
""blur"",""0"",""0""
""focus"",""0"",""0""
""blur"",""0"",""0""
""focus"",""0"",""0""
""blur"",""0"",""0""
""focus"",""0"",""0""
""fullscreenenter"",""0"",""3490""
""fullscreenexit"",""2"",""4723""
""blur"",""2"",""29394""
""focus"",""2"",""31491""
","""event"",""trial"",""time""
""blur"",""0"",""0""
""blur"",""0"",""0""
""blur"",""0"",""0""
""blur"",""2"",""29394""
","""event"",""trial"",""time""
""focus"",""0"",""0""
""focus"",""0"",""0""
""focus"",""0"",""0""
""focus"",""0"",""0""
""focus"",""2"",""31491""
","""event"",""trial"",""time""
""fullscreenenter"",""0"",""3490""
","""event"",""trial"",""time""
""fullscreenexit"",""2"",""4723""
","856","run_exp/static/images/Set 6_rs/010a.jpg","86","","","","","","learn","SR",""
"","show_choice","59","87401","0.0-59.0","""event"",""trial"",""time""
""focus"",""0"",""0""
""blur"",""0"",""0""
""focus"",""0"",""0""
""blur"",""0"",""0""
""focus"",""0"",""0""
""blur"",""0"",""0""
""focus"",""0"",""0""
""fullscreenenter"",""0"",""3490""
""fullscreenexit"",""2"",""4723""
""blur"",""2"",""29394""
""focus"",""2"",""31491""
","""event"",""trial"",""time""
""blur"",""0"",""0""
""blur"",""0"",""0""
""blur"",""0"",""0""
""blur"",""2"",""29394""
","""event"",""trial"",""time""
""focus"",""0"",""0""
""focus"",""0"",""0""
""focus"",""0"",""0""
""focus"",""0"",""0""
""focus"",""2"",""31491""
","""event"",""trial"",""time""
""fullscreenenter"",""0"",""3490""
","""event"",""trial"",""time""
""fullscreenexit"",""2"",""4723""
","null","run_exp/static/images/Set 6_rs/010a.jpg","null","","","","","","learn","SR",""
"","html-keyboard-response","60","87903","0.0-60.0","""event"",""trial"",""time""
""focus"",""0"",""0""
""blur"",""0"",""0""
""focus"",""0"",""0""
""blur"",""0"",""0""
""focus"",""0"",""0""
""blur"",""0"",""0""
""focus"",""0"",""0""
""fullscreenenter"",""0"",""3490""
""fullscreenexit"",""2"",""4723""
""blur"",""2"",""29394""
""focus"",""2"",""31491""
","""event"",""trial"",""time""
""blur"",""0"",""0""
""blur"",""0"",""0""
""blur"",""0"",""0""
""blur"",""2"",""29394""
","""event"",""trial"",""time""
""focus"",""0"",""0""
""focus"",""0"",""0""
""focus"",""0"",""0""
""focus"",""0"",""0""
""focus"",""2"",""31491""
","""event"",""trial"",""time""
""fullscreenenter"",""0"",""3490""
","""event"",""trial"",""time""
""fullscreenexit"",""2"",""4723""
","null","<p></p>","null","","","","","","","",""
"","image","61","88655","0.0-61.0","""event"",""trial"",""time""
""focus"",""0"",""0""
""blur"",""0"",""0""
""focus"",""0"",""0""
""blur"",""0"",""0""
""focus"",""0"",""0""
""blur"",""0"",""0""
""focus"",""0"",""0""
""fullscreenenter"",""0"",""3490""
""fullscreenexit"",""2"",""4723""
""blur"",""2"",""29394""
""focus"",""2"",""31491""
","""event"",""trial"",""time""
""blur"",""0"",""0""
""blur"",""0"",""0""
""blur"",""0"",""0""
""blur"",""2"",""29394""
","""event"",""trial"",""time""
""focus"",""0"",""0""
""focus"",""0"",""0""
""focus"",""0"",""0""
""focus"",""0"",""0""
""focus"",""2"",""31491""
","""event"",""trial"",""time""
""fullscreenenter"",""0"",""3490""
","""event"",""trial"",""time""
""fullscreenexit"",""2"",""4723""
","752","run_exp/static/images/Set 6_rs/006a.jpg","86","","","","","","learn","SL",""
"","show_choice","62","89905","0.0-62.0","""event"",""trial"",""time""
""focus"",""0"",""0""
""blur"",""0"",""0""
""focus"",""0"",""0""
""blur"",""0"",""0""
""focus"",""0"",""0""
""blur"",""0"",""0""
""focus"",""0"",""0""
""fullscreenenter"",""0"",""3490""
""fullscreenexit"",""2"",""4723""
""blur"",""2"",""29394""
""focus"",""2"",""31491""
","""event"",""trial"",""time""
""blur"",""0"",""0""
""blur"",""0"",""0""
""blur"",""0"",""0""
""blur"",""2"",""29394""
","""event"",""trial"",""time""
""focus"",""0"",""0""
""focus"",""0"",""0""
""focus"",""0"",""0""
""focus"",""0"",""0""
""focus"",""2"",""31491""
","""event"",""trial"",""time""
""fullscreenenter"",""0"",""3490""
","""event"",""trial"",""time""
""fullscreenexit"",""2"",""4723""
","null","run_exp/static/images/Set 6_rs/006a.jpg","null","","","","","","learn","SL",""
"","html-keyboard-response","63","90405","0.0-63.0","""event"",""trial"",""time""
""focus"",""0"",""0""
""blur"",""0"",""0""
""focus"",""0"",""0""
""blur"",""0"",""0""
""focus"",""0"",""0""
""blur"",""0"",""0""
""focus"",""0"",""0""
""fullscreenenter"",""0"",""3490""
""fullscreenexit"",""2"",""4723""
""blur"",""2"",""29394""
""focus"",""2"",""31491""
","""event"",""trial"",""time""
""blur"",""0"",""0""
""blur"",""0"",""0""
""blur"",""0"",""0""
""blur"",""2"",""29394""
","""event"",""trial"",""time""
""focus"",""0"",""0""
""focus"",""0"",""0""
""focus"",""0"",""0""
""focus"",""0"",""0""
""focus"",""2"",""31491""
","""event"",""trial"",""time""
""fullscreenenter"",""0"",""3490""
","""event"",""trial"",""time""
""fullscreenexit"",""2"",""4723""
","null","<p></p>","null","","","","","","","",""
"","image","64","91232","0.0-64.0","""event"",""trial"",""time""
""focus"",""0"",""0""
""blur"",""0"",""0""
""focus"",""0"",""0""
""blur"",""0"",""0""
""focus"",""0"",""0""
""blur"",""0"",""0""
""focus"",""0"",""0""
""fullscreenenter"",""0"",""3490""
""fullscreenexit"",""2"",""4723""
""blur"",""2"",""29394""
""focus"",""2"",""31491""
","""event"",""trial"",""time""
""blur"",""0"",""0""
""blur"",""0"",""0""
""blur"",""0"",""0""
""blur"",""2"",""29394""
","""event"",""trial"",""time""
""focus"",""0"",""0""
""focus"",""0"",""0""
""focus"",""0"",""0""
""focus"",""0"",""0""
""focus"",""2"",""31491""
","""event"",""trial"",""time""
""fullscreenenter"",""0"",""3490""
","""event"",""trial"",""time""
""fullscreenexit"",""2"",""4723""
","826","run_exp/static/images/Set 6_rs/085a.jpg","86","","","","","","learn","SL",""
"","show_choice","65","92407","0.0-65.0","""event"",""trial"",""time""
""focus"",""0"",""0""
""blur"",""0"",""0""
""focus"",""0"",""0""
""blur"",""0"",""0""
""focus"",""0"",""0""
""blur"",""0"",""0""
""focus"",""0"",""0""
""fullscreenenter"",""0"",""3490""
""fullscreenexit"",""2"",""4723""
""blur"",""2"",""29394""
""focus"",""2"",""31491""
","""event"",""trial"",""time""
""blur"",""0"",""0""
""blur"",""0"",""0""
""blur"",""0"",""0""
""blur"",""2"",""29394""
","""event"",""trial"",""time""
""focus"",""0"",""0""
""focus"",""0"",""0""
""focus"",""0"",""0""
""focus"",""0"",""0""
""focus"",""2"",""31491""
","""event"",""trial"",""time""
""fullscreenenter"",""0"",""3490""
","""event"",""trial"",""time""
""fullscreenexit"",""2"",""4723""
","null","run_exp/static/images/Set 6_rs/085a.jpg","null","","","","","","learn","SL",""
"","html-keyboard-response","66","92909","0.0-66.0","""event"",""trial"",""time""
""focus"",""0"",""0""
""blur"",""0"",""0""
""focus"",""0"",""0""
""blur"",""0"",""0""
""focus"",""0"",""0""
""blur"",""0"",""0""
""focus"",""0"",""0""
""fullscreenenter"",""0"",""3490""
""fullscreenexit"",""2"",""4723""
""blur"",""2"",""29394""
""focus"",""2"",""31491""
","""event"",""trial"",""time""
""blur"",""0"",""0""
""blur"",""0"",""0""
""blur"",""0"",""0""
""blur"",""2"",""29394""
","""event"",""trial"",""time""
""focus"",""0"",""0""
""focus"",""0"",""0""
""focus"",""0"",""0""
""focus"",""0"",""0""
""focus"",""2"",""31491""
","""event"",""trial"",""time""
""fullscreenenter"",""0"",""3490""
","""event"",""trial"",""time""
""fullscreenexit"",""2"",""4723""
","null","<p></p>","null","","","","","","","",""
"","image","67","93952","0.0-67.0","""event"",""trial"",""time""
""focus"",""0"",""0""
""blur"",""0"",""0""
""focus"",""0"",""0""
""blur"",""0"",""0""
""focus"",""0"",""0""
""blur"",""0"",""0""
""focus"",""0"",""0""
""fullscreenenter"",""0"",""3490""
""fullscreenexit"",""2"",""4723""
""blur"",""2"",""29394""
""focus"",""2"",""31491""
","""event"",""trial"",""time""
""blur"",""0"",""0""
""blur"",""0"",""0""
""blur"",""0"",""0""
""blur"",""2"",""29394""
","""event"",""trial"",""time""
""focus"",""0"",""0""
""focus"",""0"",""0""
""focus"",""0"",""0""
""focus"",""0"",""0""
""focus"",""2"",""31491""
","""event"",""trial"",""time""
""fullscreenenter"",""0"",""3490""
","""event"",""trial"",""time""
""fullscreenexit"",""2"",""4723""
","1043","run_exp/static/images/Set 6_rs/167a.jpg","86","","","","","","learn","SL",""
"","show_choice","68","94910","0.0-68.0","""event"",""trial"",""time""
""focus"",""0"",""0""
""blur"",""0"",""0""
""focus"",""0"",""0""
""blur"",""0"",""0""
""focus"",""0"",""0""
""blur"",""0"",""0""
""focus"",""0"",""0""
""fullscreenenter"",""0"",""3490""
""fullscreenexit"",""2"",""4723""
""blur"",""2"",""29394""
""focus"",""2"",""31491""
","""event"",""trial"",""time""
""blur"",""0"",""0""
""blur"",""0"",""0""
""blur"",""0"",""0""
""blur"",""2"",""29394""
","""event"",""trial"",""time""
""focus"",""0"",""0""
""focus"",""0"",""0""
""focus"",""0"",""0""
""focus"",""0"",""0""
""focus"",""2"",""31491""
","""event"",""trial"",""time""
""fullscreenenter"",""0"",""3490""
","""event"",""trial"",""time""
""fullscreenexit"",""2"",""4723""
","null","run_exp/static/images/Set 6_rs/167a.jpg","null","","","","","","learn","SL",""
"","html-keyboard-response","69","95411","0.0-69.0","""event"",""trial"",""time""
""focus"",""0"",""0""
""blur"",""0"",""0""
""focus"",""0"",""0""
""blur"",""0"",""0""
""focus"",""0"",""0""
""blur"",""0"",""0""
""focus"",""0"",""0""
""fullscreenenter"",""0"",""3490""
""fullscreenexit"",""2"",""4723""
""blur"",""2"",""29394""
""focus"",""2"",""31491""
","""event"",""trial"",""time""
""blur"",""0"",""0""
""blur"",""0"",""0""
""blur"",""0"",""0""
""blur"",""2"",""29394""
","""event"",""trial"",""time""
""focus"",""0"",""0""
""focus"",""0"",""0""
""focus"",""0"",""0""
""focus"",""0"",""0""
""focus"",""2"",""31491""
","""event"",""trial"",""time""
""fullscreenenter"",""0"",""3490""
","""event"",""trial"",""time""
""fullscreenexit"",""2"",""4723""
","null","<p></p>","null","","","","","","","",""
"","image","70","96256","0.0-70.0","""event"",""trial"",""time""
""focus"",""0"",""0""
""blur"",""0"",""0""
""focus"",""0"",""0""
""blur"",""0"",""0""
""focus"",""0"",""0""
""blur"",""0"",""0""
""focus"",""0"",""0""
""fullscreenenter"",""0"",""3490""
""fullscreenexit"",""2"",""4723""
""blur"",""2"",""29394""
""focus"",""2"",""31491""
","""event"",""trial"",""time""
""blur"",""0"",""0""
""blur"",""0"",""0""
""blur"",""0"",""0""
""blur"",""2"",""29394""
","""event"",""trial"",""time""
""focus"",""0"",""0""
""focus"",""0"",""0""
""focus"",""0"",""0""
""focus"",""0"",""0""
""focus"",""2"",""31491""
","""event"",""trial"",""time""
""fullscreenenter"",""0"",""3490""
","""event"",""trial"",""time""
""fullscreenexit"",""2"",""4723""
","844","run_exp/static/images/Set 6_rs/138a.jpg","78","","","","","","learn","SL",""
"","show_choice","71","97413","0.0-71.0","""event"",""trial"",""time""
""focus"",""0"",""0""
""blur"",""0"",""0""
""focus"",""0"",""0""
""blur"",""0"",""0""
""focus"",""0"",""0""
""blur"",""0"",""0""
""focus"",""0"",""0""
""fullscreenenter"",""0"",""3490""
""fullscreenexit"",""2"",""4723""
""blur"",""2"",""29394""
""focus"",""2"",""31491""
","""event"",""trial"",""time""
""blur"",""0"",""0""
""blur"",""0"",""0""
""blur"",""0"",""0""
""blur"",""2"",""29394""
","""event"",""trial"",""time""
""focus"",""0"",""0""
""focus"",""0"",""0""
""focus"",""0"",""0""
""focus"",""0"",""0""
""focus"",""2"",""31491""
","""event"",""trial"",""time""
""fullscreenenter"",""0"",""3490""
","""event"",""trial"",""time""
""fullscreenexit"",""2"",""4723""
","null","run_exp/static/images/Set 6_rs/138a.jpg","null","","","","","","learn","SL",""
"","html-keyboard-response","72","97914","0.0-72.0","""event"",""trial"",""time""
""focus"",""0"",""0""
""blur"",""0"",""0""
""focus"",""0"",""0""
""blur"",""0"",""0""
""focus"",""0"",""0""
""blur"",""0"",""0""
""focus"",""0"",""0""
""fullscreenenter"",""0"",""3490""
""fullscreenexit"",""2"",""4723""
""blur"",""2"",""29394""
""focus"",""2"",""31491""
","""event"",""trial"",""time""
""blur"",""0"",""0""
""blur"",""0"",""0""
""blur"",""0"",""0""
""blur"",""2"",""29394""
","""event"",""trial"",""time""
""focus"",""0"",""0""
""focus"",""0"",""0""
""focus"",""0"",""0""
""focus"",""0"",""0""
""focus"",""2"",""31491""
","""event"",""trial"",""time""
""fullscreenenter"",""0"",""3490""
","""event"",""trial"",""time""
""fullscreenexit"",""2"",""4723""
","null","<p></p>","null","","","","","","","",""
"","image","73","99104","0.0-73.0","""event"",""trial"",""time""
""focus"",""0"",""0""
""blur"",""0"",""0""
""focus"",""0"",""0""
""blur"",""0"",""0""
""focus"",""0"",""0""
""blur"",""0"",""0""
""focus"",""0"",""0""
""fullscreenenter"",""0"",""3490""
""fullscreenexit"",""2"",""4723""
""blur"",""2"",""29394""
""focus"",""2"",""31491""
","""event"",""trial"",""time""
""blur"",""0"",""0""
""blur"",""0"",""0""
""blur"",""0"",""0""
""blur"",""2"",""29394""
","""event"",""trial"",""time""
""focus"",""0"",""0""
""focus"",""0"",""0""
""focus"",""0"",""0""
""focus"",""0"",""0""
""focus"",""2"",""31491""
","""event"",""trial"",""time""
""fullscreenenter"",""0"",""3490""
","""event"",""trial"",""time""
""fullscreenexit"",""2"",""4723""
","1188","run_exp/static/images/Set 6_rs/132a.jpg","78","","","","","","learn","SR",""
"","show_choice","74","99918","0.0-74.0","""event"",""trial"",""time""
""focus"",""0"",""0""
""blur"",""0"",""0""
""focus"",""0"",""0""
""blur"",""0"",""0""
""focus"",""0"",""0""
""blur"",""0"",""0""
""focus"",""0"",""0""
""fullscreenenter"",""0"",""3490""
""fullscreenexit"",""2"",""4723""
""blur"",""2"",""29394""
""focus"",""2"",""31491""
","""event"",""trial"",""time""
""blur"",""0"",""0""
""blur"",""0"",""0""
""blur"",""0"",""0""
""blur"",""2"",""29394""
","""event"",""trial"",""time""
""focus"",""0"",""0""
""focus"",""0"",""0""
""focus"",""0"",""0""
""focus"",""0"",""0""
""focus"",""2"",""31491""
","""event"",""trial"",""time""
""fullscreenenter"",""0"",""3490""
","""event"",""trial"",""time""
""fullscreenexit"",""2"",""4723""
","null","run_exp/static/images/Set 6_rs/132a.jpg","null","","","","","","learn","SR",""
"","html-keyboard-response","75","100420","0.0-75.0","""event"",""trial"",""time""
""focus"",""0"",""0""
""blur"",""0"",""0""
""focus"",""0"",""0""
""blur"",""0"",""0""
""focus"",""0"",""0""
""blur"",""0"",""0""
""focus"",""0"",""0""
""fullscreenenter"",""0"",""3490""
""fullscreenexit"",""2"",""4723""
""blur"",""2"",""29394""
""focus"",""2"",""31491""
","""event"",""trial"",""time""
""blur"",""0"",""0""
""blur"",""0"",""0""
""blur"",""0"",""0""
""blur"",""2"",""29394""
","""event"",""trial"",""time""
""focus"",""0"",""0""
""focus"",""0"",""0""
""focus"",""0"",""0""
""focus"",""0"",""0""
""focus"",""2"",""31491""
","""event"",""trial"",""time""
""fullscreenenter"",""0"",""3490""
","""event"",""trial"",""time""
""fullscreenexit"",""2"",""4723""
","null","<p></p>","null","","","","","","","",""
"","image","76","101200","0.0-76.0","""event"",""trial"",""time""
""focus"",""0"",""0""
""blur"",""0"",""0""
""focus"",""0"",""0""
""blur"",""0"",""0""
""focus"",""0"",""0""
""blur"",""0"",""0""
""focus"",""0"",""0""
""fullscreenenter"",""0"",""3490""
""fullscreenexit"",""2"",""4723""
""blur"",""2"",""29394""
""focus"",""2"",""31491""
","""event"",""trial"",""time""
""blur"",""0"",""0""
""blur"",""0"",""0""
""blur"",""0"",""0""
""blur"",""2"",""29394""
","""event"",""trial"",""time""
""focus"",""0"",""0""
""focus"",""0"",""0""
""focus"",""0"",""0""
""focus"",""0"",""0""
""focus"",""2"",""31491""
","""event"",""trial"",""time""
""fullscreenenter"",""0"",""3490""
","""event"",""trial"",""time""
""fullscreenexit"",""2"",""4723""
","779","run_exp/static/images/Set 6_rs/050a.jpg","86","","","","","","learn","SL",""
"","show_choice","77","102423","0.0-77.0","""event"",""trial"",""time""
""focus"",""0"",""0""
""blur"",""0"",""0""
""focus"",""0"",""0""
""blur"",""0"",""0""
""focus"",""0"",""0""
""blur"",""0"",""0""
""focus"",""0"",""0""
""fullscreenenter"",""0"",""3490""
""fullscreenexit"",""2"",""4723""
""blur"",""2"",""29394""
""focus"",""2"",""31491""
","""event"",""trial"",""time""
""blur"",""0"",""0""
""blur"",""0"",""0""
""blur"",""0"",""0""
""blur"",""2"",""29394""
","""event"",""trial"",""time""
""focus"",""0"",""0""
""focus"",""0"",""0""
""focus"",""0"",""0""
""focus"",""0"",""0""
""focus"",""2"",""31491""
","""event"",""trial"",""time""
""fullscreenenter"",""0"",""3490""
","""event"",""trial"",""time""
""fullscreenexit"",""2"",""4723""
","null","run_exp/static/images/Set 6_rs/050a.jpg","null","","","","","","learn","SL",""
"","html-keyboard-response","78","102925","0.0-78.0","""event"",""trial"",""time""
""focus"",""0"",""0""
""blur"",""0"",""0""
""focus"",""0"",""0""
""blur"",""0"",""0""
""focus"",""0"",""0""
""blur"",""0"",""0""
""focus"",""0"",""0""
""fullscreenenter"",""0"",""3490""
""fullscreenexit"",""2"",""4723""
""blur"",""2"",""29394""
""focus"",""2"",""31491""
","""event"",""trial"",""time""
""blur"",""0"",""0""
""blur"",""0"",""0""
""blur"",""0"",""0""
""blur"",""2"",""29394""
","""event"",""trial"",""time""
""focus"",""0"",""0""
""focus"",""0"",""0""
""focus"",""0"",""0""
""focus"",""0"",""0""
""focus"",""2"",""31491""
","""event"",""trial"",""time""
""fullscreenenter"",""0"",""3490""
","""event"",""trial"",""time""
""fullscreenexit"",""2"",""4723""
","null","<p></p>","null","","","","","","","",""
"","image","79","103712","0.0-79.0","""event"",""trial"",""time""
""focus"",""0"",""0""
""blur"",""0"",""0""
""focus"",""0"",""0""
""blur"",""0"",""0""
""focus"",""0"",""0""
""blur"",""0"",""0""
""focus"",""0"",""0""
""fullscreenenter"",""0"",""3490""
""fullscreenexit"",""2"",""4723""
""blur"",""2"",""29394""
""focus"",""2"",""31491""
","""event"",""trial"",""time""
""blur"",""0"",""0""
""blur"",""0"",""0""
""blur"",""0"",""0""
""blur"",""2"",""29394""
","""event"",""trial"",""time""
""focus"",""0"",""0""
""focus"",""0"",""0""
""focus"",""0"",""0""
""focus"",""0"",""0""
""focus"",""2"",""31491""
","""event"",""trial"",""time""
""fullscreenenter"",""0"",""3490""
","""event"",""trial"",""time""
""fullscreenexit"",""2"",""4723""
","787","run_exp/static/images/Set 6_rs/172a.jpg","78","","","","","","learn","SR",""
"","show_choice","80","104927","0.0-80.0","""event"",""trial"",""time""
""focus"",""0"",""0""
""blur"",""0"",""0""
""focus"",""0"",""0""
""blur"",""0"",""0""
""focus"",""0"",""0""
""blur"",""0"",""0""
""focus"",""0"",""0""
""fullscreenenter"",""0"",""3490""
""fullscreenexit"",""2"",""4723""
""blur"",""2"",""29394""
""focus"",""2"",""31491""
","""event"",""trial"",""time""
""blur"",""0"",""0""
""blur"",""0"",""0""
""blur"",""0"",""0""
""blur"",""2"",""29394""
","""event"",""trial"",""time""
""focus"",""0"",""0""
""focus"",""0"",""0""
""focus"",""0"",""0""
""focus"",""0"",""0""
""focus"",""2"",""31491""
","""event"",""trial"",""time""
""fullscreenenter"",""0"",""3490""
","""event"",""trial"",""time""
""fullscreenexit"",""2"",""4723""
","null","run_exp/static/images/Set 6_rs/172a.jpg","null","","","","","","learn","SR",""
"","html-keyboard-response","81","105427","0.0-81.0","""event"",""trial"",""time""
""focus"",""0"",""0""
""blur"",""0"",""0""
""focus"",""0"",""0""
""blur"",""0"",""0""
""focus"",""0"",""0""
""blur"",""0"",""0""
""focus"",""0"",""0""
""fullscreenenter"",""0"",""3490""
""fullscreenexit"",""2"",""4723""
""blur"",""2"",""29394""
""focus"",""2"",""31491""
","""event"",""trial"",""time""
""blur"",""0"",""0""
""blur"",""0"",""0""
""blur"",""0"",""0""
""blur"",""2"",""29394""
","""event"",""trial"",""time""
""focus"",""0"",""0""
""focus"",""0"",""0""
""focus"",""0"",""0""
""focus"",""0"",""0""
""focus"",""2"",""31491""
","""event"",""trial"",""time""
""fullscreenenter"",""0"",""3490""
","""event"",""trial"",""time""
""fullscreenexit"",""2"",""4723""
","null","<p></p>","null","","","","","","","",""
"","image","82","106255","0.0-82.0","""event"",""trial"",""time""
""focus"",""0"",""0""
""blur"",""0"",""0""
""focus"",""0"",""0""
""blur"",""0"",""0""
""focus"",""0"",""0""
""blur"",""0"",""0""
""focus"",""0"",""0""
""fullscreenenter"",""0"",""3490""
""fullscreenexit"",""2"",""4723""
""blur"",""2"",""29394""
""focus"",""2"",""31491""
","""event"",""trial"",""time""
""blur"",""0"",""0""
""blur"",""0"",""0""
""blur"",""0"",""0""
""blur"",""2"",""29394""
","""event"",""trial"",""time""
""focus"",""0"",""0""
""focus"",""0"",""0""
""focus"",""0"",""0""
""focus"",""0"",""0""
""focus"",""2"",""31491""
","""event"",""trial"",""time""
""fullscreenenter"",""0"",""3490""
","""event"",""trial"",""time""
""fullscreenexit"",""2"",""4723""
","827","run_exp/static/images/Set 6_rs/045a.jpg","86","","","","","","learn","SR",""
"","show_choice","83","107429","0.0-83.0","""event"",""trial"",""time""
""focus"",""0"",""0""
""blur"",""0"",""0""
""focus"",""0"",""0""
""blur"",""0"",""0""
""focus"",""0"",""0""
""blur"",""0"",""0""
""focus"",""0"",""0""
""fullscreenenter"",""0"",""3490""
""fullscreenexit"",""2"",""4723""
""blur"",""2"",""29394""
""focus"",""2"",""31491""
","""event"",""trial"",""time""
""blur"",""0"",""0""
""blur"",""0"",""0""
""blur"",""0"",""0""
""blur"",""2"",""29394""
","""event"",""trial"",""time""
""focus"",""0"",""0""
""focus"",""0"",""0""
""focus"",""0"",""0""
""focus"",""0"",""0""
""focus"",""2"",""31491""
","""event"",""trial"",""time""
""fullscreenenter"",""0"",""3490""
","""event"",""trial"",""time""
""fullscreenexit"",""2"",""4723""
","null","run_exp/static/images/Set 6_rs/045a.jpg","null","","","","","","learn","SR",""
"","html-keyboard-response","84","107930","0.0-84.0","""event"",""trial"",""time""
""focus"",""0"",""0""
""blur"",""0"",""0""
""focus"",""0"",""0""
""blur"",""0"",""0""
""focus"",""0"",""0""
""blur"",""0"",""0""
""focus"",""0"",""0""
""fullscreenenter"",""0"",""3490""
""fullscreenexit"",""2"",""4723""
""blur"",""2"",""29394""
""focus"",""2"",""31491""
","""event"",""trial"",""time""
""blur"",""0"",""0""
""blur"",""0"",""0""
""blur"",""0"",""0""
""blur"",""2"",""29394""
","""event"",""trial"",""time""
""focus"",""0"",""0""
""focus"",""0"",""0""
""focus"",""0"",""0""
""focus"",""0"",""0""
""focus"",""2"",""31491""
","""event"",""trial"",""time""
""fullscreenenter"",""0"",""3490""
","""event"",""trial"",""time""
""fullscreenexit"",""2"",""4723""
","null","<p></p>","null","","","","","","","",""
"","image","85","108735","0.0-85.0","""event"",""trial"",""time""
""focus"",""0"",""0""
""blur"",""0"",""0""
""focus"",""0"",""0""
""blur"",""0"",""0""
""focus"",""0"",""0""
""blur"",""0"",""0""
""focus"",""0"",""0""
""fullscreenenter"",""0"",""3490""
""fullscreenexit"",""2"",""4723""
""blur"",""2"",""29394""
""focus"",""2"",""31491""
","""event"",""trial"",""time""
""blur"",""0"",""0""
""blur"",""0"",""0""
""blur"",""0"",""0""
""blur"",""2"",""29394""
","""event"",""trial"",""time""
""focus"",""0"",""0""
""focus"",""0"",""0""
""focus"",""0"",""0""
""focus"",""0"",""0""
""focus"",""2"",""31491""
","""event"",""trial"",""time""
""fullscreenenter"",""0"",""3490""
","""event"",""trial"",""time""
""fullscreenexit"",""2"",""4723""
","804","run_exp/static/images/Set 6_rs/191a.jpg","78","","","","","","learn","SL",""
"","show_choice","86","109934","0.0-86.0","""event"",""trial"",""time""
""focus"",""0"",""0""
""blur"",""0"",""0""
""focus"",""0"",""0""
""blur"",""0"",""0""
""focus"",""0"",""0""
""blur"",""0"",""0""
""focus"",""0"",""0""
""fullscreenenter"",""0"",""3490""
""fullscreenexit"",""2"",""4723""
""blur"",""2"",""29394""
""focus"",""2"",""31491""
","""event"",""trial"",""time""
""blur"",""0"",""0""
""blur"",""0"",""0""
""blur"",""0"",""0""
""blur"",""2"",""29394""
","""event"",""trial"",""time""
""focus"",""0"",""0""
""focus"",""0"",""0""
""focus"",""0"",""0""
""focus"",""0"",""0""
""focus"",""2"",""31491""
","""event"",""trial"",""time""
""fullscreenenter"",""0"",""3490""
","""event"",""trial"",""time""
""fullscreenexit"",""2"",""4723""
","null","run_exp/static/images/Set 6_rs/191a.jpg","null","","","","","","learn","SL",""
"","html-keyboard-response","87","110435","0.0-87.0","""event"",""trial"",""time""
""focus"",""0"",""0""
""blur"",""0"",""0""
""focus"",""0"",""0""
""blur"",""0"",""0""
""focus"",""0"",""0""
""blur"",""0"",""0""
""focus"",""0"",""0""
""fullscreenenter"",""0"",""3490""
""fullscreenexit"",""2"",""4723""
""blur"",""2"",""29394""
""focus"",""2"",""31491""
","""event"",""trial"",""time""
""blur"",""0"",""0""
""blur"",""0"",""0""
""blur"",""0"",""0""
""blur"",""2"",""29394""
","""event"",""trial"",""time""
""focus"",""0"",""0""
""focus"",""0"",""0""
""focus"",""0"",""0""
""focus"",""0"",""0""
""focus"",""2"",""31491""
","""event"",""trial"",""time""
""fullscreenenter"",""0"",""3490""
","""event"",""trial"",""time""
""fullscreenexit"",""2"",""4723""
","null","<p></p>","null","","","","","","","",""
"","image","88","111280","0.0-88.0","""event"",""trial"",""time""
""focus"",""0"",""0""
""blur"",""0"",""0""
""focus"",""0"",""0""
""blur"",""0"",""0""
""focus"",""0"",""0""
""blur"",""0"",""0""
""focus"",""0"",""0""
""fullscreenenter"",""0"",""3490""
""fullscreenexit"",""2"",""4723""
""blur"",""2"",""29394""
""focus"",""2"",""31491""
","""event"",""trial"",""time""
""blur"",""0"",""0""
""blur"",""0"",""0""
""blur"",""0"",""0""
""blur"",""2"",""29394""
","""event"",""trial"",""time""
""focus"",""0"",""0""
""focus"",""0"",""0""
""focus"",""0"",""0""
""focus"",""0"",""0""
""focus"",""2"",""31491""
","""event"",""trial"",""time""
""fullscreenenter"",""0"",""3490""
","""event"",""trial"",""time""
""fullscreenexit"",""2"",""4723""
","844","run_exp/static/images/Set 6_rs/121a.jpg","86","","","","","","learn","SR",""
"","show_choice","89","112437","0.0-89.0","""event"",""trial"",""time""
""focus"",""0"",""0""
""blur"",""0"",""0""
""focus"",""0"",""0""
""blur"",""0"",""0""
""focus"",""0"",""0""
""blur"",""0"",""0""
""focus"",""0"",""0""
""fullscreenenter"",""0"",""3490""
""fullscreenexit"",""2"",""4723""
""blur"",""2"",""29394""
""focus"",""2"",""31491""
","""event"",""trial"",""time""
""blur"",""0"",""0""
""blur"",""0"",""0""
""blur"",""0"",""0""
""blur"",""2"",""29394""
","""event"",""trial"",""time""
""focus"",""0"",""0""
""focus"",""0"",""0""
""focus"",""0"",""0""
""focus"",""0"",""0""
""focus"",""2"",""31491""
","""event"",""trial"",""time""
""fullscreenenter"",""0"",""3490""
","""event"",""trial"",""time""
""fullscreenexit"",""2"",""4723""
","null","run_exp/static/images/Set 6_rs/121a.jpg","null","","","","","","learn","SR",""
"","html-keyboard-response","90","112938","0.0-90.0","""event"",""trial"",""time""
""focus"",""0"",""0""
""blur"",""0"",""0""
""focus"",""0"",""0""
""blur"",""0"",""0""
""focus"",""0"",""0""
""blur"",""0"",""0""
""focus"",""0"",""0""
""fullscreenenter"",""0"",""3490""
""fullscreenexit"",""2"",""4723""
""blur"",""2"",""29394""
""focus"",""2"",""31491""
","""event"",""trial"",""time""
""blur"",""0"",""0""
""blur"",""0"",""0""
""blur"",""0"",""0""
""blur"",""2"",""29394""
","""event"",""trial"",""time""
""focus"",""0"",""0""
""focus"",""0"",""0""
""focus"",""0"",""0""
""focus"",""0"",""0""
""focus"",""2"",""31491""
","""event"",""trial"",""time""
""fullscreenenter"",""0"",""3490""
","""event"",""trial"",""time""
""fullscreenexit"",""2"",""4723""
","null","<p></p>","null","","","","","","","",""
"","image","91","113807","0.0-91.0","""event"",""trial"",""time""
""focus"",""0"",""0""
""blur"",""0"",""0""
""focus"",""0"",""0""
""blur"",""0"",""0""
""focus"",""0"",""0""
""blur"",""0"",""0""
""focus"",""0"",""0""
""fullscreenenter"",""0"",""3490""
""fullscreenexit"",""2"",""4723""
""blur"",""2"",""29394""
""focus"",""2"",""31491""
","""event"",""trial"",""time""
""blur"",""0"",""0""
""blur"",""0"",""0""
""blur"",""0"",""0""
""blur"",""2"",""29394""
","""event"",""trial"",""time""
""focus"",""0"",""0""
""focus"",""0"",""0""
""focus"",""0"",""0""
""focus"",""0"",""0""
""focus"",""2"",""31491""
","""event"",""trial"",""time""
""fullscreenenter"",""0"",""3490""
","""event"",""trial"",""time""
""fullscreenexit"",""2"",""4723""
","868","run_exp/static/images/Set 6_rs/074a.jpg","78","","","","","","learn","SL",""
"","show_choice","92","114941","0.0-92.0","""event"",""trial"",""time""
""focus"",""0"",""0""
""blur"",""0"",""0""
""focus"",""0"",""0""
""blur"",""0"",""0""
""focus"",""0"",""0""
""blur"",""0"",""0""
""focus"",""0"",""0""
""fullscreenenter"",""0"",""3490""
""fullscreenexit"",""2"",""4723""
""blur"",""2"",""29394""
""focus"",""2"",""31491""
","""event"",""trial"",""time""
""blur"",""0"",""0""
""blur"",""0"",""0""
""blur"",""0"",""0""
""blur"",""2"",""29394""
","""event"",""trial"",""time""
""focus"",""0"",""0""
""focus"",""0"",""0""
""focus"",""0"",""0""
""focus"",""0"",""0""
""focus"",""2"",""31491""
","""event"",""trial"",""time""
""fullscreenenter"",""0"",""3490""
","""event"",""trial"",""time""
""fullscreenexit"",""2"",""4723""
","null","run_exp/static/images/Set 6_rs/074a.jpg","null","","","","","","learn","SL",""
"","html-keyboard-response","93","115441","0.0-93.0","""event"",""trial"",""time""
""focus"",""0"",""0""
""blur"",""0"",""0""
""focus"",""0"",""0""
""blur"",""0"",""0""
""focus"",""0"",""0""
""blur"",""0"",""0""
""focus"",""0"",""0""
""fullscreenenter"",""0"",""3490""
""fullscreenexit"",""2"",""4723""
""blur"",""2"",""29394""
""focus"",""2"",""31491""
","""event"",""trial"",""time""
""blur"",""0"",""0""
""blur"",""0"",""0""
""blur"",""0"",""0""
""blur"",""2"",""29394""
","""event"",""trial"",""time""
""focus"",""0"",""0""
""focus"",""0"",""0""
""focus"",""0"",""0""
""focus"",""0"",""0""
""focus"",""2"",""31491""
","""event"",""trial"",""time""
""fullscreenenter"",""0"",""3490""
","""event"",""trial"",""time""
""fullscreenexit"",""2"",""4723""
","null","<p></p>","null","","","","","","","",""
"","image","94","116271","0.0-94.0","""event"",""trial"",""time""
""focus"",""0"",""0""
""blur"",""0"",""0""
""focus"",""0"",""0""
""blur"",""0"",""0""
""focus"",""0"",""0""
""blur"",""0"",""0""
""focus"",""0"",""0""
""fullscreenenter"",""0"",""3490""
""fullscreenexit"",""2"",""4723""
""blur"",""2"",""29394""
""focus"",""2"",""31491""
","""event"",""trial"",""time""
""blur"",""0"",""0""
""blur"",""0"",""0""
""blur"",""0"",""0""
""blur"",""2"",""29394""
","""event"",""trial"",""time""
""focus"",""0"",""0""
""focus"",""0"",""0""
""focus"",""0"",""0""
""focus"",""0"",""0""
""focus"",""2"",""31491""
","""event"",""trial"",""time""
""fullscreenenter"",""0"",""3490""
","""event"",""trial"",""time""
""fullscreenexit"",""2"",""4723""
","830","run_exp/static/images/Set 6_rs/108a.jpg","86","","","","","","learn","SR",""
"","show_choice","95","117445","0.0-95.0","""event"",""trial"",""time""
""focus"",""0"",""0""
""blur"",""0"",""0""
""focus"",""0"",""0""
""blur"",""0"",""0""
""focus"",""0"",""0""
""blur"",""0"",""0""
""focus"",""0"",""0""
""fullscreenenter"",""0"",""3490""
""fullscreenexit"",""2"",""4723""
""blur"",""2"",""29394""
""focus"",""2"",""31491""
","""event"",""trial"",""time""
""blur"",""0"",""0""
""blur"",""0"",""0""
""blur"",""0"",""0""
""blur"",""2"",""29394""
","""event"",""trial"",""time""
""focus"",""0"",""0""
""focus"",""0"",""0""
""focus"",""0"",""0""
""focus"",""0"",""0""
""focus"",""2"",""31491""
","""event"",""trial"",""time""
""fullscreenenter"",""0"",""3490""
","""event"",""trial"",""time""
""fullscreenexit"",""2"",""4723""
","null","run_exp/static/images/Set 6_rs/108a.jpg","null","","","","","","learn","SR",""
"","html-keyboard-response","96","117945","0.0-96.0","""event"",""trial"",""time""
""focus"",""0"",""0""
""blur"",""0"",""0""
""focus"",""0"",""0""
""blur"",""0"",""0""
""focus"",""0"",""0""
""blur"",""0"",""0""
""focus"",""0"",""0""
""fullscreenenter"",""0"",""3490""
""fullscreenexit"",""2"",""4723""
""blur"",""2"",""29394""
""focus"",""2"",""31491""
","""event"",""trial"",""time""
""blur"",""0"",""0""
""blur"",""0"",""0""
""blur"",""0"",""0""
""blur"",""2"",""29394""
","""event"",""trial"",""time""
""focus"",""0"",""0""
""focus"",""0"",""0""
""focus"",""0"",""0""
""focus"",""0"",""0""
""focus"",""2"",""31491""
","""event"",""trial"",""time""
""fullscreenenter"",""0"",""3490""
","""event"",""trial"",""time""
""fullscreenexit"",""2"",""4723""
","null","<p></p>","null","","","","","","","",""
"","image","97","118688","0.0-97.0","""event"",""trial"",""time""
""focus"",""0"",""0""
""blur"",""0"",""0""
""focus"",""0"",""0""
""blur"",""0"",""0""
""focus"",""0"",""0""
""blur"",""0"",""0""
""focus"",""0"",""0""
""fullscreenenter"",""0"",""3490""
""fullscreenexit"",""2"",""4723""
""blur"",""2"",""29394""
""focus"",""2"",""31491""
","""event"",""trial"",""time""
""blur"",""0"",""0""
""blur"",""0"",""0""
""blur"",""0"",""0""
""blur"",""2"",""29394""
","""event"",""trial"",""time""
""focus"",""0"",""0""
""focus"",""0"",""0""
""focus"",""0"",""0""
""focus"",""0"",""0""
""focus"",""2"",""31491""
","""event"",""trial"",""time""
""fullscreenenter"",""0"",""3490""
","""event"",""trial"",""time""
""fullscreenexit"",""2"",""4723""
","741","run_exp/static/images/Set 6_rs/166a.jpg","78","","","","","","learn","SR",""
"","show_choice","98","119948","0.0-98.0","""event"",""trial"",""time""
""focus"",""0"",""0""
""blur"",""0"",""0""
""focus"",""0"",""0""
""blur"",""0"",""0""
""focus"",""0"",""0""
""blur"",""0"",""0""
""focus"",""0"",""0""
""fullscreenenter"",""0"",""3490""
""fullscreenexit"",""2"",""4723""
""blur"",""2"",""29394""
""focus"",""2"",""31491""
","""event"",""trial"",""time""
""blur"",""0"",""0""
""blur"",""0"",""0""
""blur"",""0"",""0""
""blur"",""2"",""29394""
","""event"",""trial"",""time""
""focus"",""0"",""0""
""focus"",""0"",""0""
""focus"",""0"",""0""
""focus"",""0"",""0""
""focus"",""2"",""31491""
","""event"",""trial"",""time""
""fullscreenenter"",""0"",""3490""
","""event"",""trial"",""time""
""fullscreenexit"",""2"",""4723""
","null","run_exp/static/images/Set 6_rs/166a.jpg","null","","","","","","learn","SR",""
"","html-keyboard-response","99","120450","0.0-99.0","""event"",""trial"",""time""
""focus"",""0"",""0""
""blur"",""0"",""0""
""focus"",""0"",""0""
""blur"",""0"",""0""
""focus"",""0"",""0""
""blur"",""0"",""0""
""focus"",""0"",""0""
""fullscreenenter"",""0"",""3490""
""fullscreenexit"",""2"",""4723""
""blur"",""2"",""29394""
""focus"",""2"",""31491""
","""event"",""trial"",""time""
""blur"",""0"",""0""
""blur"",""0"",""0""
""blur"",""0"",""0""
""blur"",""2"",""29394""
","""event"",""trial"",""time""
""focus"",""0"",""0""
""focus"",""0"",""0""
""focus"",""0"",""0""
""focus"",""0"",""0""
""focus"",""2"",""31491""
","""event"",""trial"",""time""
""fullscreenenter"",""0"",""3490""
","""event"",""trial"",""time""
""fullscreenexit"",""2"",""4723""
","null","<p></p>","null","","","","","","","",""
"","image","100","121199","0.0-100.0","""event"",""trial"",""time""
""focus"",""0"",""0""
""blur"",""0"",""0""
""focus"",""0"",""0""
""blur"",""0"",""0""
""focus"",""0"",""0""
""blur"",""0"",""0""
""focus"",""0"",""0""
""fullscreenenter"",""0"",""3490""
""fullscreenexit"",""2"",""4723""
""blur"",""2"",""29394""
""focus"",""2"",""31491""
","""event"",""trial"",""time""
""blur"",""0"",""0""
""blur"",""0"",""0""
""blur"",""0"",""0""
""blur"",""2"",""29394""
","""event"",""trial"",""time""
""focus"",""0"",""0""
""focus"",""0"",""0""
""focus"",""0"",""0""
""focus"",""0"",""0""
""focus"",""2"",""31491""
","""event"",""trial"",""time""
""fullscreenenter"",""0"",""3490""
","""event"",""trial"",""time""
""fullscreenexit"",""2"",""4723""
","748","run_exp/static/images/Set 6_rs/117a.jpg","86","","","","","","learn","SL",""
"","show_choice","101","122454","0.0-101.0","""event"",""trial"",""time""
""focus"",""0"",""0""
""blur"",""0"",""0""
""focus"",""0"",""0""
""blur"",""0"",""0""
""focus"",""0"",""0""
""blur"",""0"",""0""
""focus"",""0"",""0""
""fullscreenenter"",""0"",""3490""
""fullscreenexit"",""2"",""4723""
""blur"",""2"",""29394""
""focus"",""2"",""31491""
","""event"",""trial"",""time""
""blur"",""0"",""0""
""blur"",""0"",""0""
""blur"",""0"",""0""
""blur"",""2"",""29394""
","""event"",""trial"",""time""
""focus"",""0"",""0""
""focus"",""0"",""0""
""focus"",""0"",""0""
""focus"",""0"",""0""
""focus"",""2"",""31491""
","""event"",""trial"",""time""
""fullscreenenter"",""0"",""3490""
","""event"",""trial"",""time""
""fullscreenexit"",""2"",""4723""
","null","run_exp/static/images/Set 6_rs/117a.jpg","null","","","","","","learn","SL",""
"","html-keyboard-response","102","122956","0.0-102.0","""event"",""trial"",""time""
""focus"",""0"",""0""
""blur"",""0"",""0""
""focus"",""0"",""0""
""blur"",""0"",""0""
""focus"",""0"",""0""
""blur"",""0"",""0""
""focus"",""0"",""0""
""fullscreenenter"",""0"",""3490""
""fullscreenexit"",""2"",""4723""
""blur"",""2"",""29394""
""focus"",""2"",""31491""
","""event"",""trial"",""time""
""blur"",""0"",""0""
""blur"",""0"",""0""
""blur"",""0"",""0""
""blur"",""2"",""29394""
","""event"",""trial"",""time""
""focus"",""0"",""0""
""focus"",""0"",""0""
""focus"",""0"",""0""
""focus"",""0"",""0""
""focus"",""2"",""31491""
","""event"",""trial"",""time""
""fullscreenenter"",""0"",""3490""
","""event"",""trial"",""time""
""fullscreenexit"",""2"",""4723""
","null","<p></p>","null","","","","","","","",""
"","image","103","124112","0.0-103.0","""event"",""trial"",""time""
""focus"",""0"",""0""
""blur"",""0"",""0""
""focus"",""0"",""0""
""blur"",""0"",""0""
""focus"",""0"",""0""
""blur"",""0"",""0""
""focus"",""0"",""0""
""fullscreenenter"",""0"",""3490""
""fullscreenexit"",""2"",""4723""
""blur"",""2"",""29394""
""focus"",""2"",""31491""
","""event"",""trial"",""time""
""blur"",""0"",""0""
""blur"",""0"",""0""
""blur"",""0"",""0""
""blur"",""2"",""29394""
","""event"",""trial"",""time""
""focus"",""0"",""0""
""focus"",""0"",""0""
""focus"",""0"",""0""
""focus"",""0"",""0""
""focus"",""2"",""31491""
","""event"",""trial"",""time""
""fullscreenenter"",""0"",""3490""
","""event"",""trial"",""time""
""fullscreenexit"",""2"",""4723""
","1155","run_exp/static/images/Set 6_rs/091a.jpg","78","","","","","","learn","SL",""
"","show_choice","104","124958","0.0-104.0","""event"",""trial"",""time""
""focus"",""0"",""0""
""blur"",""0"",""0""
""focus"",""0"",""0""
""blur"",""0"",""0""
""focus"",""0"",""0""
""blur"",""0"",""0""
""focus"",""0"",""0""
""fullscreenenter"",""0"",""3490""
""fullscreenexit"",""2"",""4723""
""blur"",""2"",""29394""
""focus"",""2"",""31491""
","""event"",""trial"",""time""
""blur"",""0"",""0""
""blur"",""0"",""0""
""blur"",""0"",""0""
""blur"",""2"",""29394""
","""event"",""trial"",""time""
""focus"",""0"",""0""
""focus"",""0"",""0""
""focus"",""0"",""0""
""focus"",""0"",""0""
""focus"",""2"",""31491""
","""event"",""trial"",""time""
""fullscreenenter"",""0"",""3490""
","""event"",""trial"",""time""
""fullscreenexit"",""2"",""4723""
","null","run_exp/static/images/Set 6_rs/091a.jpg","null","","","","","","learn","SL",""
"","html-keyboard-response","105","125459","0.0-105.0","""event"",""trial"",""time""
""focus"",""0"",""0""
""blur"",""0"",""0""
""focus"",""0"",""0""
""blur"",""0"",""0""
""focus"",""0"",""0""
""blur"",""0"",""0""
""focus"",""0"",""0""
""fullscreenenter"",""0"",""3490""
""fullscreenexit"",""2"",""4723""
""blur"",""2"",""29394""
""focus"",""2"",""31491""
","""event"",""trial"",""time""
""blur"",""0"",""0""
""blur"",""0"",""0""
""blur"",""0"",""0""
""blur"",""2"",""29394""
","""event"",""trial"",""time""
""focus"",""0"",""0""
""focus"",""0"",""0""
""focus"",""0"",""0""
""focus"",""0"",""0""
""focus"",""2"",""31491""
","""event"",""trial"",""time""
""fullscreenenter"",""0"",""3490""
","""event"",""trial"",""time""
""fullscreenexit"",""2"",""4723""
","null","<p></p>","null","","","","","","","",""
"","image","106","126527","0.0-106.0","""event"",""trial"",""time""
""focus"",""0"",""0""
""blur"",""0"",""0""
""focus"",""0"",""0""
""blur"",""0"",""0""
""focus"",""0"",""0""
""blur"",""0"",""0""
""focus"",""0"",""0""
""fullscreenenter"",""0"",""3490""
""fullscreenexit"",""2"",""4723""
""blur"",""2"",""29394""
""focus"",""2"",""31491""
","""event"",""trial"",""time""
""blur"",""0"",""0""
""blur"",""0"",""0""
""blur"",""0"",""0""
""blur"",""2"",""29394""
","""event"",""trial"",""time""
""focus"",""0"",""0""
""focus"",""0"",""0""
""focus"",""0"",""0""
""focus"",""0"",""0""
""focus"",""2"",""31491""
","""event"",""trial"",""time""
""fullscreenenter"",""0"",""3490""
","""event"",""trial"",""time""
""fullscreenexit"",""2"",""4723""
","1066","run_exp/static/images/Set 6_rs/123a.jpg","86","","","","","","learn","SL",""
"","show_choice","107","127463","0.0-107.0","""event"",""trial"",""time""
""focus"",""0"",""0""
""blur"",""0"",""0""
""focus"",""0"",""0""
""blur"",""0"",""0""
""focus"",""0"",""0""
""blur"",""0"",""0""
""focus"",""0"",""0""
""fullscreenenter"",""0"",""3490""
""fullscreenexit"",""2"",""4723""
""blur"",""2"",""29394""
""focus"",""2"",""31491""
","""event"",""trial"",""time""
""blur"",""0"",""0""
""blur"",""0"",""0""
""blur"",""0"",""0""
""blur"",""2"",""29394""
","""event"",""trial"",""time""
""focus"",""0"",""0""
""focus"",""0"",""0""
""focus"",""0"",""0""
""focus"",""0"",""0""
""focus"",""2"",""31491""
","""event"",""trial"",""time""
""fullscreenenter"",""0"",""3490""
","""event"",""trial"",""time""
""fullscreenexit"",""2"",""4723""
","null","run_exp/static/images/Set 6_rs/123a.jpg","null","","","","","","learn","SL",""
"","html-keyboard-response","108","127964","0.0-108.0","""event"",""trial"",""time""
""focus"",""0"",""0""
""blur"",""0"",""0""
""focus"",""0"",""0""
""blur"",""0"",""0""
""focus"",""0"",""0""
""blur"",""0"",""0""
""focus"",""0"",""0""
""fullscreenenter"",""0"",""3490""
""fullscreenexit"",""2"",""4723""
""blur"",""2"",""29394""
""focus"",""2"",""31491""
","""event"",""trial"",""time""
""blur"",""0"",""0""
""blur"",""0"",""0""
""blur"",""0"",""0""
""blur"",""2"",""29394""
","""event"",""trial"",""time""
""focus"",""0"",""0""
""focus"",""0"",""0""
""focus"",""0"",""0""
""focus"",""0"",""0""
""focus"",""2"",""31491""
","""event"",""trial"",""time""
""fullscreenenter"",""0"",""3490""
","""event"",""trial"",""time""
""fullscreenexit"",""2"",""4723""
","null","<p></p>","null","","","","","","","",""
"","image","109","128608","0.0-109.0","""event"",""trial"",""time""
""focus"",""0"",""0""
""blur"",""0"",""0""
""focus"",""0"",""0""
""blur"",""0"",""0""
""focus"",""0"",""0""
""blur"",""0"",""0""
""focus"",""0"",""0""
""fullscreenenter"",""0"",""3490""
""fullscreenexit"",""2"",""4723""
""blur"",""2"",""29394""
""focus"",""2"",""31491""
","""event"",""trial"",""time""
""blur"",""0"",""0""
""blur"",""0"",""0""
""blur"",""0"",""0""
""blur"",""2"",""29394""
","""event"",""trial"",""time""
""focus"",""0"",""0""
""focus"",""0"",""0""
""focus"",""0"",""0""
""focus"",""0"",""0""
""focus"",""2"",""31491""
","""event"",""trial"",""time""
""fullscreenenter"",""0"",""3490""
","""event"",""trial"",""time""
""fullscreenexit"",""2"",""4723""
","643","run_exp/static/images/Set 6_rs/116a.jpg","78","","","","","","learn","SL",""
"","show_choice","110","129966","0.0-110.0","""event"",""trial"",""time""
""focus"",""0"",""0""
""blur"",""0"",""0""
""focus"",""0"",""0""
""blur"",""0"",""0""
""focus"",""0"",""0""
""blur"",""0"",""0""
""focus"",""0"",""0""
""fullscreenenter"",""0"",""3490""
""fullscreenexit"",""2"",""4723""
""blur"",""2"",""29394""
""focus"",""2"",""31491""
","""event"",""trial"",""time""
""blur"",""0"",""0""
""blur"",""0"",""0""
""blur"",""0"",""0""
""blur"",""2"",""29394""
","""event"",""trial"",""time""
""focus"",""0"",""0""
""focus"",""0"",""0""
""focus"",""0"",""0""
""focus"",""0"",""0""
""focus"",""2"",""31491""
","""event"",""trial"",""time""
""fullscreenenter"",""0"",""3490""
","""event"",""trial"",""time""
""fullscreenexit"",""2"",""4723""
","null","run_exp/static/images/Set 6_rs/116a.jpg","null","","","","","","learn","SL",""
"","html-keyboard-response","111","130466","0.0-111.0","""event"",""trial"",""time""
""focus"",""0"",""0""
""blur"",""0"",""0""
""focus"",""0"",""0""
""blur"",""0"",""0""
""focus"",""0"",""0""
""blur"",""0"",""0""
""focus"",""0"",""0""
""fullscreenenter"",""0"",""3490""
""fullscreenexit"",""2"",""4723""
""blur"",""2"",""29394""
""focus"",""2"",""31491""
","""event"",""trial"",""time""
""blur"",""0"",""0""
""blur"",""0"",""0""
""blur"",""0"",""0""
""blur"",""2"",""29394""
","""event"",""trial"",""time""
""focus"",""0"",""0""
""focus"",""0"",""0""
""focus"",""0"",""0""
""focus"",""0"",""0""
""focus"",""2"",""31491""
","""event"",""trial"",""time""
""fullscreenenter"",""0"",""3490""
","""event"",""trial"",""time""
""fullscreenexit"",""2"",""4723""
","null","<p></p>","null","","","","","","","",""
"","image","112","131232","0.0-112.0","""event"",""trial"",""time""
""focus"",""0"",""0""
""blur"",""0"",""0""
""focus"",""0"",""0""
""blur"",""0"",""0""
""focus"",""0"",""0""
""blur"",""0"",""0""
""focus"",""0"",""0""
""fullscreenenter"",""0"",""3490""
""fullscreenexit"",""2"",""4723""
""blur"",""2"",""29394""
""focus"",""2"",""31491""
","""event"",""trial"",""time""
""blur"",""0"",""0""
""blur"",""0"",""0""
""blur"",""0"",""0""
""blur"",""2"",""29394""
","""event"",""trial"",""time""
""focus"",""0"",""0""
""focus"",""0"",""0""
""focus"",""0"",""0""
""focus"",""0"",""0""
""focus"",""2"",""31491""
","""event"",""trial"",""time""
""fullscreenenter"",""0"",""3490""
","""event"",""trial"",""time""
""fullscreenexit"",""2"",""4723""
","764","run_exp/static/images/Set 6_rs/019a.jpg","86","","","","","","learn","SL",""
"","show_choice","113","132468","0.0-113.0","""event"",""trial"",""time""
""focus"",""0"",""0""
""blur"",""0"",""0""
""focus"",""0"",""0""
""blur"",""0"",""0""
""focus"",""0"",""0""
""blur"",""0"",""0""
""focus"",""0"",""0""
""fullscreenenter"",""0"",""3490""
""fullscreenexit"",""2"",""4723""
""blur"",""2"",""29394""
""focus"",""2"",""31491""
","""event"",""trial"",""time""
""blur"",""0"",""0""
""blur"",""0"",""0""
""blur"",""0"",""0""
""blur"",""2"",""29394""
","""event"",""trial"",""time""
""focus"",""0"",""0""
""focus"",""0"",""0""
""focus"",""0"",""0""
""focus"",""0"",""0""
""focus"",""2"",""31491""
","""event"",""trial"",""time""
""fullscreenenter"",""0"",""3490""
","""event"",""trial"",""time""
""fullscreenexit"",""2"",""4723""
","null","run_exp/static/images/Set 6_rs/019a.jpg","null","","","","","","learn","SL",""
"","html-keyboard-response","114","132969","0.0-114.0","""event"",""trial"",""time""
""focus"",""0"",""0""
""blur"",""0"",""0""
""focus"",""0"",""0""
""blur"",""0"",""0""
""focus"",""0"",""0""
""blur"",""0"",""0""
""focus"",""0"",""0""
""fullscreenenter"",""0"",""3490""
""fullscreenexit"",""2"",""4723""
""blur"",""2"",""29394""
""focus"",""2"",""31491""
","""event"",""trial"",""time""
""blur"",""0"",""0""
""blur"",""0"",""0""
""blur"",""0"",""0""
""blur"",""2"",""29394""
","""event"",""trial"",""time""
""focus"",""0"",""0""
""focus"",""0"",""0""
""focus"",""0"",""0""
""focus"",""0"",""0""
""focus"",""2"",""31491""
","""event"",""trial"",""time""
""fullscreenenter"",""0"",""3490""
","""event"",""trial"",""time""
""fullscreenexit"",""2"",""4723""
","null","<p></p>","null","","","","","","","",""
"","image","115","133920","0.0-115.0","""event"",""trial"",""time""
""focus"",""0"",""0""
""blur"",""0"",""0""
""focus"",""0"",""0""
""blur"",""0"",""0""
""focus"",""0"",""0""
""blur"",""0"",""0""
""focus"",""0"",""0""
""fullscreenenter"",""0"",""3490""
""fullscreenexit"",""2"",""4723""
""blur"",""2"",""29394""
""focus"",""2"",""31491""
","""event"",""trial"",""time""
""blur"",""0"",""0""
""blur"",""0"",""0""
""blur"",""0"",""0""
""blur"",""2"",""29394""
","""event"",""trial"",""time""
""focus"",""0"",""0""
""focus"",""0"",""0""
""focus"",""0"",""0""
""focus"",""0"",""0""
""focus"",""2"",""31491""
","""event"",""trial"",""time""
""fullscreenenter"",""0"",""3490""
","""event"",""trial"",""time""
""fullscreenexit"",""2"",""4723""
","949","run_exp/static/images/Set 6_rs/141a.jpg","78","","","","","","learn","SR",""
"","show_choice","116","134972","0.0-116.0","""event"",""trial"",""time""
""focus"",""0"",""0""
""blur"",""0"",""0""
""focus"",""0"",""0""
""blur"",""0"",""0""
""focus"",""0"",""0""
""blur"",""0"",""0""
""focus"",""0"",""0""
""fullscreenenter"",""0"",""3490""
""fullscreenexit"",""2"",""4723""
""blur"",""2"",""29394""
""focus"",""2"",""31491""
","""event"",""trial"",""time""
""blur"",""0"",""0""
""blur"",""0"",""0""
""blur"",""0"",""0""
""blur"",""2"",""29394""
","""event"",""trial"",""time""
""focus"",""0"",""0""
""focus"",""0"",""0""
""focus"",""0"",""0""
