"success","trial_type","trial_index","time_elapsed","internal_node_id","interactions","blur_events","focus_events","fullscreenenter_events","fullscreenexit_events","rt","stimulus","key_press","subject_id","participant_id","age","gender","prompt","phase","condition","lure_bin"
"true","fullscreen","0","10291","0.0-0.0","""event"",""trial"",""time""
""fullscreenenter"",""0"",""9302""
","
","
","""event"",""trial"",""time""
""fullscreenenter"",""0"",""9302""
","
","","","","","","","","","","",""
"","pavlovia","1","10308","0.0-1.0","""event"",""trial"",""time""
""fullscreenenter"",""0"",""9302""
","
","
","""event"",""trial"",""time""
""fullscreenenter"",""0"",""9302""
","
","","","","","","","","","","",""
"","welcome","2","45208","0.0-2.0","""event"",""trial"",""time""
""fullscreenenter"",""0"",""9302""
","
","
","""event"",""trial"",""time""
""fullscreenenter"",""0"",""9302""
","
","null","run_exp/static/audio/clip_1_welcome.m4a","null","593","804","14","Male","<div class='center'><p>Welcome to the third part of the study! First, you'll be shown pictures of items one at a time. For each picture, you have to decide if the item is typically found indoors or outdoors.</p><p>If you think it's usually found indoors, then press <b>v</b> key on your keyboard. If you think it's usually found outdoors, then press the <b>n</b> key.There will be reminders on the screen to help you remember which keys to press. </p><p>If you're not sure whether the item is an indoor item or an outdoor item, go ahead and take a guess but try your best not to skip that choice. </p></div>","","",""
"","html-keyboard-response","3","46461","0.0-3.0","""event"",""trial"",""time""
""fullscreenenter"",""0"",""9302""
","
","
","""event"",""trial"",""time""
""fullscreenenter"",""0"",""9302""
","
","1244.2999999970198","<div class='center'><p>Welcome to the third part of the study! First, you'll be shown pictures of items one at a time. For each picture, you have to decide if the item is typically found indoors or outdoors.</p><p>If you think it's usually found indoors, then press <b>v</b> key on your keyboard. If you think it's usually found outdoors, then press the <b>n</b> key.There will be reminders on the screen to help you remember which keys to press. </p><p>If you're not sure whether the item is an indoor item or an outdoor item, go ahead and take a guess but try your best not to skip that choice. </p><div><p><b>[Press the space bar to continue]</b></p></div>","32","","","","","","","",""
"","image","4","48469","0.0-4.0","""event"",""trial"",""time""
""fullscreenenter"",""0"",""9302""
","
","
","""event"",""trial"",""time""
""fullscreenenter"",""0"",""9302""
","
","null","run_exp/static/images/Set 6_rs/085a.jpg","null","","","","","","learn","SL",""
"","show_choice","5","50478","0.0-5.0","""event"",""trial"",""time""
""fullscreenenter"",""0"",""9302""
","
","
","""event"",""trial"",""time""
""fullscreenenter"",""0"",""9302""
","
","null","run_exp/static/images/blank.png","null","","","","","","learn","SL",""
"","html-keyboard-response","6","50985","0.0-6.0","""event"",""trial"",""time""
""fullscreenenter"",""0"",""9302""
","
","
","""event"",""trial"",""time""
""fullscreenenter"",""0"",""9302""
","
","null","<p></p>","null","","","","","","","",""
"","image","7","52014","0.0-7.0","""event"",""trial"",""time""
""fullscreenenter"",""0"",""9302""
","
","
","""event"",""trial"",""time""
""fullscreenenter"",""0"",""9302""
","
","1021.1999999880791","run_exp/static/images/Set 6_rs/117a.jpg","86","","","","","","learn","SL",""
"","show_choice","8","53002","0.0-8.0","""event"",""trial"",""time""
""fullscreenenter"",""0"",""9302""
","
","
","""event"",""trial"",""time""
""fullscreenenter"",""0"",""9302""
","
","null","run_exp/static/images/Set 6_rs/117a.jpg","null","","","","","","learn","SL",""
"","html-keyboard-response","9","53508","0.0-9.0","""event"",""trial"",""time""
""fullscreenenter"",""0"",""9302""
","
","
","""event"",""trial"",""time""
""fullscreenenter"",""0"",""9302""
","
","null","<p></p>","null","","","","","","","",""
"","image","10","54538","0.0-10.0","""event"",""trial"",""time""
""fullscreenenter"",""0"",""9302""
","
","
","""event"",""trial"",""time""
""fullscreenenter"",""0"",""9302""
","
","1017.3000000119209","run_exp/static/images/Set 6_rs/071a.jpg","78","","","","","","learn","SL",""
"","show_choice","11","55526","0.0-11.0","""event"",""trial"",""time""
""fullscreenenter"",""0"",""9302""
","
","
","""event"",""trial"",""time""
""fullscreenenter"",""0"",""9302""
","
","null","run_exp/static/images/Set 6_rs/071a.jpg","null","","","","","","learn","SL",""
"","html-keyboard-response","12","56030","0.0-12.0","""event"",""trial"",""time""
""fullscreenenter"",""0"",""9302""
","
","
","""event"",""trial"",""time""
""fullscreenenter"",""0"",""9302""
","
","null","<p></p>","null","","","","","","","",""
"","image","13","57272","0.0-13.0","""event"",""trial"",""time""
""fullscreenenter"",""0"",""9302""
","
","
","""event"",""trial"",""time""
""fullscreenenter"",""0"",""9302""
","
","1237.5","run_exp/static/images/Set 6_rs/122a.jpg","86","","","","","","learn","SR",""
"","show_choice","14","58039","0.0-14.0","""event"",""trial"",""time""
""fullscreenenter"",""0"",""9302""
","
","
","""event"",""trial"",""time""
""fullscreenenter"",""0"",""9302""
","
","null","run_exp/static/images/Set 6_rs/122a.jpg","null","","","","","","learn","SR",""
"","html-keyboard-response","15","58543","0.0-15.0","""event"",""trial"",""time""
""fullscreenenter"",""0"",""9302""
","
","
","""event"",""trial"",""time""
""fullscreenenter"",""0"",""9302""
","
","null","<p></p>","null","","","","","","","",""
"","image","16","58949","0.0-16.0","""event"",""trial"",""time""
""fullscreenenter"",""0"",""9302""
","
","
","""event"",""trial"",""time""
""fullscreenenter"",""0"",""9302""
","
","395.8999999910593","run_exp/static/images/Set 6_rs/070a.jpg","86","","","","","","learn","SR",""
"","show_choice","17","60562","0.0-17.0","""event"",""trial"",""time""
""fullscreenenter"",""0"",""9302""
","
","
","""event"",""trial"",""time""
""fullscreenenter"",""0"",""9302""
","
","null","run_exp/static/images/Set 6_rs/070a.jpg","null","","","","","","learn","SR",""
"","html-keyboard-response","18","61067","0.0-18.0","""event"",""trial"",""time""
""fullscreenenter"",""0"",""9302""
","
","
","""event"",""trial"",""time""
""fullscreenenter"",""0"",""9302""
","
","null","<p></p>","null","","","","","","","",""
"","image","19","61903","0.0-19.0","""event"",""trial"",""time""
""fullscreenenter"",""0"",""9302""
","
","
","""event"",""trial"",""time""
""fullscreenenter"",""0"",""9302""
","
","827.2999999970198","run_exp/static/images/Set 6_rs/169a.jpg","78","","","","","","learn","SR",""
"","show_choice","20","63080","0.0-20.0","""event"",""trial"",""time""
""fullscreenenter"",""0"",""9302""
","
","
","""event"",""trial"",""time""
""fullscreenenter"",""0"",""9302""
","
","null","run_exp/static/images/Set 6_rs/169a.jpg","null","","","","","","learn","SR",""
"","html-keyboard-response","21","63584","0.0-21.0","""event"",""trial"",""time""
""fullscreenenter"",""0"",""9302""
","
","
","""event"",""trial"",""time""
""fullscreenenter"",""0"",""9302""
","
","null","<p></p>","null","","","","","","","",""
"","image","22","64507","0.0-22.0","""event"",""trial"",""time""
""fullscreenenter"",""0"",""9302""
","
","
","""event"",""trial"",""time""
""fullscreenenter"",""0"",""9302""
","
","919.5","run_exp/static/images/Set 6_rs/108a.jpg","78","","","","","","learn","SR",""
"","show_choice","23","65593","0.0-23.0","""event"",""trial"",""time""
""fullscreenenter"",""0"",""9302""
","
","
","""event"",""trial"",""time""
""fullscreenenter"",""0"",""9302""
","
","null","run_exp/static/images/Set 6_rs/108a.jpg","null","","","","","","learn","SR",""
"","html-keyboard-response","24","66098","0.0-24.0","""event"",""trial"",""time""
""fullscreenenter"",""0"",""9302""
","
","
","""event"",""trial"",""time""
""fullscreenenter"",""0"",""9302""
","
","null","<p></p>","null","","","","","","","",""
"","image","25","67122","0.0-25.0","""event"",""trial"",""time""
""fullscreenenter"",""0"",""9302""
","
","
","""event"",""trial"",""time""
""fullscreenenter"",""0"",""9302""
","
","1017.8999999910593","run_exp/static/images/Set 6_rs/111a.jpg","78","","","","","","learn","SL",""
"","show_choice","26","68109","0.0-26.0","""event"",""trial"",""time""
""fullscreenenter"",""0"",""9302""
","
","
","""event"",""trial"",""time""
""fullscreenenter"",""0"",""9302""
","
","null","run_exp/static/images/Set 6_rs/111a.jpg","null","","","","","","learn","SL",""
"","html-keyboard-response","27","68614","0.0-27.0","""event"",""trial"",""time""
""fullscreenenter"",""0"",""9302""
","
","
","""event"",""trial"",""time""
""fullscreenenter"",""0"",""9302""
","
","null","<p></p>","null","","","","","","","",""
"","image","28","70061","0.0-28.0","""event"",""trial"",""time""
""fullscreenenter"",""0"",""9302""
","
","
","""event"",""trial"",""time""
""fullscreenenter"",""0"",""9302""
","
","1439.5","run_exp/static/images/Set 6_rs/066a.jpg","78","","","","","","learn","SL",""
"","show_choice","29","70627","0.0-29.0","""event"",""trial"",""time""
""fullscreenenter"",""0"",""9302""
","
","
","""event"",""trial"",""time""
""fullscreenenter"",""0"",""9302""
","
","null","run_exp/static/images/Set 6_rs/066a.jpg","null","","","","","","learn","SL",""
"","html-keyboard-response","30","71132","0.0-30.0","""event"",""trial"",""time""
""fullscreenenter"",""0"",""9302""
","
","
","""event"",""trial"",""time""
""fullscreenenter"",""0"",""9302""
","
","null","<p></p>","null","","","","","","","",""
"","image","31","72078","0.0-31.0","""event"",""trial"",""time""
""fullscreenenter"",""0"",""9302""
","
","
","""event"",""trial"",""time""
""fullscreenenter"",""0"",""9302""
","
","941.7000000029802","run_exp/static/images/Set 6_rs/134a.jpg","86","","","","","","learn","SR",""
"","show_choice","32","73141","0.0-32.0","""event"",""trial"",""time""
""fullscreenenter"",""0"",""9302""
","
","
","""event"",""trial"",""time""
""fullscreenenter"",""0"",""9302""
","
","null","run_exp/static/images/Set 6_rs/134a.jpg","null","","","","","","learn","SR",""
"","html-keyboard-response","33","73647","0.0-33.0","""event"",""trial"",""time""
""fullscreenenter"",""0"",""9302""
","
","
","""event"",""trial"",""time""
""fullscreenenter"",""0"",""9302""
","
","null","<p></p>","null","","","","","","","",""
"","image","34","75116","0.0-34.0","""event"",""trial"",""time""
""fullscreenenter"",""0"",""9302""
","
","
","""event"",""trial"",""time""
""fullscreenenter"",""0"",""9302""
","
","1458.2000000029802","run_exp/static/images/Set 6_rs/152a.jpg","78","","","","","","learn","SR",""
"","show_choice","35","75663","0.0-35.0","""event"",""trial"",""time""
""fullscreenenter"",""0"",""9302""
","
","
","""event"",""trial"",""time""
""fullscreenenter"",""0"",""9302""
","
","null","run_exp/static/images/Set 6_rs/152a.jpg","null","","","","","","learn","SR",""
"","html-keyboard-response","36","76168","0.0-36.0","""event"",""trial"",""time""
""fullscreenenter"",""0"",""9302""
","
","
","""event"",""trial"",""time""
""fullscreenenter"",""0"",""9302""
","
","null","<p></p>","null","","","","","","","",""
"","image","37","77431","0.0-37.0","""event"",""trial"",""time""
""fullscreenenter"",""0"",""9302""
","
","
","""event"",""trial"",""time""
""fullscreenenter"",""0"",""9302""
","
","1254.8999999910593","run_exp/static/images/Set 6_rs/057a.jpg","86","","","","","","learn","SL",""
"","show_choice","38","78182","0.0-38.0","""event"",""trial"",""time""
""fullscreenenter"",""0"",""9302""
","
","
","""event"",""trial"",""time""
""fullscreenenter"",""0"",""9302""
","
","null","run_exp/static/images/Set 6_rs/057a.jpg","null","","","","","","learn","SL",""
"","html-keyboard-response","39","78685","0.0-39.0","""event"",""trial"",""time""
""fullscreenenter"",""0"",""9302""
","
","
","""event"",""trial"",""time""
""fullscreenenter"",""0"",""9302""
","
","null","<p></p>","null","","","","","","","",""
"","image","40","80690","0.0-40.0","""event"",""trial"",""time""
""fullscreenenter"",""0"",""9302""
","
","
","""event"",""trial"",""time""
""fullscreenenter"",""0"",""9302""
","
","null","run_exp/static/images/Set 6_rs/036a.jpg","null","","","","","","learn","SL",""
"","show_choice","41","82697","0.0-41.0","""event"",""trial"",""time""
""fullscreenenter"",""0"",""9302""
","
","
","""event"",""trial"",""time""
""fullscreenenter"",""0"",""9302""
","
","null","run_exp/static/images/blank.png","null","","","","","","learn","SL",""
"","html-keyboard-response","42","83202","0.0-42.0","""event"",""trial"",""time""
""fullscreenenter"",""0"",""9302""
","
","
","""event"",""trial"",""time""
""fullscreenenter"",""0"",""9302""
","
","null","<p></p>","null","","","","","","","",""
"","image","43","84115","0.0-43.0","""event"",""trial"",""time""
""fullscreenenter"",""0"",""9302""
","
","
","""event"",""trial"",""time""
""fullscreenenter"",""0"",""9302""
","
","907.4000000059605","run_exp/static/images/Set 6_rs/055a.jpg","86","","","","","","learn","SL",""
"","show_choice","44","85210","0.0-44.0","""event"",""trial"",""time""
""fullscreenenter"",""0"",""9302""
","
","
","""event"",""trial"",""time""
""fullscreenenter"",""0"",""9302""
","
","null","run_exp/static/images/Set 6_rs/055a.jpg","null","","","","","","learn","SL",""
"","html-keyboard-response","45","85716","0.0-45.0","""event"",""trial"",""time""
""fullscreenenter"",""0"",""9302""
","
","
","""event"",""trial"",""time""
""fullscreenenter"",""0"",""9302""
","
","null","<p></p>","null","","","","","","","",""
"","image","46","87055","0.0-46.0","""event"",""trial"",""time""
""fullscreenenter"",""0"",""9302""
","
","
","""event"",""trial"",""time""
""fullscreenenter"",""0"",""9302""
","
","1330.4000000059605","run_exp/static/images/Set 6_rs/121a.jpg","78","","","","","","learn","SR",""
"","show_choice","47","87730","0.0-47.0","""event"",""trial"",""time""
""fullscreenenter"",""0"",""9302""
","
","
","""event"",""trial"",""time""
""fullscreenenter"",""0"",""9302""
","
","null","run_exp/static/images/Set 6_rs/121a.jpg","null","","","","","","learn","SR",""
"","html-keyboard-response","48","88234","0.0-48.0","""event"",""trial"",""time""
""fullscreenenter"",""0"",""9302""
","
","
","""event"",""trial"",""time""
""fullscreenenter"",""0"",""9302""
","
","null","<p></p>","null","","","","","","","",""
"","image","49","89362","0.0-49.0","""event"",""trial"",""time""
""fullscreenenter"",""0"",""9302""
","
","
","""event"",""trial"",""time""
""fullscreenenter"",""0"",""9302""
","
","1121.199999988079","run_exp/static/images/Set 6_rs/073a.jpg","86","","","","","","learn","SL",""
"","show_choice","50","90245","0.0-50.0","""event"",""trial"",""time""
""fullscreenenter"",""0"",""9302""
","
","
","""event"",""trial"",""time""
""fullscreenenter"",""0"",""9302""
","
","null","run_exp/static/images/Set 6_rs/073a.jpg","null","","","","","","learn","SL",""
"","html-keyboard-response","51","90747","0.0-51.0","""event"",""trial"",""time""
""fullscreenenter"",""0"",""9302""
","
","
","""event"",""trial"",""time""
""fullscreenenter"",""0"",""9302""
","
","null","<p></p>","null","","","","","","","",""
"","image","52","91556","0.0-52.0","""event"",""trial"",""time""
""fullscreenenter"",""0"",""9302""
","
","
","""event"",""trial"",""time""
""fullscreenenter"",""0"",""9302""
","
","803.5","run_exp/static/images/Set 6_rs/064a.jpg","86","","","","","","learn","SR",""
"","show_choice","53","92759","0.0-53.0","""event"",""trial"",""time""
""fullscreenenter"",""0"",""9302""
","
","
","""event"",""trial"",""time""
""fullscreenenter"",""0"",""9302""
","
","null","run_exp/static/images/Set 6_rs/064a.jpg","null","","","","","","learn","SR",""
"","html-keyboard-response","54","93265","0.0-54.0","""event"",""trial"",""time""
""fullscreenenter"",""0"",""9302""
","
","
","""event"",""trial"",""time""
""fullscreenenter"",""0"",""9302""
","
","null","<p></p>","null","","","","","","","",""
"","image","55","94915","0.0-55.0","""event"",""trial"",""time""
""fullscreenenter"",""0"",""9302""
","
","
","""event"",""trial"",""time""
""fullscreenenter"",""0"",""9302""
","
","1641.5","run_exp/static/images/Set 6_rs/061a.jpg","78","","","","","","learn","SR",""
"","show_choice","56","95280","0.0-56.0","""event"",""trial"",""time""
""fullscreenenter"",""0"",""9302""
","
","
","""event"",""trial"",""time""
""fullscreenenter"",""0"",""9302""
","
","null","run_exp/static/images/Set 6_rs/061a.jpg","null","","","","","","learn","SR",""
"","html-keyboard-response","57","95784","0.0-57.0","""event"",""trial"",""time""
""fullscreenenter"",""0"",""9302""
","
","
","""event"",""trial"",""time""
""fullscreenenter"",""0"",""9302""
","
","null","<p></p>","null","","","","","","","",""
"","image","58","97627","0.0-58.0","""event"",""trial"",""time""
""fullscreenenter"",""0"",""9302""
","
","
","""event"",""trial"",""time""
""fullscreenenter"",""0"",""9302""
","
","1836.9000000059605","run_exp/static/images/Set 6_rs/167a.jpg","78","","","","","","learn","SL",""
"","show_choice","59","97797","0.0-59.0","""event"",""trial"",""time""
""fullscreenenter"",""0"",""9302""
","
","
","""event"",""trial"",""time""
""fullscreenenter"",""0"",""9302""
","
","null","run_exp/static/images/Set 6_rs/167a.jpg","null","","","","","","learn","SL",""
"","html-keyboard-response","60","98302","0.0-60.0","""event"",""trial"",""time""
""fullscreenenter"",""0"",""9302""
","
","
","""event"",""trial"",""time""
""fullscreenenter"",""0"",""9302""
","
","null","<p></p>","null","","","","","","","",""
"","image","61","99428","0.0-61.0","""event"",""trial"",""time""
""fullscreenenter"",""0"",""9302""
","
","
","""event"",""trial"",""time""
""fullscreenenter"",""0"",""9302""
","
","1118.2999999970198","run_exp/static/images/Set 6_rs/007a.jpg","86","","","","","","learn","SR",""
"","show_choice","62","100315","0.0-62.0","""event"",""trial"",""time""
""fullscreenenter"",""0"",""9302""
","
","
","""event"",""trial"",""time""
""fullscreenenter"",""0"",""9302""
","
","null","run_exp/static/images/Set 6_rs/007a.jpg","null","","","","","","learn","SR",""
"","html-keyboard-response","63","100820","0.0-63.0","""event"",""trial"",""time""
""fullscreenenter"",""0"",""9302""
","
","
","""event"",""trial"",""time""
""fullscreenenter"",""0"",""9302""
","
","null","<p></p>","null","","","","","","","",""
"","image","64","102101","0.0-64.0","""event"",""trial"",""time""
""fullscreenenter"",""0"",""9302""
","
","
","""event"",""trial"",""time""
""fullscreenenter"",""0"",""9302""
","
","1272.2999999970198","run_exp/static/images/Set 6_rs/168a.jpg","78","","","","","","learn","SL",""
"","show_choice","65","102837","0.0-65.0","""event"",""trial"",""time""
""fullscreenenter"",""0"",""9302""
","
","
","""event"",""trial"",""time""
""fullscreenenter"",""0"",""9302""
","
","null","run_exp/static/images/Set 6_rs/168a.jpg","null","","","","","","learn","SL",""
"","html-keyboard-response","66","103342","0.0-66.0","""event"",""trial"",""time""
""fullscreenenter"",""0"",""9302""
","
","
","""event"",""trial"",""time""
""fullscreenenter"",""0"",""9302""
","
","null","<p></p>","null","","","","","","","",""
"","image","67","104538","0.0-67.0","""event"",""trial"",""time""
""fullscreenenter"",""0"",""9302""
","
","
","""event"",""trial"",""time""
""fullscreenenter"",""0"",""9302""
","
","1188.0999999940395","run_exp/static/images/Set 6_rs/095a.jpg","86","","","","","","learn","SL",""
"","show_choice","68","105352","0.0-68.0","""event"",""trial"",""time""
""fullscreenenter"",""0"",""9302""
","
","
","""event"",""trial"",""time""
""fullscreenenter"",""0"",""9302""
","
","null","run_exp/static/images/Set 6_rs/095a.jpg","null","","","","","","learn","SL",""
"","html-keyboard-response","69","105856","0.0-69.0","""event"",""trial"",""time""
""fullscreenenter"",""0"",""9302""
","
","
","""event"",""trial"",""time""
""fullscreenenter"",""0"",""9302""
","
","null","<p></p>","null","","","","","","","",""
"","image","70","106812","0.0-70.0","""event"",""trial"",""time""
""fullscreenenter"",""0"",""9302""
","
","
","""event"",""trial"",""time""
""fullscreenenter"",""0"",""9302""
","
","951.0999999940395","run_exp/static/images/Set 6_rs/014a.jpg","86","","","","","","learn","SL",""
"","show_choice","71","107864","0.0-71.0","""event"",""trial"",""time""
""fullscreenenter"",""0"",""9302""
","
","
","""event"",""trial"",""time""
""fullscreenenter"",""0"",""9302""
","
","null","run_exp/static/images/Set 6_rs/014a.jpg","null","","","","","","learn","SL",""
"","html-keyboard-response","72","108368","0.0-72.0","""event"",""trial"",""time""
""fullscreenenter"",""0"",""9302""
","
","
","""event"",""trial"",""time""
""fullscreenenter"",""0"",""9302""
","
","null","<p></p>","null","","","","","","","",""
"","image","73","109227","0.0-73.0","""event"",""trial"",""time""
""fullscreenenter"",""0"",""9302""
","
","
","""event"",""trial"",""time""
""fullscreenenter"",""0"",""9302""
","
","851.5999999940395","run_exp/static/images/Set 6_rs/181a.jpg","78","","","","","","learn","SL",""
"","show_choice","74","110379","0.0-74.0","""event"",""trial"",""time""
""fullscreenenter"",""0"",""9302""
","
","
","""event"",""trial"",""time""
""fullscreenenter"",""0"",""9302""
","
","null","run_exp/static/images/Set 6_rs/181a.jpg","null","","","","","","learn","SL",""
"","html-keyboard-response","75","110882","0.0-75.0","""event"",""trial"",""time""
""fullscreenenter"",""0"",""9302""
","
","
","""event"",""trial"",""time""
""fullscreenenter"",""0"",""9302""
","
","null","<p></p>","null","","","","","","","",""
"","image","76","112038","0.0-76.0","""event"",""trial"",""time""
""fullscreenenter"",""0"",""9302""
","
","
","""event"",""trial"",""time""
""fullscreenenter"",""0"",""9302""
","
","1150.6000000089407","run_exp/static/images/Set 6_rs/131a.jpg","78","","","","","","learn","SR",""
"","show_choice","77","112890","0.0-77.0","""event"",""trial"",""time""
""fullscreenenter"",""0"",""9302""
","
","
","""event"",""trial"",""time""
""fullscreenenter"",""0"",""9302""
","
","null","run_exp/static/images/Set 6_rs/131a.jpg","null","","","","","","learn","SR",""
"","html-keyboard-response","78","113396","0.0-78.0","""event"",""trial"",""time""
""fullscreenenter"",""0"",""9302""
","
","
","""event"",""trial"",""time""
""fullscreenenter"",""0"",""9302""
","
","null","<p></p>","null","","","","","","","",""
"","image","79","115329","0.0-79.0","""event"",""trial"",""time""
""fullscreenenter"",""0"",""9302""
","
","
","""event"",""trial"",""time""
""fullscreenenter"",""0"",""9302""
","
","1926.800000011921","run_exp/static/images/Set 6_rs/074a.jpg","86","","","","","","learn","SL",""
"","show_choice","80","115408","0.0-80.0","""event"",""trial"",""time""
""fullscreenenter"",""0"",""9302""
","
","
","""event"",""trial"",""time""
""fullscreenenter"",""0"",""9302""
","
","null","run_exp/static/images/Set 6_rs/074a.jpg","null","","","","","","learn","SL",""
"","html-keyboard-response","81","115912","0.0-81.0","""event"",""trial"",""time""
""fullscreenenter"",""0"",""9302""
","
","
","""event"",""trial"",""time""
""fullscreenenter"",""0"",""9302""
","
","null","<p></p>","null","","","","","","","",""
"","image","82","117676","0.0-82.0","""event"",""trial"",""time""
""fullscreenenter"",""0"",""9302""
","
","
","""event"",""trial"",""time""
""fullscreenenter"",""0"",""9302""
","
","1756.7000000029802","run_exp/static/images/Set 6_rs/123a.jpg","78","","","","","","learn","SL",""
"","show_choice","83","117926","0.0-83.0","""event"",""trial"",""time""
""fullscreenenter"",""0"",""9302""
","
","
","""event"",""trial"",""time""
""fullscreenenter"",""0"",""9302""
","
","null","run_exp/static/images/Set 6_rs/123a.jpg","null","","","","","","learn","SL",""
"","html-keyboard-response","84","118431","0.0-84.0","""event"",""trial"",""time""
""fullscreenenter"",""0"",""9302""
","
","
","""event"",""trial"",""time""
""fullscreenenter"",""0"",""9302""
","
","null","<p></p>","null","","","","","","","",""
"","image","85","119419","0.0-85.0","""event"",""trial"",""time""
""fullscreenenter"",""0"",""9302""
","
","
","""event"",""trial"",""time""
""fullscreenenter"",""0"",""9302""
","
","980.5999999940395","run_exp/static/images/Set 6_rs/172a.jpg","78","","","","","","learn","SR",""
"","show_choice","86","120444","0.0-86.0","""event"",""trial"",""time""
""fullscreenenter"",""0"",""9302""
","
","
","""event"",""trial"",""time""
""fullscreenenter"",""0"",""9302""
","
","null","run_exp/static/images/Set 6_rs/172a.jpg","null","","","","","","learn","SR",""
"","html-keyboard-response","87","120951","0.0-87.0","""event"",""trial"",""time""
""fullscreenenter"",""0"",""9302""
","
","
","""event"",""trial"",""time""
""fullscreenenter"",""0"",""9302""
","
","null","<p></p>","null","","","","","","","",""
"","image","88","122529","0.0-88.0","""event"",""trial"",""time""
""fullscreenenter"",""0"",""9302""
","
","
","""event"",""trial"",""time""
""fullscreenenter"",""0"",""9302""
","
","1569.9000000059605","run_exp/static/images/Set 6_rs/024a.jpg","86","","","","","","learn","SR",""
"","show_choice","89","122964","0.0-89.0","""event"",""trial"",""time""
""fullscreenenter"",""0"",""9302""
","
","
","""event"",""trial"",""time""
""fullscreenenter"",""0"",""9302""
","
","null","run_exp/static/images/Set 6_rs/024a.jpg","null","","","","","","learn","SR",""
"","html-keyboard-response","90","123469","0.0-90.0","""event"",""trial"",""time""
""fullscreenenter"",""0"",""9302""
","
","
","""event"",""trial"",""time""
""fullscreenenter"",""0"",""9302""
","
","null","<p></p>","null","","","","","","","",""
"","image","91","125479","0.0-91.0","""event"",""trial"",""time""
""fullscreenenter"",""0"",""9302""
","
","
","""event"",""trial"",""time""
""fullscreenenter"",""0"",""9302""
","
","null","run_exp/static/images/Set 6_rs/150a.jpg","null","","","","","","learn","SR",""
"","show_choice","92","127482","0.0-92.0","""event"",""trial"",""time""
""fullscreenenter"",""0"",""9302""
","
","
","""event"",""trial"",""time""
""fullscreenenter"",""0"",""9302""
","
","null","run_exp/static/images/blank.png","null","","","","","","learn","SR",""
"","html-keyboard-response","93","127986","0.0-93.0","""event"",""trial"",""time""
""fullscreenenter"",""0"",""9302""
","
","
","""event"",""trial"",""time""
""fullscreenenter"",""0"",""9302""
","
","null","<p></p>","null","","","","","","","",""
"","image","94","129994","0.0-94.0","""event"",""trial"",""time""
""fullscreenenter"",""0"",""9302""
","
","
","""event"",""trial"",""time""
""fullscreenenter"",""0"",""9302""
","
","null","run_exp/static/images/Set 6_rs/091a.jpg","null","","","","","","learn","SL",""
"","show_choice","95","132001","0.0-95.0","""event"",""trial"",""time""
""fullscreenenter"",""0"",""9302""
","
","
","""event"",""trial"",""time""
""fullscreenenter"",""0"",""9302""
","
","null","run_exp/static/images/blank.png","null","","","","","","learn","SL",""
"","html-keyboard-response","96","132505","0.0-96.0","""event"",""trial"",""time""
""fullscreenenter"",""0"",""9302""
","
","
","""event"",""trial"",""time""
""fullscreenenter"",""0"",""9302""
","
","null","<p></p>","null","","","","","","","",""
"","image","97","133764","0.0-97.0","""event"",""trial"",""time""
""fullscreenenter"",""0"",""9302""
","
","
","""event"",""trial"",""time""
""fullscreenenter"",""0"",""9302""
","
","1252.3999999910593","run_exp/static/images/Set 6_rs/076a.jpg","78","","","","","","learn","SR",""
"","show_choice","98","134517","0.0-98.0","""event"",""trial"",""time""
""fullscreenenter"",""0"",""9302""
","
","
","""event"",""trial"",""time""
""fullscreenenter"",""0"",""9302""
","
","null","run_exp/static/images/Set 6_rs/076a.jpg","null","","","","","","learn","SR",""
"","html-keyboard-response","99","135021","0.0-99.0","""event"",""trial"",""time""
""fullscreenenter"",""0"",""9302""
","
","
","""event"",""trial"",""time""
""fullscreenenter"",""0"",""9302""
","
","null","<p></p>","null","","","","","","","",""
"","image","100","136291","0.0-100.0","""event"",""trial"",""time""
""fullscreenenter"",""0"",""9302""
","
","
","""event"",""trial"",""time""
""fullscreenenter"",""0"",""9302""
","
","1263.5","run_exp/static/images/Set 6_rs/187a.jpg","78","","","","","","learn","SR",""
"","show_choice","101","137031","0.0-101.0","""event"",""trial"",""time""
""fullscreenenter"",""0"",""9302""
","
","
","""event"",""trial"",""time""
""fullscreenenter"",""0"",""9302""
","
","null","run_exp/static/images/Set 6_rs/187a.jpg","null","","","","","","learn","SR",""
"","html-keyboard-response","102","137534","0.0-102.0","""event"",""trial"",""time""
""fullscreenenter"",""0"",""9302""
","
","
","""event"",""trial"",""time""
""fullscreenenter"",""0"",""9302""
","
","null","<p></p>","null","","","","","","","",""
"","image","103","138444","0.0-103.0","""event"",""trial"",""time""
""fullscreenenter"",""0"",""9302""
","
","
","""event"",""trial"",""time""
""fullscreenenter"",""0"",""9302""
","
","903.7999999970198","run_exp/static/images/Set 6_rs/023a.jpg","86","","","","","","learn","SR",""
"","show_choice","104","139546","0.0-104.0","""event"",""trial"",""time""
""fullscreenenter"",""0"",""9302""
","
","
","""event"",""trial"",""time""
""fullscreenenter"",""0"",""9302""
","
","null","run_exp/static/images/Set 6_rs/023a.jpg","null","","","","","","learn","SR",""
"","html-keyboard-response","105","140051","0.0-105.0","""event"",""trial"",""time""
""fullscreenenter"",""0"",""9302""
","
","
","""event"",""trial"",""time""
""fullscreenenter"",""0"",""9302""
","
","null","<p></p>","null","","","","","","","",""
"","image","106","141679","0.0-106.0","""event"",""trial"",""time""
""fullscreenenter"",""0"",""9302""
","
","
","""event"",""trial"",""time""
""fullscreenenter"",""0"",""9302""
","
","1621.3999999910593","run_exp/static/images/Set 6_rs/010a.jpg","86","","","","","","learn","SR",""
"","show_choice","107","142062","0.0-107.0","""event"",""trial"",""time""
""fullscreenenter"",""0"",""9302""
","
","
","""event"",""trial"",""time""
""fullscreenenter"",""0"",""9302""
","
","null","run_exp/static/images/Set 6_rs/010a.jpg","null","","","","","","learn","SR",""
"","html-keyboard-response","108","142567","0.0-108.0","""event"",""trial"",""time""
""fullscreenenter"",""0"",""9302""
","
","
","""event"",""trial"",""time""
""fullscreenenter"",""0"",""9302""
","
","null","<p></p>","null","","","","","","","",""
"","image","109","143996","0.0-109.0","""event"",""trial"",""time""
""fullscreenenter"",""0"",""9302""
","
","
","""event"",""trial"",""time""
""fullscreenenter"",""0"",""9302""
","
","1420.2000000029802","run_exp/static/images/Set 6_rs/017a.jpg","86","","","","","","learn","SL",""
"","show_choice","110","144582","0.0-110.0","""event"",""trial"",""time""
""fullscreenenter"",""0"",""9302""
","
","
","""event"",""trial"",""time""
""fullscreenenter"",""0"",""9302""
","
","null","run_exp/static/images/Set 6_rs/017a.jpg","null","","","","","","learn","SL",""
"","html-keyboard-response","111","145087","0.0-111.0","""event"",""trial"",""time""
""fullscreenenter"",""0"",""9302""
","
","
","""event"",""trial"",""time""
""fullscreenenter"",""0"",""9302""
","
","null","<p></p>","null","","","","","","","",""
"","image","112","146177","0.0-112.0","""event"",""trial"",""time""
""fullscreenenter"",""0"",""9302""
","
","
","""event"",""trial"",""time""
""fullscreenenter"",""0"",""9302""
","
","1085.2000000029802","run_exp/static/images/Set 6_rs/191a.jpg","78","","","","","","learn","SL",""
"","show_choice","113","147097","0.0-113.0","""event"",""trial"",""time""
""fullscreenenter"",""0"",""9302""
","
","
","""event"",""trial"",""time""
""fullscreenenter"",""0"",""9302""
","
","null","run_exp/static/images/Set 6_rs/191a.jpg","null","","","","","","learn","SL",""
"","html-keyboard-response","114","147602","0.0-114.0","""event"",""trial"",""time""
""fullscreenenter"",""0"",""9302""
","
","
","""event"",""trial"",""time""
""fullscreenenter"",""0"",""9302""
","
","null","<p></p>","null","","","","","","","",""
"","image","115","148621","0.0-115.0","""event"",""trial"",""time""
""fullscreenenter"",""0"",""9302""
","
","
","""event"",""trial"",""time""
""fullscreenenter"",""0"",""9302""
","
","1012.7000000029802","run_exp/static/images/Set 6_rs/062a.jpg","86","","","","","","learn","SL",""
"","show_choice","116","149616","0.0-116.0","""event"",""trial"",""time""
""fullscreenenter"",""0"",""9302""
","
","
","""event"",""trial"",""time""
""fullscreenenter"",""0"",""9302""
","
","null","run_exp/static/images/Set 6_rs/062a.jpg","null","","","","","","learn","SL",""
"","html-keyboard-response","117","150120","0.0-117.0","""event"",""trial"",""time""
""fullscreenenter"",""0"",""9302""
","
","
","""event"",""trial"",""time""
""fullscreenenter"",""0"",""9302""
","
","null","<p></p>","null","","","","","","","",""
"","image","118","151411","0.0-118.0","""event"",""trial"",""time""
""fullscreenenter"",""0"",""9302""
","
","
","""event"",""trial"",""time""
""fullscreenenter"",""0"",""9302""
","
","1287.800000011921","run_exp/static/images/Set 6_rs/178a.jpg","78","","","","","","learn","SR",""
"","show_choice","119","152128","0.0-119.0","""event"",""trial"",""time""
""fullscreenenter"",""0"",""9302""
","
","
","""event"",""trial"",""time""
""fullscreenenter"",""0"",""9302""
","
","null","run_exp/static/images/Set 6_rs/178a.jpg","null","","","","","","learn","SR",""
"","html-keyboard-response","120","152631","0.0-120.0","""event"",""trial"",""time""
""fullscreenenter"",""0"",""9302""
","
","
","""event"",""trial"",""time""
""fullscreenenter"",""0"",""9302""
","
","null","<p></p>","null","","","","","","","",""
"","image","121","153825","0.0-121.0","""event"",""trial"",""time""
""fullscreenenter"",""0"",""9302""
","
","
","""event"",""trial"",""time""
""fullscreenenter"",""0"",""9302""
","
","1188.1000000089407","run_exp/static/images/Set 6_rs/012a.jpg","78","","","","","","learn","SR",""
"","show_choice","122","154643","0.0-122.0","""event"",""trial"",""time""
""fullscreenenter"",""0"",""9302""
","
","
","""event"",""trial"",""time""
""fullscreenenter"",""0"",""9302""
","
","null","run_exp/static/images/Set 6_rs/012a.jpg","null","","","","","","learn","SR",""
"","html-keyboard-response","123","155147","0.0-123.0","""event"",""trial"",""time""
""fullscreenenter"",""0"",""9302""
","
","
","""event"",""trial"",""time""
""fullscreenenter"",""0"",""9302""
","
","null","<p></p>","null","","","","","","","",""
"","image","124","156180","0.0-124.0","""event"",""trial"",""time""
""fullscreenenter"",""0"",""9302""
","
","
","""event"",""trial"",""time""
""fullscreenenter"",""0"",""9302""
","
","1027.8999999910593","run_exp/static/images/Set 6_rs/166a.jpg","78","","","","","","learn","SR",""
"","show_choice","125","157159","0.0-125.0","""event"",""trial"",""time""
""fullscreenenter"",""0"",""9302""
","
","
","""event"",""trial"",""time""
""fullscreenenter"",""0"",""9302""
","
","null","run_exp/static/images/Set 6_rs/166a.jpg","null","","","","","","learn","SR",""
"","html-keyboard-response","126","157664","0.0-126.0","""event"",""trial"",""time""
""fullscreenenter"",""0"",""9302""
","
","
","""event"",""trial"",""time""
""fullscreenenter"",""0"",""9302""
","
","null","<p></p>","null","","","","","","","",""
"","image","127","158564","0.0-127.0","""event"",""trial"",""time""
""fullscreenenter"",""0"",""9302""
","
","
","""event"",""trial"",""time""
""fullscreenenter"",""0"",""9302""
","
","891.9000000059605","run_exp/static/images/Set 6_rs/186a.jpg","86","","","","","","learn","SR",""
"","show_choice","128","159676","0.0-128.0","""event"",""trial"",""time""
""fullscreenenter"",""0"",""9302""
","
","
","""event"",""trial"",""time""
""fullscreenenter"",""0"",""9302""
","
","null","run_exp/static/images/Set 6_rs/186a.jpg","null","","","","","","learn","SR",""
"","html-keyboard-response","129","160179","0.0-129.0","""event"",""trial"",""time""
""fullscreenenter"",""0"",""9302""
","
","
","""event"",""trial"",""time""
""fullscreenenter"",""0"",""9302""
","
","null","<p></p>","null","","","","","","","",""
"","image","130","161435","0.0-130.0","""event"",""trial"",""time""
""fullscreenenter"",""0"",""9302""
","
","
","""event"",""trial"",""time""
""fullscreenenter"",""0"",""9302""
","
","1251.699999988079","run_exp/static/images/Set 6_rs/016a.jpg","78","","","","","","learn","SL",""
"","show_choice","131","162187","0.0-131.0","""event"",""trial"",""time""
""fullscreenenter"",""0"",""9302""
","
","
","""event"",""trial"",""time""
""fullscreenenter"",""0"",""9302""
","
","null","run_exp/static/images/Set 6_rs/016a.jpg","null","","","","","","learn","SL",""
"","html-keyboard-response","132","162690","0.0-132.0","""event"",""trial"",""time""
""fullscreenenter"",""0"",""9302""
","
","
","""event"",""trial"",""time""
""fullscreenenter"",""0"",""9302""
","
","null","<p></p>","null","","","","","","","",""
"","image","133","163736","0.0-133.0","""event"",""trial"",""time""
""fullscreenenter"",""0"",""9302""
","
","
","""event"",""trial"",""time""
""fullscreenenter"",""0"",""9302""
","
","1039.6000000089407","run_exp/static/images/Set 6_rs/126a.jpg","78","","","","","","learn","SR",""
"","show_choice","134","164701","0.0-134.0","""event"",""trial"",""time""
""fullscreenenter"",""0"",""9302""
","
","
","""event"",""trial"",""time""
""fullscreenenter"",""0"",""9302""
","
","null","run_exp/static/images/Set 6_rs/126a.jpg","null","","","","","","learn","SR",""
"","html-keyboard-response","135","165205","0.0-135.0","""event"",""trial"",""time""
""fullscreenenter"",""0"",""9302""
","
","
","""event"",""trial"",""time""
""fullscreenenter"",""0"",""9302""
","
","null","<p></p>","null","","","","","","","",""
"","image","136","166175","0.0-136.0","""event"",""trial"",""time""
""fullscreenenter"",""0"",""9302""
","
","
","""event"",""trial"",""time""
""fullscreenenter"",""0"",""9302""
","
","967.1000000089407","run_exp/static/images/Set 6_rs/154a.jpg","86","","","","","","learn","SR",""
"","show_choice","137","167214","0.0-137.0","""event"",""trial"",""time""
""fullscreenenter"",""0"",""9302""
","
","
","""event"",""trial"",""time""
""fullscreenenter"",""0"",""9302""
","
","null","run_exp/static/images/Set 6_rs/154a.jpg","null","","","","","","learn","SR",""
"","html-keyboard-response","138","167719","0.0-138.0","""event"",""trial"",""time""
""fullscreenenter"",""0"",""9302""
","
","
","""event"",""trial"",""time""
""fullscreenenter"",""0"",""9302""
","
","null","<p></p>","null","","","","","","","",""
"","image","139","168827","0.0-139.0","""event"",""trial"",""time""
""fullscreenenter"",""0"",""9302""
","
","
","""event"",""trial"",""time""
""fullscreenenter"",""0"",""9302""
","
","1099.5999999940395","run_exp/static/images/Set 6_rs/144a.jpg","86","","","","","","learn","SL",""
"","show_choice","140","169734","0.0-140.0","""event"",""trial"",""time""
""fullscreenenter"",""0"",""9302""
","
","
","""event"",""trial"",""time""
""fullscreenenter"",""0"",""9302""
","
","null","run_exp/static/images/Set 6_rs/144a.jpg","null","","","","","","learn","SL",""
"","html-keyboard-response","141","170237","0.0-141.0","""event"",""trial"",""time""
""fullscreenenter"",""0"",""9302""
","
","
","""event"",""trial"",""time""
""fullscreenenter"",""0"",""9302""
","
","null","<p></p>","null","","","","","","","",""
"","image","142","171758","0.0-142.0","""event"",""trial"",""time""
""fullscreenenter"",""0"",""9302""
","
","
","""event"",""trial"",""time""
""fullscreenenter"",""0"",""9302""
","
","1515.5999999940395","run_exp/static/images/Set 6_rs/138a.jpg","78","","","","","","learn","SL",""
"","show_choice","143","172249","0.0-143.0","""event"",""trial"",""time""
""fullscreenenter"",""0"",""9302""
","
","
","""event"",""trial"",""time""
""fullscreenenter"",""0"",""9302""
","
","null","run_exp/static/images/Set 6_rs/138a.jpg","null","","","","","","learn","SL",""
"","html-keyboard-response","144","172754","0.0-144.0","""event"",""trial"",""time""
""fullscreenenter"",""0"",""9302""
","
","
","""event"",""trial"",""time""
""fullscreenenter"",""0"",""9302""
","
","null","<p></p>","null","","","","","","","",""
"","image","145","174078","0.0-145.0","""event"",""trial"",""time""
""fullscreenenter"",""0"",""9302""
","
","
","""event"",""trial"",""time""
""fullscreenenter"",""0"",""9302""
","
","1319","run_exp/static/images/Set 6_rs/079a.jpg","86","","","","","","learn","SL",""
"","show_choice","146","174763","0.0-146.0","""event"",""trial"",""time""
""fullscreenenter"",""0"",""9302""
","
","
","""event"",""trial"",""time""
""fullscreenenter"",""0"",""9302""
","
","null","run_exp/static/images/Set 6_rs/079a.jpg","null","","","","","","learn","SL",""
"","html-keyboard-response","147","175268","0.0-147.0","""event"",""trial"",""time""
""fullscreenenter"",""0"",""9302""
","
","
","""event"",""trial"",""time""
""fullscreenenter"",""0"",""9302""
","
","null","<p></p>","null","","","","","","","",""
"","image","148","176806","0.0-148.0","""event"",""trial"",""time""
""fullscreenenter"",""0"",""9302""
","
","
","""event"",""trial"",""time""
""fullscreenenter"",""0"",""9302""
","
","1530.5999999940395","run_exp/static/images/Set 6_rs/112a.jpg","86","","","","","","learn","SR",""
"","show_choice","149","177281","0.0-149.0","""event"",""trial"",""time""
""fullscreenenter"",""0"",""9302""
","
","
","""event"",""trial"",""time""
""fullscreenenter"",""0"",""9302""
","
","null","run_exp/static/images/Set 6_rs/112a.jpg","null","","","","","","learn","SR",""
"","html-keyboard-response","150","177784","0.0-150.0","""event"",""trial"",""time""
""fullscreenenter"",""0"",""9302""
","
","
","""event"",""trial"",""time""
""fullscreenenter"",""0"",""9302""
","
","null","<p></p>","null","","","","","","","",""
"","image","151","179259","0.0-151.0","""event"",""trial"",""time""
""fullscreenenter"",""0"",""9302""
","
","
","""event"",""trial"",""time""
""fullscreenenter"",""0"",""9302""
","
","1467.1000000089407","run_exp/static/images/Set 6_rs/116a.jpg","86","","","","","","learn","SL",""
"","show_choice","152","179798","0.0-152.0","""event"",""trial"",""time""
""fullscreenenter"",""0"",""9302""
","
","
","""event"",""trial"",""time""
""fullscreenenter"",""0"",""9302""
","
","null","run_exp/static/images/Set 6_rs/116a.jpg","null","","","","","","learn","SL",""
"","html-keyboard-response","153","180303","0.0-153.0","""event"",""trial"",""time""
""fullscreenenter"",""0"",""9302""
","
","
","""event"",""trial"",""time""
""fullscreenenter"",""0"",""9302""
","
","null","<p></p>","null","","","","","","","",""
"","image","154","181587","0.0-154.0","""event"",""trial"",""time""
""fullscreenenter"",""0"",""9302""
","
","
","""event"",""trial"",""time""
""fullscreenenter"",""0"",""9302""
","
","1280.0999999940395","run_exp/static/images/Set 6_rs/089a.jpg","86","","","","","","learn","SL",""
"","show_choice","155","182310","0.0-155.0","""event"",""trial"",""time""
""fullscreenenter"",""0"",""9302""
","
","
","""event"",""trial"",""time""
""fullscreenenter"",""0"",""9302""
","
","null","run_exp/static/images/Set 6_rs/089a.jpg","null","","","","","","learn","SL",""
"","html-keyboard-response","156","182815","0.0-156.0","""event"",""trial"",""time""
""fullscreenenter"",""0"",""9302""
","
","
","""event"",""trial"",""time""
""fullscreenenter"",""0"",""9302""
","
","null","<p></p>","null","","","","","","","",""
"","image","157","184646","0.0-157.0","""event"",""trial"",""time""
""fullscreenenter"",""0"",""9302""
","
","
","""event"",""trial"",""time""
""fullscreenenter"",""0"",""9302""
","
","1828.5999999940395","run_exp/static/images/Set 6_rs/177a.jpg","78","","","","","","learn","SR",""
"","show_choice","158","184825","0.0-158.0","""event"",""trial"",""time""
""fullscreenenter"",""0"",""9302""
","
","
","""event"",""trial"",""time""
""fullscreenenter"",""0"",""9302""
","
","null","run_exp/static/images/Set 6_rs/177a.jpg","null","","","","","","learn","SR",""
"","html-keyboard-response","159","185329","0.0-159.0","""event"",""trial"",""time""
""fullscreenenter"",""0"",""9302""
","
","
","""event"",""trial"",""time""
""fullscreenenter"",""0"",""9302""
","
","null","<p></p>","null","","","","","","","",""
"","image","160","187076","0.0-160.0","""event"",""trial"",""time""
""fullscreenenter"",""0"",""9302""
","
","
","""event"",""trial"",""time""
""fullscreenenter"",""0"",""9302""
","
","1741.5999999940395","run_exp/static/images/Set 6_rs/129a.jpg","86","","","","","","learn","SL",""
"","show_choice","161","187340","0.0-161.0","""event"",""trial"",""time""
""fullscreenenter"",""0"",""9302""
","
","
","""event"",""trial"",""time""
""fullscreenenter"",""0"",""9302""
","
","null","run_exp/static/images/Set 6_rs/129a.jpg","null","","","","","","learn","SL",""
"","html-keyboard-response","162","187845","0.0-162.0","""event"",""trial"",""time""
""fullscreenenter"",""0"",""9302""
","
","
","""event"",""trial"",""time""
""fullscreenenter"",""0"",""9302""
","
","null","<p></p>","null","","","","","","","",""
"","image","163","189571","0.0-163.0","""event"",""trial"",""time""
""fullscreenenter"",""0"",""9302""
","
","
","""event"",""trial"",""time""
""fullscreenenter"",""0"",""9302""
","
","1715","run_exp/static/images/Set 6_rs/006a.jpg","86","","","","","","learn","SL",""
"","show_choice","164","189861","0.0-164.0","""event"",""trial"",""time""
""fullscreenenter"",""0"",""9302""
","
","
","""event"",""trial"",""time""
""fullscreenenter"",""0"",""9302""
","
","null","run_exp/static/images/Set 6_rs/006a.jpg","null","","","","","","learn","SL",""
"","html-keyboard-response","165","190366","0.0-165.0","""event"",""trial"",""time""
""fullscreenenter"",""0"",""9302""
","
","
","""event"",""trial"",""time""
""fullscreenenter"",""0"",""9302""
","
","null","<p></p>","null","","","","","","","",""
"","image","166","191736","0.0-166.0","""event"",""trial"",""time""
""fullscreenenter"",""0"",""9302""
","
","
","""event"",""trial"",""time""
""fullscreenenter"",""0"",""9302""
","
","1363.0999999940395","run_exp/static/images/Set 6_rs/088a.jpg","86","","","","","","learn","SR",""
"","show_choice","167","192377","0.0-167.0","""event"",""trial"",""time""
""fullscreenenter"",""0"",""9302""
","
","
","""event"",""trial"",""time""
""fullscreenenter"",""0"",""9302""
","
","null","run_exp/static/images/Set 6_rs/088a.jpg","null","","","","","","learn","SR",""
"","html-keyboard-response","168","192882","0.0-168.0","""event"",""trial"",""time""
""fullscreenenter"",""0"",""9302""
","
","
","""event"",""trial"",""time""
""fullscreenenter"",""0"",""9302""
","
","null","<p></p>","null","","","","","","","",""
"","image","169","193666","0.0-169.0","""event"",""trial"",""time""
""fullscreenenter"",""0"",""9302""
","
","
","""event"",""trial"",""time""
""fullscreenenter"",""0"",""9302""
","
","774.5","run_exp/static/images/Set 6_rs/025a.jpg","78","","","","","","learn","SL",""
"","show_choice","170","194897","0.0-170.0","""event"",""trial"",""time""
""fullscreenenter"",""0"",""9302""
","
","
","""event"",""trial"",""time""
""fullscreenenter"",""0"",""9302""
","
","null","run_exp/static/images/Set 6_rs/025a.jpg","null","","","","","","learn","SL",""
"","html-keyboard-response","171","195402","0.0-171.0","""event"",""trial"",""time""
""fullscreenenter"",""0"",""9302""
","
","
","""event"",""trial"",""time""
""fullscreenenter"",""0"",""9302""
","
","null","<p></p>","null","","","","","","","",""
"","image","172","196772","0.0-172.0","""event"",""trial"",""time""
""fullscreenenter"",""0"",""9302""
","
","
","""event"",""trial"",""time""
""fullscreenenter"",""0"",""9302""
","
","1361.7999999970198","run_exp/static/images/Set 6_rs/063a.jpg","86","","","","","","learn","SR",""
"","show_choice","173","197415","0.0-173.0","""event"",""trial"",""time""
""fullscreenenter"",""0"",""9302""
","
","
","""event"",""trial"",""time""
""fullscreenenter"",""0"",""9302""
","
","null","run_exp/static/images/Set 6_rs/063a.jpg","null","","","","","","learn","SR",""
"","html-keyboard-response","174","197920","0.0-174.0","""event"",""trial"",""time""
""fullscreenenter"",""0"",""9302""
","
","
","""event"",""trial"",""time""
""fullscreenenter"",""0"",""9302""
","
","null","<p></p>","null","","","","","","","",""
"","image","175","199377","0.0-175.0","""event"",""trial"",""time""
""fullscreenenter"",""0"",""9302""
","
","
","""event"",""trial"",""time""
""fullscreenenter"",""0"",""9302""
","
","1451.5","run_exp/static/images/Set 6_rs/045a.jpg","86","","","","","","learn","SR",""
"","show_choice","176","199933","0.0-176.0","""event"",""trial"",""time""
""fullscreenenter"",""0"",""9302""
","
","
","""event"",""trial"",""time""
""fullscreenenter"",""0"",""9302""
","
","null","run_exp/static/images/Set 6_rs/045a.jpg","null","","","","","","learn","SR",""
"","html-keyboard-response","177","200445","0.0-177.0","""event"",""trial"",""time""
""fullscreenenter"",""0"",""9302""
","
","
","""event"",""trial"",""time""
""fullscreenenter"",""0"",""9302""
","
","null","<p></p>","null","","","","","","","",""
"","image","178","201880","0.0-178.0","""event"",""trial"",""time""
""fullscreenenter"",""0"",""9302""
","
","
","""event"",""trial"",""time""
""fullscreenenter"",""0"",""9302""
","
","1427.7000000029802","run_exp/static/images/Set 6_rs/075a.jpg","86","","","","","","learn","SR",""
"","show_choice","179","202456","0.0-179.0","""event"",""trial"",""time""
""fullscreenenter"",""0"",""9302""
","
","
","""event"",""trial"",""time""
""fullscreenenter"",""0"",""9302""
","
","null","run_exp/static/images/Set 6_rs/075a.jpg","null","","","","","","learn","SR",""
"","html-keyboard-response","180","202962","0.0-180.0","""event"",""trial"",""time""
""fullscreenenter"",""0"",""9302""
","
","
","""event"",""trial"",""time""
""fullscreenenter"",""0"",""9302""
","
","null","<p></p>","null","","","","","","","",""
"","image","181","204461","0.0-181.0","""event"",""trial"",""time""
""fullscreenenter"",""0"",""9302""
","
","
","""event"",""trial"",""time""
""fullscreenenter"",""0"",""9302""
","
","1490.9000000059605","run_exp/static/images/Set 6_rs/019a.jpg","78","","","","","","learn","SL",""
"","show_choice","182","204977","0.0-182.0","""event"",""trial"",""time""
""fullscreenenter"",""0"",""9302""
","
","
","""event"",""trial"",""time""
""fullscreenenter"",""0"",""9302""
","
","null","run_exp/static/images/Set 6_rs/019a.jpg","null","","","","","","learn","SL",""
"","html-keyboard-response","183","205482","0.0-183.0","""event"",""trial"",""time""
""fullscreenenter"",""0"",""9302""
","
","
","""event"",""trial"",""time""
""fullscreenenter"",""0"",""9302""
","
","null","<p></p>","null","","","","","","","",""
"","image","184","207343","0.0-184.0","""event"",""trial"",""time""
""fullscreenenter"",""0"",""9302""
","
","
","""event"",""trial"",""time""
""fullscreenenter"",""0"",""9302""
","
","1858","run_exp/static/images/Set 6_rs/050a.jpg","86","","","","","","learn","SL",""
"","show_choice","185","207487","0.0-185.0","""event"",""trial"",""time""
""fullscreenenter"",""0"",""9302""
","
","
","""event"",""trial"",""time""
""fullscreenenter"",""0"",""9302""
","
","null","run_exp/static/images/Set 6_rs/050a.jpg","null","","","","","","learn","SL",""
"","html-keyboard-response","186","207991","0.0-186.0","""event"",""trial"",""time""
""fullscreenenter"",""0"",""9302""
","
","
","""event"",""trial"",""time""
""fullscreenenter"",""0"",""9302""
","
","null","<p></p>","null","","","","","","","",""
"","image","187","209209","0.0-187.0","""event"",""trial"",""time""
""fullscreenenter"",""0"",""9302""
","
","
","""event"",""trial"",""time""
""fullscreenenter"",""0"",""9302""
","
","1215","run_exp/static/images/Set 6_rs/141a.jpg","86","","","","","","learn","SR",""
"","show_choice","188","209999","0.0-188.0","""event"",""trial"",""time""
""fullscreenenter"",""0"",""9302""
","
","
","""event"",""trial"",""time""
""fullscreenenter"",""0"",""9302""
","
","null","run_exp/static/images/Set 6_rs/141a.jpg","null","","","","","","learn","SR",""
"","html-keyboard-response","189","210506","0.0-189.0","""event"",""trial"",""time""
""fullscreenenter"",""0"",""9302""
","
","
","""event"",""trial"",""time""
""fullscreenenter"",""0"",""9302""
","
","null","<p></p>","null","","","","","","","",""
"","image","190","211500","0.0-190.0","""event"",""trial"",""time""
""fullscreenenter"",""0"",""9302""
","
","
","""event"",""trial"",""time""
""fullscreenenter"",""0"",""9302""
","
","988.1999999880791","run_exp/static/images/Set 6_rs/008a.jpg","78","","","","","","learn","SL",""
"","show_choice","191","212517","0.0-191.0","""event"",""trial"",""time""
""fullscreenenter"",""0"",""9302""
","
","
","""event"",""trial"",""time""
""fullscreenenter"",""0"",""9302""
","
","null","run_exp/static/images/Set 6_rs/008a.jpg","null","","","","","","learn","SL",""
"","html-keyboard-response","192","213023","0.0-192.0","""event"",""trial"",""time""
""fullscreenenter"",""0"",""9302""
","
","
","""event"",""trial"",""time""
""fullscreenenter"",""0"",""9302""
","
","null","<p></p>","null","","","","","","","",""
"","image","193","214651","0.0-193.0","""event"",""trial"",""time""
""fullscreenenter"",""0"",""9302""
","
","
","""event"",""trial"",""time""
""fullscreenenter"",""0"",""9302""
","
","1621.7000000029802","run_exp/static/images/Set 6_rs/132a.jpg","86","","","","","","learn","SR",""
"","show_choice","194","215036","0.0-194.0","""event"",""trial"",""time""
""fullscreenenter"",""0"",""9302""
","
","
","""event"",""trial"",""time""
""fullscreenenter"",""0"",""9302""
","
","null","run_exp/static/images/Set 6_rs/132a.jpg","null","","","","","","learn","SR",""
"","html-keyboard-response","195","215541","0.0-195.0","""event"",""trial"",""time""
""fullscreenenter"",""0"",""9302""
","
","
","""event"",""trial"",""time""
""fullscreenenter"",""0"",""9302""
","
","null","<p></p>","null","","","","","","","",""
"","test_intro","196","252630","0.0-196.0","""event"",""trial"",""time""
""fullscreenenter"",""0"",""9302""
","
","
","""event"",""trial"",""time""
""fullscreenenter"",""0"",""9302""
","
","null","run_exp/static/audio/clip_2_memory.m4a","null","","","","","<div class='center'><p>Now, lets see how much you remember about the items you just saw.  For each item, you need to indicate if it was <b>old</b> by pressing the <b>v</b> key, <b>similar</b> by pressing the <b>b</b> key, or <b>new</b> by pressing the <b>n</b> key.</p><p>Old refers to an item that you saw before in the indoor/outdoor game that you just played, new refers to an item you have <b>not</b> seen before within the indoor/outdoor game, and similar refers to an item that is similar to an item youve seen before but is not exactly the same. </p><p>Before we begin, lets go over some brief demonstrations to make sure you understand.</p></div>","","",""
"","html-keyboard-response","197","253418","0.0-197.0","""event"",""trial"",""time""
""fullscreenenter"",""0"",""9302""
","
","
","""event"",""trial"",""time""
""fullscreenenter"",""0"",""9302""
","
","778.7000000029802","<div class='center'><p>Now, lets see how much you remember about the items you just saw.  For each item, you need to indicate if it was <b>old</b> by pressing the <b>v</b> key, <b>similar</b> by pressing the <b>b</b> key, or <b>new</b> by pressing the <b>n</b> key.</p><p>Old refers to an item that you saw before in the indoor/outdoor game that you just played, new refers to an item you have <b>not</b> seen before within the indoor/outdoor game, and similar refers to an item that is similar to an item youve seen before but is not exactly the same. </p><p>Before we begin, lets go over some brief demonstrations to make sure you understand.</p><div><p><b>[Press the space bar to continue]</b></p></div>","32","","","","","","","",""
"","items","198","260926","0.0-198.0","""event"",""trial"",""time""
""fullscreenenter"",""0"",""9302""
","
","
","""event"",""trial"",""time""
""fullscreenenter"",""0"",""9302""
","
","null","run_exp/static/audio/clip_3_items.m4a","null","","","","","","","",""
"","mop","199","265439","0.0-199.0","""event"",""trial"",""time""
""fullscreenenter"",""0"",""9302""
","
","
","""event"",""trial"",""time""
""fullscreenenter"",""0"",""9302""
","
","null","run_exp/static/audio/clip_4_mop.m4a","null","","","","","","","",""
"","baseball","200","268945","0.0-200.0","""event"",""trial"",""time""
""fullscreenenter"",""0"",""9302""
","
","
","""event"",""trial"",""time""
""fullscreenenter"",""0"",""9302""
","
","null","run_exp/static/audio/clip_5_baseball.m4a","null","","","","","","","",""
"","trumpet","201","272453","0.0-201.0","""event"",""trial"",""time""
""fullscreenenter"",""0"",""9302""
","
","
","""event"",""trial"",""time""
""fullscreenenter"",""0"",""9302""
","
","null","run_exp/static/audio/clip_6_trumpet.m4a","null","","","","","","","",""
"","gummies","202","275961","0.0-202.0","""event"",""trial"",""time""
""fullscreenenter"",""0"",""9302""
","
","
","""event"",""trial"",""time""
""fullscreenenter"",""0"",""9302""
","
","null","run_exp/static/audio/clip_7_gummies.m4a","null","","","","","","","",""
"","osn","203","280473","0.0-203.0","""event"",""trial"",""time""
""fullscreenenter"",""0"",""9302""
","
","
","""event"",""trial"",""time""
""fullscreenenter"",""0"",""9302""
","
","null","run_exp/static/audio/clip_8_osn.m4a","null","","","","","","","",""
"","old_1","204","286986","0.0-204.0","""event"",""trial"",""time""
""fullscreenenter"",""0"",""9302""
","
","
","""event"",""trial"",""time""
""fullscreenenter"",""0"",""9302""
","
","null","run_exp/static/audio/clip_9_old_trumpet.m4a","null","","","","","","","",""
"","new_1","205","294500","0.0-205.0","""event"",""trial"",""time""
""fullscreenenter"",""0"",""9302""
","
","
","""event"",""trial"",""time""
""fullscreenenter"",""0"",""9302""
","
","null","run_exp/static/audio/clip_10_new_balloon.m4a","null","","","","","","","",""
"","similar_1a","206","299012","0.0-206.0","""event"",""trial"",""time""
""fullscreenenter"",""0"",""9302""
","
","
","""event"",""trial"",""time""
""fullscreenenter"",""0"",""9302""
","
","null","run_exp/static/audio/clip_11a_similar_mop.m4a","null","","","","","","","",""
"","similar_1b","207","305524","0.0-207.0","""event"",""trial"",""time""
""fullscreenenter"",""0"",""9302""
","
","
","""event"",""trial"",""time""
""fullscreenenter"",""0"",""9302""
","
","null","run_exp/static/audio/clip_11b_similar_mop.m4a","null","","","","","","","",""
"","new_2","208","309032","0.0-208.0","""event"",""trial"",""time""
""fullscreenenter"",""0"",""9302""
","
","
","""event"",""trial"",""time""
""fullscreenenter"",""0"",""9302""
","
","null","run_exp/static/audio/clip_12_new_stoplight.m4a","null","","","","","","","",""
"","old_2","209","312556","0.0-209.0","""event"",""trial"",""time""
""fullscreenenter"",""0"",""9302""
","
","
","""event"",""trial"",""time""
""fullscreenenter"",""0"",""9302""
","
","null","run_exp/static/audio/clip_13_old_baseball.m4a","null","","","","","","","",""
"","similar_2a","210","316064","0.0-210.0","""event"",""trial"",""time""
""fullscreenenter"",""0"",""9302""
","
","
","""event"",""trial"",""time""
""fullscreenenter"",""0"",""9302""
","
","null","run_exp/static/audio/clip_14a_similar_gummies.m4a","null","","","","","","","",""
"","similar_2b","211","323577","0.0-211.0","""event"",""trial"",""time""
""fullscreenenter"",""0"",""9302""
","
","
","""event"",""trial"",""time""
""fullscreenenter"",""0"",""9302""
","
","null","run_exp/static/audio/clip_14b_similar_gummies.m4a","null","","","","","","","",""
"","practice","212","365873","0.0-212.0","""event"",""trial"",""time""
""fullscreenenter"",""0"",""9302""
","
","
","""event"",""trial"",""time""
""fullscreenenter"",""0"",""9302""
","
","null","run_exp/static/audio/clip_15_practice.m4a","null","","","","","<div class='center'><p>Lets practice a little to make sure you understand the difference between new, similar, and old. Lets say you saw these three items in the indoor/outdoor game.</p><p> Try your best to remember these images because youll soon be tested on them in a practice game. In the practice game, youll be shown images and youll have to say if they are old (one of the three images belows), similar (similar to one of the images below but not exactly the same), or new (are not one of the images below nor similar to them).</p><p>Once you press the space bar youll be shown these images again but one at time. Then youll begin the practice game.</p><p><img src='run_exp/static/images/tutorial/test/three_indoor_outdoor.png' height='300'></p></div>","","",""
"","html-keyboard-response","213","367897","0.0-213.0","""event"",""trial"",""time""
""fullscreenenter"",""0"",""9302""
","
","
","""event"",""trial"",""time""
""fullscreenenter"",""0"",""9302""
","
","2018.3999999910593","<div class='center'><p>Lets practice a little to make sure you understand the difference between new, similar, and old. Lets say you saw these three items in the indoor/outdoor game.</p><p> Try your best to remember these images because youll soon be tested on them in a practice game. In the practice game, youll be shown images and youll have to say if they are old (one of the three images belows), similar (similar to one of the images below but not exactly the same), or new (are not one of the images below nor similar to them).</p><p>Once you press the space bar youll be shown these images again but one at time. Then youll begin the practice game.</p><p><img src='run_exp/static/images/tutorial/test/three_indoor_outdoor.png' height='300'></p><div><p><b>[Press the space bar to continue]</b></p></div>","32","","","","","","","",""
"","planet","214","369900","0.0-214.0","""event"",""trial"",""time""
""fullscreenenter"",""0"",""9302""
","
","
","""event"",""trial"",""time""
""fullscreenenter"",""0"",""9302""
","
","null","run_exp/static/images/tutorial/test/008a.jpg","null","","","","","","","",""
"","boot","215","371906","0.0-215.0","""event"",""trial"",""time""
""fullscreenenter"",""0"",""9302""
","
","
","""event"",""trial"",""time""
""fullscreenenter"",""0"",""9302""
","
","null","run_exp/static/images/tutorial/test/011a.jpg","null","","","","","","","",""
"","lemon","216","373914","0.0-216.0","""event"",""trial"",""time""
""fullscreenenter"",""0"",""9302""
","
","
","""event"",""trial"",""time""
""fullscreenenter"",""0"",""9302""
","
","null","run_exp/static/images/tutorial/test/018a.jpg","null","","","","","","","",""
"","practice_q1","217","380472","0.0-217.0","""event"",""trial"",""time""
""fullscreenenter"",""0"",""9302""
","
","
","""event"",""trial"",""time""
""fullscreenenter"",""0"",""9302""
","
","6547.79999999702","run_exp/static/audio/clip_16_practice_question.m4a","86","","","","","","","",""
"","incorrect_q1","218","383538","0.0-218.0-0.0","""event"",""trial"",""time""
""fullscreenenter"",""0"",""9302""
","
","
","""event"",""trial"",""time""
""fullscreenenter"",""0"",""9302""
","
","null","run_exp/static/audio/clip_18_incorrect_new.m4a","null","","","","","<div class='center'><p>Thats incorrect. Its new.</p></div>","","",""
"","html-keyboard-response","219","384224","0.0-218.0-1.0","""event"",""trial"",""time""
""fullscreenenter"",""0"",""9302""
","
","
","""event"",""trial"",""time""
""fullscreenenter"",""0"",""9302""
","
","679.1999999880791","<div class='center'><p>Thats incorrect. Its new.</p><div><p><b>[Press the space bar to continue]</b></p></div>","32","","","","","","","",""
"","practice_q2","220","386647","0.0-218.0-2.0","""event"",""trial"",""time""
""fullscreenenter"",""0"",""9302""
","
","
","""event"",""trial"",""time""
""fullscreenenter"",""0"",""9302""
","
","2417.800000011921","run_exp/static/audio/clip_16_practice_question.m4a","86","","","","","","","",""
"","correct","221","388744","0.0-219.0-0.0","""event"",""trial"",""time""
""fullscreenenter"",""0"",""9302""
","
","
","""event"",""trial"",""time""
""fullscreenenter"",""0"",""9302""
","
","null","run_exp/static/audio/clip_17_correct.m4a","null","","","","","<div class='center'><p>That's correct!</p></div>","","",""
"","html-keyboard-response","222","389484","0.0-219.0-1.0","""event"",""trial"",""time""
""fullscreenenter"",""0"",""9302""
","
","
","""event"",""trial"",""time""
""fullscreenenter"",""0"",""9302""
","
","732.0999999940395","<div class='center'><p>That's correct!</p><div><p><b>[Press the space bar to continue]</b></p></div>","32","","","","","","","",""
"","practice_q3","223","391920","0.0-219.0-2.0","""event"",""trial"",""time""
""fullscreenenter"",""0"",""9302""
","
","
","""event"",""trial"",""time""
""fullscreenenter"",""0"",""9302""
","
","2427.800000011921","run_exp/static/audio/clip_16_practice_question.m4a","86","","","","","","","",""
"","incorrect_q3","224","394891","0.0-220.0-0.0","""event"",""trial"",""time""
""fullscreenenter"",""0"",""9302""
","
","
","""event"",""trial"",""time""
""fullscreenenter"",""0"",""9302""
","
","null","run_exp/static/audio/clip_20_incorrect_similar.m4a","null","","","","","<div class='center'><p>Thats incorrect. Its similar.</p><p><img src='run_exp/static/images/tutorial/test/boot_comparison.png' height='300'></p></div>","","",""
"","html-keyboard-response","225","395356","0.0-220.0-1.0","""event"",""trial"",""time""
""fullscreenenter"",""0"",""9302""
","
","
","""event"",""trial"",""time""
""fullscreenenter"",""0"",""9302""
","
","457.69999998807907","<div class='center'><p>Thats incorrect. Its similar.</p><p><img src='run_exp/static/images/tutorial/test/boot_comparison.png' height='300'></p><div><p><b>[Press the space bar to continue]</b></p></div>","32","","","","","","","",""
"","repeat","226","400268","0.0-221.0-0.0","""event"",""trial"",""time""
""fullscreenenter"",""0"",""9302""
","
","
","""event"",""trial"",""time""
""fullscreenenter"",""0"",""9302""
","
","null","run_exp/static/audio/clip_21_practice_again.m4a","null","","","","","<div class='center'><p>Oops. you missed at least one of these questions. Let's try practicing again. </p></div>","","",""
"","html-keyboard-response","227","401312","0.0-221.0-1.0","""event"",""trial"",""time""
""fullscreenenter"",""0"",""9302""
","
","
","""event"",""trial"",""time""
""fullscreenenter"",""0"",""9302""
","
","1037.9000000059605","<div class='center'><p>Oops. you missed at least one of these questions. Let's try practicing again. </p><div><p><b>[Press the space bar to continue]</b></p></div>","32","","","","","","","",""
"","practice_q1","228","404152","0.0-221.0-2.0","""event"",""trial"",""time""
""fullscreenenter"",""0"",""9302""
","
","
","""event"",""trial"",""time""
""fullscreenenter"",""0"",""9302""
","
","2825.300000011921","run_exp/static/audio/clip_16_practice_question.m4a","78","","","","","","","",""
"","correct","229","406240","0.0-222.0-0.0","""event"",""trial"",""time""
""fullscreenenter"",""0"",""9302""
","
","
","""event"",""trial"",""time""
""fullscreenenter"",""0"",""9302""
","
","null","run_exp/static/audio/clip_17_correct.m4a","null","","","","","<div class='center'><p>That's correct!</p></div>","","",""
"","html-keyboard-response","230","406863","0.0-222.0-1.0","""event"",""trial"",""time""
""fullscreenenter"",""0"",""9302""
","
","
","""event"",""trial"",""time""
""fullscreenenter"",""0"",""9302""
","
","616.1999999880791","<div class='center'><p>That's correct!</p><div><p><b>[Press the space bar to continue]</b></p></div>","32","","","","","","","",""
"","practice_q2","231","407416","0.0-222.0-2.0","""event"",""trial"",""time""
""fullscreenenter"",""0"",""9302""
","
","
","""event"",""trial"",""time""
""fullscreenenter"",""0"",""9302""
","
","544.2000000029802","run_exp/static/audio/clip_16_practice_question.m4a","86","","","","","","","",""
"","correct","232","409481","0.0-223.0-0.0","""event"",""trial"",""time""
""fullscreenenter"",""0"",""9302""
","
","
","""event"",""trial"",""time""
""fullscreenenter"",""0"",""9302""
","
","null","run_exp/static/audio/clip_17_correct.m4a","null","","","","","<div class='center'><p>That's correct!</p></div>","","",""
"","html-keyboard-response","233","409928","0.0-223.0-1.0","""event"",""trial"",""time""
""fullscreenenter"",""0"",""9302""
","
","
","""event"",""trial"",""time""
""fullscreenenter"",""0"",""9302""
","
","440.5","<div class='center'><p>That's correct!</p><div><p><b>[Press the space bar to continue]</b></p></div>","32","","","","","","","",""
"","practice_q3","234","411464","0.0-223.0-2.0","""event"",""trial"",""time""
""fullscreenenter"",""0"",""9302""
","
","
","""event"",""trial"",""time""
""fullscreenenter"",""0"",""9302""
","
","1526.9000000059605","run_exp/static/audio/clip_16_practice_question.m4a","66","","","","","","","",""
"","correct","235","414261","0.0-224.0-0.0","""event"",""trial"",""time""
""fullscreenenter"",""0"",""9302""
","
","
","""event"",""trial"",""time""
""fullscreenenter"",""0"",""9302""
","
","null","run_exp/static/audio/clip_17_correct.m4a","null","","","","","<div class='center'><p>That's correct!</p></div>","","",""
"","html-keyboard-response","236","415444","0.0-224.0-1.0","""event"",""trial"",""time""
""fullscreenenter"",""0"",""9302""
","
","
","""event"",""trial"",""time""
""fullscreenenter"",""0"",""9302""
","
","1177.8999999910593","<div class='center'><p>That's correct!</p><div><p><b>[Press the space bar to continue]</b></p></div>","32","","","","","","","",""
"","begin_text","237","434143","0.0-225.0-0.0","""event"",""trial"",""time""
""fullscreenenter"",""0"",""9302""
","
","
","""event"",""trial"",""time""
""fullscreenenter"",""0"",""9302""
","
","null","run_exp/static/audio/clip_22_begin_test.m4a","null","","","","","<div class='center'><p>On to the real game where well test your memory of items from the indoor/outdoor game. For each item, you need to indicate if the item is <b>old</b> by pressing the <b>v</b> key, <b>similar</b> by pressing the <b>b</b> key, or <b>new</b> by pressing the <b>n</b> key. </p></div>","","",""
"","html-keyboard-response","238","434733","0.0-225.0-1.0","""event"",""trial"",""time""
""fullscreenenter"",""0"",""9302""
","
","
","""event"",""trial"",""time""
""fullscreenenter"",""0"",""9302""
","
","573.9000000059605","<div class='center'><p>On to the real game where well test your memory of items from the indoor/outdoor game. For each item, you need to indicate if the item is <b>old</b> by pressing the <b>v</b> key, <b>similar</b> by pressing the <b>b</b> key, or <b>new</b> by pressing the <b>n</b> key. </p><div><p><b>[Press the space bar to continue]</b></p></div>","32","","","","","","","",""
"","image","239","436244","0.0-226.0-0.0","""event"",""trial"",""time""
""fullscreenenter"",""0"",""9302""
","
","
","""event"",""trial"",""time""
""fullscreenenter"",""0"",""9302""
","
","1506.2999999970198","run_exp/static/images/Set 6_rs/167b.jpg","78","","","","","","test","TL","2"
"","show_choice","240","436750","0.0-226.0-1.0","""event"",""trial"",""time""
""fullscreenenter"",""0"",""9302""
","
","
","""event"",""trial"",""time""
""fullscreenenter"",""0"",""9302""
","
","null","run_exp/static/images/Set 6_rs/167b.jpg","null","","","","","","test","TL",""
"","html-keyboard-response","241","437253","0.0-226.0-2.0","""event"",""trial"",""time""
""fullscreenenter"",""0"",""9302""
","
","
","""event"",""trial"",""time""
""fullscreenenter"",""0"",""9302""
","
","null","<p></p>","null","","","","","","","",""
"","image","242","439640","0.0-227.0-0.0","""event"",""trial"",""time""
""fullscreenenter"",""0"",""9302""
","
","
","""event"",""trial"",""time""
""fullscreenenter"",""0"",""9302""
","
","2383.2999999970198","run_exp/static/images/Set 6_rs/086a.jpg","78","","","","","","test","TF","1"
"","show_choice","243","440146","0.0-227.0-1.0","""event"",""trial"",""time""
""fullscreenenter"",""0"",""9302""
","
","
","""event"",""trial"",""time""
""fullscreenenter"",""0"",""9302""
","
","null","run_exp/static/images/Set 6_rs/086a.jpg","null","","","","","","test","TF",""
"","html-keyboard-response","244","440650","0.0-227.0-2.0","""event"",""trial"",""time""
""fullscreenenter"",""0"",""9302""
","
","
","""event"",""trial"",""time""
""fullscreenenter"",""0"",""9302""
","
","null","<p></p>","null","","","","","","","",""
"","image","245","442110","0.0-228.0-0.0","""event"",""trial"",""time""
""fullscreenenter"",""0"",""9302""
","
","
","""event"",""trial"",""time""
""fullscreenenter"",""0"",""9302""
","
","1448.7999999970198","run_exp/static/images/Set 6_rs/057b.jpg","86","","","","","","test","TL","1"
"","show_choice","246","442616","0.0-228.0-1.0","""event"",""trial"",""time""
""fullscreenenter"",""0"",""9302""
","
","
","""event"",""trial"",""time""
""fullscreenenter"",""0"",""9302""
","
","null","run_exp/static/images/Set 6_rs/057b.jpg","null","","","","","","test","TL",""
"","html-keyboard-response","247","443120","0.0-228.0-2.0","""event"",""trial"",""time""
""fullscreenenter"",""0"",""9302""
","
","
","""event"",""trial"",""time""
""fullscreenenter"",""0"",""9302""
","
","null","<p></p>","null","","","","","","","",""
"","image","248","444591","0.0-229.0-0.0","""event"",""trial"",""time""
""fullscreenenter"",""0"",""9302""
","
","
","""event"",""trial"",""time""
""fullscreenenter"",""0"",""9302""
","
","1465.0999999940395","run_exp/static/images/Set 6_rs/109a.jpg","66","","","","","","test","TF","5"
"","show_choice","249","445098","0.0-229.0-1.0","""event"",""trial"",""time""
""fullscreenenter"",""0"",""9302""
","
","
","""event"",""trial"",""time""
""fullscreenenter"",""0"",""9302""
","
","null","run_exp/static/images/Set 6_rs/109a.jpg","null","","","","","","test","TF",""
"","html-keyboard-response","250","445602","0.0-229.0-2.0","""event"",""trial"",""time""
""fullscreenenter"",""0"",""9302""
","
","
","""event"",""trial"",""time""
""fullscreenenter"",""0"",""9302""
","
","null","<p></p>","null","","","","","","","",""
"","image","251","446837","0.0-230.0-0.0","""event"",""trial"",""time""
""fullscreenenter"",""0"",""9302""
","
","
","""event"",""trial"",""time""
""fullscreenenter"",""0"",""9302""
","
","1224.1000000089407","run_exp/static/images/Set 6_rs/100a.jpg","78","","","","","","test","TF","2"
"","show_choice","252","447343","0.0-230.0-1.0","""event"",""trial"",""time""
""fullscreenenter"",""0"",""9302""
","
","
","""event"",""trial"",""time""
""fullscreenenter"",""0"",""9302""
","
","null","run_exp/static/images/Set 6_rs/100a.jpg","null","","","","","","test","TF",""
"","html-keyboard-response","253","447848","0.0-230.0-2.0","""event"",""trial"",""time""
""fullscreenenter"",""0"",""9302""
","
","
","""event"",""trial"",""time""
""fullscreenenter"",""0"",""9302""
","
","null","<p></p>","null","","","","","","","",""
"","image","254","448953","0.0-231.0-0.0","""event"",""trial"",""time""
""fullscreenenter"",""0"",""9302""
","
","
","""event"",""trial"",""time""
""fullscreenenter"",""0"",""9302""
","
","1096.7000000029802","run_exp/static/images/Set 6_rs/056a.jpg","78","","","","","","test","TF","3"
"","show_choice","255","449458","0.0-231.0-1.0","""event"",""trial"",""time""
""fullscreenenter"",""0"",""9302""
","
","
","""event"",""trial"",""time""
""fullscreenenter"",""0"",""9302""
","
","null","run_exp/static/images/Set 6_rs/056a.jpg","null","","","","","","test","TF",""
"","html-keyboard-response","256","449963","0.0-231.0-2.0","""event"",""trial"",""time""
""fullscreenenter"",""0"",""9302""
","
","
","""event"",""trial"",""time""
""fullscreenenter"",""0"",""9302""
","
","null","<p></p>","null","","","","","","","",""
"","image","257","450866","0.0-232.0-0.0","""event"",""trial"",""time""
""fullscreenenter"",""0"",""9302""
","
","
","""event"",""trial"",""time""
""fullscreenenter"",""0"",""9302""
","
","894","run_exp/static/images/Set 6_rs/005a.jpg","78","","","","","","test","TF","5"
"","show_choice","258","451374","0.0-232.0-1.0","""event"",""trial"",""time""
""fullscreenenter"",""0"",""9302""
","
","
","""event"",""trial"",""time""
""fullscreenenter"",""0"",""9302""
","
","null","run_exp/static/images/Set 6_rs/005a.jpg","null","","","","","","test","TF",""
"","html-keyboard-response","259","451879","0.0-232.0-2.0","""event"",""trial"",""time""
""fullscreenenter"",""0"",""9302""
","
","
","""event"",""trial"",""time""
""fullscreenenter"",""0"",""9302""
","
","null","<p></p>","null","","","","","","","",""
"","image","260","452959","0.0-233.0-0.0","""event"",""trial"",""time""
""fullscreenenter"",""0"",""9302""
","
","
","""event"",""trial"",""time""
""fullscreenenter"",""0"",""9302""
","
","1072.699999988079","run_exp/static/images/Set 6_rs/126a.jpg","86","","","","","","test","TR","2"
"","show_choice","261","453463","0.0-233.0-1.0","""event"",""trial"",""time""
""fullscreenenter"",""0"",""9302""
","
","
","""event"",""trial"",""time""
""fullscreenenter"",""0"",""9302""
","
","null","run_exp/static/images/Set 6_rs/126a.jpg","null","","","","","","test","TR",""
"","html-keyboard-response","262","453968","0.0-233.0-2.0","""event"",""trial"",""time""
""fullscreenenter"",""0"",""9302""
","
","
","""event"",""trial"",""time""
""fullscreenenter"",""0"",""9302""
","
","null","<p></p>","null","","","","","","","",""
"","image","263","454915","0.0-234.0-0.0","""event"",""trial"",""time""
""fullscreenenter"",""0"",""9302""
","
","
","""event"",""trial"",""time""
""fullscreenenter"",""0"",""9302""
","
","938.9000000059605","run_exp/static/images/Set 6_rs/129b.jpg","66","","","","","","test","TL","1"
"","show_choice","264","455423","0.0-234.0-1.0","""event"",""trial"",""time""
""fullscreenenter"",""0"",""9302""
","
","
","""event"",""trial"",""time""
""fullscreenenter"",""0"",""9302""
","
","null","run_exp/static/images/Set 6_rs/129b.jpg","null","","","","","","test","TL",""
"","html-keyboard-response","265","455928","0.0-234.0-2.0","""event"",""trial"",""time""
""fullscreenenter"",""0"",""9302""
","
","
","""event"",""trial"",""time""
""fullscreenenter"",""0"",""9302""
","
","null","<p></p>","null","","","","","","","",""
"","image","266","456994","0.0-235.0-0.0","""event"",""trial"",""time""
""fullscreenenter"",""0"",""9302""
","
","
","""event"",""trial"",""time""
""fullscreenenter"",""0"",""9302""
","
","1055.2999999970198","run_exp/static/images/Set 6_rs/063a.jpg","86","","","","","","test","TR","2"
"","show_choice","267","457501","0.0-235.0-1.0","""event"",""trial"",""time""
""fullscreenenter"",""0"",""9302""
","
","
","""event"",""trial"",""time""
""fullscreenenter"",""0"",""9302""
","
","null","run_exp/static/images/Set 6_rs/063a.jpg","null","","","","","","test","TR",""
"","html-keyboard-response","268","458005","0.0-235.0-2.0","""event"",""trial"",""time""
""fullscreenenter"",""0"",""9302""
","
","
","""event"",""trial"",""time""
""fullscreenenter"",""0"",""9302""
","
","null","<p></p>","null","","","","","","","",""
"","image","269","459072","0.0-236.0-0.0","""event"",""trial"",""time""
""fullscreenenter"",""0"",""9302""
","
","
","""event"",""trial"",""time""
""fullscreenenter"",""0"",""9302""
","
","1061.6000000089407","run_exp/static/images/Set 6_rs/154a.jpg","86","","","","","","test","TR","3"
"","show_choice","270","459580","0.0-236.0-1.0","""event"",""trial"",""time""
""fullscreenenter"",""0"",""9302""
","
","
","""event"",""trial"",""time""
""fullscreenenter"",""0"",""9302""
","
","null","run_exp/static/images/Set 6_rs/154a.jpg","null","","","","","","test","TR",""
"","html-keyboard-response","271","460087","0.0-236.0-2.0","""event"",""trial"",""time""
""fullscreenenter"",""0"",""9302""
","
","
","""event"",""trial"",""time""
""fullscreenenter"",""0"",""9302""
","
","null","<p></p>","null","","","","","","","",""
"","image","272","461123","0.0-237.0-0.0","""event"",""trial"",""time""
""fullscreenenter"",""0"",""9302""
","
","
","""event"",""trial"",""time""
""fullscreenenter"",""0"",""9302""
","
","1027.0999999940395","run_exp/static/images/Set 6_rs/166a.jpg","86","","","","","","test","TR","1"
"","show_choice","273","461632","0.0-237.0-1.0","""event"",""trial"",""time""
""fullscreenenter"",""0"",""9302""
","
","
","""event"",""trial"",""time""
""fullscreenenter"",""0"",""9302""
","
","null","run_exp/static/images/Set 6_rs/166a.jpg","null","","","","","","test","TR",""
"","html-keyboard-response","274","462138","0.0-237.0-2.0","""event"",""trial"",""time""
""fullscreenenter"",""0"",""9302""
","
","
","""event"",""trial"",""time""
""fullscreenenter"",""0"",""9302""
","
","null","<p></p>","null","","","","","","","",""
"","image","275","463298","0.0-238.0-0.0","""event"",""trial"",""time""
""fullscreenenter"",""0"",""9302""
","
","
","""event"",""trial"",""time""
""fullscreenenter"",""0"",""9302""
","
","1152.6000000089407","run_exp/static/images/Set 6_rs/048a.jpg","78","","","","","","test","TF","4"
"","show_choice","276","463804","0.0-238.0-1.0","""event"",""trial"",""time""
""fullscreenenter"",""0"",""9302""
","
","
","""event"",""trial"",""time""
""fullscreenenter"",""0"",""9302""
","
","null","run_exp/static/images/Set 6_rs/048a.jpg","null","","","","","","test","TF",""
"","html-keyboard-response","277","464310","0.0-238.0-2.0","""event"",""trial"",""time""
""fullscreenenter"",""0"",""9302""
","
","
","""event"",""trial"",""time""
""fullscreenenter"",""0"",""9302""
","
","null","<p></p>","null","","","","","","","",""
"","image","278","465641","0.0-239.0-0.0","""event"",""trial"",""time""
""fullscreenenter"",""0"",""9302""
","
","
","""event"",""trial"",""time""
""fullscreenenter"",""0"",""9302""
","
","1324.5","run_exp/static/images/Set 6_rs/015a.jpg","78","","","","","","test","TF","4"
"","show_choice","279","466150","0.0-239.0-1.0","""event"",""trial"",""time""
""fullscreenenter"",""0"",""9302""
","
","
","""event"",""trial"",""time""
""fullscreenenter"",""0"",""9302""
","
","null","run_exp/static/images/Set 6_rs/015a.jpg","null","","","","","","test","TF",""
"","html-keyboard-response","280","466656","0.0-239.0-2.0","""event"",""trial"",""time""
""fullscreenenter"",""0"",""9302""
","
","
","""event"",""trial"",""time""
""fullscreenenter"",""0"",""9302""
","
","null","<p></p>","null","","","","","","","",""
"","image","281","468145","0.0-240.0-0.0","""event"",""trial"",""time""
""fullscreenenter"",""0"",""9302""
","
","
","""event"",""trial"",""time""
""fullscreenenter"",""0"",""9302""
","
","1482.1000000089407","run_exp/static/images/Set 6_rs/138b.jpg","66","","","","","","test","TL","1"
"","show_choice","282","468654","0.0-240.0-1.0","""event"",""trial"",""time""
""fullscreenenter"",""0"",""9302""
","
","
","""event"",""trial"",""time""
""fullscreenenter"",""0"",""9302""
","
","null","run_exp/static/images/Set 6_rs/138b.jpg","null","","","","","","test","TL",""
"","html-keyboard-response","283","469160","0.0-240.0-2.0","""event"",""trial"",""time""
""fullscreenenter"",""0"",""9302""
","
","
","""event"",""trial"",""time""
""fullscreenenter"",""0"",""9302""
","
","null","<p></p>","null","","","","","","","",""
"","image","284","470406","0.0-241.0-0.0","""event"",""trial"",""time""
""fullscreenenter"",""0"",""9302""
","
","
","""event"",""trial"",""time""
""fullscreenenter"",""0"",""9302""
","
","1236.5","run_exp/static/images/Set 6_rs/025b.jpg","86","","","","","","test","TL","5"
"","show_choice","285","470913","0.0-241.0-1.0","""event"",""trial"",""time""
""fullscreenenter"",""0"",""9302""
","
","
","""event"",""trial"",""time""
""fullscreenenter"",""0"",""9302""
","
","null","run_exp/static/images/Set 6_rs/025b.jpg","null","","","","","","test","TL",""
"","html-keyboard-response","286","471419","0.0-241.0-2.0","""event"",""trial"",""time""
""fullscreenenter"",""0"",""9302""
","
","
","""event"",""trial"",""time""
""fullscreenenter"",""0"",""9302""
","
","null","<p></p>","null","","","","","","","",""
"","image","287","472800","0.0-242.0-0.0","""event"",""trial"",""time""
""fullscreenenter"",""0"",""9302""
","
","
","""event"",""trial"",""time""
""fullscreenenter"",""0"",""9302""
","
","1371.3999999910593","run_exp/static/images/Set 6_rs/070a.jpg","86","","","","","","test","TR","2"
"","show_choice","288","473305","0.0-242.0-1.0","""event"",""trial"",""time""
""fullscreenenter"",""0"",""9302""
","
","
","""event"",""trial"",""time""
""fullscreenenter"",""0"",""9302""
","
","null","run_exp/static/images/Set 6_rs/070a.jpg","null","","","","","","test","TR",""
"","html-keyboard-response","289","473810","0.0-242.0-2.0","""event"",""trial"",""time""
""fullscreenenter"",""0"",""9302""
","
","
","""event"",""trial"",""time""
""fullscreenenter"",""0"",""9302""
","
","null","<p></p>","null","","","","","","","",""
"","image","290","475111","0.0-243.0-0.0","""event"",""trial"",""time""
""fullscreenenter"",""0"",""9302""
","
","
","""event"",""trial"",""time""
""fullscreenenter"",""0"",""9302""
","
","1287.7000000029802","run_exp/static/images/Set 6_rs/091b.jpg","66","","","","","","test","TL","3"
"","show_choice","291","475618","0.0-243.0-1.0","""event"",""trial"",""time""
""fullscreenenter"",""0"",""9302""
","
","
","""event"",""trial"",""time""
""fullscreenenter"",""0"",""9302""
","
","null","run_exp/static/images/Set 6_rs/091b.jpg","null","","","","","","test","TL",""
"","html-keyboard-response","292","476123","0.0-243.0-2.0","""event"",""trial"",""time""
""fullscreenenter"",""0"",""9302""
","
","
","""event"",""trial"",""time""
""fullscreenenter"",""0"",""9302""
","
","null","<p></p>","null","","","","","","","",""
"","image","293","477636","0.0-244.0-0.0","""event"",""trial"",""time""
""fullscreenenter"",""0"",""9302""
","
","
","""event"",""trial"",""time""
""fullscreenenter"",""0"",""9302""
","
","1508.2999999970198","run_exp/static/images/Set 6_rs/186a.jpg","86","","","","","","test","TR","5"
"","show_choice","294","478144","0.0-244.0-1.0","""event"",""trial"",""time""
""fullscreenenter"",""0"",""9302""
","
","
","""event"",""trial"",""time""
""fullscreenenter"",""0"",""9302""
","
","null","run_exp/static/images/Set 6_rs/186a.jpg","null","","","","","","test","TR",""
"","html-keyboard-response","295","478648","0.0-244.0-2.0","""event"",""trial"",""time""
""fullscreenenter"",""0"",""9302""
","
","
","""event"",""trial"",""time""
""fullscreenenter"",""0"",""9302""
","
","null","<p></p>","null","","","","","","","",""
"","image","296","480101","0.0-245.0-0.0","""event"",""trial"",""time""
""fullscreenenter"",""0"",""9302""
","
","
","""event"",""trial"",""time""
""fullscreenenter"",""0"",""9302""
","
","1449.2000000029802","run_exp/static/images/Set 6_rs/073b.jpg","66","","","","","","test","TL","3"
"","show_choice","297","480608","0.0-245.0-1.0","""event"",""trial"",""time""
""fullscreenenter"",""0"",""9302""
","
","
","""event"",""trial"",""time""
""fullscreenenter"",""0"",""9302""
","
","null","run_exp/static/images/Set 6_rs/073b.jpg","null","","","","","","test","TL",""
"","html-keyboard-response","298","481112","0.0-245.0-2.0","""event"",""trial"",""time""
""fullscreenenter"",""0"",""9302""
","
","
","""event"",""trial"",""time""
""fullscreenenter"",""0"",""9302""
","
","null","<p></p>","null","","","","","","","",""
"","image","299","482481","0.0-246.0-0.0","""event"",""trial"",""time""
""fullscreenenter"",""0"",""9302""
","
","
","""event"",""trial"",""time""
""fullscreenenter"",""0"",""9302""
","
","1358.8999999910593","run_exp/static/images/Set 6_rs/066b.jpg","78","","","","","","test","TL","5"
"","show_choice","300","482989","0.0-246.0-1.0","""event"",""trial"",""time""
""fullscreenenter"",""0"",""9302""
","
","
","""event"",""trial"",""time""
""fullscreenenter"",""0"",""9302""
","
","null","run_exp/static/images/Set 6_rs/066b.jpg","null","","","","","","test","TL",""
"","html-keyboard-response","301","483493","0.0-246.0-2.0","""event"",""trial"",""time""
""fullscreenenter"",""0"",""9302""
","
","
","""event"",""trial"",""time""
""fullscreenenter"",""0"",""9302""
","
","null","<p></p>","null","","","","","","","",""
"","image","302","484969","0.0-247.0-0.0","""event"",""trial"",""time""
""fullscreenenter"",""0"",""9302""
","
","
","""event"",""trial"",""time""
""fullscreenenter"",""0"",""9302""
","
","1471.5999999940395","run_exp/static/images/Set 6_rs/152a.jpg","66","","","","","","test","TR","2"
"","show_choice","303","485477","0.0-247.0-1.0","""event"",""trial"",""time""
""fullscreenenter"",""0"",""9302""
","
","
","""event"",""trial"",""time""
""fullscreenenter"",""0"",""9302""
","
","null","run_exp/static/images/Set 6_rs/152a.jpg","null","","","","","","test","TR",""
"","html-keyboard-response","304","485984","0.0-247.0-2.0","""event"",""trial"",""time""
""fullscreenenter"",""0"",""9302""
","
","
","""event"",""trial"",""time""
""fullscreenenter"",""0"",""9302""
","
","null","<p></p>","null","","","","","","","",""
"","image","305","487529","0.0-248.0-0.0","""event"",""trial"",""time""
""fullscreenenter"",""0"",""9302""
","
","
","""event"",""trial"",""time""
""fullscreenenter"",""0"",""9302""
","
","1535.8999999910593","run_exp/static/images/Set 6_rs/141a.jpg","86","","","","","","test","TR","2"
"","show_choice","306","488034","0.0-248.0-1.0","""event"",""trial"",""time""
""fullscreenenter"",""0"",""9302""
","
","
","""event"",""trial"",""time""
""fullscreenenter"",""0"",""9302""
","
","null","run_exp/static/images/Set 6_rs/141a.jpg","null","","","","","","test","TR",""
"","html-keyboard-response","307","488539","0.0-248.0-2.0","""event"",""trial"",""time""
""fullscreenenter"",""0"",""9302""
","
","
","""event"",""trial"",""time""
""fullscreenenter"",""0"",""9302""
","
","null","<p></p>","null","","","","","","","",""
"","image","308","489454","0.0-249.0-0.0","""event"",""trial"",""time""
""fullscreenenter"",""0"",""9302""
","
","
","""event"",""trial"",""time""
""fullscreenenter"",""0"",""9302""
","
","909.7999999970198","run_exp/static/images/Set 6_rs/172a.jpg","86","","","","","","test","TR","1"
"","show_choice","309","489961","0.0-249.0-1.0","""event"",""trial"",""time""
""fullscreenenter"",""0"",""9302""
","
","
","""event"",""trial"",""time""
""fullscreenenter"",""0"",""9302""
","
","null","run_exp/static/images/Set 6_rs/172a.jpg","null","","","","","","test","TR",""
"","html-keyboard-response","310","490467","0.0-249.0-2.0","""event"",""trial"",""time""
""fullscreenenter"",""0"",""9302""
","
","
","""event"",""trial"",""time""
""fullscreenenter"",""0"",""9302""
","
","null","<p></p>","null","","","","","","","",""
"","image","311","491671","0.0-250.0-0.0","""event"",""trial"",""time""
""fullscreenenter"",""0"",""9302""
","
","
","""event"",""trial"",""time""
""fullscreenenter"",""0"",""9302""
","
","1196.3999999910593","run_exp/static/images/Set 6_rs/140a.jpg","78","","","","","","test","TF","1"
"","show_choice","312","492177","0.0-250.0-1.0","""event"",""trial"",""time""
""fullscreenenter"",""0"",""9302""
","
","
","""event"",""trial"",""time""
""fullscreenenter"",""0"",""9302""
","
","null","run_exp/static/images/Set 6_rs/140a.jpg","null","","","","","","test","TF",""
"","html-keyboard-response","313","492683","0.0-250.0-2.0","""event"",""trial"",""time""
""fullscreenenter"",""0"",""9302""
","
","
","""event"",""trial"",""time""
""fullscreenenter"",""0"",""9302""
","
","null","<p></p>","null","","","","","","","",""
"","image","314","493875","0.0-251.0-0.0","""event"",""trial"",""time""
""fullscreenenter"",""0"",""9302""
","
","
","""event"",""trial"",""time""
""fullscreenenter"",""0"",""9302""
","
","1186.0999999940395","run_exp/static/images/Set 6_rs/123b.jpg","66","","","","","","test","TL","2"
"","show_choice","315","494380","0.0-251.0-1.0","""event"",""trial"",""time""
""fullscreenenter"",""0"",""9302""
","
","
","""event"",""trial"",""time""
""fullscreenenter"",""0"",""9302""
","
","null","run_exp/static/images/Set 6_rs/123b.jpg","null","","","","","","test","TL",""
"","html-keyboard-response","316","494885","0.0-251.0-2.0","""event"",""trial"",""time""
""fullscreenenter"",""0"",""9302""
","
","
","""event"",""trial"",""time""
""fullscreenenter"",""0"",""9302""
","
","null","<p></p>","null","","","","","","","",""
"","image","317","496960","0.0-252.0-0.0","""event"",""trial"",""time""
""fullscreenenter"",""0"",""9302""
","
","
","""event"",""trial"",""time""
""fullscreenenter"",""0"",""9302""
","
","2065.5999999940395","run_exp/static/images/Set 6_rs/150a.jpg","86","","","","","","test","TR","1"
"","show_choice","318","497465","0.0-252.0-1.0","""event"",""trial"",""time""
""fullscreenenter"",""0"",""9302""
","
","
","""event"",""trial"",""time""
""fullscreenenter"",""0"",""9302""
","
","null","run_exp/static/images/Set 6_rs/150a.jpg","null","","","","","","test","TR",""
"","html-keyboard-response","319","497971","0.0-252.0-2.0","""event"",""trial"",""time""
""fullscreenenter"",""0"",""9302""
","
","
","""event"",""trial"",""time""
""fullscreenenter"",""0"",""9302""
","
","null","<p></p>","null","","","","","","","",""
"","image","320","499670","0.0-253.0-0.0","""event"",""trial"",""time""
""fullscreenenter"",""0"",""9302""
","
","
","""event"",""trial"",""time""
""fullscreenenter"",""0"",""9302""
","
","1690.699999988079","run_exp/static/images/Set 6_rs/187a.jpg","86","","","","","","test","TR","3"
"","show_choice","321","500175","0.0-253.0-1.0","""event"",""trial"",""time""
""fullscreenenter"",""0"",""9302""
","
","
","""event"",""trial"",""time""
""fullscreenenter"",""0"",""9302""
","
","null","run_exp/static/images/Set 6_rs/187a.jpg","null","","","","","","test","TR",""
"","html-keyboard-response","322","500679","0.0-253.0-2.0","""event"",""trial"",""time""
""fullscreenenter"",""0"",""9302""
","
","
","""event"",""trial"",""time""
""fullscreenenter"",""0"",""9302""
","
","null","<p></p>","null","","","","","","","",""
"","image","323","502311","0.0-254.0-0.0","""event"",""trial"",""time""
""fullscreenenter"",""0"",""9302""
","
","
","""event"",""trial"",""time""
""fullscreenenter"",""0"",""9302""
","
","1627.2000000029802","run_exp/static/images/Set 6_rs/105a.jpg","78","","","","","","test","TF","5"
"","show_choice","324","502815","0.0-254.0-1.0","""event"",""trial"",""time""
""fullscreenenter"",""0"",""9302""
","
","
","""event"",""trial"",""time""
""fullscreenenter"",""0"",""9302""
","
","null","run_exp/static/images/Set 6_rs/105a.jpg","null","","","","","","test","TF",""
"","html-keyboard-response","325","503321","0.0-254.0-2.0","""event"",""trial"",""time""
""fullscreenenter"",""0"",""9302""
","
","
","""event"",""trial"",""time""
""fullscreenenter"",""0"",""9302""
","
","null","<p></p>","null","","","","","","","",""
"","image","326","504373","0.0-255.0-0.0","""event"",""trial"",""time""
""fullscreenenter"",""0"",""9302""
","
","
","""event"",""trial"",""time""
""fullscreenenter"",""0"",""9302""
","
","1042.5999999940395","run_exp/static/images/Set 6_rs/007a.jpg","78","","","","","","test","TR","3"
"","show_choice","327","504879","0.0-255.0-1.0","""event"",""trial"",""time""
""fullscreenenter"",""0"",""9302""
","
","
","""event"",""trial"",""time""
""fullscreenenter"",""0"",""9302""
","
","null","run_exp/static/images/Set 6_rs/007a.jpg","null","","","","","","test","TR",""
"","html-keyboard-response","328","505384","0.0-255.0-2.0","""event"",""trial"",""time""
""fullscreenenter"",""0"",""9302""
","
","
","""event"",""trial"",""time""
""fullscreenenter"",""0"",""9302""
","
","null","<p></p>","null","","","","","","","",""
"","image","329","506503","0.0-256.0-0.0","""event"",""trial"",""time""
""fullscreenenter"",""0"",""9302""
","
","
","""event"",""trial"",""time""
""fullscreenenter"",""0"",""9302""
","
","1110","run_exp/static/images/Set 6_rs/078a.jpg","78","","","","","","test","TF","1"
"","show_choice","330","507007","0.0-256.0-1.0","""event"",""trial"",""time""
""fullscreenenter"",""0"",""9302""
","
","
","""event"",""trial"",""time""
""fullscreenenter"",""0"",""9302""
","
","null","run_exp/static/images/Set 6_rs/078a.jpg","null","","","","","","test","TF",""
"","html-keyboard-response","331","507511","0.0-256.0-2.0","""event"",""trial"",""time""
""fullscreenenter"",""0"",""9302""
","
","
","""event"",""trial"",""time""
""fullscreenenter"",""0"",""9302""
","
","null","<p></p>","null","","","","","","","",""
"","image","332","510521","0.0-257.0-0.0","""event"",""trial"",""time""
""fullscreenenter"",""0"",""9302""
","
","
","""event"",""trial"",""time""
""fullscreenenter"",""0"",""9302""
","
","null","run_exp/static/images/Set 6_rs/089b.jpg","null","","","","","","test","TL","4"
"","show_choice","333","511029","0.0-257.0-1.0","""event"",""trial"",""time""
""fullscreenenter"",""0"",""9302""
","
","
","""event"",""trial"",""time""
""fullscreenenter"",""0"",""9302""
","
","null","run_exp/static/images/Set 6_rs/089b.jpg","null","","","","","","test","TL",""
"","html-keyboard-response","334","511534","0.0-257.0-2.0","""event"",""trial"",""time""
""fullscreenenter"",""0"",""9302""
","
","
","""event"",""trial"",""time""
""fullscreenenter"",""0"",""9302""
","
","null","<p></p>","null","","","","","","","",""
"","image","335","512715","0.0-258.0-0.0","""event"",""trial"",""time""
""fullscreenenter"",""0"",""9302""
","
","
","""event"",""trial"",""time""
""fullscreenenter"",""0"",""9302""
","
","1173","run_exp/static/images/Set 6_rs/023a.jpg","86","","","","","","test","TR","3"
"","show_choice","336","513221","0.0-258.0-1.0","""event"",""trial"",""time""
""fullscreenenter"",""0"",""9302""
","
","
","""event"",""trial"",""time""
""fullscreenenter"",""0"",""9302""
","
","null","run_exp/static/images/Set 6_rs/023a.jpg","null","","","","","","test","TR",""
"","html-keyboard-response","337","513726","0.0-258.0-2.0","""event"",""trial"",""time""
""fullscreenenter"",""0"",""9302""
","
","
","""event"",""trial"",""time""
""fullscreenenter"",""0"",""9302""
