"success","trial_type","trial_index","time_elapsed","internal_node_id","interactions","blur_events","focus_events","fullscreenenter_events","fullscreenexit_events","rt","stimulus","key_press","subject_id","participant_id","age","gender","prompt","phase","condition","lure_bin"
"true","fullscreen","0","3802","0.0-0.0","""event"",""trial"",""time""
""fullscreenenter"",""0"",""2823""
","
","
","""event"",""trial"",""time""
""fullscreenenter"",""0"",""2823""
","
","","","","","","","","","","",""
"","pavlovia","1","3810","0.0-1.0","""event"",""trial"",""time""
""fullscreenenter"",""0"",""2823""
","
","
","""event"",""trial"",""time""
""fullscreenenter"",""0"",""2823""
","
","","","","","","","","","","",""
"","welcome","2","38756","0.0-2.0","""event"",""trial"",""time""
""fullscreenenter"",""0"",""2823""
","
","
","""event"",""trial"",""time""
""fullscreenenter"",""0"",""2823""
","
","null","run_exp/static/audio/clip_1_welcome.m4a","null","1114","965","16","Female","<div class='center'><p>Welcome to the third part of the study! First, you'll be shown pictures of items one at a time. For each picture, you have to decide if the item is typically found indoors or outdoors.</p><p>If you think it's usually found indoors, then press <b>v</b> key on your keyboard. If you think it's usually found outdoors, then press the <b>n</b> key.There will be reminders on the screen to help you remember which keys to press. </p><p>If you're not sure whether the item is an indoor item or an outdoor item, go ahead and take a guess but try your best not to skip that choice. </p></div>","","",""
"","html-keyboard-response","3","39990","0.0-3.0","""event"",""trial"",""time""
""fullscreenenter"",""0"",""2823""
","
","
","""event"",""trial"",""time""
""fullscreenenter"",""0"",""2823""
","
","1228.5999999940395","<div class='center'><p>Welcome to the third part of the study! First, you'll be shown pictures of items one at a time. For each picture, you have to decide if the item is typically found indoors or outdoors.</p><p>If you think it's usually found indoors, then press <b>v</b> key on your keyboard. If you think it's usually found outdoors, then press the <b>n</b> key.There will be reminders on the screen to help you remember which keys to press. </p><p>If you're not sure whether the item is an indoor item or an outdoor item, go ahead and take a guess but try your best not to skip that choice. </p><div><p><b>[Press the space bar to continue]</b></p></div>","32","","","","","","","",""
"","image","4","41994","0.0-4.0","""event"",""trial"",""time""
""fullscreenenter"",""0"",""2823""
","
","
","""event"",""trial"",""time""
""fullscreenenter"",""0"",""2823""
","
","null","run_exp/static/images/Set 6_rs/036a.jpg","null","","","","","","learn","SL",""
"","show_choice","5","43997","0.0-5.0","""event"",""trial"",""time""
""fullscreenenter"",""0"",""2823""
","
","
","""event"",""trial"",""time""
""fullscreenenter"",""0"",""2823""
","
","null","run_exp/static/images/blank.png","null","","","","","","learn","SL",""
"","html-keyboard-response","6","44499","0.0-6.0","""event"",""trial"",""time""
""fullscreenenter"",""0"",""2823""
","
","
","""event"",""trial"",""time""
""fullscreenenter"",""0"",""2823""
","
","null","<p></p>","null","","","","","","","",""
"","image","7","45610","0.0-7.0","""event"",""trial"",""time""
""fullscreenenter"",""0"",""2823""
","
","
","""event"",""trial"",""time""
""fullscreenenter"",""0"",""2823""
","
","1108.4000000059605","run_exp/static/images/Set 6_rs/169a.jpg","86","","","","","","learn","SR",""
"","show_choice","8","46504","0.0-8.0","""event"",""trial"",""time""
""fullscreenenter"",""0"",""2823""
","
","
","""event"",""trial"",""time""
""fullscreenenter"",""0"",""2823""
","
","null","run_exp/static/images/Set 6_rs/169a.jpg","null","","","","","","learn","SR",""
"","html-keyboard-response","9","47006","0.0-9.0","""event"",""trial"",""time""
""fullscreenenter"",""0"",""2823""
","
","
","""event"",""trial"",""time""
""fullscreenenter"",""0"",""2823""
","
","null","<p></p>","null","","","","","","","",""
"","image","10","48523","0.0-10.0","""event"",""trial"",""time""
""fullscreenenter"",""0"",""2823""
","
","
","""event"",""trial"",""time""
""fullscreenenter"",""0"",""2823""
","
","1514.800000011921","run_exp/static/images/Set 6_rs/108a.jpg","78","","","","","","learn","SR",""
"","show_choice","11","49010","0.0-11.0","""event"",""trial"",""time""
""fullscreenenter"",""0"",""2823""
","
","
","""event"",""trial"",""time""
""fullscreenenter"",""0"",""2823""
","
","null","run_exp/static/images/Set 6_rs/108a.jpg","null","","","","","","learn","SR",""
"","html-keyboard-response","12","49511","0.0-12.0","""event"",""trial"",""time""
""fullscreenenter"",""0"",""2823""
","
","
","""event"",""trial"",""time""
""fullscreenenter"",""0"",""2823""
","
","null","<p></p>","null","","","","","","","",""
"","image","13","51384","0.0-13.0","""event"",""trial"",""time""
""fullscreenenter"",""0"",""2823""
","
","
","""event"",""trial"",""time""
""fullscreenenter"",""0"",""2823""
","
","1867.4000000059605","run_exp/static/images/Set 6_rs/152a.jpg","78","","","","","","learn","SR",""
"","show_choice","14","51518","0.0-14.0","""event"",""trial"",""time""
""fullscreenenter"",""0"",""2823""
","
","
","""event"",""trial"",""time""
""fullscreenenter"",""0"",""2823""
","
","null","run_exp/static/images/Set 6_rs/152a.jpg","null","","","","","","learn","SR",""
"","html-keyboard-response","15","52019","0.0-15.0","""event"",""trial"",""time""
""fullscreenenter"",""0"",""2823""
","
","
","""event"",""trial"",""time""
""fullscreenenter"",""0"",""2823""
","
","null","<p></p>","null","","","","","","","",""
"","image","16","53323","0.0-16.0","""event"",""trial"",""time""
""fullscreenenter"",""0"",""2823""
","
","
","""event"",""trial"",""time""
""fullscreenenter"",""0"",""2823""
","
","1300.9000000059605","run_exp/static/images/Set 6_rs/045a.jpg","86","","","","","","learn","SR",""
"","show_choice","17","54024","0.0-17.0","""event"",""trial"",""time""
""fullscreenenter"",""0"",""2823""
","
","
","""event"",""trial"",""time""
""fullscreenenter"",""0"",""2823""
","
","null","run_exp/static/images/Set 6_rs/045a.jpg","null","","","","","","learn","SR",""
"","html-keyboard-response","18","54526","0.0-18.0","""event"",""trial"",""time""
""fullscreenenter"",""0"",""2823""
","
","
","""event"",""trial"",""time""
""fullscreenenter"",""0"",""2823""
","
","null","<p></p>","null","","","","","","","",""
"","image","19","55720","0.0-19.0","""event"",""trial"",""time""
""fullscreenenter"",""0"",""2823""
","
","
","""event"",""trial"",""time""
""fullscreenenter"",""0"",""2823""
","
","1191.9000000059605","run_exp/static/images/Set 6_rs/073a.jpg","86","","","","","","learn","SL",""
"","show_choice","20","56530","0.0-20.0","""event"",""trial"",""time""
""fullscreenenter"",""0"",""2823""
","
","
","""event"",""trial"",""time""
""fullscreenenter"",""0"",""2823""
","
","null","run_exp/static/images/Set 6_rs/073a.jpg","null","","","","","","learn","SL",""
"","html-keyboard-response","21","57031","0.0-21.0","""event"",""trial"",""time""
""fullscreenenter"",""0"",""2823""
","
","
","""event"",""trial"",""time""
""fullscreenenter"",""0"",""2823""
","
","null","<p></p>","null","","","","","","","",""
"","image","22","58342","0.0-22.0","""event"",""trial"",""time""
""fullscreenenter"",""0"",""2823""
","
","
","""event"",""trial"",""time""
""fullscreenenter"",""0"",""2823""
","
","1308.300000011921","run_exp/static/images/Set 6_rs/016a.jpg","86","","","","","","learn","SL",""
"","show_choice","23","59036","0.0-23.0","""event"",""trial"",""time""
""fullscreenenter"",""0"",""2823""
","
","
","""event"",""trial"",""time""
""fullscreenenter"",""0"",""2823""
","
","null","run_exp/static/images/Set 6_rs/016a.jpg","null","","","","","","learn","SL",""
"","html-keyboard-response","24","59537","0.0-24.0","""event"",""trial"",""time""
""fullscreenenter"",""0"",""2823""
","
","
","""event"",""trial"",""time""
""fullscreenenter"",""0"",""2823""
","
","null","<p></p>","null","","","","","","","",""
"","image","25","61540","0.0-25.0","""event"",""trial"",""time""
""fullscreenenter"",""0"",""2823""
","
","
","""event"",""trial"",""time""
""fullscreenenter"",""0"",""2823""
","
","null","run_exp/static/images/Set 6_rs/071a.jpg","null","","","","","","learn","SL",""
"","show_choice","26","63543","0.0-26.0","""event"",""trial"",""time""
""fullscreenenter"",""0"",""2823""
","
","
","""event"",""trial"",""time""
""fullscreenenter"",""0"",""2823""
","
","null","run_exp/static/images/blank.png","null","","","","","","learn","SL",""
"","html-keyboard-response","27","64045","0.0-27.0","""event"",""trial"",""time""
""fullscreenenter"",""0"",""2823""
","
","
","""event"",""trial"",""time""
""fullscreenenter"",""0"",""2823""
","
","null","<p></p>","null","","","","","","","",""
"","image","28","65736","0.0-28.0","""event"",""trial"",""time""
""fullscreenenter"",""0"",""2823""
","
","
","""event"",""trial"",""time""
""fullscreenenter"",""0"",""2823""
","
","1689.199999988079","run_exp/static/images/Set 6_rs/187a.jpg","78","","","","","","learn","SR",""
"","show_choice","29","66049","0.0-29.0","""event"",""trial"",""time""
""fullscreenenter"",""0"",""2823""
","
","
","""event"",""trial"",""time""
""fullscreenenter"",""0"",""2823""
","
","null","run_exp/static/images/Set 6_rs/187a.jpg","null","","","","","","learn","SR",""
"","html-keyboard-response","30","66550","0.0-30.0","""event"",""trial"",""time""
""fullscreenenter"",""0"",""2823""
","
","
","""event"",""trial"",""time""
""fullscreenenter"",""0"",""2823""
","
","null","<p></p>","null","","","","","","","",""
"","image","31","67655","0.0-31.0","""event"",""trial"",""time""
""fullscreenenter"",""0"",""2823""
","
","
","""event"",""trial"",""time""
""fullscreenenter"",""0"",""2823""
","
","1101","run_exp/static/images/Set 6_rs/076a.jpg","78","","","","","","learn","SR",""
"","show_choice","32","68556","0.0-32.0","""event"",""trial"",""time""
""fullscreenenter"",""0"",""2823""
","
","
","""event"",""trial"",""time""
""fullscreenenter"",""0"",""2823""
","
","null","run_exp/static/images/Set 6_rs/076a.jpg","null","","","","","","learn","SR",""
"","html-keyboard-response","33","69058","0.0-33.0","""event"",""trial"",""time""
""fullscreenenter"",""0"",""2823""
","
","
","""event"",""trial"",""time""
""fullscreenenter"",""0"",""2823""
","
","null","<p></p>","null","","","","","","","",""
"","image","34","70185","0.0-34.0","""event"",""trial"",""time""
""fullscreenenter"",""0"",""2823""
","
","
","""event"",""trial"",""time""
""fullscreenenter"",""0"",""2823""
","
","1124.699999988079","run_exp/static/images/Set 6_rs/166a.jpg","78","","","","","","learn","SR",""
"","show_choice","35","71062","0.0-35.0","""event"",""trial"",""time""
""fullscreenenter"",""0"",""2823""
","
","
","""event"",""trial"",""time""
""fullscreenenter"",""0"",""2823""
","
","null","run_exp/static/images/Set 6_rs/166a.jpg","null","","","","","","learn","SR",""
"","html-keyboard-response","36","71564","0.0-36.0","""event"",""trial"",""time""
""fullscreenenter"",""0"",""2823""
","
","
","""event"",""trial"",""time""
""fullscreenenter"",""0"",""2823""
","
","null","<p></p>","null","","","","","","","",""
"","image","37","72512","0.0-37.0","""event"",""trial"",""time""
""fullscreenenter"",""0"",""2823""
","
","
","""event"",""trial"",""time""
""fullscreenenter"",""0"",""2823""
","
","946.1000000238419","run_exp/static/images/Set 6_rs/070a.jpg","86","","","","","","learn","SR",""
"","show_choice","38","73568","0.0-38.0","""event"",""trial"",""time""
""fullscreenenter"",""0"",""2823""
","
","
","""event"",""trial"",""time""
""fullscreenenter"",""0"",""2823""
","
","null","run_exp/static/images/Set 6_rs/070a.jpg","null","","","","","","learn","SR",""
"","html-keyboard-response","39","74069","0.0-39.0","""event"",""trial"",""time""
""fullscreenenter"",""0"",""2823""
","
","
","""event"",""trial"",""time""
""fullscreenenter"",""0"",""2823""
","
","null","<p></p>","null","","","","","","","",""
"","image","40","75152","0.0-40.0","""event"",""trial"",""time""
""fullscreenenter"",""0"",""2823""
","
","
","""event"",""trial"",""time""
""fullscreenenter"",""0"",""2823""
","
","1080.5999999940395","run_exp/static/images/Set 6_rs/085a.jpg","86","","","","","","learn","SL",""
"","show_choice","41","76074","0.0-41.0","""event"",""trial"",""time""
""fullscreenenter"",""0"",""2823""
","
","
","""event"",""trial"",""time""
""fullscreenenter"",""0"",""2823""
","
","null","run_exp/static/images/Set 6_rs/085a.jpg","null","","","","","","learn","SL",""
"","html-keyboard-response","42","76575","0.0-42.0","""event"",""trial"",""time""
""fullscreenenter"",""0"",""2823""
","
","
","""event"",""trial"",""time""
""fullscreenenter"",""0"",""2823""
","
","null","<p></p>","null","","","","","","","",""
"","image","43","77996","0.0-43.0","""event"",""trial"",""time""
""fullscreenenter"",""0"",""2823""
","
","
","""event"",""trial"",""time""
""fullscreenenter"",""0"",""2823""
","
","1418.199999988079","run_exp/static/images/Set 6_rs/024a.jpg","86","","","","","","learn","SR",""
"","show_choice","44","78579","0.0-44.0","""event"",""trial"",""time""
""fullscreenenter"",""0"",""2823""
","
","
","""event"",""trial"",""time""
""fullscreenenter"",""0"",""2823""
","
","null","run_exp/static/images/Set 6_rs/024a.jpg","null","","","","","","learn","SR",""
"","html-keyboard-response","45","79081","0.0-45.0","""event"",""trial"",""time""
""fullscreenenter"",""0"",""2823""
","
","
","""event"",""trial"",""time""
""fullscreenenter"",""0"",""2823""
","
","null","<p></p>","null","","","","","","","",""
"","image","46","80043","0.0-46.0","""event"",""trial"",""time""
""fullscreenenter"",""0"",""2823""
","
","
","""event"",""trial"",""time""
""fullscreenenter"",""0"",""2823""
","
","959.4000000059605","run_exp/static/images/Set 6_rs/186a.jpg","86","","","","","","learn","SR",""
"","show_choice","47","81085","0.0-47.0","""event"",""trial"",""time""
""fullscreenenter"",""0"",""2823""
","
","
","""event"",""trial"",""time""
""fullscreenenter"",""0"",""2823""
","
","null","run_exp/static/images/Set 6_rs/186a.jpg","null","","","","","","learn","SR",""
"","html-keyboard-response","48","81587","0.0-48.0","""event"",""trial"",""time""
""fullscreenenter"",""0"",""2823""
","
","
","""event"",""trial"",""time""
""fullscreenenter"",""0"",""2823""
","
","null","<p></p>","null","","","","","","","",""
"","image","49","83301","0.0-49.0","""event"",""trial"",""time""
""fullscreenenter"",""0"",""2823""
","
","
","""event"",""trial"",""time""
""fullscreenenter"",""0"",""2823""
","
","1711.9000000059605","run_exp/static/images/Set 6_rs/134a.jpg","86","","","","","","learn","SR",""
"","show_choice","50","83592","0.0-50.0","""event"",""trial"",""time""
""fullscreenenter"",""0"",""2823""
","
","
","""event"",""trial"",""time""
""fullscreenenter"",""0"",""2823""
","
","null","run_exp/static/images/Set 6_rs/134a.jpg","null","","","","","","learn","SR",""
"","html-keyboard-response","51","84093","0.0-51.0","""event"",""trial"",""time""
""fullscreenenter"",""0"",""2823""
","
","
","""event"",""trial"",""time""
""fullscreenenter"",""0"",""2823""
","
","null","<p></p>","null","","","","","","","",""
"","image","52","85782","0.0-52.0","""event"",""trial"",""time""
""fullscreenenter"",""0"",""2823""
","
","
","""event"",""trial"",""time""
""fullscreenenter"",""0"",""2823""
","
","1685.5","run_exp/static/images/Set 6_rs/131a.jpg","86","","","","","","learn","SR",""
"","show_choice","53","86098","0.0-53.0","""event"",""trial"",""time""
""fullscreenenter"",""0"",""2823""
","
","
","""event"",""trial"",""time""
""fullscreenenter"",""0"",""2823""
","
","null","run_exp/static/images/Set 6_rs/131a.jpg","null","","","","","","learn","SR",""
"","html-keyboard-response","54","86599","0.0-54.0","""event"",""trial"",""time""
""fullscreenenter"",""0"",""2823""
","
","
","""event"",""trial"",""time""
""fullscreenenter"",""0"",""2823""
","
","null","<p></p>","null","","","","","","","",""
"","image","55","88263","0.0-55.0","""event"",""trial"",""time""
""fullscreenenter"",""0"",""2823""
","
","
","""event"",""trial"",""time""
""fullscreenenter"",""0"",""2823""
","
","1662","run_exp/static/images/Set 6_rs/138a.jpg","78","","","","","","learn","SL",""
"","show_choice","56","88604","0.0-56.0","""event"",""trial"",""time""
""fullscreenenter"",""0"",""2823""
","
","
","""event"",""trial"",""time""
""fullscreenenter"",""0"",""2823""
","
","null","run_exp/static/images/Set 6_rs/138a.jpg","null","","","","","","learn","SL",""
"","html-keyboard-response","57","89105","0.0-57.0","""event"",""trial"",""time""
""fullscreenenter"",""0"",""2823""
","
","
","""event"",""trial"",""time""
""fullscreenenter"",""0"",""2823""
","
","null","<p></p>","null","","","","","","","",""
"","image","58","89947","0.0-58.0","""event"",""trial"",""time""
""fullscreenenter"",""0"",""2823""
","
","
","""event"",""trial"",""time""
""fullscreenenter"",""0"",""2823""
","
","839.5","run_exp/static/images/Set 6_rs/095a.jpg","86","","","","","","learn","SL",""
"","show_choice","59","91110","0.0-59.0","""event"",""trial"",""time""
""fullscreenenter"",""0"",""2823""
","
","
","""event"",""trial"",""time""
""fullscreenenter"",""0"",""2823""
","
","null","run_exp/static/images/Set 6_rs/095a.jpg","null","","","","","","learn","SL",""
"","html-keyboard-response","60","91611","0.0-60.0","""event"",""trial"",""time""
""fullscreenenter"",""0"",""2823""
","
","
","""event"",""trial"",""time""
""fullscreenenter"",""0"",""2823""
","
","null","<p></p>","null","","","","","","","",""
"","image","61","93190","0.0-61.0","""event"",""trial"",""time""
""fullscreenenter"",""0"",""2823""
","
","
","""event"",""trial"",""time""
""fullscreenenter"",""0"",""2823""
","
","1576.2999999821186","run_exp/static/images/Set 6_rs/017a.jpg","86","","","","","","learn","SL",""
"","show_choice","62","93615","0.0-62.0","""event"",""trial"",""time""
""fullscreenenter"",""0"",""2823""
","
","
","""event"",""trial"",""time""
""fullscreenenter"",""0"",""2823""
","
","null","run_exp/static/images/Set 6_rs/017a.jpg","null","","","","","","learn","SL",""
"","html-keyboard-response","63","94118","0.0-63.0","""event"",""trial"",""time""
""fullscreenenter"",""0"",""2823""
","
","
","""event"",""trial"",""time""
""fullscreenenter"",""0"",""2823""
","
","null","<p></p>","null","","","","","","","",""
"","image","64","95192","0.0-64.0","""event"",""trial"",""time""
""fullscreenenter"",""0"",""2823""
","
","
","""event"",""trial"",""time""
""fullscreenenter"",""0"",""2823""
","
","1072.5","run_exp/static/images/Set 6_rs/012a.jpg","86","","","","","","learn","SR",""
"","show_choice","65","96122","0.0-65.0","""event"",""trial"",""time""
""fullscreenenter"",""0"",""2823""
","
","
","""event"",""trial"",""time""
""fullscreenenter"",""0"",""2823""
","
","null","run_exp/static/images/Set 6_rs/012a.jpg","null","","","","","","learn","SR",""
"","html-keyboard-response","66","96623","0.0-66.0","""event"",""trial"",""time""
""fullscreenenter"",""0"",""2823""
","
","
","""event"",""trial"",""time""
""fullscreenenter"",""0"",""2823""
","
","null","<p></p>","null","","","","","","","",""
"","image","67","98244","0.0-67.0","""event"",""trial"",""time""
""fullscreenenter"",""0"",""2823""
","
","
","""event"",""trial"",""time""
""fullscreenenter"",""0"",""2823""
","
","1618.5","run_exp/static/images/Set 6_rs/167a.jpg","86","","","","","","learn","SL",""
"","show_choice","68","98627","0.0-68.0","""event"",""trial"",""time""
""fullscreenenter"",""0"",""2823""
","
","
","""event"",""trial"",""time""
""fullscreenenter"",""0"",""2823""
","
","null","run_exp/static/images/Set 6_rs/167a.jpg","null","","","","","","learn","SL",""
"","html-keyboard-response","69","99128","0.0-69.0","""event"",""trial"",""time""
""fullscreenenter"",""0"",""2823""
","
","
","""event"",""trial"",""time""
""fullscreenenter"",""0"",""2823""
","
","null","<p></p>","null","","","","","","","",""
"","image","70","100274","0.0-70.0","""event"",""trial"",""time""
""fullscreenenter"",""0"",""2823""
","
","
","""event"",""trial"",""time""
""fullscreenenter"",""0"",""2823""
","
","1143.9000000059605","run_exp/static/images/Set 6_rs/172a.jpg","78","","","","","","learn","SR",""
"","show_choice","71","101132","0.0-71.0","""event"",""trial"",""time""
""fullscreenenter"",""0"",""2823""
","
","
","""event"",""trial"",""time""
""fullscreenenter"",""0"",""2823""
","
","null","run_exp/static/images/Set 6_rs/172a.jpg","null","","","","","","learn","SR",""
"","html-keyboard-response","72","101634","0.0-72.0","""event"",""trial"",""time""
""fullscreenenter"",""0"",""2823""
","
","
","""event"",""trial"",""time""
""fullscreenenter"",""0"",""2823""
","
","null","<p></p>","null","","","","","","","",""
"","image","73","103637","0.0-73.0","""event"",""trial"",""time""
""fullscreenenter"",""0"",""2823""
","
","
","""event"",""trial"",""time""
""fullscreenenter"",""0"",""2823""
","
","null","run_exp/static/images/Set 6_rs/064a.jpg","null","","","","","","learn","SR",""
"","show_choice","74","105638","0.0-74.0","""event"",""trial"",""time""
""fullscreenenter"",""0"",""2823""
","
","
","""event"",""trial"",""time""
""fullscreenenter"",""0"",""2823""
","
","null","run_exp/static/images/blank.png","null","","","","","","learn","SR",""
"","html-keyboard-response","75","106140","0.0-75.0","""event"",""trial"",""time""
""fullscreenenter"",""0"",""2823""
","
","
","""event"",""trial"",""time""
""fullscreenenter"",""0"",""2823""
","
","null","<p></p>","null","","","","","","","",""
"","image","76","107452","0.0-76.0","""event"",""trial"",""time""
""fullscreenenter"",""0"",""2823""
","
","
","""event"",""trial"",""time""
""fullscreenenter"",""0"",""2823""
","
","1309.7999999821186","run_exp/static/images/Set 6_rs/006a.jpg","86","","","","","","learn","SL",""
"","show_choice","77","108144","0.0-77.0","""event"",""trial"",""time""
""fullscreenenter"",""0"",""2823""
","
","
","""event"",""trial"",""time""
""fullscreenenter"",""0"",""2823""
","
","null","run_exp/static/images/Set 6_rs/006a.jpg","null","","","","","","learn","SL",""
"","html-keyboard-response","78","108645","0.0-78.0","""event"",""trial"",""time""
""fullscreenenter"",""0"",""2823""
","
","
","""event"",""trial"",""time""
""fullscreenenter"",""0"",""2823""
","
","null","<p></p>","null","","","","","","","",""
"","image","79","110238","0.0-79.0","""event"",""trial"",""time""
""fullscreenenter"",""0"",""2823""
","
","
","""event"",""trial"",""time""
""fullscreenenter"",""0"",""2823""
","
","1590.0999999940395","run_exp/static/images/Set 6_rs/154a.jpg","86","","","","","","learn","SR",""
"","show_choice","80","110649","0.0-80.0","""event"",""trial"",""time""
""fullscreenenter"",""0"",""2823""
","
","
","""event"",""trial"",""time""
""fullscreenenter"",""0"",""2823""
","
","null","run_exp/static/images/Set 6_rs/154a.jpg","null","","","","","","learn","SR",""
"","html-keyboard-response","81","111151","0.0-81.0","""event"",""trial"",""time""
""fullscreenenter"",""0"",""2823""
","
","
","""event"",""trial"",""time""
""fullscreenenter"",""0"",""2823""
","
","null","<p></p>","null","","","","","","","",""
"","image","82","112463","0.0-82.0","""event"",""trial"",""time""
""fullscreenenter"",""0"",""2823""
","
","
","""event"",""trial"",""time""
""fullscreenenter"",""0"",""2823""
","
","1309.7000000178814","run_exp/static/images/Set 6_rs/091a.jpg","78","","","","","","learn","SL",""
"","show_choice","83","113156","0.0-83.0","""event"",""trial"",""time""
""fullscreenenter"",""0"",""2823""
","
","
","""event"",""trial"",""time""
""fullscreenenter"",""0"",""2823""
","
","null","run_exp/static/images/Set 6_rs/091a.jpg","null","","","","","","learn","SL",""
"","html-keyboard-response","84","113657","0.0-84.0","""event"",""trial"",""time""
""fullscreenenter"",""0"",""2823""
","
","
","""event"",""trial"",""time""
""fullscreenenter"",""0"",""2823""
","
","null","<p></p>","null","","","","","","","",""
"","image","85","114717","0.0-85.0","""event"",""trial"",""time""
""fullscreenenter"",""0"",""2823""
","
","
","""event"",""trial"",""time""
""fullscreenenter"",""0"",""2823""
","
","1057.300000011921","run_exp/static/images/Set 6_rs/123a.jpg","78","","","","","","learn","SL",""
"","show_choice","86","115661","0.0-86.0","""event"",""trial"",""time""
""fullscreenenter"",""0"",""2823""
","
","
","""event"",""trial"",""time""
""fullscreenenter"",""0"",""2823""
","
","null","run_exp/static/images/Set 6_rs/123a.jpg","null","","","","","","learn","SL",""
"","html-keyboard-response","87","116162","0.0-87.0","""event"",""trial"",""time""
""fullscreenenter"",""0"",""2823""
","
","
","""event"",""trial"",""time""
""fullscreenenter"",""0"",""2823""
","
","null","<p></p>","null","","","","","","","",""
"","image","88","116937","0.0-88.0","""event"",""trial"",""time""
""fullscreenenter"",""0"",""2823""
","
","
","""event"",""trial"",""time""
""fullscreenenter"",""0"",""2823""
","
","773.4000000059605","run_exp/static/images/Set 6_rs/055a.jpg","86","","","","","","learn","SL",""
"","show_choice","89","118165","0.0-89.0","""event"",""trial"",""time""
""fullscreenenter"",""0"",""2823""
","
","
","""event"",""trial"",""time""
""fullscreenenter"",""0"",""2823""
","
","null","run_exp/static/images/Set 6_rs/055a.jpg","null","","","","","","learn","SL",""
"","html-keyboard-response","90","118667","0.0-90.0","""event"",""trial"",""time""
""fullscreenenter"",""0"",""2823""
","
","
","""event"",""trial"",""time""
""fullscreenenter"",""0"",""2823""
","
","null","<p></p>","null","","","","","","","",""
"","image","91","119746","0.0-91.0","""event"",""trial"",""time""
""fullscreenenter"",""0"",""2823""
","
","
","""event"",""trial"",""time""
""fullscreenenter"",""0"",""2823""
","
","1073.0999999940395","run_exp/static/images/Set 6_rs/121a.jpg","86","","","","","","learn","SR",""
"","show_choice","92","120674","0.0-92.0","""event"",""trial"",""time""
""fullscreenenter"",""0"",""2823""
","
","
","""event"",""trial"",""time""
""fullscreenenter"",""0"",""2823""
","
","null","run_exp/static/images/Set 6_rs/121a.jpg","null","","","","","","learn","SR",""
"","html-keyboard-response","93","121176","0.0-93.0","""event"",""trial"",""time""
""fullscreenenter"",""0"",""2823""
","
","
","""event"",""trial"",""time""
""fullscreenenter"",""0"",""2823""
","
","null","<p></p>","null","","","","","","","",""
"","image","94","122130","0.0-94.0","""event"",""trial"",""time""
""fullscreenenter"",""0"",""2823""
","
","
","""event"",""trial"",""time""
""fullscreenenter"",""0"",""2823""
","
","950.9000000059605","run_exp/static/images/Set 6_rs/129a.jpg","86","","","","","","learn","SL",""
"","show_choice","95","123181","0.0-95.0","""event"",""trial"",""time""
""fullscreenenter"",""0"",""2823""
","
","
","""event"",""trial"",""time""
""fullscreenenter"",""0"",""2823""
","
","null","run_exp/static/images/Set 6_rs/129a.jpg","null","","","","","","learn","SL",""
"","html-keyboard-response","96","123682","0.0-96.0","""event"",""trial"",""time""
""fullscreenenter"",""0"",""2823""
","
","
","""event"",""trial"",""time""
""fullscreenenter"",""0"",""2823""
","
","null","<p></p>","null","","","","","","","",""
"","image","97","124313","0.0-97.0","""event"",""trial"",""time""
""fullscreenenter"",""0"",""2823""
","
","
","""event"",""trial"",""time""
""fullscreenenter"",""0"",""2823""
","
","629","run_exp/static/images/Set 6_rs/112a.jpg","86","","","","","","learn","SR",""
"","show_choice","98","125687","0.0-98.0","""event"",""trial"",""time""
""fullscreenenter"",""0"",""2823""
","
","
","""event"",""trial"",""time""
""fullscreenenter"",""0"",""2823""
","
","null","run_exp/static/images/Set 6_rs/112a.jpg","null","","","","","","learn","SR",""
"","html-keyboard-response","99","126188","0.0-99.0","""event"",""trial"",""time""
""fullscreenenter"",""0"",""2823""
","
","
","""event"",""trial"",""time""
""fullscreenenter"",""0"",""2823""
","
","null","<p></p>","null","","","","","","","",""
"","image","100","126942","0.0-100.0","""event"",""trial"",""time""
""fullscreenenter"",""0"",""2823""
","
","
","""event"",""trial"",""time""
""fullscreenenter"",""0"",""2823""
","
","751.3000000119209","run_exp/static/images/Set 6_rs/057a.jpg","86","","","","","","learn","SL",""
"","show_choice","101","128192","0.0-101.0","""event"",""trial"",""time""
""fullscreenenter"",""0"",""2823""
","
","
","""event"",""trial"",""time""
""fullscreenenter"",""0"",""2823""
","
","null","run_exp/static/images/Set 6_rs/057a.jpg","null","","","","","","learn","SL",""
"","html-keyboard-response","102","128693","0.0-102.0","""event"",""trial"",""time""
""fullscreenenter"",""0"",""2823""
","
","
","""event"",""trial"",""time""
""fullscreenenter"",""0"",""2823""
","
","null","<p></p>","null","","","","","","","",""
"","image","103","129576","0.0-103.0","""event"",""trial"",""time""
""fullscreenenter"",""0"",""2823""
","
","
","""event"",""trial"",""time""
""fullscreenenter"",""0"",""2823""
","
","880.7000000178814","run_exp/static/images/Set 6_rs/050a.jpg","86","","","","","","learn","SL",""
"","show_choice","104","130697","0.0-104.0","""event"",""trial"",""time""
""fullscreenenter"",""0"",""2823""
","
","
","""event"",""trial"",""time""
""fullscreenenter"",""0"",""2823""
","
","null","run_exp/static/images/Set 6_rs/050a.jpg","null","","","","","","learn","SL",""
"","html-keyboard-response","105","131199","0.0-105.0","""event"",""trial"",""time""
""fullscreenenter"",""0"",""2823""
","
","
","""event"",""trial"",""time""
""fullscreenenter"",""0"",""2823""
","
","null","<p></p>","null","","","","","","","",""
"","image","106","132368","0.0-106.0","""event"",""trial"",""time""
""fullscreenenter"",""0"",""2823""
","
","
","""event"",""trial"",""time""
""fullscreenenter"",""0"",""2823""
","
","1166.5","run_exp/static/images/Set 6_rs/126a.jpg","78","","","","","","learn","SR",""
"","show_choice","107","133203","0.0-107.0","""event"",""trial"",""time""
""fullscreenenter"",""0"",""2823""
","
","
","""event"",""trial"",""time""
""fullscreenenter"",""0"",""2823""
","
","null","run_exp/static/images/Set 6_rs/126a.jpg","null","","","","","","learn","SR",""
"","html-keyboard-response","108","133704","0.0-108.0","""event"",""trial"",""time""
""fullscreenenter"",""0"",""2823""
","
","
","""event"",""trial"",""time""
""fullscreenenter"",""0"",""2823""
","
","null","<p></p>","null","","","","","","","",""
"","image","109","134434","0.0-109.0","""event"",""trial"",""time""
""fullscreenenter"",""0"",""2823""
","
","
","""event"",""trial"",""time""
""fullscreenenter"",""0"",""2823""
","
","727.6999999880791","run_exp/static/images/Set 6_rs/181a.jpg","78","","","","","","learn","SL",""
"","show_choice","110","135708","0.0-110.0","""event"",""trial"",""time""
""fullscreenenter"",""0"",""2823""
","
","
","""event"",""trial"",""time""
""fullscreenenter"",""0"",""2823""
","
","null","run_exp/static/images/Set 6_rs/181a.jpg","null","","","","","","learn","SL",""
"","html-keyboard-response","111","136209","0.0-111.0","""event"",""trial"",""time""
""fullscreenenter"",""0"",""2823""
","
","
","""event"",""trial"",""time""
""fullscreenenter"",""0"",""2823""
","
","null","<p></p>","null","","","","","","","",""
"","image","112","136935","0.0-112.0","""event"",""trial"",""time""
""fullscreenenter"",""0"",""2823""
","
","
","""event"",""trial"",""time""
""fullscreenenter"",""0"",""2823""
","
","723.5999999940395","run_exp/static/images/Set 6_rs/141a.jpg","78","","","","","","learn","SR",""
"","show_choice","113","138213","0.0-113.0","""event"",""trial"",""time""
""fullscreenenter"",""0"",""2823""
","
","
","""event"",""trial"",""time""
""fullscreenenter"",""0"",""2823""
","
","null","run_exp/static/images/Set 6_rs/141a.jpg","null","","","","","","learn","SR",""
"","html-keyboard-response","114","138714","0.0-114.0","""event"",""trial"",""time""
""fullscreenenter"",""0"",""2823""
","
","
","""event"",""trial"",""time""
""fullscreenenter"",""0"",""2823""
","
","null","<p></p>","null","","","","","","","",""
"","image","115","139394","0.0-115.0","""event"",""trial"",""time""
""fullscreenenter"",""0"",""2823""
","
","
","""event"",""trial"",""time""
""fullscreenenter"",""0"",""2823""
","
","676.7999999821186","run_exp/static/images/Set 6_rs/023a.jpg","86","","","","","","learn","SR",""
"","show_choice","116","140719","0.0-116.0","""event"",""trial"",""time""
""fullscreenenter"",""0"",""2823""
","
","
","""event"",""trial"",""time""
""fullscreenenter"",""0"",""2823""
","
","null","run_exp/static/images/Set 6_rs/023a.jpg","null","","","","","","learn","SR",""
"","html-keyboard-response","117","141220","0.0-117.0","""event"",""trial"",""time""
""fullscreenenter"",""0"",""2823""
","
","
","""event"",""trial"",""time""
""fullscreenenter"",""0"",""2823""
","
","null","<p></p>","null","","","","","","","",""
"","image","118","142389","0.0-118.0","""event"",""trial"",""time""
""fullscreenenter"",""0"",""2823""
","
","
","""event"",""trial"",""time""
""fullscreenenter"",""0"",""2823""
","
","1166.5","run_exp/static/images/Set 6_rs/122a.jpg","78","","","","","","learn","SR",""
"","show_choice","119","143224","0.0-119.0","""event"",""trial"",""time""
""fullscreenenter"",""0"",""2823""
","
","
","""event"",""trial"",""time""
""fullscreenenter"",""0"",""2823""
","
","null","run_exp/static/images/Set 6_rs/122a.jpg","null","","","","","","learn","SR",""
"","html-keyboard-response","120","143725","0.0-120.0","""event"",""trial"",""time""
""fullscreenenter"",""0"",""2823""
","
","
","""event"",""trial"",""time""
""fullscreenenter"",""0"",""2823""
","
","null","<p></p>","null","","","","","","","",""
"","image","121","144435","0.0-121.0","""event"",""trial"",""time""
""fullscreenenter"",""0"",""2823""
","
","
","""event"",""trial"",""time""
""fullscreenenter"",""0"",""2823""
","
","707.5","run_exp/static/images/Set 6_rs/079a.jpg","86","","","","","","learn","SL",""
"","show_choice","122","145729","0.0-122.0","""event"",""trial"",""time""
""fullscreenenter"",""0"",""2823""
","
","
","""event"",""trial"",""time""
""fullscreenenter"",""0"",""2823""
","
","null","run_exp/static/images/Set 6_rs/079a.jpg","null","","","","","","learn","SL",""
"","html-keyboard-response","123","146231","0.0-123.0","""event"",""trial"",""time""
""fullscreenenter"",""0"",""2823""
","
","
","""event"",""trial"",""time""
""fullscreenenter"",""0"",""2823""
","
","null","<p></p>","null","","","","","","","",""
"","image","124","148041","0.0-124.0","""event"",""trial"",""time""
""fullscreenenter"",""0"",""2823""
","
","
","""event"",""trial"",""time""
""fullscreenenter"",""0"",""2823""
","
","1807.5","run_exp/static/images/Set 6_rs/117a.jpg","86","","","","","","learn","SL",""
"","show_choice","125","148235","0.0-125.0","""event"",""trial"",""time""
""fullscreenenter"",""0"",""2823""
","
","
","""event"",""trial"",""time""
""fullscreenenter"",""0"",""2823""
","
","null","run_exp/static/images/Set 6_rs/117a.jpg","null","","","","","","learn","SL",""
"","html-keyboard-response","126","148736","0.0-126.0","""event"",""trial"",""time""
""fullscreenenter"",""0"",""2823""
","
","
","""event"",""trial"",""time""
""fullscreenenter"",""0"",""2823""
","
","null","<p></p>","null","","","","","","","",""
"","image","127","150095","0.0-127.0","""event"",""trial"",""time""
""fullscreenenter"",""0"",""2823""
","
","
","""event"",""trial"",""time""
""fullscreenenter"",""0"",""2823""
","
","1356.199999988079","run_exp/static/images/Set 6_rs/144a.jpg","86","","","","","","learn","SL",""
"","show_choice","128","150740","0.0-128.0","""event"",""trial"",""time""
""fullscreenenter"",""0"",""2823""
","
","
","""event"",""trial"",""time""
""fullscreenenter"",""0"",""2823""
","
","null","run_exp/static/images/Set 6_rs/144a.jpg","null","","","","","","learn","SL",""
"","html-keyboard-response","129","151241","0.0-129.0","""event"",""trial"",""time""
""fullscreenenter"",""0"",""2823""
","
","
","""event"",""trial"",""time""
""fullscreenenter"",""0"",""2823""
","
","null","<p></p>","null","","","","","","","",""
"","image","130","152054","0.0-130.0","""event"",""trial"",""time""
""fullscreenenter"",""0"",""2823""
","
","
","""event"",""trial"",""time""
""fullscreenenter"",""0"",""2823""
","
","810.8000000119209","run_exp/static/images/Set 6_rs/066a.jpg","78","","","","","","learn","SL",""
"","show_choice","131","153246","0.0-131.0","""event"",""trial"",""time""
""fullscreenenter"",""0"",""2823""
","
","
","""event"",""trial"",""time""
""fullscreenenter"",""0"",""2823""
","
","null","run_exp/static/images/Set 6_rs/066a.jpg","null","","","","","","learn","SL",""
"","html-keyboard-response","132","153747","0.0-132.0","""event"",""trial"",""time""
""fullscreenenter"",""0"",""2823""
","
","
","""event"",""trial"",""time""
""fullscreenenter"",""0"",""2823""
","
","null","<p></p>","null","","","","","","","",""
"","image","133","154574","0.0-133.0","""event"",""trial"",""time""
""fullscreenenter"",""0"",""2823""
","
","
","""event"",""trial"",""time""
""fullscreenenter"",""0"",""2823""
","
","823.6999999880791","run_exp/static/images/Set 6_rs/019a.jpg","86","","","","","","learn","SL",""
"","show_choice","134","155752","0.0-134.0","""event"",""trial"",""time""
""fullscreenenter"",""0"",""2823""
","
","
","""event"",""trial"",""time""
""fullscreenenter"",""0"",""2823""
","
","null","run_exp/static/images/Set 6_rs/019a.jpg","null","","","","","","learn","SL",""
"","html-keyboard-response","135","156253","0.0-135.0","""event"",""trial"",""time""
""fullscreenenter"",""0"",""2823""
","
","
","""event"",""trial"",""time""
""fullscreenenter"",""0"",""2823""
","
","null","<p></p>","null","","","","","","","",""
"","image","136","156930","0.0-136.0","""event"",""trial"",""time""
""fullscreenenter"",""0"",""2823""
","
","
","""event"",""trial"",""time""
""fullscreenenter"",""0"",""2823""
","
","674.6000000238419","run_exp/static/images/Set 6_rs/062a.jpg","86","","","","","","learn","SL",""
"","show_choice","137","158258","0.0-137.0","""event"",""trial"",""time""
""fullscreenenter"",""0"",""2823""
","
","
","""event"",""trial"",""time""
""fullscreenenter"",""0"",""2823""
","
","null","run_exp/static/images/Set 6_rs/062a.jpg","null","","","","","","learn","SL",""
"","html-keyboard-response","138","158759","0.0-138.0","""event"",""trial"",""time""
""fullscreenenter"",""0"",""2823""
","
","
","""event"",""trial"",""time""
""fullscreenenter"",""0"",""2823""
","
","null","<p></p>","null","","","","","","","",""
"","image","139","159832","0.0-139.0","""event"",""trial"",""time""
""fullscreenenter"",""0"",""2823""
","
","
","""event"",""trial"",""time""
""fullscreenenter"",""0"",""2823""
","
","1070.7000000178814","run_exp/static/images/Set 6_rs/088a.jpg","86","","","","","","learn","SR",""
"","show_choice","140","160763","0.0-140.0","""event"",""trial"",""time""
""fullscreenenter"",""0"",""2823""
","
","
","""event"",""trial"",""time""
""fullscreenenter"",""0"",""2823""
","
","null","run_exp/static/images/Set 6_rs/088a.jpg","null","","","","","","learn","SR",""
"","html-keyboard-response","141","161264","0.0-141.0","""event"",""trial"",""time""
""fullscreenenter"",""0"",""2823""
","
","
","""event"",""trial"",""time""
""fullscreenenter"",""0"",""2823""
","
","null","<p></p>","null","","","","","","","",""
"","image","142","162104","0.0-142.0","""event"",""trial"",""time""
""fullscreenenter"",""0"",""2823""
","
","
","""event"",""trial"",""time""
""fullscreenenter"",""0"",""2823""
","
","837.8000000119209","run_exp/static/images/Set 6_rs/178a.jpg","78","","","","","","learn","SR",""
"","show_choice","143","163268","0.0-143.0","""event"",""trial"",""time""
""fullscreenenter"",""0"",""2823""
","
","
","""event"",""trial"",""time""
""fullscreenenter"",""0"",""2823""
","
","null","run_exp/static/images/Set 6_rs/178a.jpg","null","","","","","","learn","SR",""
"","html-keyboard-response","144","163769","0.0-144.0","""event"",""trial"",""time""
""fullscreenenter"",""0"",""2823""
","
","
","""event"",""trial"",""time""
""fullscreenenter"",""0"",""2823""
","
","null","<p></p>","null","","","","","","","",""
"","image","145","164516","0.0-145.0","""event"",""trial"",""time""
""fullscreenenter"",""0"",""2823""
","
","
","""event"",""trial"",""time""
""fullscreenenter"",""0"",""2823""
","
","743.9000000059605","run_exp/static/images/Set 6_rs/116a.jpg","78","","","","","","learn","SL",""
"","show_choice","146","165774","0.0-146.0","""event"",""trial"",""time""
""fullscreenenter"",""0"",""2823""
","
","
","""event"",""trial"",""time""
""fullscreenenter"",""0"",""2823""
","
","null","run_exp/static/images/Set 6_rs/116a.jpg","null","","","","","","learn","SL",""
"","html-keyboard-response","147","166275","0.0-147.0","""event"",""trial"",""time""
""fullscreenenter"",""0"",""2823""
","
","
","""event"",""trial"",""time""
""fullscreenenter"",""0"",""2823""
","
","null","<p></p>","null","","","","","","","",""
"","image","148","167751","0.0-148.0","""event"",""trial"",""time""
""fullscreenenter"",""0"",""2823""
","
","
","""event"",""trial"",""time""
""fullscreenenter"",""0"",""2823""
","
","1473.5","run_exp/static/images/Set 6_rs/177a.jpg","86","","","","","","learn","SR",""
"","show_choice","149","168279","0.0-149.0","""event"",""trial"",""time""
""fullscreenenter"",""0"",""2823""
","
","
","""event"",""trial"",""time""
""fullscreenenter"",""0"",""2823""
","
","null","run_exp/static/images/Set 6_rs/177a.jpg","null","","","","","","learn","SR",""
"","html-keyboard-response","150","168780","0.0-150.0","""event"",""trial"",""time""
""fullscreenenter"",""0"",""2823""
","
","
","""event"",""trial"",""time""
""fullscreenenter"",""0"",""2823""
","
","null","<p></p>","null","","","","","","","",""
"","image","151","169876","0.0-151.0","""event"",""trial"",""time""
""fullscreenenter"",""0"",""2823""
","
","
","""event"",""trial"",""time""
""fullscreenenter"",""0"",""2823""
","
","1090.2000000178814","run_exp/static/images/Set 6_rs/150a.jpg","86","","","","","","learn","SR",""
"","show_choice","152","170786","0.0-152.0","""event"",""trial"",""time""
""fullscreenenter"",""0"",""2823""
","
","
","""event"",""trial"",""time""
""fullscreenenter"",""0"",""2823""
","
","null","run_exp/static/images/Set 6_rs/150a.jpg","null","","","","","","learn","SR",""
"","html-keyboard-response","153","171288","0.0-153.0","""event"",""trial"",""time""
""fullscreenenter"",""0"",""2823""
","
","
","""event"",""trial"",""time""
""fullscreenenter"",""0"",""2823""
","
","null","<p></p>","null","","","","","","","",""
"","image","154","171867","0.0-154.0","""event"",""trial"",""time""
""fullscreenenter"",""0"",""2823""
","
","
","""event"",""trial"",""time""
""fullscreenenter"",""0"",""2823""
","
","576.5","run_exp/static/images/Set 6_rs/007a.jpg","86","","","","","","learn","SR",""
"","show_choice","155","173292","0.0-155.0","""event"",""trial"",""time""
""fullscreenenter"",""0"",""2823""
","
","
","""event"",""trial"",""time""
""fullscreenenter"",""0"",""2823""
","
","null","run_exp/static/images/Set 6_rs/007a.jpg","null","","","","","","learn","SR",""
"","html-keyboard-response","156","173793","0.0-156.0","""event"",""trial"",""time""
""fullscreenenter"",""0"",""2823""
","
","
","""event"",""trial"",""time""
""fullscreenenter"",""0"",""2823""
","
","null","<p></p>","null","","","","","","","",""
"","image","157","174628","0.0-157.0","""event"",""trial"",""time""
""fullscreenenter"",""0"",""2823""
","
","
","""event"",""trial"",""time""
""fullscreenenter"",""0"",""2823""
","
","833","run_exp/static/images/Set 6_rs/014a.jpg","86","","","","","","learn","SL",""
"","show_choice","158","175797","0.0-158.0","""event"",""trial"",""time""
""fullscreenenter"",""0"",""2823""
","
","
","""event"",""trial"",""time""
""fullscreenenter"",""0"",""2823""
","
","null","run_exp/static/images/Set 6_rs/014a.jpg","null","","","","","","learn","SL",""
"","html-keyboard-response","159","176298","0.0-159.0","""event"",""trial"",""time""
""fullscreenenter"",""0"",""2823""
","
","
","""event"",""trial"",""time""
""fullscreenenter"",""0"",""2823""
","
","null","<p></p>","null","","","","","","","",""
"","image","160","177385","0.0-160.0","""event"",""trial"",""time""
""fullscreenenter"",""0"",""2823""
","
","
","""event"",""trial"",""time""
""fullscreenenter"",""0"",""2823""
","
","1083.9000000059605","run_exp/static/images/Set 6_rs/063a.jpg","86","","","","","","learn","SR",""
"","show_choice","161","178304","0.0-161.0","""event"",""trial"",""time""
""fullscreenenter"",""0"",""2823""
","
","
","""event"",""trial"",""time""
""fullscreenenter"",""0"",""2823""
","
","null","run_exp/static/images/Set 6_rs/063a.jpg","null","","","","","","learn","SR",""
"","html-keyboard-response","162","178806","0.0-162.0","""event"",""trial"",""time""
""fullscreenenter"",""0"",""2823""
","
","
","""event"",""trial"",""time""
""fullscreenenter"",""0"",""2823""
","
","null","<p></p>","null","","","","","","","",""
"","image","163","179853","0.0-163.0","""event"",""trial"",""time""
""fullscreenenter"",""0"",""2823""
","
","
","""event"",""trial"",""time""
""fullscreenenter"",""0"",""2823""
","
","1044.4000000059605","run_exp/static/images/Set 6_rs/191a.jpg","78","","","","","","learn","SL",""
"","show_choice","164","180810","0.0-164.0","""event"",""trial"",""time""
""fullscreenenter"",""0"",""2823""
","
","
","""event"",""trial"",""time""
""fullscreenenter"",""0"",""2823""
","
","null","run_exp/static/images/Set 6_rs/191a.jpg","null","","","","","","learn","SL",""
"","html-keyboard-response","165","181312","0.0-165.0","""event"",""trial"",""time""
""fullscreenenter"",""0"",""2823""
","
","
","""event"",""trial"",""time""
""fullscreenenter"",""0"",""2823""
","
","null","<p></p>","null","","","","","","","",""
"","image","166","182325","0.0-166.0","""event"",""trial"",""time""
""fullscreenenter"",""0"",""2823""
","
","
","""event"",""trial"",""time""
""fullscreenenter"",""0"",""2823""
","
","1011.6000000238419","run_exp/static/images/Set 6_rs/074a.jpg","78","","","","","","learn","SL",""
"","show_choice","167","183316","0.0-167.0","""event"",""trial"",""time""
""fullscreenenter"",""0"",""2823""
","
","
","""event"",""trial"",""time""
""fullscreenenter"",""0"",""2823""
","
","null","run_exp/static/images/Set 6_rs/074a.jpg","null","","","","","","learn","SL",""
"","html-keyboard-response","168","183817","0.0-168.0","""event"",""trial"",""time""
""fullscreenenter"",""0"",""2823""
","
","
","""event"",""trial"",""time""
""fullscreenenter"",""0"",""2823""
","
","null","<p></p>","null","","","","","","","",""
"","image","169","184885","0.0-169.0","""event"",""trial"",""time""
""fullscreenenter"",""0"",""2823""
","
","
","""event"",""trial"",""time""
""fullscreenenter"",""0"",""2823""
","
","1065.1000000238419","run_exp/static/images/Set 6_rs/061a.jpg","78","","","","","","learn","SR",""
"","show_choice","170","185821","0.0-170.0","""event"",""trial"",""time""
""fullscreenenter"",""0"",""2823""
","
","
","""event"",""trial"",""time""
""fullscreenenter"",""0"",""2823""
","
","null","run_exp/static/images/Set 6_rs/061a.jpg","null","","","","","","learn","SR",""
"","html-keyboard-response","171","186322","0.0-171.0","""event"",""trial"",""time""
""fullscreenenter"",""0"",""2823""
","
","
","""event"",""trial"",""time""
""fullscreenenter"",""0"",""2823""
","
","null","<p></p>","null","","","","","","","",""
"","image","172","187160","0.0-172.0","""event"",""trial"",""time""
""fullscreenenter"",""0"",""2823""
","
","
","""event"",""trial"",""time""
""fullscreenenter"",""0"",""2823""
","
","834.3000000119209","run_exp/static/images/Set 6_rs/111a.jpg","86","","","","","","learn","SL",""
"","show_choice","173","188327","0.0-173.0","""event"",""trial"",""time""
""fullscreenenter"",""0"",""2823""
","
","
","""event"",""trial"",""time""
""fullscreenenter"",""0"",""2823""
","
","null","run_exp/static/images/Set 6_rs/111a.jpg","null","","","","","","learn","SL",""
"","html-keyboard-response","174","188828","0.0-174.0","""event"",""trial"",""time""
""fullscreenenter"",""0"",""2823""
","
","
","""event"",""trial"",""time""
""fullscreenenter"",""0"",""2823""
","
","null","<p></p>","null","","","","","","","",""
"","image","175","190146","0.0-175.0","""event"",""trial"",""time""
""fullscreenenter"",""0"",""2823""
","
","
","""event"",""trial"",""time""
""fullscreenenter"",""0"",""2823""
","
","1316","run_exp/static/images/Set 6_rs/132a.jpg","86","","","","","","learn","SR",""
"","show_choice","176","190832","0.0-176.0","""event"",""trial"",""time""
""fullscreenenter"",""0"",""2823""
","
","
","""event"",""trial"",""time""
""fullscreenenter"",""0"",""2823""
","
","null","run_exp/static/images/Set 6_rs/132a.jpg","null","","","","","","learn","SR",""
"","html-keyboard-response","177","191334","0.0-177.0","""event"",""trial"",""time""
""fullscreenenter"",""0"",""2823""
","
","
","""event"",""trial"",""time""
""fullscreenenter"",""0"",""2823""
","
","null","<p></p>","null","","","","","","","",""
"","image","178","192924","0.0-178.0","""event"",""trial"",""time""
""fullscreenenter"",""0"",""2823""
","
","
","""event"",""trial"",""time""
""fullscreenenter"",""0"",""2823""
","
","1587.800000011921","run_exp/static/images/Set 6_rs/025a.jpg","78","","","","","","learn","SL",""
"","show_choice","179","193339","0.0-179.0","""event"",""trial"",""time""
""fullscreenenter"",""0"",""2823""
","
","
","""event"",""trial"",""time""
""fullscreenenter"",""0"",""2823""
","
","null","run_exp/static/images/Set 6_rs/025a.jpg","null","","","","","","learn","SL",""
"","html-keyboard-response","180","193840","0.0-180.0","""event"",""trial"",""time""
""fullscreenenter"",""0"",""2823""
","
","
","""event"",""trial"",""time""
""fullscreenenter"",""0"",""2823""
","
","null","<p></p>","null","","","","","","","",""
"","image","181","194707","0.0-181.0","""event"",""trial"",""time""
""fullscreenenter"",""0"",""2823""
","
","
","""event"",""trial"",""time""
""fullscreenenter"",""0"",""2823""
","
","863.9000000059605","run_exp/static/images/Set 6_rs/010a.jpg","86","","","","","","learn","SR",""
"","show_choice","182","195845","0.0-182.0","""event"",""trial"",""time""
""fullscreenenter"",""0"",""2823""
","
","
","""event"",""trial"",""time""
""fullscreenenter"",""0"",""2823""
","
","null","run_exp/static/images/Set 6_rs/010a.jpg","null","","","","","","learn","SR",""
"","html-keyboard-response","183","196346","0.0-183.0","""event"",""trial"",""time""
""fullscreenenter"",""0"",""2823""
","
","
","""event"",""trial"",""time""
""fullscreenenter"",""0"",""2823""
","
","null","<p></p>","null","","","","","","","",""
"","image","184","197792","0.0-184.0","""event"",""trial"",""time""
""fullscreenenter"",""0"",""2823""
","
","
","""event"",""trial"",""time""
""fullscreenenter"",""0"",""2823""
","
","1443.199999988079","run_exp/static/images/Set 6_rs/075a.jpg","86","","","","","","learn","SR",""
"","show_choice","185","198351","0.0-185.0","""event"",""trial"",""time""
""fullscreenenter"",""0"",""2823""
","
","
","""event"",""trial"",""time""
""fullscreenenter"",""0"",""2823""
","
","null","run_exp/static/images/Set 6_rs/075a.jpg","null","","","","","","learn","SR",""
"","html-keyboard-response","186","198852","0.0-186.0","""event"",""trial"",""time""
""fullscreenenter"",""0"",""2823""
","
","
","""event"",""trial"",""time""
""fullscreenenter"",""0"",""2823""
","
","null","<p></p>","null","","","","","","","",""
"","image","187","200024","0.0-187.0","""event"",""trial"",""time""
""fullscreenenter"",""0"",""2823""
","
","
","""event"",""trial"",""time""
""fullscreenenter"",""0"",""2823""
","
","1169.6000000238419","run_exp/static/images/Set 6_rs/168a.jpg","86","","","","","","learn","SL",""
"","show_choice","188","200856","0.0-188.0","""event"",""trial"",""time""
""fullscreenenter"",""0"",""2823""
","
","
","""event"",""trial"",""time""
""fullscreenenter"",""0"",""2823""
","
","null","run_exp/static/images/Set 6_rs/168a.jpg","null","","","","","","learn","SL",""
"","html-keyboard-response","189","201358","0.0-189.0","""event"",""trial"",""time""
""fullscreenenter"",""0"",""2823""
","
","
","""event"",""trial"",""time""
""fullscreenenter"",""0"",""2823""
","
","null","<p></p>","null","","","","","","","",""
"","image","190","203314","0.0-190.0","""event"",""trial"",""time""
""fullscreenenter"",""0"",""2823""
","
","
","""event"",""trial"",""time""
""fullscreenenter"",""0"",""2823""
","
","1952.5","run_exp/static/images/Set 6_rs/008a.jpg","86","","","","","","learn","SL",""
"","show_choice","191","203364","0.0-191.0","""event"",""trial"",""time""
""fullscreenenter"",""0"",""2823""
","
","
","""event"",""trial"",""time""
""fullscreenenter"",""0"",""2823""
","
","null","run_exp/static/images/Set 6_rs/008a.jpg","null","","","","","","learn","SL",""
"","html-keyboard-response","192","203865","0.0-192.0","""event"",""trial"",""time""
""fullscreenenter"",""0"",""2823""
","
","
","""event"",""trial"",""time""
""fullscreenenter"",""0"",""2823""
","
","null","<p></p>","null","","","","","","","",""
"","image","193","205298","0.0-193.0","""event"",""trial"",""time""
""fullscreenenter"",""0"",""2823""
","
","
","""event"",""trial"",""time""
""fullscreenenter"",""0"",""2823""
","
","1429.9000000059605","run_exp/static/images/Set 6_rs/089a.jpg","86","","","","","","learn","SL",""
"","show_choice","194","205870","0.0-194.0","""event"",""trial"",""time""
""fullscreenenter"",""0"",""2823""
","
","
","""event"",""trial"",""time""
""fullscreenenter"",""0"",""2823""
","
","null","run_exp/static/images/Set 6_rs/089a.jpg","null","","","","","","learn","SL",""
"","html-keyboard-response","195","206372","0.0-195.0","""event"",""trial"",""time""
""fullscreenenter"",""0"",""2823""
","
","
","""event"",""trial"",""time""
""fullscreenenter"",""0"",""2823""
","
","null","<p></p>","null","","","","","","","",""
"","test_intro","196","243721","0.0-196.0","""event"",""trial"",""time""
""fullscreenenter"",""0"",""2823""
","
","
","""event"",""trial"",""time""
""fullscreenenter"",""0"",""2823""
","
","null","run_exp/static/audio/clip_2_memory.m4a","null","","","","","<div class='center'><p>Now, lets see how much you remember about the items you just saw.  For each item, you need to indicate if it was <b>old</b> by pressing the <b>v</b> key, <b>similar</b> by pressing the <b>b</b> key, or <b>new</b> by pressing the <b>n</b> key.</p><p>Old refers to an item that you saw before in the indoor/outdoor game that you just played, new refers to an item you have <b>not</b> seen before within the indoor/outdoor game, and similar refers to an item that is similar to an item youve seen before but is not exactly the same. </p><p>Before we begin, lets go over some brief demonstrations to make sure you understand.</p></div>","","",""
"","html-keyboard-response","197","244621","0.0-197.0","""event"",""trial"",""time""
""fullscreenenter"",""0"",""2823""
","
","
","""event"",""trial"",""time""
""fullscreenenter"",""0"",""2823""
","
","896.5","<div class='center'><p>Now, lets see how much you remember about the items you just saw.  For each item, you need to indicate if it was <b>old</b> by pressing the <b>v</b> key, <b>similar</b> by pressing the <b>b</b> key, or <b>new</b> by pressing the <b>n</b> key.</p><p>Old refers to an item that you saw before in the indoor/outdoor game that you just played, new refers to an item you have <b>not</b> seen before within the indoor/outdoor game, and similar refers to an item that is similar to an item youve seen before but is not exactly the same. </p><p>Before we begin, lets go over some brief demonstrations to make sure you understand.</p><div><p><b>[Press the space bar to continue]</b></p></div>","32","","","","","","","",""
"","items","198","252125","0.0-198.0","""event"",""trial"",""time""
""fullscreenenter"",""0"",""2823""
","
","
","""event"",""trial"",""time""
""fullscreenenter"",""0"",""2823""
","
","null","run_exp/static/audio/clip_3_items.m4a","null","","","","","","","",""
"","mop","199","256632","0.0-199.0","""event"",""trial"",""time""
""fullscreenenter"",""0"",""2823""
","
","
","""event"",""trial"",""time""
""fullscreenenter"",""0"",""2823""
","
","null","run_exp/static/audio/clip_4_mop.m4a","null","","","","","","","",""
"","baseball","200","260137","0.0-200.0","""event"",""trial"",""time""
""fullscreenenter"",""0"",""2823""
","
","
","""event"",""trial"",""time""
""fullscreenenter"",""0"",""2823""
","
","null","run_exp/static/audio/clip_5_baseball.m4a","null","","","","","","","",""
"","trumpet","201","263645","0.0-201.0","""event"",""trial"",""time""
""fullscreenenter"",""0"",""2823""
","
","
","""event"",""trial"",""time""
""fullscreenenter"",""0"",""2823""
","
","null","run_exp/static/audio/clip_6_trumpet.m4a","null","","","","","","","",""
"","gummies","202","267149","0.0-202.0","""event"",""trial"",""time""
""fullscreenenter"",""0"",""2823""
","
","
","""event"",""trial"",""time""
""fullscreenenter"",""0"",""2823""
","
","null","run_exp/static/audio/clip_7_gummies.m4a","null","","","","","","","",""
"","osn","203","271652","0.0-203.0","""event"",""trial"",""time""
""fullscreenenter"",""0"",""2823""
","
","
","""event"",""trial"",""time""
""fullscreenenter"",""0"",""2823""
","
","null","run_exp/static/audio/clip_8_osn.m4a","null","","","","","","","",""
"","old_1","204","278155","0.0-204.0","""event"",""trial"",""time""
""fullscreenenter"",""0"",""2823""
","
","
","""event"",""trial"",""time""
""fullscreenenter"",""0"",""2823""
","
","null","run_exp/static/audio/clip_9_old_trumpet.m4a","null","","","","","","","",""
"","new_1","205","285659","0.0-205.0","""event"",""trial"",""time""
""fullscreenenter"",""0"",""2823""
","
","
","""event"",""trial"",""time""
""fullscreenenter"",""0"",""2823""
","
","null","run_exp/static/audio/clip_10_new_balloon.m4a","null","","","","","","","",""
"","similar_1a","206","290166","0.0-206.0","""event"",""trial"",""time""
""fullscreenenter"",""0"",""2823""
","
","
","""event"",""trial"",""time""
""fullscreenenter"",""0"",""2823""
","
","null","run_exp/static/audio/clip_11a_similar_mop.m4a","null","","","","","","","",""
"","similar_1b","207","296671","0.0-207.0","""event"",""trial"",""time""
""fullscreenenter"",""0"",""2823""
","
","
","""event"",""trial"",""time""
""fullscreenenter"",""0"",""2823""
","
","null","run_exp/static/audio/clip_11b_similar_mop.m4a","null","","","","","","","",""
"","new_2","208","300176","0.0-208.0","""event"",""trial"",""time""
""fullscreenenter"",""0"",""2823""
","
","
","""event"",""trial"",""time""
""fullscreenenter"",""0"",""2823""
","
","null","run_exp/static/audio/clip_12_new_stoplight.m4a","null","","","","","","","",""
"","old_2","209","303685","0.0-209.0","""event"",""trial"",""time""
""fullscreenenter"",""0"",""2823""
","
","
","""event"",""trial"",""time""
""fullscreenenter"",""0"",""2823""
","
","null","run_exp/static/audio/clip_13_old_baseball.m4a","null","","","","","","","",""
"","similar_2a","210","307188","0.0-210.0","""event"",""trial"",""time""
""fullscreenenter"",""0"",""2823""
","
","
","""event"",""trial"",""time""
""fullscreenenter"",""0"",""2823""
","
","null","run_exp/static/audio/clip_14a_similar_gummies.m4a","null","","","","","","","",""
"","similar_2b","211","314691","0.0-211.0","""event"",""trial"",""time""
""fullscreenenter"",""0"",""2823""
","
","
","""event"",""trial"",""time""
""fullscreenenter"",""0"",""2823""
","
","null","run_exp/static/audio/clip_14b_similar_gummies.m4a","null","","","","","","","",""
"","practice","212","357045","0.0-212.0","""event"",""trial"",""time""
""fullscreenenter"",""0"",""2823""
","
","
","""event"",""trial"",""time""
""fullscreenenter"",""0"",""2823""
","
","null","run_exp/static/audio/clip_15_practice.m4a","null","","","","","<div class='center'><p>Lets practice a little to make sure you understand the difference between new, similar, and old. Lets say you saw these three items in the indoor/outdoor game.</p><p> Try your best to remember these images because youll soon be tested on them in a practice game. In the practice game, youll be shown images and youll have to say if they are old (one of the three images belows), similar (similar to one of the images below but not exactly the same), or new (are not one of the images below nor similar to them).</p><p>Once you press the space bar youll be shown these images again but one at time. Then youll begin the practice game.</p><p><img src='run_exp/static/images/tutorial/test/three_indoor_outdoor.png' height='300'></p></div>","","",""
"","html-keyboard-response","213","358323","0.0-213.0","""event"",""trial"",""time""
""fullscreenenter"",""0"",""2823""
","
","
","""event"",""trial"",""time""
""fullscreenenter"",""0"",""2823""
","
","1274.4000000059605","<div class='center'><p>Lets practice a little to make sure you understand the difference between new, similar, and old. Lets say you saw these three items in the indoor/outdoor game.</p><p> Try your best to remember these images because youll soon be tested on them in a practice game. In the practice game, youll be shown images and youll have to say if they are old (one of the three images belows), similar (similar to one of the images below but not exactly the same), or new (are not one of the images below nor similar to them).</p><p>Once you press the space bar youll be shown these images again but one at time. Then youll begin the practice game.</p><p><img src='run_exp/static/images/tutorial/test/three_indoor_outdoor.png' height='300'></p><div><p><b>[Press the space bar to continue]</b></p></div>","32","","","","","","","",""
"","planet","214","360325","0.0-214.0","""event"",""trial"",""time""
""fullscreenenter"",""0"",""2823""
","
","
","""event"",""trial"",""time""
""fullscreenenter"",""0"",""2823""
","
","null","run_exp/static/images/tutorial/test/008a.jpg","null","","","","","","","",""
"","boot","215","362327","0.0-215.0","""event"",""trial"",""time""
""fullscreenenter"",""0"",""2823""
","
","
","""event"",""trial"",""time""
""fullscreenenter"",""0"",""2823""
","
","null","run_exp/static/images/tutorial/test/011a.jpg","null","","","","","","","",""
"","lemon","216","364329","0.0-216.0","""event"",""trial"",""time""
""fullscreenenter"",""0"",""2823""
","
","
","""event"",""trial"",""time""
""fullscreenenter"",""0"",""2823""
","
","null","run_exp/static/images/tutorial/test/018a.jpg","null","","","","","","","",""
"","practice_q1","217","370130","0.0-217.0","""event"",""trial"",""time""
""fullscreenenter"",""0"",""2823""
","
","
","""event"",""trial"",""time""
""fullscreenenter"",""0"",""2823""
","
","5794.4000000059605","run_exp/static/audio/clip_16_practice_question.m4a","78","","","","","","","",""
"","correct","218","372319","0.0-218.0-0.0","""event"",""trial"",""time""
""fullscreenenter"",""0"",""2823""
","
","
","""event"",""trial"",""time""
""fullscreenenter"",""0"",""2823""
","
","null","run_exp/static/audio/clip_17_correct.m4a","null","","","","","<div class='center'><p>That's correct!</p></div>","","",""
"","html-keyboard-response","219","373040","0.0-218.0-1.0","""event"",""trial"",""time""
""fullscreenenter"",""0"",""2823""
","
","
","""event"",""trial"",""time""
""fullscreenenter"",""0"",""2823""
","
","717.9000000059605","<div class='center'><p>That's correct!</p><div><p><b>[Press the space bar to continue]</b></p></div>","32","","","","","","","",""
"","practice_q2","220","378868","0.0-218.0-2.0","""event"",""trial"",""time""
""fullscreenenter"",""0"",""2823""
","
","
","""event"",""trial"",""time""
""fullscreenenter"",""0"",""2823""
","
","5824.300000011921","run_exp/static/audio/clip_16_practice_question.m4a","86","","","","","","","",""
"","correct","221","381024","0.0-219.0-0.0","""event"",""trial"",""time""
""fullscreenenter"",""0"",""2823""
","
","
","""event"",""trial"",""time""
""fullscreenenter"",""0"",""2823""
","
","null","run_exp/static/audio/clip_17_correct.m4a","null","","","","","<div class='center'><p>That's correct!</p></div>","","",""
"","html-keyboard-response","222","381779","0.0-219.0-1.0","""event"",""trial"",""time""
""fullscreenenter"",""0"",""2823""
","
","
","""event"",""trial"",""time""
""fullscreenenter"",""0"",""2823""
","
","752.4000000059605","<div class='center'><p>That's correct!</p><div><p><b>[Press the space bar to continue]</b></p></div>","32","","","","","","","",""
"","practice_q3","223","387507","0.0-219.0-2.0","""event"",""trial"",""time""
""fullscreenenter"",""0"",""2823""
","
","
","""event"",""trial"",""time""
""fullscreenenter"",""0"",""2823""
","
","5723.0999999940395","run_exp/static/audio/clip_16_practice_question.m4a","66","","","","","","","",""
"","correct","224","389984","0.0-220.0-0.0","""event"",""trial"",""time""
""fullscreenenter"",""0"",""2823""
","
","
","""event"",""trial"",""time""
""fullscreenenter"",""0"",""2823""
","
","null","run_exp/static/audio/clip_17_correct.m4a","null","","","","","<div class='center'><p>That's correct!</p></div>","","",""
"","html-keyboard-response","225","390777","0.0-220.0-1.0","""event"",""trial"",""time""
""fullscreenenter"",""0"",""2823""
","
","
","""event"",""trial"",""time""
""fullscreenenter"",""0"",""2823""
","
","790.3000000119209","<div class='center'><p>That's correct!</p><div><p><b>[Press the space bar to continue]</b></p></div>","32","","","","","","","",""
"","begin_text","226","409525","0.0-221.0-0.0","""event"",""trial"",""time""
""fullscreenenter"",""0"",""2823""
","
","
","""event"",""trial"",""time""
""fullscreenenter"",""0"",""2823""
","
","null","run_exp/static/audio/clip_22_begin_test.m4a","null","","","","","<div class='center'><p>On to the real game where well test your memory of items from the indoor/outdoor game. For each item, you need to indicate if the item is <b>old</b> by pressing the <b>v</b> key, <b>similar</b> by pressing the <b>b</b> key, or <b>new</b> by pressing the <b>n</b> key. </p></div>","","",""
"","html-keyboard-response","227","410211","0.0-221.0-1.0","""event"",""trial"",""time""
""fullscreenenter"",""0"",""2823""
","
","
","""event"",""trial"",""time""
""fullscreenenter"",""0"",""2823""
","
","682.0999999940395","<div class='center'><p>On to the real game where well test your memory of items from the indoor/outdoor game. For each item, you need to indicate if the item is <b>old</b> by pressing the <b>v</b> key, <b>similar</b> by pressing the <b>b</b> key, or <b>new</b> by pressing the <b>n</b> key. </p><div><p><b>[Press the space bar to continue]</b></p></div>","32","","","","","","","",""
"","image","228","412886","0.0-222.0-0.0","""event"",""trial"",""time""
""fullscreenenter"",""0"",""2823""
","
","
","""event"",""trial"",""time""
""fullscreenenter"",""0"",""2823""
","
","2671.199999988079","run_exp/static/images/Set 6_rs/079b.jpg","78","","","","","","test","TL","5"
"","show_choice","229","413389","0.0-222.0-1.0","""event"",""trial"",""time""
""fullscreenenter"",""0"",""2823""
","
","
","""event"",""trial"",""time""
""fullscreenenter"",""0"",""2823""
","
","null","run_exp/static/images/Set 6_rs/079b.jpg","null","","","","","","test","TL",""
"","html-keyboard-response","230","413891","0.0-222.0-2.0","""event"",""trial"",""time""
""fullscreenenter"",""0"",""2823""
","
","
","""event"",""trial"",""time""
""fullscreenenter"",""0"",""2823""
","
","null","<p></p>","null","","","","","","","",""
"","image","231","416345","0.0-223.0-0.0","""event"",""trial"",""time""
""fullscreenenter"",""0"",""2823""
","
","
","""event"",""trial"",""time""
""fullscreenenter"",""0"",""2823""
","
","2451.800000011921","run_exp/static/images/Set 6_rs/177a.jpg","86","","","","","","test","TR","5"
"","show_choice","232","416848","0.0-223.0-1.0","""event"",""trial"",""time""
""fullscreenenter"",""0"",""2823""
","
","
","""event"",""trial"",""time""
""fullscreenenter"",""0"",""2823""
","
","null","run_exp/static/images/Set 6_rs/177a.jpg","null","","","","","","test","TR",""
"","html-keyboard-response","233","417350","0.0-223.0-2.0","""event"",""trial"",""time""
""fullscreenenter"",""0"",""2823""
","
","
","""event"",""trial"",""time""
""fullscreenenter"",""0"",""2823""
","
","null","<p></p>","null","","","","","","","",""
"","image","234","419539","0.0-224.0-0.0","""event"",""trial"",""time""
""fullscreenenter"",""0"",""2823""
","
","
","""event"",""trial"",""time""
""fullscreenenter"",""0"",""2823""
","
","2186.5","run_exp/static/images/Set 6_rs/028a.jpg","78","","","","","","test","TF","1"
"","show_choice","235","420041","0.0-224.0-1.0","""event"",""trial"",""time""
""fullscreenenter"",""0"",""2823""
","
","
","""event"",""trial"",""time""
""fullscreenenter"",""0"",""2823""
","
","null","run_exp/static/images/Set 6_rs/028a.jpg","null","","","","","","test","TF",""
"","html-keyboard-response","236","420544","0.0-224.0-2.0","""event"",""trial"",""time""
""fullscreenenter"",""0"",""2823""
","
","
","""event"",""trial"",""time""
""fullscreenenter"",""0"",""2823""
","
","null","<p></p>","null","","","","","","","",""
"","image","237","422681","0.0-225.0-0.0","""event"",""trial"",""time""
""fullscreenenter"",""0"",""2823""
","
","
","""event"",""trial"",""time""
""fullscreenenter"",""0"",""2823""
","
","2133.5","run_exp/static/images/Set 6_rs/025b.jpg","66","","","","","","test","TL","5"
"","show_choice","238","423184","0.0-225.0-1.0","""event"",""trial"",""time""
""fullscreenenter"",""0"",""2823""
","
","
","""event"",""trial"",""time""
""fullscreenenter"",""0"",""2823""
","
","null","run_exp/static/images/Set 6_rs/025b.jpg","null","","","","","","test","TL",""
"","html-keyboard-response","239","423687","0.0-225.0-2.0","""event"",""trial"",""time""
""fullscreenenter"",""0"",""2823""
","
","
","""event"",""trial"",""time""
""fullscreenenter"",""0"",""2823""
","
","null","<p></p>","null","","","","","","","",""
"","image","240","424852","0.0-226.0-0.0","""event"",""trial"",""time""
""fullscreenenter"",""0"",""2823""
","
","
","""event"",""trial"",""time""
""fullscreenenter"",""0"",""2823""
","
","1162.4000000059605","run_exp/static/images/Set 6_rs/006b.jpg","86","","","","","","test","TL","2"
"","show_choice","241","425355","0.0-226.0-1.0","""event"",""trial"",""time""
""fullscreenenter"",""0"",""2823""
","
","
","""event"",""trial"",""time""
""fullscreenenter"",""0"",""2823""
","
","null","run_exp/static/images/Set 6_rs/006b.jpg","null","","","","","","test","TL",""
"","html-keyboard-response","242","425856","0.0-226.0-2.0","""event"",""trial"",""time""
""fullscreenenter"",""0"",""2823""
","
","
","""event"",""trial"",""time""
""fullscreenenter"",""0"",""2823""
","
","null","<p></p>","null","","","","","","","",""
"","image","243","427167","0.0-227.0-0.0","""event"",""trial"",""time""
""fullscreenenter"",""0"",""2823""
","
","
","""event"",""trial"",""time""
""fullscreenenter"",""0"",""2823""
","
","1308.300000011921","run_exp/static/images/Set 6_rs/108a.jpg","86","","","","","","test","TR","5"
"","show_choice","244","427669","0.0-227.0-1.0","""event"",""trial"",""time""
""fullscreenenter"",""0"",""2823""
","
","
","""event"",""trial"",""time""
""fullscreenenter"",""0"",""2823""
","
","null","run_exp/static/images/Set 6_rs/108a.jpg","null","","","","","","test","TR",""
"","html-keyboard-response","245","428170","0.0-227.0-2.0","""event"",""trial"",""time""
""fullscreenenter"",""0"",""2823""
","
","
","""event"",""trial"",""time""
""fullscreenenter"",""0"",""2823""
","
","null","<p></p>","null","","","","","","","",""
"","image","246","429321","0.0-228.0-0.0","""event"",""trial"",""time""
""fullscreenenter"",""0"",""2823""
","
","
","""event"",""trial"",""time""
""fullscreenenter"",""0"",""2823""
","
","1148.4000000059605","run_exp/static/images/Set 6_rs/126a.jpg","86","","","","","","test","TR","2"
"","show_choice","247","429824","0.0-228.0-1.0","""event"",""trial"",""time""
""fullscreenenter"",""0"",""2823""
","
","
","""event"",""trial"",""time""
""fullscreenenter"",""0"",""2823""
","
","null","run_exp/static/images/Set 6_rs/126a.jpg","null","","","","","","test","TR",""
"","html-keyboard-response","248","430325","0.0-228.0-2.0","""event"",""trial"",""time""
""fullscreenenter"",""0"",""2823""
","
","
","""event"",""trial"",""time""
""fullscreenenter"",""0"",""2823""
","
","null","<p></p>","null","","","","","","","",""
"","image","249","431625","0.0-229.0-0.0","""event"",""trial"",""time""
""fullscreenenter"",""0"",""2823""
","
","
","""event"",""trial"",""time""
""fullscreenenter"",""0"",""2823""
","
","1296.8999999761581","run_exp/static/images/Set 6_rs/112a.jpg","86","","","","","","test","TR","5"
"","show_choice","250","432127","0.0-229.0-1.0","""event"",""trial"",""time""
""fullscreenenter"",""0"",""2823""
","
","
","""event"",""trial"",""time""
""fullscreenenter"",""0"",""2823""
","
","null","run_exp/static/images/Set 6_rs/112a.jpg","null","","","","","","test","TR",""
"","html-keyboard-response","251","432630","0.0-229.0-2.0","""event"",""trial"",""time""
""fullscreenenter"",""0"",""2823""
","
","
","""event"",""trial"",""time""
""fullscreenenter"",""0"",""2823""
","
","null","<p></p>","null","","","","","","","",""
"","image","252","433779","0.0-230.0-0.0","""event"",""trial"",""time""
""fullscreenenter"",""0"",""2823""
","
","
","""event"",""trial"",""time""
""fullscreenenter"",""0"",""2823""
","
","1146.9000000059605","run_exp/static/images/Set 6_rs/166a.jpg","86","","","","","","test","TR","1"
"","show_choice","253","434282","0.0-230.0-1.0","""event"",""trial"",""time""
""fullscreenenter"",""0"",""2823""
","
","
","""event"",""trial"",""time""
""fullscreenenter"",""0"",""2823""
","
","null","run_exp/static/images/Set 6_rs/166a.jpg","null","","","","","","test","TR",""
"","html-keyboard-response","254","434784","0.0-230.0-2.0","""event"",""trial"",""time""
""fullscreenenter"",""0"",""2823""
","
","
","""event"",""trial"",""time""
""fullscreenenter"",""0"",""2823""
","
","null","<p></p>","null","","","","","","","",""
"","image","255","435812","0.0-231.0-0.0","""event"",""trial"",""time""
""fullscreenenter"",""0"",""2823""
","
","
","""event"",""trial"",""time""
""fullscreenenter"",""0"",""2823""
","
","1025.5999999940395","run_exp/static/images/Set 6_rs/186a.jpg","86","","","","","","test","TR","5"
"","show_choice","256","436315","0.0-231.0-1.0","""event"",""trial"",""time""
""fullscreenenter"",""0"",""2823""
","
","
","""event"",""trial"",""time""
""fullscreenenter"",""0"",""2823""
","
","null","run_exp/static/images/Set 6_rs/186a.jpg","null","","","","","","test","TR",""
"","html-keyboard-response","257","436817","0.0-231.0-2.0","""event"",""trial"",""time""
""fullscreenenter"",""0"",""2823""
","
","
","""event"",""trial"",""time""
""fullscreenenter"",""0"",""2823""
","
","null","<p></p>","null","","","","","","","",""
"","image","258","439128","0.0-232.0-0.0","""event"",""trial"",""time""
""fullscreenenter"",""0"",""2823""
","
","
","""event"",""trial"",""time""
""fullscreenenter"",""0"",""2823""
","
","2308.300000011921","run_exp/static/images/Set 6_rs/155a.jpg","78","","","","","","test","TF","4"
"","show_choice","259","439630","0.0-232.0-1.0","""event"",""trial"",""time""
""fullscreenenter"",""0"",""2823""
","
","
","""event"",""trial"",""time""
""fullscreenenter"",""0"",""2823""
","
","null","run_exp/static/images/Set 6_rs/155a.jpg","null","","","","","","test","TF",""
"","html-keyboard-response","260","440132","0.0-232.0-2.0","""event"",""trial"",""time""
""fullscreenenter"",""0"",""2823""
","
","
","""event"",""trial"",""time""
""fullscreenenter"",""0"",""2823""
","
","null","<p></p>","null","","","","","","","",""
"","image","261","441518","0.0-233.0-0.0","""event"",""trial"",""time""
""fullscreenenter"",""0"",""2823""
","
","
","""event"",""trial"",""time""
""fullscreenenter"",""0"",""2823""
","
","1382.800000011921","run_exp/static/images/Set 6_rs/168b.jpg","66","","","","","","test","TL","3"
"","show_choice","262","442021","0.0-233.0-1.0","""event"",""trial"",""time""
""fullscreenenter"",""0"",""2823""
","
","
","""event"",""trial"",""time""
""fullscreenenter"",""0"",""2823""
","
","null","run_exp/static/images/Set 6_rs/168b.jpg","null","","","","","","test","TL",""
"","html-keyboard-response","263","442522","0.0-233.0-2.0","""event"",""trial"",""time""
""fullscreenenter"",""0"",""2823""
","
","
","""event"",""trial"",""time""
""fullscreenenter"",""0"",""2823""
","
","null","<p></p>","null","","","","","","","",""
"","image","264","445195","0.0-234.0-0.0","""event"",""trial"",""time""
""fullscreenenter"",""0"",""2823""
","
","
","""event"",""trial"",""time""
""fullscreenenter"",""0"",""2823""
","
","2669.800000011921","run_exp/static/images/Set 6_rs/117b.jpg","66","","","","","","test","TL","5"
"","show_choice","265","445697","0.0-234.0-1.0","""event"",""trial"",""time""
""fullscreenenter"",""0"",""2823""
","
","
","""event"",""trial"",""time""
""fullscreenenter"",""0"",""2823""
","
","null","run_exp/static/images/Set 6_rs/117b.jpg","null","","","","","","test","TL",""
"","html-keyboard-response","266","446199","0.0-234.0-2.0","""event"",""trial"",""time""
""fullscreenenter"",""0"",""2823""
","
","
","""event"",""trial"",""time""
""fullscreenenter"",""0"",""2823""
","
","null","<p></p>","null","","","","","","","",""
"","image","267","447348","0.0-235.0-0.0","""event"",""trial"",""time""
""fullscreenenter"",""0"",""2823""
","
","
","""event"",""trial"",""time""
""fullscreenenter"",""0"",""2823""
","
","1146.2000000178814","run_exp/static/images/Set 6_rs/075a.jpg","86","","","","","","test","TR","1"
"","show_choice","268","447851","0.0-235.0-1.0","""event"",""trial"",""time""
""fullscreenenter"",""0"",""2823""
","
","
","""event"",""trial"",""time""
""fullscreenenter"",""0"",""2823""
","
","null","run_exp/static/images/Set 6_rs/075a.jpg","null","","","","","","test","TR",""
"","html-keyboard-response","269","448353","0.0-235.0-2.0","""event"",""trial"",""time""
""fullscreenenter"",""0"",""2823""
","
","
","""event"",""trial"",""time""
""fullscreenenter"",""0"",""2823""
","
","null","<p></p>","null","","","","","","","",""
"","image","270","449080","0.0-236.0-0.0","""event"",""trial"",""time""
""fullscreenenter"",""0"",""2823""
","
","
","""event"",""trial"",""time""
""fullscreenenter"",""0"",""2823""
","
","724.4000000059605","run_exp/static/images/Set 6_rs/123b.jpg","86","","","","","","test","TL","2"
"","show_choice","271","449582","0.0-236.0-1.0","""event"",""trial"",""time""
""fullscreenenter"",""0"",""2823""
","
","
","""event"",""trial"",""time""
""fullscreenenter"",""0"",""2823""
","
","null","run_exp/static/images/Set 6_rs/123b.jpg","null","","","","","","test","TL",""
"","html-keyboard-response","272","450084","0.0-236.0-2.0","""event"",""trial"",""time""
""fullscreenenter"",""0"",""2823""
","
","
","""event"",""trial"",""time""
""fullscreenenter"",""0"",""2823""
","
","null","<p></p>","null","","","","","","","",""
"","image","273","451853","0.0-237.0-0.0","""event"",""trial"",""time""
""fullscreenenter"",""0"",""2823""
","
","
","""event"",""trial"",""time""
""fullscreenenter"",""0"",""2823""
","
","1765.9000000059605","run_exp/static/images/Set 6_rs/065a.jpg","66","","","","","","test","TF","3"
"","show_choice","274","452355","0.0-237.0-1.0","""event"",""trial"",""time""
""fullscreenenter"",""0"",""2823""
","
","
","""event"",""trial"",""time""
""fullscreenenter"",""0"",""2823""
","
","null","run_exp/static/images/Set 6_rs/065a.jpg","null","","","","","","test","TF",""
"","html-keyboard-response","275","452857","0.0-237.0-2.0","""event"",""trial"",""time""
""fullscreenenter"",""0"",""2823""
","
","
","""event"",""trial"",""time""
""fullscreenenter"",""0"",""2823""
","
","null","<p></p>","null","","","","","","","",""
"","image","276","455616","0.0-238.0-0.0","""event"",""trial"",""time""
""fullscreenenter"",""0"",""2823""
","
","
","""event"",""trial"",""time""
""fullscreenenter"",""0"",""2823""
","
","2756.5","run_exp/static/images/Set 6_rs/077a.jpg","66","","","","","","test","TF","3"
"","show_choice","277","456119","0.0-238.0-1.0","""event"",""trial"",""time""
""fullscreenenter"",""0"",""2823""
","
","
","""event"",""trial"",""time""
""fullscreenenter"",""0"",""2823""
","
","null","run_exp/static/images/Set 6_rs/077a.jpg","null","","","","","","test","TF",""
"","html-keyboard-response","278","456621","0.0-238.0-2.0","""event"",""trial"",""time""
""fullscreenenter"",""0"",""2823""
","
","
","""event"",""trial"",""time""
""fullscreenenter"",""0"",""2823""
","
","null","<p></p>","null","","","","","","","",""
"","image","279","458033","0.0-239.0-0.0","""event"",""trial"",""time""
""fullscreenenter"",""0"",""2823""
","
","
","""event"",""trial"",""time""
""fullscreenenter"",""0"",""2823""
","
","1409.800000011921","run_exp/static/images/Set 6_rs/063a.jpg","86","","","","","","test","TR","2"
"","show_choice","280","458536","0.0-239.0-1.0","""event"",""trial"",""time""
""fullscreenenter"",""0"",""2823""
","
","
","""event"",""trial"",""time""
""fullscreenenter"",""0"",""2823""
","
","null","run_exp/static/images/Set 6_rs/063a.jpg","null","","","","","","test","TR",""
"","html-keyboard-response","281","459038","0.0-239.0-2.0","""event"",""trial"",""time""
""fullscreenenter"",""0"",""2823""
","
","
","""event"",""trial"",""time""
""fullscreenenter"",""0"",""2823""
","
","null","<p></p>","null","","","","","","","",""
"","image","282","460432","0.0-240.0-0.0","""event"",""trial"",""time""
""fullscreenenter"",""0"",""2823""
","
","
","""event"",""trial"",""time""
""fullscreenenter"",""0"",""2823""
","
","1391.5999999940395","run_exp/static/images/Set 6_rs/111b.jpg","66","","","","","","test","TL","3"
"","show_choice","283","460934","0.0-240.0-1.0","""event"",""trial"",""time""
""fullscreenenter"",""0"",""2823""
","
","
","""event"",""trial"",""time""
""fullscreenenter"",""0"",""2823""
","
","null","run_exp/static/images/Set 6_rs/111b.jpg","null","","","","","","test","TL",""
"","html-keyboard-response","284","461436","0.0-240.0-2.0","""event"",""trial"",""time""
""fullscreenenter"",""0"",""2823""
","
","
","""event"",""trial"",""time""
""fullscreenenter"",""0"",""2823""
","
","null","<p></p>","null","","","","","","","",""
"","image","285","464439","0.0-241.0-0.0","""event"",""trial"",""time""
""fullscreenenter"",""0"",""2823""
","
","
","""event"",""trial"",""time""
""fullscreenenter"",""0"",""2823""
","
","null","run_exp/static/images/Set 6_rs/141a.jpg","null","","","","","","test","TR","2"
"","show_choice","286","464942","0.0-241.0-1.0","""event"",""trial"",""time""
""fullscreenenter"",""0"",""2823""
","
","
","""event"",""trial"",""time""
""fullscreenenter"",""0"",""2823""
","
","null","run_exp/static/images/Set 6_rs/141a.jpg","null","","","","","","test","TR",""
"","html-keyboard-response","287","465444","0.0-241.0-2.0","""event"",""trial"",""time""
""fullscreenenter"",""0"",""2823""
","
","
","""event"",""trial"",""time""
""fullscreenenter"",""0"",""2823""
","
","null","<p></p>","null","","","","","","","",""
"","image","288","466778","0.0-242.0-0.0","""event"",""trial"",""time""
""fullscreenenter"",""0"",""2823""
","
","
","""event"",""trial"",""time""
""fullscreenenter"",""0"",""2823""
","
","1330.699999988079","run_exp/static/images/Set 6_rs/008b.jpg","66","","","","","","test","TL","2"
"","show_choice","289","467280","0.0-242.0-1.0","""event"",""trial"",""time""
""fullscreenenter"",""0"",""2823""
","
","
","""event"",""trial"",""time""
""fullscreenenter"",""0"",""2823""
","
","null","run_exp/static/images/Set 6_rs/008b.jpg","null","","","","","","test","TL",""
"","html-keyboard-response","290","467782","0.0-242.0-2.0","""event"",""trial"",""time""
""fullscreenenter"",""0"",""2823""
","
","
","""event"",""trial"",""time""
""fullscreenenter"",""0"",""2823""
","
","null","<p></p>","null","","","","","","","",""
"","image","291","468863","0.0-243.0-0.0","""event"",""trial"",""time""
""fullscreenenter"",""0"",""2823""
","
","
","""event"",""trial"",""time""
""fullscreenenter"",""0"",""2823""
","
","1078.0999999940395","run_exp/static/images/Set 6_rs/007a.jpg","86","","","","","","test","TR","3"
"","show_choice","292","469365","0.0-243.0-1.0","""event"",""trial"",""time""
""fullscreenenter"",""0"",""2823""
","
","
","""event"",""trial"",""time""
""fullscreenenter"",""0"",""2823""
","
","null","run_exp/static/images/Set 6_rs/007a.jpg","null","","","","","","test","TR",""
"","html-keyboard-response","293","469867","0.0-243.0-2.0","""event"",""trial"",""time""
""fullscreenenter"",""0"",""2823""
","
","
","""event"",""trial"",""time""
""fullscreenenter"",""0"",""2823""
","
","null","<p></p>","null","","","","","","","",""
"","image","294","471283","0.0-244.0-0.0","""event"",""trial"",""time""
""fullscreenenter"",""0"",""2823""
","
","
","""event"",""trial"",""time""
""fullscreenenter"",""0"",""2823""
","
","1413.5","run_exp/static/images/Set 6_rs/022a.jpg","78","","","","","","test","TF","4"
"","show_choice","295","471785","0.0-244.0-1.0","""event"",""trial"",""time""
""fullscreenenter"",""0"",""2823""
","
","
","""event"",""trial"",""time""
""fullscreenenter"",""0"",""2823""
","
","null","run_exp/static/images/Set 6_rs/022a.jpg","null","","","","","","test","TF",""
"","html-keyboard-response","296","472287","0.0-244.0-2.0","""event"",""trial"",""time""
""fullscreenenter"",""0"",""2823""
","
","
","""event"",""trial"",""time""
""fullscreenenter"",""0"",""2823""
","
","null","<p></p>","null","","","","","","","",""
"","image","297","473377","0.0-245.0-0.0","""event"",""trial"",""time""
""fullscreenenter"",""0"",""2823""
","
","
","""event"",""trial"",""time""
""fullscreenenter"",""0"",""2823""
","
","1086.9000000059605","run_exp/static/images/Set 6_rs/001a.jpg","78","","","","","","test","TF","1"
"","show_choice","298","473880","0.0-245.0-1.0","""event"",""trial"",""time""
""fullscreenenter"",""0"",""2823""
","
","
","""event"",""trial"",""time""
""fullscreenenter"",""0"",""2823""
","
","null","run_exp/static/images/Set 6_rs/001a.jpg","null","","","","","","test","TF",""
"","html-keyboard-response","299","474382","0.0-245.0-2.0","""event"",""trial"",""time""
""fullscreenenter"",""0"",""2823""
","
","
","""event"",""trial"",""time""
""fullscreenenter"",""0"",""2823""
","
","null","<p></p>","null","","","","","","","",""
"","image","300","475603","0.0-246.0-0.0","""event"",""trial"",""time""
""fullscreenenter"",""0"",""2823""
","
","
","""event"",""trial"",""time""
""fullscreenenter"",""0"",""2823""
","
","1219.300000011921","run_exp/static/images/Set 6_rs/133a.jpg","78","","","","","","test","TF","4"
"","show_choice","301","476106","0.0-246.0-1.0","""event"",""trial"",""time""
""fullscreenenter"",""0"",""2823""
","
","
","""event"",""trial"",""time""
""fullscreenenter"",""0"",""2823""
","
","null","run_exp/static/images/Set 6_rs/133a.jpg","null","","","","","","test","TF",""
"","html-keyboard-response","302","476607","0.0-246.0-2.0","""event"",""trial"",""time""
""fullscreenenter"",""0"",""2823""
","
","
","""event"",""trial"",""time""
""fullscreenenter"",""0"",""2823""
","
","null","<p></p>","null","","","","","","","",""
"","image","303","478642","0.0-247.0-0.0","""event"",""trial"",""time""
""fullscreenenter"",""0"",""2823""
","
","
","""event"",""trial"",""time""
""fullscreenenter"",""0"",""2823""
","
","2032.2000000178814","run_exp/static/images/Set 6_rs/122a.jpg","66","","","","","","test","TR","5"
"","show_choice","304","479145","0.0-247.0-1.0","""event"",""trial"",""time""
""fullscreenenter"",""0"",""2823""
","
","
","""event"",""trial"",""time""
""fullscreenenter"",""0"",""2823""
","
","null","run_exp/static/images/Set 6_rs/122a.jpg","null","","","","","","test","TR",""
"","html-keyboard-response","305","479646","0.0-247.0-2.0","""event"",""trial"",""time""
""fullscreenenter"",""0"",""2823""
","
","
","""event"",""trial"",""time""
""fullscreenenter"",""0"",""2823""
","
","null","<p></p>","null","","","","","","","",""
"","image","306","481441","0.0-248.0-0.0","""event"",""trial"",""time""
""fullscreenenter"",""0"",""2823""
","
","
","""event"",""trial"",""time""
""fullscreenenter"",""0"",""2823""
","
","1791.7000000178814","run_exp/static/images/Set 6_rs/171a.jpg","78","","","","","","test","TF","1"
"","show_choice","307","481943","0.0-248.0-1.0","""event"",""trial"",""time""
""fullscreenenter"",""0"",""2823""
","
","
","""event"",""trial"",""time""
""fullscreenenter"",""0"",""2823""
","
","null","run_exp/static/images/Set 6_rs/171a.jpg","null","","","","","","test","TF",""
"","html-keyboard-response","308","482445","0.0-248.0-2.0","""event"",""trial"",""time""
""fullscreenenter"",""0"",""2823""
","
","
","""event"",""trial"",""time""
""fullscreenenter"",""0"",""2823""
","
","null","<p></p>","null","","","","","","","",""
"","image","309","483795","0.0-249.0-0.0","""event"",""trial"",""time""
""fullscreenenter"",""0"",""2823""
","
","
","""event"",""trial"",""time""
""fullscreenenter"",""0"",""2823""
","
","1347.300000011921","run_exp/static/images/Set 6_rs/167b.jpg","66","","","","","","test","TL","2"
"","show_choice","310","484298","0.0-249.0-1.0","""event"",""trial"",""time""
""fullscreenenter"",""0"",""2823""
","
","
","""event"",""trial"",""time""
""fullscreenenter"",""0"",""2823""
","
","null","run_exp/static/images/Set 6_rs/167b.jpg","null","","","","","","test","TL",""
"","html-keyboard-response","311","484800","0.0-249.0-2.0","""event"",""trial"",""time""
""fullscreenenter"",""0"",""2823""
","
","
","""event"",""trial"",""time""
""fullscreenenter"",""0"",""2823""
","
","null","<p></p>","null","","","","","","","",""
"","image","312","486335","0.0-250.0-0.0","""event"",""trial"",""time""
""fullscreenenter"",""0"",""2823""
","
","
","""event"",""trial"",""time""
""fullscreenenter"",""0"",""2823""
","
","1532.2999999821186","run_exp/static/images/Set 6_rs/036b.jpg","66","","","","","","test","TL","4"
"","show_choice","313","486837","0.0-250.0-1.0","""event"",""trial"",""time""
""fullscreenenter"",""0"",""2823""
","
","
","""event"",""trial"",""time""
""fullscreenenter"",""0"",""2823""
","
","null","run_exp/static/images/Set 6_rs/036b.jpg","null","","","","","","test","TL",""
"","html-keyboard-response","314","487339","0.0-250.0-2.0","""event"",""trial"",""time""
""fullscreenenter"",""0"",""2823""
","
","
","""event"",""trial"",""time""
""fullscreenenter"",""0"",""2823""
","
","null","<p></p>","null","","","","","","","",""
"","image","315","488289","0.0-251.0-0.0","""event"",""trial"",""time""
""fullscreenenter"",""0"",""2823""
","
","
","""event"",""trial"",""time""
""fullscreenenter"",""0"",""2823""
","
","946.8000000119209","run_exp/static/images/Set 6_rs/150a.jpg","86","","","","","","test","TR","1"
"","show_choice","316","488791","0.0-251.0-1.0","""event"",""trial"",""time""
""fullscreenenter"",""0"",""2823""
","
","
","""event"",""trial"",""time""
""fullscreenenter"",""0"",""2823""
","
","null","run_exp/static/images/Set 6_rs/150a.jpg","null","","","","","","test","TR",""
"","html-keyboard-response","317","489293","0.0-251.0-2.0","""event"",""trial"",""time""
""fullscreenenter"",""0"",""2823""
","
","
","""event"",""trial"",""time""
""fullscreenenter"",""0"",""2823""
","
","null","<p></p>","null","","","","","","","",""
"","image","318","491895","0.0-252.0-0.0","""event"",""trial"",""time""
""fullscreenenter"",""0"",""2823""
","
","
","""event"",""trial"",""time""
""fullscreenenter"",""0"",""2823""
","
","2598.4000000059605","run_exp/static/images/Set 6_rs/154a.jpg","86","","","","","","test","TR","3"
"","show_choice","319","492397","0.0-252.0-1.0","""event"",""trial"",""time""
""fullscreenenter"",""0"",""2823""
","
","
","""event"",""trial"",""time""
""fullscreenenter"",""0"",""2823""
","
","null","run_exp/static/images/Set 6_rs/154a.jpg","null","","","","","","test","TR",""
"","html-keyboard-response","320","492899","0.0-252.0-2.0","""event"",""trial"",""time""
""fullscreenenter"",""0"",""2823""
","
","
","""event"",""trial"",""time""
""fullscreenenter"",""0"",""2823""
","
","null","<p></p>","null","","","","","","","",""
"","image","321","495044","0.0-253.0-0.0","""event"",""trial"",""time""
""fullscreenenter"",""0"",""2823""
","
","
","""event"",""trial"",""time""
""fullscreenenter"",""0"",""2823""
","
","2142.0999999940395","run_exp/static/images/Set 6_rs/129b.jpg","86","","","","","","test","TL","1"
"","show_choice","322","495546","0.0-253.0-1.0","""event"",""trial"",""time""
""fullscreenenter"",""0"",""2823""
","
","
","""event"",""trial"",""time""
""fullscreenenter"",""0"",""2823""
","
","null","run_exp/static/images/Set 6_rs/129b.jpg","null","","","","","","test","TL",""
"","html-keyboard-response","323","496048","0.0-253.0-2.0","""event"",""trial"",""time""
""fullscreenenter"",""0"",""2823""
","
","
","""event"",""trial"",""time""
""fullscreenenter"",""0"",""2823""
","
","null","<p></p>","null","","","","","","","",""
"","image","324","497459","0.0-254.0-0.0","""event"",""trial"",""time""
""fullscreenenter"",""0"",""2823""
","
","
","""event"",""trial"",""time""
""fullscreenenter"",""0"",""2823""
","
","1408.199999988079","run_exp/static/images/Set 6_rs/095b.jpg","66","","","","","","test","TL","5"
"","show_choice","325","497962","0.0-254.0-1.0","""event"",""trial"",""time""
""fullscreenenter"",""0"",""2823""
","
","
","""event"",""trial"",""time""
""fullscreenenter"",""0"",""2823""
","
","null","run_exp/static/images/Set 6_rs/095b.jpg","null","","","","","","test","TL",""
"","html-keyboard-response","326","498463","0.0-254.0-2.0","""event"",""trial"",""time""
""fullscreenenter"",""0"",""2823""
","
","
","""event"",""trial"",""time""
""fullscreenenter"",""0"",""2823""
","
","null","<p></p>","null","","","","","","","",""
"","image","327","499622","0.0-255.0-0.0","""event"",""trial"",""time""
""fullscreenenter"",""0"",""2823""
","
","
","""event"",""trial"",""time""
""fullscreenenter"",""0"",""2823""
","
","1156","run_exp/static/images/Set 6_rs/134a.jpg","86","","","","","","test","TR","3"
"","show_choice","328","500127","0.0-255.0-1.0","""event"",""trial"",""time""
""fullscreenenter"",""0"",""2823""
","
","
","""event"",""trial"",""time""
""fullscreenenter"",""0"",""2823""
","
","null","run_exp/static/images/Set 6_rs/134a.jpg","null","","","","","","test","TR",""
"","html-keyboard-response","329","500629","0.0-255.0-2.0","""event"",""trial"",""time""
""fullscreenenter"",""0"",""2823""
","
","
","""event"",""trial"",""time""
""fullscreenenter"",""0"",""2823""
","
","null","<p></p>","null","","","","","","","",""
"","image","330","502144","0.0-256.0-0.0","""event"",""trial"",""time""
""fullscreenenter"",""0"",""2823""
","
","
","""event"",""trial"",""time""
""fullscreenenter"",""0"",""2823""
","
","1512.5","run_exp/static/images/Set 6_rs/070a.jpg","86","","","","","","test","TR","2"
"","show_choice","331","502647","0.0-256.0-1.0","""event"",""trial"",""time""
""fullscreenenter"",""0"",""2823""
","
","
","""event"",""trial"",""time""
""fullscreenenter"",""0"",""2823""
","
","null","run_exp/static/images/Set 6_rs/070a.jpg","null","","","","","","test","TR",""
"","html-keyboard-response","332","503149","0.0-256.0-2.0","""event"",""trial"",""time""
""fullscreenenter"",""0"",""2823""
","
","
","""event"",""trial"",""time""
""fullscreenenter"",""0"",""2823""
","
","null","<p></p>","null","","","","","","","",""
"","image","333","504301","0.0-257.0-0.0","""event"",""trial"",""time""
""fullscreenenter"",""0"",""2823""
","
","
","""event"",""trial"",""time""
""fullscreenenter"",""0"",""2823""
","
","1148.7000000178814","run_exp/static/images/Set 6_rs/021a.jpg","66","","","","","","test","TF","2"
"","show_choice","334","504803","0.0-257.0-1.0","""event"",""trial"",""time""
""fullscreenenter"",""0"",""2823""
","
","
","""event"",""trial"",""time""
""fullscreenenter"",""0"",""2823""
","
","null","run_exp/static/images/Set 6_rs/021a.jpg","null","","","","","","test","TF",""
"","html-keyboard-response","335","505305","0.0-257.0-2.0","""event"",""trial"",""time""
""fullscreenenter"",""0"",""2823""
","
","
","""event"",""trial"",""time""
""fullscreenenter"",""0"",""2823""
","
","null","<p></p>","null","","","","","","","",""
"","image","336","506967","0.0-258.0-0.0","""event"",""trial"",""time""
""fullscreenenter"",""0"",""2823""
","
","
","""event"",""trial"",""time""
""fullscreenenter"",""0"",""2823""
","
","1659","run_exp/static/images/Set 6_rs/056a.jpg","78","","","","","","test","TF","3"
"","show_choice","337","507470","0.0-258.0-1.0","""event"",""trial"",""time""
""fullscreenenter"",""0"",""2823""
","
","
","""event"",""trial"",""time""
""fullscreenenter"",""0"",""2823""
","
","null","run_exp/static/images/Set 6_rs/056a.jpg","null","","","","","","test","TF",""
"","html-keyboard-response","338","507972","0.0-258.0-2.0","""event"",""trial"",""time""
""fullscreenenter"",""0"",""2823""
","
","
","""event"",""trial"",""time""
""fullscreenenter"",""0"",""2823""
","
","null","<p></p>","null","","","","","","","",""
"","image","339","509859","0.0-259.0-0.0","""event"",""trial"",""time""
""fullscreenenter"",""0"",""2823""
","
","
","""event"",""trial"",""time""
""fullscreenenter"",""0"",""2823""
","
","1884.3999999761581","run_exp/static/images/Set 6_rs/011a.jpg","78","","","","","","test","TF","3"
"","show_choice","340","510362","0.0-259.0-1.0","""event"",""trial"",""time""
""fullscreenenter"",""0"",""2823""
","
","
","""event"",""trial"",""time""
""fullscreenenter"",""0"",""2823""
","
","null","run_exp/static/images/Set 6_rs/011a.jpg","null","","","","","","test","TF",""
"","html-keyboard-response","341","510864","0.0-259.0-2.0","""event"",""trial"",""time""
""fullscreenenter"",""0"",""2823""
