"success","trial_type","trial_index","time_elapsed","internal_node_id","interactions","blur_events","focus_events","fullscreenenter_events","fullscreenexit_events","rt","stimulus","key_press","subject_id","participant_id","age","gender","prompt","phase","condition","lure_bin"
"true","fullscreen","0","3793","0.0-0.0","""event"",""trial"",""time""
""fullscreenenter"",""0"",""2859""
","
","
","""event"",""trial"",""time""
""fullscreenenter"",""0"",""2859""
","
","","","","","","","","","","",""
"","pavlovia","1","3808","0.0-1.0","""event"",""trial"",""time""
""fullscreenenter"",""0"",""2859""
","
","
","""event"",""trial"",""time""
""fullscreenenter"",""0"",""2859""
","
","","","","","","","","","","",""
"","welcome","2","38654","0.0-2.0","""event"",""trial"",""time""
""fullscreenenter"",""0"",""2859""
","
","
","""event"",""trial"",""time""
""fullscreenenter"",""0"",""2859""
","
","null","run_exp/static/audio/clip_1_welcome.m4a","null","550","124","12","Male","<div class='center'><p>Welcome to the third part of the study! First, you'll be shown pictures of items one at a time. For each picture, you have to decide if the item is typically found indoors or outdoors.</p><p>If you think it's usually found indoors, then press <b>v</b> key on your keyboard. If you think it's usually found outdoors, then press the <b>n</b> key.There will be reminders on the screen to help you remember which keys to press. </p><p>If you're not sure whether the item is an indoor item or an outdoor item, go ahead and take a guess but try your best not to skip that choice. </p></div>","","",""
"","html-keyboard-response","3","39710","0.0-3.0","""event"",""trial"",""time""
""fullscreenenter"",""0"",""2859""
","
","
","""event"",""trial"",""time""
""fullscreenenter"",""0"",""2859""
","
","1051.4000000059605","<div class='center'><p>Welcome to the third part of the study! First, you'll be shown pictures of items one at a time. For each picture, you have to decide if the item is typically found indoors or outdoors.</p><p>If you think it's usually found indoors, then press <b>v</b> key on your keyboard. If you think it's usually found outdoors, then press the <b>n</b> key.There will be reminders on the screen to help you remember which keys to press. </p><p>If you're not sure whether the item is an indoor item or an outdoor item, go ahead and take a guess but try your best not to skip that choice. </p><div><p><b>[Press the space bar to continue]</b></p></div>","32","","","","","","","",""
"","image","4","41725","0.0-4.0","""event"",""trial"",""time""
""fullscreenenter"",""0"",""2859""
","
","
","""event"",""trial"",""time""
""fullscreenenter"",""0"",""2859""
","
","null","run_exp/static/images/Set 6_rs/024a.jpg","null","","","","","","learn","SR",""
"","show_choice","5","43750","0.0-5.0","""event"",""trial"",""time""
""fullscreenenter"",""0"",""2859""
","
","
","""event"",""trial"",""time""
""fullscreenenter"",""0"",""2859""
","
","null","run_exp/static/images/blank.png","null","","","","","","learn","SR",""
"","html-keyboard-response","6","44270","0.0-6.0","""event"",""trial"",""time""
""fullscreenenter"",""0"",""2859""
","
","
","""event"",""trial"",""time""
""fullscreenenter"",""0"",""2859""
","
","null","<p></p>","null","","","","","","","",""
"","image","7","45475","0.0-7.0","""event"",""trial"",""time""
""fullscreenenter"",""0"",""2859""
","
","
","""event"",""trial"",""time""
""fullscreenenter"",""0"",""2859""
","
","1200.7999999970198","run_exp/static/images/Set 6_rs/129a.jpg","86","","","","","","learn","SL",""
"","show_choice","8","46280","0.0-8.0","""event"",""trial"",""time""
""fullscreenenter"",""0"",""2859""
","
","
","""event"",""trial"",""time""
""fullscreenenter"",""0"",""2859""
","
","null","run_exp/static/images/Set 6_rs/129a.jpg","null","","","","","","learn","SL",""
"","html-keyboard-response","9","46800","0.0-9.0","""event"",""trial"",""time""
""fullscreenenter"",""0"",""2859""
","
","
","""event"",""trial"",""time""
""fullscreenenter"",""0"",""2859""
","
","null","<p></p>","null","","","","","","","",""
"","image","10","48091","0.0-10.0","""event"",""trial"",""time""
""fullscreenenter"",""0"",""2859""
","
","
","""event"",""trial"",""time""
""fullscreenenter"",""0"",""2859""
","
","1287.0999999940395","run_exp/static/images/Set 6_rs/089a.jpg","86","","","","","","learn","SL",""
"","show_choice","11","48811","0.0-11.0","""event"",""trial"",""time""
""fullscreenenter"",""0"",""2859""
","
","
","""event"",""trial"",""time""
""fullscreenenter"",""0"",""2859""
","
","null","run_exp/static/images/Set 6_rs/089a.jpg","null","","","","","","learn","SL",""
"","html-keyboard-response","12","49324","0.0-12.0","""event"",""trial"",""time""
""fullscreenenter"",""0"",""2859""
","
","
","""event"",""trial"",""time""
""fullscreenenter"",""0"",""2859""
","
","null","<p></p>","null","","","","","","","",""
"","image","13","50658","0.0-13.0","""event"",""trial"",""time""
""fullscreenenter"",""0"",""2859""
","
","
","""event"",""trial"",""time""
""fullscreenenter"",""0"",""2859""
","
","1330.2000000029802","run_exp/static/images/Set 6_rs/045a.jpg","86","","","","","","learn","SR",""
"","show_choice","14","51343","0.0-14.0","""event"",""trial"",""time""
""fullscreenenter"",""0"",""2859""
","
","
","""event"",""trial"",""time""
""fullscreenenter"",""0"",""2859""
","
","null","run_exp/static/images/Set 6_rs/045a.jpg","null","","","","","","learn","SR",""
"","html-keyboard-response","15","51859","0.0-15.0","""event"",""trial"",""time""
""fullscreenenter"",""0"",""2859""
","
","
","""event"",""trial"",""time""
""fullscreenenter"",""0"",""2859""
","
","null","<p></p>","null","","","","","","","",""
"","image","16","53488","0.0-16.0","""event"",""trial"",""time""
""fullscreenenter"",""0"",""2859""
","
","
","""event"",""trial"",""time""
""fullscreenenter"",""0"",""2859""
","
","1624.7999999970198","run_exp/static/images/Set 6_rs/166a.jpg","86","","","","","","learn","SR",""
"","show_choice","17","53871","0.0-17.0","""event"",""trial"",""time""
""fullscreenenter"",""0"",""2859""
","
","
","""event"",""trial"",""time""
""fullscreenenter"",""0"",""2859""
","
","null","run_exp/static/images/Set 6_rs/166a.jpg","null","","","","","","learn","SR",""
"","html-keyboard-response","18","54389","0.0-18.0","""event"",""trial"",""time""
""fullscreenenter"",""0"",""2859""
","
","
","""event"",""trial"",""time""
""fullscreenenter"",""0"",""2859""
","
","null","<p></p>","null","","","","","","","",""
"","image","19","56119","0.0-19.0","""event"",""trial"",""time""
""fullscreenenter"",""0"",""2859""
","
","
","""event"",""trial"",""time""
""fullscreenenter"",""0"",""2859""
","
","1726.7000000029802","run_exp/static/images/Set 6_rs/187a.jpg","86","","","","","","learn","SR",""
"","show_choice","20","56405","0.0-20.0","""event"",""trial"",""time""
""fullscreenenter"",""0"",""2859""
","
","
","""event"",""trial"",""time""
""fullscreenenter"",""0"",""2859""
","
","null","run_exp/static/images/Set 6_rs/187a.jpg","null","","","","","","learn","SR",""
"","html-keyboard-response","21","56913","0.0-21.0","""event"",""trial"",""time""
""fullscreenenter"",""0"",""2859""
","
","
","""event"",""trial"",""time""
""fullscreenenter"",""0"",""2859""
","
","null","<p></p>","null","","","","","","","",""
"","image","22","58170","0.0-22.0","""event"",""trial"",""time""
""fullscreenenter"",""0"",""2859""
","
","
","""event"",""trial"",""time""
""fullscreenenter"",""0"",""2859""
","
","1253.7999999970198","run_exp/static/images/Set 6_rs/181a.jpg","78","","","","","","learn","SL",""
"","show_choice","23","58925","0.0-23.0","""event"",""trial"",""time""
""fullscreenenter"",""0"",""2859""
","
","
","""event"",""trial"",""time""
""fullscreenenter"",""0"",""2859""
","
","null","run_exp/static/images/Set 6_rs/181a.jpg","null","","","","","","learn","SL",""
"","html-keyboard-response","24","59441","0.0-24.0","""event"",""trial"",""time""
""fullscreenenter"",""0"",""2859""
","
","
","""event"",""trial"",""time""
""fullscreenenter"",""0"",""2859""
","
","null","<p></p>","null","","","","","","","",""
"","image","25","60854","0.0-25.0","""event"",""trial"",""time""
""fullscreenenter"",""0"",""2859""
","
","
","""event"",""trial"",""time""
""fullscreenenter"",""0"",""2859""
","
","1409.7999999970198","run_exp/static/images/Set 6_rs/075a.jpg","78","","","","","","learn","SR",""
"","show_choice","26","61453","0.0-26.0","""event"",""trial"",""time""
""fullscreenenter"",""0"",""2859""
","
","
","""event"",""trial"",""time""
""fullscreenenter"",""0"",""2859""
","
","null","run_exp/static/images/Set 6_rs/075a.jpg","null","","","","","","learn","SR",""
"","html-keyboard-response","27","61959","0.0-27.0","""event"",""trial"",""time""
""fullscreenenter"",""0"",""2859""
","
","
","""event"",""trial"",""time""
""fullscreenenter"",""0"",""2859""
","
","null","<p></p>","null","","","","","","","",""
"","image","28","63357","0.0-28.0","""event"",""trial"",""time""
""fullscreenenter"",""0"",""2859""
","
","
","""event"",""trial"",""time""
""fullscreenenter"",""0"",""2859""
","
","1394.2000000029802","run_exp/static/images/Set 6_rs/178a.jpg","78","","","","","","learn","SR",""
"","show_choice","29","63969","0.0-29.0","""event"",""trial"",""time""
""fullscreenenter"",""0"",""2859""
","
","
","""event"",""trial"",""time""
""fullscreenenter"",""0"",""2859""
","
","null","run_exp/static/images/Set 6_rs/178a.jpg","null","","","","","","learn","SR",""
"","html-keyboard-response","30","64476","0.0-30.0","""event"",""trial"",""time""
""fullscreenenter"",""0"",""2859""
","
","
","""event"",""trial"",""time""
""fullscreenenter"",""0"",""2859""
","
","null","<p></p>","null","","","","","","","",""
"","image","31","65707","0.0-31.0","""event"",""trial"",""time""
""fullscreenenter"",""0"",""2859""
","
","
","""event"",""trial"",""time""
""fullscreenenter"",""0"",""2859""
","
","1227.0999999940395","run_exp/static/images/Set 6_rs/073a.jpg","86","","","","","","learn","SL",""
"","show_choice","32","66492","0.0-32.0","""event"",""trial"",""time""
""fullscreenenter"",""0"",""2859""
","
","
","""event"",""trial"",""time""
""fullscreenenter"",""0"",""2859""
","
","null","run_exp/static/images/Set 6_rs/073a.jpg","null","","","","","","learn","SL",""
"","html-keyboard-response","33","67010","0.0-33.0","""event"",""trial"",""time""
""fullscreenenter"",""0"",""2859""
","
","
","""event"",""trial"",""time""
""fullscreenenter"",""0"",""2859""
","
","null","<p></p>","null","","","","","","","",""
"","image","34","68055","0.0-34.0","""event"",""trial"",""time""
""fullscreenenter"",""0"",""2859""
","
","
","""event"",""trial"",""time""
""fullscreenenter"",""0"",""2859""
","
","1041.5","run_exp/static/images/Set 6_rs/152a.jpg","86","","","","","","learn","SR",""
"","show_choice","35","69043","0.0-35.0","""event"",""trial"",""time""
""fullscreenenter"",""0"",""2859""
","
","
","""event"",""trial"",""time""
""fullscreenenter"",""0"",""2859""
","
","null","run_exp/static/images/Set 6_rs/152a.jpg","null","","","","","","learn","SR",""
"","html-keyboard-response","36","69546","0.0-36.0","""event"",""trial"",""time""
""fullscreenenter"",""0"",""2859""
","
","
","""event"",""trial"",""time""
""fullscreenenter"",""0"",""2859""
","
","null","<p></p>","null","","","","","","","",""
"","image","37","71520","0.0-37.0","""event"",""trial"",""time""
""fullscreenenter"",""0"",""2859""
","
","
","""event"",""trial"",""time""
""fullscreenenter"",""0"",""2859""
","
","1970.7000000029802","run_exp/static/images/Set 6_rs/122a.jpg","86","","","","","","learn","SR",""
"","show_choice","38","71551","0.0-38.0","""event"",""trial"",""time""
""fullscreenenter"",""0"",""2859""
","
","
","""event"",""trial"",""time""
""fullscreenenter"",""0"",""2859""
","
","null","run_exp/static/images/Set 6_rs/122a.jpg","null","","","","","","learn","SR",""
"","html-keyboard-response","39","72061","0.0-39.0","""event"",""trial"",""time""
""fullscreenenter"",""0"",""2859""
","
","
","""event"",""trial"",""time""
""fullscreenenter"",""0"",""2859""
","
","null","<p></p>","null","","","","","","","",""
"","image","40","73789","0.0-40.0","""event"",""trial"",""time""
""fullscreenenter"",""0"",""2859""
","
","
","""event"",""trial"",""time""
""fullscreenenter"",""0"",""2859""
","
","1724.800000011921","run_exp/static/images/Set 6_rs/108a.jpg","78","","","","","","learn","SR",""
"","show_choice","41","74077","0.0-41.0","""event"",""trial"",""time""
""fullscreenenter"",""0"",""2859""
","
","
","""event"",""trial"",""time""
""fullscreenenter"",""0"",""2859""
","
","null","run_exp/static/images/Set 6_rs/108a.jpg","null","","","","","","learn","SR",""
"","html-keyboard-response","42","74595","0.0-42.0","""event"",""trial"",""time""
""fullscreenenter"",""0"",""2859""
","
","
","""event"",""trial"",""time""
""fullscreenenter"",""0"",""2859""
","
","null","<p></p>","null","","","","","","","",""
"","image","43","75904","0.0-43.0","""event"",""trial"",""time""
""fullscreenenter"",""0"",""2859""
","
","
","""event"",""trial"",""time""
""fullscreenenter"",""0"",""2859""
","
","1305.8999999910593","run_exp/static/images/Set 6_rs/117a.jpg","86","","","","","","learn","SL",""
"","show_choice","44","76617","0.0-44.0","""event"",""trial"",""time""
""fullscreenenter"",""0"",""2859""
","
","
","""event"",""trial"",""time""
""fullscreenenter"",""0"",""2859""
","
","null","run_exp/static/images/Set 6_rs/117a.jpg","null","","","","","","learn","SL",""
"","html-keyboard-response","45","77129","0.0-45.0","""event"",""trial"",""time""
""fullscreenenter"",""0"",""2859""
","
","
","""event"",""trial"",""time""
""fullscreenenter"",""0"",""2859""
","
","null","<p></p>","null","","","","","","","",""
"","image","46","78966","0.0-46.0","""event"",""trial"",""time""
""fullscreenenter"",""0"",""2859""
","
","
","""event"",""trial"",""time""
""fullscreenenter"",""0"",""2859""
","
","1833.9000000059605","run_exp/static/images/Set 6_rs/141a.jpg","78","","","","","","learn","SR",""
"","show_choice","47","79137","0.0-47.0","""event"",""trial"",""time""
""fullscreenenter"",""0"",""2859""
","
","
","""event"",""trial"",""time""
""fullscreenenter"",""0"",""2859""
","
","null","run_exp/static/images/Set 6_rs/141a.jpg","null","","","","","","learn","SR",""
"","html-keyboard-response","48","79646","0.0-48.0","""event"",""trial"",""time""
""fullscreenenter"",""0"",""2859""
","
","
","""event"",""trial"",""time""
""fullscreenenter"",""0"",""2859""
","
","null","<p></p>","null","","","","","","","",""
"","image","49","80922","0.0-49.0","""event"",""trial"",""time""
""fullscreenenter"",""0"",""2859""
","
","
","""event"",""trial"",""time""
""fullscreenenter"",""0"",""2859""
","
","1264.7999999970198","run_exp/static/images/Set 6_rs/016a.jpg","86","","","","","","learn","SL",""
"","show_choice","50","81667","0.0-50.0","""event"",""trial"",""time""
""fullscreenenter"",""0"",""2859""
","
","
","""event"",""trial"",""time""
""fullscreenenter"",""0"",""2859""
","
","null","run_exp/static/images/Set 6_rs/016a.jpg","null","","","","","","learn","SL",""
"","html-keyboard-response","51","82180","0.0-51.0","""event"",""trial"",""time""
""fullscreenenter"",""0"",""2859""
","
","
","""event"",""trial"",""time""
""fullscreenenter"",""0"",""2859""
","
","null","<p></p>","null","","","","","","","",""
"","image","52","83911","0.0-52.0","""event"",""trial"",""time""
""fullscreenenter"",""0"",""2859""
","
","
","""event"",""trial"",""time""
""fullscreenenter"",""0"",""2859""
","
","1727.1000000089407","run_exp/static/images/Set 6_rs/066a.jpg","78","","","","","","learn","SL",""
"","show_choice","53","84197","0.0-53.0","""event"",""trial"",""time""
""fullscreenenter"",""0"",""2859""
","
","
","""event"",""trial"",""time""
""fullscreenenter"",""0"",""2859""
","
","null","run_exp/static/images/Set 6_rs/066a.jpg","null","","","","","","learn","SL",""
"","html-keyboard-response","54","84704","0.0-54.0","""event"",""trial"",""time""
""fullscreenenter"",""0"",""2859""
","
","
","""event"",""trial"",""time""
""fullscreenenter"",""0"",""2859""
","
","null","<p></p>","null","","","","","","","",""
"","image","55","86718","0.0-55.0","""event"",""trial"",""time""
""fullscreenenter"",""0"",""2859""
","
","
","""event"",""trial"",""time""
""fullscreenenter"",""0"",""2859""
","
","null","run_exp/static/images/Set 6_rs/017a.jpg","null","","","","","","learn","SL",""
"","show_choice","56","88733","0.0-56.0","""event"",""trial"",""time""
""fullscreenenter"",""0"",""2859""
","
","
","""event"",""trial"",""time""
""fullscreenenter"",""0"",""2859""
","
","null","run_exp/static/images/blank.png","null","","","","","","learn","SL",""
"","html-keyboard-response","57","89249","0.0-57.0","""event"",""trial"",""time""
""fullscreenenter"",""0"",""2859""
","
","
","""event"",""trial"",""time""
""fullscreenenter"",""0"",""2859""
","
","null","<p></p>","null","","","","","","","",""
"","image","58","90387","0.0-58.0","""event"",""trial"",""time""
""fullscreenenter"",""0"",""2859""
","
","
","""event"",""trial"",""time""
""fullscreenenter"",""0"",""2859""
","
","1134","run_exp/static/images/Set 6_rs/057a.jpg","86","","","","","","learn","SL",""
"","show_choice","59","91259","0.0-59.0","""event"",""trial"",""time""
""fullscreenenter"",""0"",""2859""
","
","
","""event"",""trial"",""time""
""fullscreenenter"",""0"",""2859""
","
","null","run_exp/static/images/Set 6_rs/057a.jpg","null","","","","","","learn","SL",""
"","html-keyboard-response","60","91768","0.0-60.0","""event"",""trial"",""time""
""fullscreenenter"",""0"",""2859""
","
","
","""event"",""trial"",""time""
""fullscreenenter"",""0"",""2859""
","
","null","<p></p>","null","","","","","","","",""
"","image","61","93355","0.0-61.0","""event"",""trial"",""time""
""fullscreenenter"",""0"",""2859""
","
","
","""event"",""trial"",""time""
""fullscreenenter"",""0"",""2859""
","
","1583.4000000059605","run_exp/static/images/Set 6_rs/008a.jpg","86","","","","","","learn","SL",""
"","show_choice","62","93775","0.0-62.0","""event"",""trial"",""time""
""fullscreenenter"",""0"",""2859""
","
","
","""event"",""trial"",""time""
""fullscreenenter"",""0"",""2859""
","
","null","run_exp/static/images/Set 6_rs/008a.jpg","null","","","","","","learn","SL",""
"","html-keyboard-response","63","94301","0.0-63.0","""event"",""trial"",""time""
""fullscreenenter"",""0"",""2859""
","
","
","""event"",""trial"",""time""
""fullscreenenter"",""0"",""2859""
","
","null","<p></p>","null","","","","","","","",""
"","image","64","95835","0.0-64.0","""event"",""trial"",""time""
""fullscreenenter"",""0"",""2859""
","
","
","""event"",""trial"",""time""
""fullscreenenter"",""0"",""2859""
","
","1531.5999999940395","run_exp/static/images/Set 6_rs/062a.jpg","78","","","","","","learn","SL",""
"","show_choice","65","96321","0.0-65.0","""event"",""trial"",""time""
""fullscreenenter"",""0"",""2859""
","
","
","""event"",""trial"",""time""
""fullscreenenter"",""0"",""2859""
","
","null","run_exp/static/images/Set 6_rs/062a.jpg","null","","","","","","learn","SL",""
"","html-keyboard-response","66","96835","0.0-66.0","""event"",""trial"",""time""
""fullscreenenter"",""0"",""2859""
","
","
","""event"",""trial"",""time""
""fullscreenenter"",""0"",""2859""
","
","null","<p></p>","null","","","","","","","",""
"","image","67","98334","0.0-67.0","""event"",""trial"",""time""
""fullscreenenter"",""0"",""2859""
","
","
","""event"",""trial"",""time""
""fullscreenenter"",""0"",""2859""
","
","1495.7000000029802","run_exp/static/images/Set 6_rs/167a.jpg","86","","","","","","learn","SL",""
"","show_choice","68","98854","0.0-68.0","""event"",""trial"",""time""
""fullscreenenter"",""0"",""2859""
","
","
","""event"",""trial"",""time""
""fullscreenenter"",""0"",""2859""
","
","null","run_exp/static/images/Set 6_rs/167a.jpg","null","","","","","","learn","SL",""
"","html-keyboard-response","69","99368","0.0-69.0","""event"",""trial"",""time""
""fullscreenenter"",""0"",""2859""
","
","
","""event"",""trial"",""time""
""fullscreenenter"",""0"",""2859""
","
","null","<p></p>","null","","","","","","","",""
"","image","70","100454","0.0-70.0","""event"",""trial"",""time""
""fullscreenenter"",""0"",""2859""
","
","
","""event"",""trial"",""time""
""fullscreenenter"",""0"",""2859""
","
","1082.2999999970198","run_exp/static/images/Set 6_rs/070a.jpg","86","","","","","","learn","SR",""
"","show_choice","71","101376","0.0-71.0","""event"",""trial"",""time""
""fullscreenenter"",""0"",""2859""
","
","
","""event"",""trial"",""time""
""fullscreenenter"",""0"",""2859""
","
","null","run_exp/static/images/Set 6_rs/070a.jpg","null","","","","","","learn","SR",""
"","html-keyboard-response","72","101887","0.0-72.0","""event"",""trial"",""time""
""fullscreenenter"",""0"",""2859""
","
","
","""event"",""trial"",""time""
""fullscreenenter"",""0"",""2859""
","
","null","<p></p>","null","","","","","","","",""
"","image","73","103086","0.0-73.0","""event"",""trial"",""time""
""fullscreenenter"",""0"",""2859""
","
","
","""event"",""trial"",""time""
""fullscreenenter"",""0"",""2859""
","
","1194.3999999910593","run_exp/static/images/Set 6_rs/116a.jpg","78","","","","","","learn","SL",""
"","show_choice","74","103901","0.0-74.0","""event"",""trial"",""time""
""fullscreenenter"",""0"",""2859""
","
","
","""event"",""trial"",""time""
""fullscreenenter"",""0"",""2859""
","
","null","run_exp/static/images/Set 6_rs/116a.jpg","null","","","","","","learn","SL",""
"","html-keyboard-response","75","104404","0.0-75.0","""event"",""trial"",""time""
""fullscreenenter"",""0"",""2859""
","
","
","""event"",""trial"",""time""
""fullscreenenter"",""0"",""2859""
","
","null","<p></p>","null","","","","","","","",""
"","image","76","105624","0.0-76.0","""event"",""trial"",""time""
""fullscreenenter"",""0"",""2859""
","
","
","""event"",""trial"",""time""
""fullscreenenter"",""0"",""2859""
","
","1218.2999999970198","run_exp/static/images/Set 6_rs/023a.jpg","86","","","","","","learn","SR",""
"","show_choice","77","106419","0.0-77.0","""event"",""trial"",""time""
""fullscreenenter"",""0"",""2859""
","
","
","""event"",""trial"",""time""
""fullscreenenter"",""0"",""2859""
","
","null","run_exp/static/images/Set 6_rs/023a.jpg","null","","","","","","learn","SR",""
"","html-keyboard-response","78","106921","0.0-78.0","""event"",""trial"",""time""
""fullscreenenter"",""0"",""2859""
","
","
","""event"",""trial"",""time""
""fullscreenenter"",""0"",""2859""
","
","null","<p></p>","null","","","","","","","",""
"","image","79","108239","0.0-79.0","""event"",""trial"",""time""
""fullscreenenter"",""0"",""2859""
","
","
","""event"",""trial"",""time""
""fullscreenenter"",""0"",""2859""
","
","1315.0999999940395","run_exp/static/images/Set 6_rs/074a.jpg","78","","","","","","learn","SL",""
"","show_choice","80","108927","0.0-80.0","""event"",""trial"",""time""
""fullscreenenter"",""0"",""2859""
","
","
","""event"",""trial"",""time""
""fullscreenenter"",""0"",""2859""
","
","null","run_exp/static/images/Set 6_rs/074a.jpg","null","","","","","","learn","SL",""
"","html-keyboard-response","81","109438","0.0-81.0","""event"",""trial"",""time""
""fullscreenenter"",""0"",""2859""
","
","
","""event"",""trial"",""time""
""fullscreenenter"",""0"",""2859""
","
","null","<p></p>","null","","","","","","","",""
"","image","82","111108","0.0-82.0","""event"",""trial"",""time""
""fullscreenenter"",""0"",""2859""
","
","
","""event"",""trial"",""time""
""fullscreenenter"",""0"",""2859""
","
","1667.199999988079","run_exp/static/images/Set 6_rs/172a.jpg","78","","","","","","learn","SR",""
"","show_choice","83","111449","0.0-83.0","""event"",""trial"",""time""
""fullscreenenter"",""0"",""2859""
","
","
","""event"",""trial"",""time""
""fullscreenenter"",""0"",""2859""
","
","null","run_exp/static/images/Set 6_rs/172a.jpg","null","","","","","","learn","SR",""
"","html-keyboard-response","84","111955","0.0-84.0","""event"",""trial"",""time""
""fullscreenenter"",""0"",""2859""
","
","
","""event"",""trial"",""time""
""fullscreenenter"",""0"",""2859""
","
","null","<p></p>","null","","","","","","","",""
"","image","85","113430","0.0-85.0","""event"",""trial"",""time""
""fullscreenenter"",""0"",""2859""
","
","
","""event"",""trial"",""time""
""fullscreenenter"",""0"",""2859""
","
","1472.0999999940395","run_exp/static/images/Set 6_rs/111a.jpg","86","","","","","","learn","SL",""
"","show_choice","86","113970","0.0-86.0","""event"",""trial"",""time""
""fullscreenenter"",""0"",""2859""
","
","
","""event"",""trial"",""time""
""fullscreenenter"",""0"",""2859""
","
","null","run_exp/static/images/Set 6_rs/111a.jpg","null","","","","","","learn","SL",""
"","html-keyboard-response","87","114474","0.0-87.0","""event"",""trial"",""time""
""fullscreenenter"",""0"",""2859""
","
","
","""event"",""trial"",""time""
""fullscreenenter"",""0"",""2859""
","
","null","<p></p>","null","","","","","","","",""
"","image","88","115685","0.0-88.0","""event"",""trial"",""time""
""fullscreenenter"",""0"",""2859""
","
","
","""event"",""trial"",""time""
""fullscreenenter"",""0"",""2859""
","
","1207","run_exp/static/images/Set 6_rs/010a.jpg","86","","","","","","learn","SR",""
"","show_choice","89","116488","0.0-89.0","""event"",""trial"",""time""
""fullscreenenter"",""0"",""2859""
","
","
","""event"",""trial"",""time""
""fullscreenenter"",""0"",""2859""
","
","null","run_exp/static/images/Set 6_rs/010a.jpg","null","","","","","","learn","SR",""
"","html-keyboard-response","90","116991","0.0-90.0","""event"",""trial"",""time""
""fullscreenenter"",""0"",""2859""
","
","
","""event"",""trial"",""time""
""fullscreenenter"",""0"",""2859""
","
","null","<p></p>","null","","","","","","","",""
"","image","91","118095","0.0-91.0","""event"",""trial"",""time""
""fullscreenenter"",""0"",""2859""
","
","
","""event"",""trial"",""time""
""fullscreenenter"",""0"",""2859""
","
","1099.699999988079","run_exp/static/images/Set 6_rs/012a.jpg","86","","","","","","learn","SR",""
"","show_choice","92","118999","0.0-92.0","""event"",""trial"",""time""
""fullscreenenter"",""0"",""2859""
","
","
","""event"",""trial"",""time""
""fullscreenenter"",""0"",""2859""
","
","null","run_exp/static/images/Set 6_rs/012a.jpg","null","","","","","","learn","SR",""
"","html-keyboard-response","93","119508","0.0-93.0","""event"",""trial"",""time""
""fullscreenenter"",""0"",""2859""
","
","
","""event"",""trial"",""time""
""fullscreenenter"",""0"",""2859""
","
","null","<p></p>","null","","","","","","","",""
"","image","94","120416","0.0-94.0","""event"",""trial"",""time""
""fullscreenenter"",""0"",""2859""
","
","
","""event"",""trial"",""time""
""fullscreenenter"",""0"",""2859""
","
","905","run_exp/static/images/Set 6_rs/055a.jpg","86","","","","","","learn","SL",""
"","show_choice","95","121520","0.0-95.0","""event"",""trial"",""time""
""fullscreenenter"",""0"",""2859""
","
","
","""event"",""trial"",""time""
""fullscreenenter"",""0"",""2859""
","
","null","run_exp/static/images/Set 6_rs/055a.jpg","null","","","","","","learn","SL",""
"","html-keyboard-response","96","122026","0.0-96.0","""event"",""trial"",""time""
""fullscreenenter"",""0"",""2859""
","
","
","""event"",""trial"",""time""
""fullscreenenter"",""0"",""2859""
","
","null","<p></p>","null","","","","","","","",""
"","image","97","123134","0.0-97.0","""event"",""trial"",""time""
""fullscreenenter"",""0"",""2859""
","
","
","""event"",""trial"",""time""
""fullscreenenter"",""0"",""2859""
","
","1104.2000000029802","run_exp/static/images/Set 6_rs/177a.jpg","78","","","","","","learn","SR",""
"","show_choice","98","124033","0.0-98.0","""event"",""trial"",""time""
""fullscreenenter"",""0"",""2859""
","
","
","""event"",""trial"",""time""
""fullscreenenter"",""0"",""2859""
","
","null","run_exp/static/images/Set 6_rs/177a.jpg","null","","","","","","learn","SR",""
"","html-keyboard-response","99","124541","0.0-99.0","""event"",""trial"",""time""
""fullscreenenter"",""0"",""2859""
","
","
","""event"",""trial"",""time""
""fullscreenenter"",""0"",""2859""
","
","null","<p></p>","null","","","","","","","",""
"","image","100","125922","0.0-100.0","""event"",""trial"",""time""
""fullscreenenter"",""0"",""2859""
","
","
","""event"",""trial"",""time""
""fullscreenenter"",""0"",""2859""
","
","1376.5","run_exp/static/images/Set 6_rs/064a.jpg","86","","","","","","learn","SR",""
"","show_choice","101","126553","0.0-101.0","""event"",""trial"",""time""
""fullscreenenter"",""0"",""2859""
","
","
","""event"",""trial"",""time""
""fullscreenenter"",""0"",""2859""
","
","null","run_exp/static/images/Set 6_rs/064a.jpg","null","","","","","","learn","SR",""
"","html-keyboard-response","102","127061","0.0-102.0","""event"",""trial"",""time""
""fullscreenenter"",""0"",""2859""
","
","
","""event"",""trial"",""time""
""fullscreenenter"",""0"",""2859""
","
","null","<p></p>","null","","","","","","","",""
"","image","103","129079","0.0-103.0","""event"",""trial"",""time""
""fullscreenenter"",""0"",""2859""
","
","
","""event"",""trial"",""time""
""fullscreenenter"",""0"",""2859""
","
","null","run_exp/static/images/Set 6_rs/085a.jpg","null","","","","","","learn","SL",""
"","show_choice","104","131111","0.0-104.0","""event"",""trial"",""time""
""fullscreenenter"",""0"",""2859""
","
","
","""event"",""trial"",""time""
""fullscreenenter"",""0"",""2859""
","
","null","run_exp/static/images/blank.png","null","","","","","","learn","SL",""
"","html-keyboard-response","105","131627","0.0-105.0","""event"",""trial"",""time""
""fullscreenenter"",""0"",""2859""
","
","
","""event"",""trial"",""time""
""fullscreenenter"",""0"",""2859""
","
","null","<p></p>","null","","","","","","","",""
"","image","106","133646","0.0-106.0","""event"",""trial"",""time""
""fullscreenenter"",""0"",""2859""
","
","
","""event"",""trial"",""time""
""fullscreenenter"",""0"",""2859""
","
","null","run_exp/static/images/Set 6_rs/168a.jpg","null","","","","","","learn","SL",""
"","show_choice","107","135664","0.0-107.0","""event"",""trial"",""time""
""fullscreenenter"",""0"",""2859""
","
","
","""event"",""trial"",""time""
""fullscreenenter"",""0"",""2859""
","
","null","run_exp/static/images/blank.png","null","","","","","","learn","SL",""
"","html-keyboard-response","108","136178","0.0-108.0","""event"",""trial"",""time""
""fullscreenenter"",""0"",""2859""
","
","
","""event"",""trial"",""time""
""fullscreenenter"",""0"",""2859""
","
","null","<p></p>","null","","","","","","","",""
"","image","109","137724","0.0-109.0","""event"",""trial"",""time""
""fullscreenenter"",""0"",""2859""
","
","
","""event"",""trial"",""time""
""fullscreenenter"",""0"",""2859""
","
","1541.7000000029802","run_exp/static/images/Set 6_rs/036a.jpg","86","","","","","","learn","SL",""
"","show_choice","110","138200","0.0-110.0","""event"",""trial"",""time""
""fullscreenenter"",""0"",""2859""
","
","
","""event"",""trial"",""time""
""fullscreenenter"",""0"",""2859""
","
","null","run_exp/static/images/Set 6_rs/036a.jpg","null","","","","","","learn","SL",""
"","html-keyboard-response","111","138714","0.0-111.0","""event"",""trial"",""time""
""fullscreenenter"",""0"",""2859""
","
","
","""event"",""trial"",""time""
""fullscreenenter"",""0"",""2859""
","
","null","<p></p>","null","","","","","","","",""
"","image","112","139962","0.0-112.0","""event"",""trial"",""time""
""fullscreenenter"",""0"",""2859""
","
","
","""event"",""trial"",""time""
""fullscreenenter"",""0"",""2859""
","
","1244.4000000059605","run_exp/static/images/Set 6_rs/088a.jpg","86","","","","","","learn","SR",""
"","show_choice","113","140732","0.0-113.0","""event"",""trial"",""time""
""fullscreenenter"",""0"",""2859""
","
","
","""event"",""trial"",""time""
""fullscreenenter"",""0"",""2859""
","
","null","run_exp/static/images/Set 6_rs/088a.jpg","null","","","","","","learn","SR",""
"","html-keyboard-response","114","141248","0.0-114.0","""event"",""trial"",""time""
""fullscreenenter"",""0"",""2859""
","
","
","""event"",""trial"",""time""
""fullscreenenter"",""0"",""2859""
","
","null","<p></p>","null","","","","","","","",""
"","image","115","142238","0.0-115.0","""event"",""trial"",""time""
""fullscreenenter"",""0"",""2859""
","
","
","""event"",""trial"",""time""
""fullscreenenter"",""0"",""2859""
","
","986.5","run_exp/static/images/Set 6_rs/123a.jpg","78","","","","","","learn","SL",""
"","show_choice","116","143265","0.0-116.0","""event"",""trial"",""time""
""fullscreenenter"",""0"",""2859""
","
","
","""event"",""trial"",""time""
""fullscreenenter"",""0"",""2859""
","
","null","run_exp/static/images/Set 6_rs/123a.jpg","null","","","","","","learn","SL",""
"","html-keyboard-response","117","143782","0.0-117.0","""event"",""trial"",""time""
""fullscreenenter"",""0"",""2859""
","
","
","""event"",""trial"",""time""
""fullscreenenter"",""0"",""2859""
","
","null","<p></p>","null","","","","","","","",""
"","image","118","144769","0.0-118.0","""event"",""trial"",""time""
""fullscreenenter"",""0"",""2859""
","
","
","""event"",""trial"",""time""
""fullscreenenter"",""0"",""2859""
","
","984.4000000059605","run_exp/static/images/Set 6_rs/063a.jpg","86","","","","","","learn","SR",""
"","show_choice","119","145798","0.0-119.0","""event"",""trial"",""time""
""fullscreenenter"",""0"",""2859""
","
","
","""event"",""trial"",""time""
""fullscreenenter"",""0"",""2859""
","
","null","run_exp/static/images/Set 6_rs/063a.jpg","null","","","","","","learn","SR",""
"","html-keyboard-response","120","146299","0.0-120.0","""event"",""trial"",""time""
""fullscreenenter"",""0"",""2859""
","
","
","""event"",""trial"",""time""
""fullscreenenter"",""0"",""2859""
","
","null","<p></p>","null","","","","","","","",""
"","image","121","147516","0.0-121.0","""event"",""trial"",""time""
""fullscreenenter"",""0"",""2859""
","
","
","""event"",""trial"",""time""
""fullscreenenter"",""0"",""2859""
","
","1213.699999988079","run_exp/static/images/Set 6_rs/050a.jpg","86","","","","","","learn","SL",""
"","show_choice","122","148313","0.0-122.0","""event"",""trial"",""time""
""fullscreenenter"",""0"",""2859""
","
","
","""event"",""trial"",""time""
""fullscreenenter"",""0"",""2859""
","
","null","run_exp/static/images/Set 6_rs/050a.jpg","null","","","","","","learn","SL",""
"","html-keyboard-response","123","148818","0.0-123.0","""event"",""trial"",""time""
""fullscreenenter"",""0"",""2859""
","
","
","""event"",""trial"",""time""
""fullscreenenter"",""0"",""2859""
","
","null","<p></p>","null","","","","","","","",""
"","image","124","149885","0.0-124.0","""event"",""trial"",""time""
""fullscreenenter"",""0"",""2859""
","
","
","""event"",""trial"",""time""
""fullscreenenter"",""0"",""2859""
","
","1064","run_exp/static/images/Set 6_rs/186a.jpg","86","","","","","","learn","SR",""
"","show_choice","125","150838","0.0-125.0","""event"",""trial"",""time""
""fullscreenenter"",""0"",""2859""
","
","
","""event"",""trial"",""time""
""fullscreenenter"",""0"",""2859""
","
","null","run_exp/static/images/Set 6_rs/186a.jpg","null","","","","","","learn","SR",""
"","html-keyboard-response","126","151350","0.0-126.0","""event"",""trial"",""time""
""fullscreenenter"",""0"",""2859""
","
","
","""event"",""trial"",""time""
""fullscreenenter"",""0"",""2859""
","
","null","<p></p>","null","","","","","","","",""
"","image","127","152662","0.0-127.0","""event"",""trial"",""time""
""fullscreenenter"",""0"",""2859""
","
","
","""event"",""trial"",""time""
""fullscreenenter"",""0"",""2859""
","
","1307.3999999910593","run_exp/static/images/Set 6_rs/132a.jpg","86","","","","","","learn","SR",""
"","show_choice","128","153365","0.0-128.0","""event"",""trial"",""time""
""fullscreenenter"",""0"",""2859""
","
","
","""event"",""trial"",""time""
""fullscreenenter"",""0"",""2859""
","
","null","run_exp/static/images/Set 6_rs/132a.jpg","null","","","","","","learn","SR",""
"","html-keyboard-response","129","153869","0.0-129.0","""event"",""trial"",""time""
""fullscreenenter"",""0"",""2859""
","
","
","""event"",""trial"",""time""
""fullscreenenter"",""0"",""2859""
","
","null","<p></p>","null","","","","","","","",""
"","image","130","155887","0.0-130.0","""event"",""trial"",""time""
""fullscreenenter"",""0"",""2859""
","
","
","""event"",""trial"",""time""
""fullscreenenter"",""0"",""2859""
","
","null","run_exp/static/images/Set 6_rs/121a.jpg","null","","","","","","learn","SR",""
"","show_choice","131","157902","0.0-131.0","""event"",""trial"",""time""
""fullscreenenter"",""0"",""2859""
","
","
","""event"",""trial"",""time""
""fullscreenenter"",""0"",""2859""
","
","null","run_exp/static/images/blank.png","null","","","","","","learn","SR",""
"","html-keyboard-response","132","158417","0.0-132.0","""event"",""trial"",""time""
""fullscreenenter"",""0"",""2859""
","
","
","""event"",""trial"",""time""
""fullscreenenter"",""0"",""2859""
","
","null","<p></p>","null","","","","","","","",""
"","image","133","159433","0.0-133.0","""event"",""trial"",""time""
""fullscreenenter"",""0"",""2859""
","
","
","""event"",""trial"",""time""
""fullscreenenter"",""0"",""2859""
","
","1011.4000000059605","run_exp/static/images/Set 6_rs/014a.jpg","86","","","","","","learn","SL",""
"","show_choice","134","160439","0.0-134.0","""event"",""trial"",""time""
""fullscreenenter"",""0"",""2859""
","
","
","""event"",""trial"",""time""
""fullscreenenter"",""0"",""2859""
","
","null","run_exp/static/images/Set 6_rs/014a.jpg","null","","","","","","learn","SL",""
"","html-keyboard-response","135","160955","0.0-135.0","""event"",""trial"",""time""
""fullscreenenter"",""0"",""2859""
","
","
","""event"",""trial"",""time""
""fullscreenenter"",""0"",""2859""
","
","null","<p></p>","null","","","","","","","",""
"","image","136","162085","0.0-136.0","""event"",""trial"",""time""
""fullscreenenter"",""0"",""2859""
","
","
","""event"",""trial"",""time""
""fullscreenenter"",""0"",""2859""
","
","1126.2000000029802","run_exp/static/images/Set 6_rs/025a.jpg","86","","","","","","learn","SL",""
"","show_choice","137","162962","0.0-137.0","""event"",""trial"",""time""
""fullscreenenter"",""0"",""2859""
","
","
","""event"",""trial"",""time""
""fullscreenenter"",""0"",""2859""
","
","null","run_exp/static/images/Set 6_rs/025a.jpg","null","","","","","","learn","SL",""
"","html-keyboard-response","138","163469","0.0-138.0","""event"",""trial"",""time""
""fullscreenenter"",""0"",""2859""
","
","
","""event"",""trial"",""time""
""fullscreenenter"",""0"",""2859""
","
","null","<p></p>","null","","","","","","","",""
"","image","139","164609","0.0-139.0","""event"",""trial"",""time""
""fullscreenenter"",""0"",""2859""
","
","
","""event"",""trial"",""time""
""fullscreenenter"",""0"",""2859""
","
","1136.4000000059605","run_exp/static/images/Set 6_rs/150a.jpg","86","","","","","","learn","SR",""
"","show_choice","140","165479","0.0-140.0","""event"",""trial"",""time""
""fullscreenenter"",""0"",""2859""
","
","
","""event"",""trial"",""time""
""fullscreenenter"",""0"",""2859""
","
","null","run_exp/static/images/Set 6_rs/150a.jpg","null","","","","","","learn","SR",""
"","html-keyboard-response","141","165985","0.0-141.0","""event"",""trial"",""time""
""fullscreenenter"",""0"",""2859""
","
","
","""event"",""trial"",""time""
""fullscreenenter"",""0"",""2859""
","
","null","<p></p>","null","","","","","","","",""
"","image","142","167512","0.0-142.0","""event"",""trial"",""time""
""fullscreenenter"",""0"",""2859""
","
","
","""event"",""trial"",""time""
""fullscreenenter"",""0"",""2859""
","
","1523","run_exp/static/images/Set 6_rs/144a.jpg","86","","","","","","learn","SL",""
"","show_choice","143","168007","0.0-143.0","""event"",""trial"",""time""
""fullscreenenter"",""0"",""2859""
","
","
","""event"",""trial"",""time""
""fullscreenenter"",""0"",""2859""
","
","null","run_exp/static/images/Set 6_rs/144a.jpg","null","","","","","","learn","SL",""
"","html-keyboard-response","144","168522","0.0-144.0","""event"",""trial"",""time""
""fullscreenenter"",""0"",""2859""
","
","
","""event"",""trial"",""time""
""fullscreenenter"",""0"",""2859""
","
","null","<p></p>","null","","","","","","","",""
"","image","145","169610","0.0-145.0","""event"",""trial"",""time""
""fullscreenenter"",""0"",""2859""
","
","
","""event"",""trial"",""time""
""fullscreenenter"",""0"",""2859""
","
","1084.8999999910593","run_exp/static/images/Set 6_rs/169a.jpg","78","","","","","","learn","SR",""
"","show_choice","146","170528","0.0-146.0","""event"",""trial"",""time""
""fullscreenenter"",""0"",""2859""
","
","
","""event"",""trial"",""time""
""fullscreenenter"",""0"",""2859""
","
","null","run_exp/static/images/Set 6_rs/169a.jpg","null","","","","","","learn","SR",""
"","html-keyboard-response","147","171039","0.0-147.0","""event"",""trial"",""time""
""fullscreenenter"",""0"",""2859""
","
","
","""event"",""trial"",""time""
""fullscreenenter"",""0"",""2859""
","
","null","<p></p>","null","","","","","","","",""
"","image","148","172133","0.0-148.0","""event"",""trial"",""time""
""fullscreenenter"",""0"",""2859""
","
","
","""event"",""trial"",""time""
""fullscreenenter"",""0"",""2859""
","
","1090.2000000029802","run_exp/static/images/Set 6_rs/131a.jpg","86","","","","","","learn","SR",""
"","show_choice","149","173047","0.0-149.0","""event"",""trial"",""time""
""fullscreenenter"",""0"",""2859""
","
","
","""event"",""trial"",""time""
""fullscreenenter"",""0"",""2859""
","
","null","run_exp/static/images/Set 6_rs/131a.jpg","null","","","","","","learn","SR",""
"","html-keyboard-response","150","173555","0.0-150.0","""event"",""trial"",""time""
""fullscreenenter"",""0"",""2859""
","
","
","""event"",""trial"",""time""
""fullscreenenter"",""0"",""2859""
","
","null","<p></p>","null","","","","","","","",""
"","image","151","174584","0.0-151.0","""event"",""trial"",""time""
""fullscreenenter"",""0"",""2859""
","
","
","""event"",""trial"",""time""
""fullscreenenter"",""0"",""2859""
","
","1025.3999999910593","run_exp/static/images/Set 6_rs/138a.jpg","78","","","","","","learn","SL",""
"","show_choice","152","175576","0.0-152.0","""event"",""trial"",""time""
""fullscreenenter"",""0"",""2859""
","
","
","""event"",""trial"",""time""
""fullscreenenter"",""0"",""2859""
","
","null","run_exp/static/images/Set 6_rs/138a.jpg","null","","","","","","learn","SL",""
"","html-keyboard-response","153","176092","0.0-153.0","""event"",""trial"",""time""
""fullscreenenter"",""0"",""2859""
","
","
","""event"",""trial"",""time""
""fullscreenenter"",""0"",""2859""
","
","null","<p></p>","null","","","","","","","",""
"","image","154","176974","0.0-154.0","""event"",""trial"",""time""
""fullscreenenter"",""0"",""2859""
","
","
","""event"",""trial"",""time""
""fullscreenenter"",""0"",""2859""
","
","879.2000000029802","run_exp/static/images/Set 6_rs/112a.jpg","86","","","","","","learn","SR",""
"","show_choice","155","178100","0.0-155.0","""event"",""trial"",""time""
""fullscreenenter"",""0"",""2859""
","
","
","""event"",""trial"",""time""
""fullscreenenter"",""0"",""2859""
","
","null","run_exp/static/images/Set 6_rs/112a.jpg","null","","","","","","learn","SR",""
"","html-keyboard-response","156","178609","0.0-156.0","""event"",""trial"",""time""
""fullscreenenter"",""0"",""2859""
","
","
","""event"",""trial"",""time""
""fullscreenenter"",""0"",""2859""
","
","null","<p></p>","null","","","","","","","",""
"","image","157","179788","0.0-157.0","""event"",""trial"",""time""
""fullscreenenter"",""0"",""2859""
","
","
","""event"",""trial"",""time""
""fullscreenenter"",""0"",""2859""
","
","1175.9000000059605","run_exp/static/images/Set 6_rs/019a.jpg","86","","","","","","learn","SL",""
"","show_choice","158","180620","0.0-158.0","""event"",""trial"",""time""
""fullscreenenter"",""0"",""2859""
","
","
","""event"",""trial"",""time""
""fullscreenenter"",""0"",""2859""
","
","null","run_exp/static/images/Set 6_rs/019a.jpg","null","","","","","","learn","SL",""
"","html-keyboard-response","159","181125","0.0-159.0","""event"",""trial"",""time""
""fullscreenenter"",""0"",""2859""
","
","
","""event"",""trial"",""time""
""fullscreenenter"",""0"",""2859""
","
","null","<p></p>","null","","","","","","","",""
"","image","160","182296","0.0-160.0","""event"",""trial"",""time""
""fullscreenenter"",""0"",""2859""
","
","
","""event"",""trial"",""time""
""fullscreenenter"",""0"",""2859""
","
","1166.8999999910593","run_exp/static/images/Set 6_rs/134a.jpg","86","","","","","","learn","SR",""
"","show_choice","161","183138","0.0-161.0","""event"",""trial"",""time""
""fullscreenenter"",""0"",""2859""
","
","
","""event"",""trial"",""time""
""fullscreenenter"",""0"",""2859""
","
","null","run_exp/static/images/Set 6_rs/134a.jpg","null","","","","","","learn","SR",""
"","html-keyboard-response","162","183639","0.0-162.0","""event"",""trial"",""time""
""fullscreenenter"",""0"",""2859""
","
","
","""event"",""trial"",""time""
""fullscreenenter"",""0"",""2859""
","
","null","<p></p>","null","","","","","","","",""
"","image","163","184789","0.0-163.0","""event"",""trial"",""time""
""fullscreenenter"",""0"",""2859""
","
","
","""event"",""trial"",""time""
""fullscreenenter"",""0"",""2859""
","
","1146.800000011921","run_exp/static/images/Set 6_rs/007a.jpg","86","","","","","","learn","SR",""
"","show_choice","164","185652","0.0-164.0","""event"",""trial"",""time""
""fullscreenenter"",""0"",""2859""
","
","
","""event"",""trial"",""time""
""fullscreenenter"",""0"",""2859""
","
","null","run_exp/static/images/Set 6_rs/007a.jpg","null","","","","","","learn","SR",""
"","html-keyboard-response","165","186161","0.0-165.0","""event"",""trial"",""time""
""fullscreenenter"",""0"",""2859""
","
","
","""event"",""trial"",""time""
""fullscreenenter"",""0"",""2859""
","
","null","<p></p>","null","","","","","","","",""
"","image","166","187721","0.0-166.0","""event"",""trial"",""time""
""fullscreenenter"",""0"",""2859""
","
","
","""event"",""trial"",""time""
""fullscreenenter"",""0"",""2859""
","
","1556.7000000029802","run_exp/static/images/Set 6_rs/191a.jpg","86","","","","","","learn","SL",""
"","show_choice","167","188181","0.0-167.0","""event"",""trial"",""time""
""fullscreenenter"",""0"",""2859""
","
","
","""event"",""trial"",""time""
""fullscreenenter"",""0"",""2859""
","
","null","run_exp/static/images/Set 6_rs/191a.jpg","null","","","","","","learn","SL",""
"","html-keyboard-response","168","188695","0.0-168.0","""event"",""trial"",""time""
""fullscreenenter"",""0"",""2859""
","
","
","""event"",""trial"",""time""
""fullscreenenter"",""0"",""2859""
","
","null","<p></p>","null","","","","","","","",""
"","image","169","189699","0.0-169.0","""event"",""trial"",""time""
""fullscreenenter"",""0"",""2859""
","
","
","""event"",""trial"",""time""
""fullscreenenter"",""0"",""2859""
","
","999.2000000029802","run_exp/static/images/Set 6_rs/095a.jpg","86","","","","","","learn","SL",""
"","show_choice","170","190715","0.0-170.0","""event"",""trial"",""time""
""fullscreenenter"",""0"",""2859""
","
","
","""event"",""trial"",""time""
""fullscreenenter"",""0"",""2859""
","
","null","run_exp/static/images/Set 6_rs/095a.jpg","null","","","","","","learn","SL",""
"","html-keyboard-response","171","191229","0.0-171.0","""event"",""trial"",""time""
""fullscreenenter"",""0"",""2859""
","
","
","""event"",""trial"",""time""
""fullscreenenter"",""0"",""2859""
","
","null","<p></p>","null","","","","","","","",""
"","image","172","192315","0.0-172.0","""event"",""trial"",""time""
""fullscreenenter"",""0"",""2859""
","
","
","""event"",""trial"",""time""
""fullscreenenter"",""0"",""2859""
","
","1082.5","run_exp/static/images/Set 6_rs/071a.jpg","86","","","","","","learn","SL",""
"","show_choice","173","193244","0.0-173.0","""event"",""trial"",""time""
""fullscreenenter"",""0"",""2859""
","
","
","""event"",""trial"",""time""
""fullscreenenter"",""0"",""2859""
","
","null","run_exp/static/images/Set 6_rs/071a.jpg","null","","","","","","learn","SL",""
"","html-keyboard-response","174","193747","0.0-174.0","""event"",""trial"",""time""
""fullscreenenter"",""0"",""2859""
","
","
","""event"",""trial"",""time""
""fullscreenenter"",""0"",""2859""
","
","null","<p></p>","null","","","","","","","",""
"","image","175","195285","0.0-175.0","""event"",""trial"",""time""
""fullscreenenter"",""0"",""2859""
","
","
","""event"",""trial"",""time""
""fullscreenenter"",""0"",""2859""
","
","1532.5999999940395","run_exp/static/images/Set 6_rs/126a.jpg","86","","","","","","learn","SR",""
"","show_choice","176","195769","0.0-176.0","""event"",""trial"",""time""
""fullscreenenter"",""0"",""2859""
","
","
","""event"",""trial"",""time""
""fullscreenenter"",""0"",""2859""
","
","null","run_exp/static/images/Set 6_rs/126a.jpg","null","","","","","","learn","SR",""
"","html-keyboard-response","177","196279","0.0-177.0","""event"",""trial"",""time""
""fullscreenenter"",""0"",""2859""
","
","
","""event"",""trial"",""time""
""fullscreenenter"",""0"",""2859""
","
","null","<p></p>","null","","","","","","","",""
"","image","178","197909","0.0-178.0","""event"",""trial"",""time""
""fullscreenenter"",""0"",""2859""
","
","
","""event"",""trial"",""time""
""fullscreenenter"",""0"",""2859""
","
","1626.6000000089407","run_exp/static/images/Set 6_rs/006a.jpg","86","","","","","","learn","SL",""
"","show_choice","179","198289","0.0-179.0","""event"",""trial"",""time""
""fullscreenenter"",""0"",""2859""
","
","
","""event"",""trial"",""time""
""fullscreenenter"",""0"",""2859""
","
","null","run_exp/static/images/Set 6_rs/006a.jpg","null","","","","","","learn","SL",""
"","html-keyboard-response","180","198798","0.0-180.0","""event"",""trial"",""time""
""fullscreenenter"",""0"",""2859""
","
","
","""event"",""trial"",""time""
""fullscreenenter"",""0"",""2859""
","
","null","<p></p>","null","","","","","","","",""
"","image","181","200206","0.0-181.0","""event"",""trial"",""time""
""fullscreenenter"",""0"",""2859""
","
","
","""event"",""trial"",""time""
""fullscreenenter"",""0"",""2859""
","
","1404.4000000059605","run_exp/static/images/Set 6_rs/091a.jpg","78","","","","","","learn","SL",""
"","show_choice","182","200810","0.0-182.0","""event"",""trial"",""time""
""fullscreenenter"",""0"",""2859""
","
","
","""event"",""trial"",""time""
""fullscreenenter"",""0"",""2859""
","
","null","run_exp/static/images/Set 6_rs/091a.jpg","null","","","","","","learn","SL",""
"","html-keyboard-response","183","201316","0.0-183.0","""event"",""trial"",""time""
""fullscreenenter"",""0"",""2859""
","
","
","""event"",""trial"",""time""
""fullscreenenter"",""0"",""2859""
","
","null","<p></p>","null","","","","","","","",""
"","image","184","202339","0.0-184.0","""event"",""trial"",""time""
""fullscreenenter"",""0"",""2859""
","
","
","""event"",""trial"",""time""
""fullscreenenter"",""0"",""2859""
","
","1020","run_exp/static/images/Set 6_rs/154a.jpg","86","","","","","","learn","SR",""
"","show_choice","185","203334","0.0-185.0","""event"",""trial"",""time""
""fullscreenenter"",""0"",""2859""
","
","
","""event"",""trial"",""time""
""fullscreenenter"",""0"",""2859""
","
","null","run_exp/static/images/Set 6_rs/154a.jpg","null","","","","","","learn","SR",""
"","html-keyboard-response","186","203849","0.0-186.0","""event"",""trial"",""time""
""fullscreenenter"",""0"",""2859""
","
","
","""event"",""trial"",""time""
""fullscreenenter"",""0"",""2859""
","
","null","<p></p>","null","","","","","","","",""
"","image","187","204729","0.0-187.0","""event"",""trial"",""time""
""fullscreenenter"",""0"",""2859""
","
","
","""event"",""trial"",""time""
""fullscreenenter"",""0"",""2859""
","
","876","run_exp/static/images/Set 6_rs/061a.jpg","78","","","","","","learn","SR",""
"","show_choice","188","205858","0.0-188.0","""event"",""trial"",""time""
""fullscreenenter"",""0"",""2859""
","
","
","""event"",""trial"",""time""
""fullscreenenter"",""0"",""2859""
","
","null","run_exp/static/images/Set 6_rs/061a.jpg","null","","","","","","learn","SR",""
"","html-keyboard-response","189","206366","0.0-189.0","""event"",""trial"",""time""
""fullscreenenter"",""0"",""2859""
","
","
","""event"",""trial"",""time""
""fullscreenenter"",""0"",""2859""
","
","null","<p></p>","null","","","","","","","",""
"","image","190","207240","0.0-190.0","""event"",""trial"",""time""
""fullscreenenter"",""0"",""2859""
","
","
","""event"",""trial"",""time""
""fullscreenenter"",""0"",""2859""
","
","869.7000000029802","run_exp/static/images/Set 6_rs/079a.jpg","86","","","","","","learn","SL",""
"","show_choice","191","208376","0.0-191.0","""event"",""trial"",""time""
""fullscreenenter"",""0"",""2859""
","
","
","""event"",""trial"",""time""
""fullscreenenter"",""0"",""2859""
","
","null","run_exp/static/images/Set 6_rs/079a.jpg","null","","","","","","learn","SL",""
"","html-keyboard-response","192","208884","0.0-192.0","""event"",""trial"",""time""
""fullscreenenter"",""0"",""2859""
","
","
","""event"",""trial"",""time""
""fullscreenenter"",""0"",""2859""
","
","null","<p></p>","null","","","","","","","",""
"","image","193","210007","0.0-193.0","""event"",""trial"",""time""
""fullscreenenter"",""0"",""2859""
","
","
","""event"",""trial"",""time""
""fullscreenenter"",""0"",""2859""
","
","1120.5999999940395","run_exp/static/images/Set 6_rs/076a.jpg","78","","","","","","learn","SR",""
"","show_choice","194","210894","0.0-194.0","""event"",""trial"",""time""
""fullscreenenter"",""0"",""2859""
","
","
","""event"",""trial"",""time""
""fullscreenenter"",""0"",""2859""
","
","null","run_exp/static/images/Set 6_rs/076a.jpg","null","","","","","","learn","SR",""
"","html-keyboard-response","195","211401","0.0-195.0","""event"",""trial"",""time""
""fullscreenenter"",""0"",""2859""
","
","
","""event"",""trial"",""time""
""fullscreenenter"",""0"",""2859""
","
","null","<p></p>","null","","","","","","","",""
"","test_intro","196","248501","0.0-196.0","""event"",""trial"",""time""
""fullscreenenter"",""0"",""2859""
","
","
","""event"",""trial"",""time""
""fullscreenenter"",""0"",""2859""
","
","null","run_exp/static/audio/clip_2_memory.m4a","null","","","","","<div class='center'><p>Now, lets see how much you remember about the items you just saw.  For each item, you need to indicate if it was <b>old</b> by pressing the <b>v</b> key, <b>similar</b> by pressing the <b>b</b> key, or <b>new</b> by pressing the <b>n</b> key.</p><p>Old refers to an item that you saw before in the indoor/outdoor game that you just played, new refers to an item you have <b>not</b> seen before within the indoor/outdoor game, and similar refers to an item that is similar to an item youve seen before but is not exactly the same. </p><p>Before we begin, lets go over some brief demonstrations to make sure you understand.</p></div>","","",""
"","html-keyboard-response","197","248892","0.0-197.0","""event"",""trial"",""time""
""fullscreenenter"",""0"",""2859""
","
","
","""event"",""trial"",""time""
""fullscreenenter"",""0"",""2859""
","
","376.09999999403954","<div class='center'><p>Now, lets see how much you remember about the items you just saw.  For each item, you need to indicate if it was <b>old</b> by pressing the <b>v</b> key, <b>similar</b> by pressing the <b>b</b> key, or <b>new</b> by pressing the <b>n</b> key.</p><p>Old refers to an item that you saw before in the indoor/outdoor game that you just played, new refers to an item you have <b>not</b> seen before within the indoor/outdoor game, and similar refers to an item that is similar to an item youve seen before but is not exactly the same. </p><p>Before we begin, lets go over some brief demonstrations to make sure you understand.</p><div><p><b>[Press the space bar to continue]</b></p></div>","32","","","","","","","",""
"","items","198","256415","0.0-198.0","""event"",""trial"",""time""
""fullscreenenter"",""0"",""2859""
","
","
","""event"",""trial"",""time""
""fullscreenenter"",""0"",""2859""
","
","null","run_exp/static/audio/clip_3_items.m4a","null","","","","","","","",""
"","mop","199","260936","0.0-199.0","""event"",""trial"",""time""
""fullscreenenter"",""0"",""2859""
","
","
","""event"",""trial"",""time""
""fullscreenenter"",""0"",""2859""
","
","null","run_exp/static/audio/clip_4_mop.m4a","null","","","","","","","",""
"","baseball","200","264451","0.0-200.0","""event"",""trial"",""time""
""fullscreenenter"",""0"",""2859""
","
","
","""event"",""trial"",""time""
""fullscreenenter"",""0"",""2859""
","
","null","run_exp/static/audio/clip_5_baseball.m4a","null","","","","","","","",""
"","trumpet","201","267979","0.0-201.0","""event"",""trial"",""time""
""fullscreenenter"",""0"",""2859""
","
","
","""event"",""trial"",""time""
""fullscreenenter"",""0"",""2859""
","
","null","run_exp/static/audio/clip_6_trumpet.m4a","null","","","","","","","",""
"","gummies","202","271516","0.0-202.0","""event"",""trial"",""time""
""fullscreenenter"",""0"",""2859""
","
","
","""event"",""trial"",""time""
""fullscreenenter"",""0"",""2859""
","
","null","run_exp/static/audio/clip_7_gummies.m4a","null","","","","","","","",""
"","osn","203","276027","0.0-203.0","""event"",""trial"",""time""
""fullscreenenter"",""0"",""2859""
","
","
","""event"",""trial"",""time""
""fullscreenenter"",""0"",""2859""
","
","null","run_exp/static/audio/clip_8_osn.m4a","null","","","","","","","",""
"","old_1","204","282554","0.0-204.0","""event"",""trial"",""time""
""fullscreenenter"",""0"",""2859""
","
","
","""event"",""trial"",""time""
""fullscreenenter"",""0"",""2859""
","
","null","run_exp/static/audio/clip_9_old_trumpet.m4a","null","","","","","","","",""
"","new_1","205","290070","0.0-205.0","""event"",""trial"",""time""
""fullscreenenter"",""0"",""2859""
","
","
","""event"",""trial"",""time""
""fullscreenenter"",""0"",""2859""
","
","null","run_exp/static/audio/clip_10_new_balloon.m4a","null","","","","","","","",""
"","similar_1a","206","294596","0.0-206.0","""event"",""trial"",""time""
""fullscreenenter"",""0"",""2859""
","
","
","""event"",""trial"",""time""
""fullscreenenter"",""0"",""2859""
","
","null","run_exp/static/audio/clip_11a_similar_mop.m4a","null","","","","","","","",""
"","similar_1b","207","301105","0.0-207.0","""event"",""trial"",""time""
""fullscreenenter"",""0"",""2859""
","
","
","""event"",""trial"",""time""
""fullscreenenter"",""0"",""2859""
","
","null","run_exp/static/audio/clip_11b_similar_mop.m4a","null","","","","","","","",""
"","new_2","208","304616","0.0-208.0","""event"",""trial"",""time""
""fullscreenenter"",""0"",""2859""
","
","
","""event"",""trial"",""time""
""fullscreenenter"",""0"",""2859""
","
","null","run_exp/static/audio/clip_12_new_stoplight.m4a","null","","","","","","","",""
"","old_2","209","308127","0.0-209.0","""event"",""trial"",""time""
""fullscreenenter"",""0"",""2859""
","
","
","""event"",""trial"",""time""
""fullscreenenter"",""0"",""2859""
","
","null","run_exp/static/audio/clip_13_old_baseball.m4a","null","","","","","","","",""
"","similar_2a","210","311646","0.0-210.0","""event"",""trial"",""time""
""fullscreenenter"",""0"",""2859""
","
","
","""event"",""trial"",""time""
""fullscreenenter"",""0"",""2859""
","
","null","run_exp/static/audio/clip_14a_similar_gummies.m4a","null","","","","","","","",""
"","similar_2b","211","319157","0.0-211.0","""event"",""trial"",""time""
""fullscreenenter"",""0"",""2859""
","
","
","""event"",""trial"",""time""
""fullscreenenter"",""0"",""2859""
","
","null","run_exp/static/audio/clip_14b_similar_gummies.m4a","null","","","","","","","",""
"","practice","212","361301","0.0-212.0","""event"",""trial"",""time""
""fullscreenenter"",""0"",""2859""
","
","
","""event"",""trial"",""time""
""fullscreenenter"",""0"",""2859""
","
","null","run_exp/static/audio/clip_15_practice.m4a","null","","","","","<div class='center'><p>Lets practice a little to make sure you understand the difference between new, similar, and old. Lets say you saw these three items in the indoor/outdoor game.</p><p> Try your best to remember these images because youll soon be tested on them in a practice game. In the practice game, youll be shown images and youll have to say if they are old (one of the three images belows), similar (similar to one of the images below but not exactly the same), or new (are not one of the images below nor similar to them).</p><p>Once you press the space bar youll be shown these images again but one at time. Then youll begin the practice game.</p><p><img src='run_exp/static/images/tutorial/test/three_indoor_outdoor.png' height='300'></p></div>","","",""
"","html-keyboard-response","213","362434","0.0-213.0","""event"",""trial"",""time""
""fullscreenenter"",""0"",""2859""
","
","
","""event"",""trial"",""time""
""fullscreenenter"",""0"",""2859""
","
","1127.6000000089407","<div class='center'><p>Lets practice a little to make sure you understand the difference between new, similar, and old. Lets say you saw these three items in the indoor/outdoor game.</p><p> Try your best to remember these images because youll soon be tested on them in a practice game. In the practice game, youll be shown images and youll have to say if they are old (one of the three images belows), similar (similar to one of the images below but not exactly the same), or new (are not one of the images below nor similar to them).</p><p>Once you press the space bar youll be shown these images again but one at time. Then youll begin the practice game.</p><p><img src='run_exp/static/images/tutorial/test/three_indoor_outdoor.png' height='300'></p><div><p><b>[Press the space bar to continue]</b></p></div>","32","","","","","","","",""
"","planet","214","364443","0.0-214.0","""event"",""trial"",""time""
""fullscreenenter"",""0"",""2859""
","
","
","""event"",""trial"",""time""
""fullscreenenter"",""0"",""2859""
","
","null","run_exp/static/images/tutorial/test/008a.jpg","null","","","","","","","",""
"","boot","215","366446","0.0-215.0","""event"",""trial"",""time""
""fullscreenenter"",""0"",""2859""
","
","
","""event"",""trial"",""time""
""fullscreenenter"",""0"",""2859""
","
","null","run_exp/static/images/tutorial/test/011a.jpg","null","","","","","","","",""
"","lemon","216","368466","0.0-216.0","""event"",""trial"",""time""
""fullscreenenter"",""0"",""2859""
","
","
","""event"",""trial"",""time""
""fullscreenenter"",""0"",""2859""
","
","null","run_exp/static/images/tutorial/test/018a.jpg","null","","","","","","","",""
"","practice_q1","217","378995","0.0-217.0","""event"",""trial"",""time""
""fullscreenenter"",""0"",""2859""
","
","
","""event"",""trial"",""time""
""fullscreenenter"",""0"",""2859""
","
","10520.20000000298","run_exp/static/audio/clip_16_practice_question.m4a","86","","","","","","","",""
"","incorrect_q1","218","381880","0.0-218.0-0.0","""event"",""trial"",""time""
""fullscreenenter"",""0"",""2859""
","
","
","""event"",""trial"",""time""
""fullscreenenter"",""0"",""2859""
","
","null","run_exp/static/audio/clip_18_incorrect_new.m4a","null","","","","","<div class='center'><p>Thats incorrect. Its new.</p></div>","","",""
"","html-keyboard-response","219","383459","0.0-218.0-1.0","""event"",""trial"",""time""
""fullscreenenter"",""0"",""2859""
","
","
","""event"",""trial"",""time""
""fullscreenenter"",""0"",""2859""
","
","1574.9000000059605","<div class='center'><p>Thats incorrect. Its new.</p><div><p><b>[Press the space bar to continue]</b></p></div>","32","","","","","","","",""
"","practice_q2","220","385794","0.0-218.0-2.0","""event"",""trial"",""time""
""fullscreenenter"",""0"",""2859""
","
","
","""event"",""trial"",""time""
""fullscreenenter"",""0"",""2859""
","
","2329.2999999970198","run_exp/static/audio/clip_16_practice_question.m4a","86","","","","","","","",""
"","correct","221","387718","0.0-219.0-0.0","""event"",""trial"",""time""
""fullscreenenter"",""0"",""2859""
","
","
","""event"",""trial"",""time""
""fullscreenenter"",""0"",""2859""
","
","null","run_exp/static/audio/clip_17_correct.m4a","null","","","","","<div class='center'><p>That's correct!</p></div>","","",""
"","html-keyboard-response","222","388907","0.0-219.0-1.0","""event"",""trial"",""time""
""fullscreenenter"",""0"",""2859""
","
","
","""event"",""trial"",""time""
""fullscreenenter"",""0"",""2859""
","
","1185.8999999910593","<div class='center'><p>That's correct!</p><div><p><b>[Press the space bar to continue]</b></p></div>","32","","","","","","","",""
"","practice_q3","223","391110","0.0-219.0-2.0","""event"",""trial"",""time""
""fullscreenenter"",""0"",""2859""
","
","
","""event"",""trial"",""time""
""fullscreenenter"",""0"",""2859""
","
","2194.5","run_exp/static/audio/clip_16_practice_question.m4a","86","","","","","","","",""
"","incorrect_q3","224","393880","0.0-220.0-0.0","""event"",""trial"",""time""
""fullscreenenter"",""0"",""2859""
","
","
","""event"",""trial"",""time""
""fullscreenenter"",""0"",""2859""
","
","null","run_exp/static/audio/clip_20_incorrect_similar.m4a","null","","","","","<div class='center'><p>Thats incorrect. Its similar.</p><p><img src='run_exp/static/images/tutorial/test/boot_comparison.png' height='300'></p></div>","","",""
"","html-keyboard-response","225","394939","0.0-220.0-1.0","""event"",""trial"",""time""
""fullscreenenter"",""0"",""2859""
","
","
","""event"",""trial"",""time""
""fullscreenenter"",""0"",""2859""
","
","1055","<div class='center'><p>Thats incorrect. Its similar.</p><p><img src='run_exp/static/images/tutorial/test/boot_comparison.png' height='300'></p><div><p><b>[Press the space bar to continue]</b></p></div>","32","","","","","","","",""
"","repeat","226","399699","0.0-221.0-0.0","""event"",""trial"",""time""
""fullscreenenter"",""0"",""2859""
","
","
","""event"",""trial"",""time""
""fullscreenenter"",""0"",""2859""
","
","null","run_exp/static/audio/clip_21_practice_again.m4a","null","","","","","<div class='center'><p>Oops. you missed at least one of these questions. Let's try practicing again. </p></div>","","",""
"","html-keyboard-response","227","400268","0.0-221.0-1.0","""event"",""trial"",""time""
""fullscreenenter"",""0"",""2859""
","
","
","""event"",""trial"",""time""
""fullscreenenter"",""0"",""2859""
","
","565.2999999970198","<div class='center'><p>Oops. you missed at least one of these questions. Let's try practicing again. </p><div><p><b>[Press the space bar to continue]</b></p></div>","32","","","","","","","",""
"","practice_q1","228","401221","0.0-221.0-2.0","""event"",""trial"",""time""
""fullscreenenter"",""0"",""2859""
","
","
","""event"",""trial"",""time""
""fullscreenenter"",""0"",""2859""
","
","948.3000000119209","run_exp/static/audio/clip_16_practice_question.m4a","78","","","","","","","",""
"","correct","229","403120","0.0-222.0-0.0","""event"",""trial"",""time""
""fullscreenenter"",""0"",""2859""
","
","
","""event"",""trial"",""time""
""fullscreenenter"",""0"",""2859""
","
","null","run_exp/static/audio/clip_17_correct.m4a","null","","","","","<div class='center'><p>That's correct!</p></div>","","",""
"","html-keyboard-response","230","403857","0.0-222.0-1.0","""event"",""trial"",""time""
""fullscreenenter"",""0"",""2859""
","
","
","""event"",""trial"",""time""
""fullscreenenter"",""0"",""2859""
","
","733.8999999910593","<div class='center'><p>That's correct!</p><div><p><b>[Press the space bar to continue]</b></p></div>","32","","","","","","","",""
"","practice_q2","231","404605","0.0-222.0-2.0","""event"",""trial"",""time""
""fullscreenenter"",""0"",""2859""
","
","
","""event"",""trial"",""time""
""fullscreenenter"",""0"",""2859""
","
","742.2000000029802","run_exp/static/audio/clip_16_practice_question.m4a","86","","","","","","","",""
"","correct","232","406520","0.0-223.0-0.0","""event"",""trial"",""time""
""fullscreenenter"",""0"",""2859""
","
","
","""event"",""trial"",""time""
""fullscreenenter"",""0"",""2859""
","
","null","run_exp/static/audio/clip_17_correct.m4a","null","","","","","<div class='center'><p>That's correct!</p></div>","","",""
"","html-keyboard-response","233","407131","0.0-223.0-1.0","""event"",""trial"",""time""
""fullscreenenter"",""0"",""2859""
","
","
","""event"",""trial"",""time""
""fullscreenenter"",""0"",""2859""
","
","606","<div class='center'><p>That's correct!</p><div><p><b>[Press the space bar to continue]</b></p></div>","32","","","","","","","",""
"","practice_q3","234","407735","0.0-223.0-2.0","""event"",""trial"",""time""
""fullscreenenter"",""0"",""2859""
","
","
","""event"",""trial"",""time""
""fullscreenenter"",""0"",""2859""
","
","594.6000000089407","run_exp/static/audio/clip_16_practice_question.m4a","66","","","","","","","",""
"","correct","235","409983","0.0-224.0-0.0","""event"",""trial"",""time""
""fullscreenenter"",""0"",""2859""
","
","
","""event"",""trial"",""time""
""fullscreenenter"",""0"",""2859""
","
","null","run_exp/static/audio/clip_17_correct.m4a","null","","","","","<div class='center'><p>That's correct!</p></div>","","",""
"","html-keyboard-response","236","410831","0.0-224.0-1.0","""event"",""trial"",""time""
""fullscreenenter"",""0"",""2859""
","
","
","""event"",""trial"",""time""
""fullscreenenter"",""0"",""2859""
","
","844.4000000059605","<div class='center'><p>That's correct!</p><div><p><b>[Press the space bar to continue]</b></p></div>","32","","","","","","","",""
"","begin_text","237","429340","0.0-225.0-0.0","""event"",""trial"",""time""
""fullscreenenter"",""0"",""2859""
","
","
","""event"",""trial"",""time""
""fullscreenenter"",""0"",""2859""
","
","null","run_exp/static/audio/clip_22_begin_test.m4a","null","","","","","<div class='center'><p>On to the real game where well test your memory of items from the indoor/outdoor game. For each item, you need to indicate if the item is <b>old</b> by pressing the <b>v</b> key, <b>similar</b> by pressing the <b>b</b> key, or <b>new</b> by pressing the <b>n</b> key. </p></div>","","",""
"","html-keyboard-response","238","430005","0.0-225.0-1.0","""event"",""trial"",""time""
""fullscreenenter"",""0"",""2859""
","
","
","""event"",""trial"",""time""
""fullscreenenter"",""0"",""2859""
","
","660.7999999970198","<div class='center'><p>On to the real game where well test your memory of items from the indoor/outdoor game. For each item, you need to indicate if the item is <b>old</b> by pressing the <b>v</b> key, <b>similar</b> by pressing the <b>b</b> key, or <b>new</b> by pressing the <b>n</b> key. </p><div><p><b>[Press the space bar to continue]</b></p></div>","32","","","","","","","",""
"","image","239","432253","0.0-226.0-0.0","""event"",""trial"",""time""
""fullscreenenter"",""0"",""2859""
","
","
","""event"",""trial"",""time""
""fullscreenenter"",""0"",""2859""
","
","2244","run_exp/static/images/Set 6_rs/006b.jpg","86","","","","","","test","TL","2"
"","show_choice","240","432757","0.0-226.0-1.0","""event"",""trial"",""time""
""fullscreenenter"",""0"",""2859""
","
","
","""event"",""trial"",""time""
""fullscreenenter"",""0"",""2859""
","
","null","run_exp/static/images/Set 6_rs/006b.jpg","null","","","","","","test","TL",""
"","html-keyboard-response","241","433272","0.0-226.0-2.0","""event"",""trial"",""time""
""fullscreenenter"",""0"",""2859""
","
","
","""event"",""trial"",""time""
""fullscreenenter"",""0"",""2859""
","
","null","<p></p>","null","","","","","","","",""
"","image","242","434829","0.0-227.0-0.0","""event"",""trial"",""time""
""fullscreenenter"",""0"",""2859""
","
","
","""event"",""trial"",""time""
""fullscreenenter"",""0"",""2859""
","
","1553.2000000029802","run_exp/static/images/Set 6_rs/005a.jpg","78","","","","","","test","TF","5"
"","show_choice","243","435335","0.0-227.0-1.0","""event"",""trial"",""time""
""fullscreenenter"",""0"",""2859""
","
","
","""event"",""trial"",""time""
""fullscreenenter"",""0"",""2859""
","
","null","run_exp/static/images/Set 6_rs/005a.jpg","null","","","","","","test","TF",""
"","html-keyboard-response","244","435847","0.0-227.0-2.0","""event"",""trial"",""time""
""fullscreenenter"",""0"",""2859""
","
","
","""event"",""trial"",""time""
""fullscreenenter"",""0"",""2859""
","
","null","<p></p>","null","","","","","","","",""
"","image","245","437461","0.0-228.0-0.0","""event"",""trial"",""time""
""fullscreenenter"",""0"",""2859""
","
","
","""event"",""trial"",""time""
""fullscreenenter"",""0"",""2859""
","
","1609.0999999940395","run_exp/static/images/Set 6_rs/010a.jpg","86","","","","","","test","TR","5"
"","show_choice","246","437971","0.0-228.0-1.0","""event"",""trial"",""time""
""fullscreenenter"",""0"",""2859""
","
","
","""event"",""trial"",""time""
""fullscreenenter"",""0"",""2859""
","
","null","run_exp/static/images/Set 6_rs/010a.jpg","null","","","","","","test","TR",""
"","html-keyboard-response","247","438486","0.0-228.0-2.0","""event"",""trial"",""time""
""fullscreenenter"",""0"",""2859""
","
","
","""event"",""trial"",""time""
""fullscreenenter"",""0"",""2859""
","
","null","<p></p>","null","","","","","","","",""
"","image","248","439868","0.0-229.0-0.0","""event"",""trial"",""time""
""fullscreenenter"",""0"",""2859""
","
","
","""event"",""trial"",""time""
""fullscreenenter"",""0"",""2859""
","
","1376.2000000029802","run_exp/static/images/Set 6_rs/118a.jpg","66","","","","","","test","TF","5"
"","show_choice","249","440372","0.0-229.0-1.0","""event"",""trial"",""time""
""fullscreenenter"",""0"",""2859""
","
","
","""event"",""trial"",""time""
""fullscreenenter"",""0"",""2859""
","
","null","run_exp/static/images/Set 6_rs/118a.jpg","null","","","","","","test","TF",""
"","html-keyboard-response","250","440889","0.0-229.0-2.0","""event"",""trial"",""time""
""fullscreenenter"",""0"",""2859""
","
","
","""event"",""trial"",""time""
""fullscreenenter"",""0"",""2859""
","
","null","<p></p>","null","","","","","","","",""
"","image","251","442298","0.0-230.0-0.0","""event"",""trial"",""time""
""fullscreenenter"",""0"",""2859""
","
","
","""event"",""trial"",""time""
""fullscreenenter"",""0"",""2859""
","
","1404.800000011921","run_exp/static/images/Set 6_rs/178a.jpg","86","","","","","","test","TR","3"
"","show_choice","252","442806","0.0-230.0-1.0","""event"",""trial"",""time""
""fullscreenenter"",""0"",""2859""
","
","
","""event"",""trial"",""time""
""fullscreenenter"",""0"",""2859""
","
","null","run_exp/static/images/Set 6_rs/178a.jpg","null","","","","","","test","TR",""
"","html-keyboard-response","253","443323","0.0-230.0-2.0","""event"",""trial"",""time""
""fullscreenenter"",""0"",""2859""
","
","
","""event"",""trial"",""time""
""fullscreenenter"",""0"",""2859""
","
","null","<p></p>","null","","","","","","","",""
"","image","254","444728","0.0-231.0-0.0","""event"",""trial"",""time""
""fullscreenenter"",""0"",""2859""
","
","
","""event"",""trial"",""time""
""fullscreenenter"",""0"",""2859""
","
","1401.7000000029802","run_exp/static/images/Set 6_rs/172a.jpg","86","","","","","","test","TR","1"
"","show_choice","255","445237","0.0-231.0-1.0","""event"",""trial"",""time""
""fullscreenenter"",""0"",""2859""
","
","
","""event"",""trial"",""time""
""fullscreenenter"",""0"",""2859""
","
","null","run_exp/static/images/Set 6_rs/172a.jpg","null","","","","","","test","TR",""
"","html-keyboard-response","256","445743","0.0-231.0-2.0","""event"",""trial"",""time""
""fullscreenenter"",""0"",""2859""
","
","
","""event"",""trial"",""time""
""fullscreenenter"",""0"",""2859""
","
","null","<p></p>","null","","","","","","","",""
"","image","257","447890","0.0-232.0-0.0","""event"",""trial"",""time""
""fullscreenenter"",""0"",""2859""
","
","
","""event"",""trial"",""time""
""fullscreenenter"",""0"",""2859""
","
","2143.3999999910593","run_exp/static/images/Set 6_rs/019b.jpg","66","","","","","","test","TL","2"
"","show_choice","258","448404","0.0-232.0-1.0","""event"",""trial"",""time""
""fullscreenenter"",""0"",""2859""
","
","
","""event"",""trial"",""time""
""fullscreenenter"",""0"",""2859""
","
","null","run_exp/static/images/Set 6_rs/019b.jpg","null","","","","","","test","TL",""
"","html-keyboard-response","259","448921","0.0-232.0-2.0","""event"",""trial"",""time""
""fullscreenenter"",""0"",""2859""
","
","
","""event"",""trial"",""time""
""fullscreenenter"",""0"",""2859""
","
","null","<p></p>","null","","","","","","","",""
"","image","260","450757","0.0-233.0-0.0","""event"",""trial"",""time""
""fullscreenenter"",""0"",""2859""
","
","
","""event"",""trial"",""time""
""fullscreenenter"",""0"",""2859""
","
","1833.2999999970198","run_exp/static/images/Set 6_rs/095b.jpg","66","","","","","","test","TL","5"
"","show_choice","261","451270","0.0-233.0-1.0","""event"",""trial"",""time""
""fullscreenenter"",""0"",""2859""
","
","
","""event"",""trial"",""time""
""fullscreenenter"",""0"",""2859""
","
","null","run_exp/static/images/Set 6_rs/095b.jpg","null","","","","","","test","TL",""
"","html-keyboard-response","262","451788","0.0-233.0-2.0","""event"",""trial"",""time""
""fullscreenenter"",""0"",""2859""
","
","
","""event"",""trial"",""time""
""fullscreenenter"",""0"",""2859""
","
","null","<p></p>","null","","","","","","","",""
"","image","263","453299","0.0-234.0-0.0","""event"",""trial"",""time""
""fullscreenenter"",""0"",""2859""
","
","
","""event"",""trial"",""time""
""fullscreenenter"",""0"",""2859""
","
","1507.2000000029802","run_exp/static/images/Set 6_rs/050b.jpg","66","","","","","","test","TL","3"
"","show_choice","264","453806","0.0-234.0-1.0","""event"",""trial"",""time""
""fullscreenenter"",""0"",""2859""
","
","
","""event"",""trial"",""time""
""fullscreenenter"",""0"",""2859""
","
","null","run_exp/static/images/Set 6_rs/050b.jpg","null","","","","","","test","TL",""
"","html-keyboard-response","265","454322","0.0-234.0-2.0","""event"",""trial"",""time""
""fullscreenenter"",""0"",""2859""
","
","
","""event"",""trial"",""time""
""fullscreenenter"",""0"",""2859""
","
","null","<p></p>","null","","","","","","","",""
"","image","266","456533","0.0-235.0-0.0","""event"",""trial"",""time""
""fullscreenenter"",""0"",""2859""
","
","
","""event"",""trial"",""time""
""fullscreenenter"",""0"",""2859""
","
","2206.9000000059605","run_exp/static/images/Set 6_rs/149a.jpg","66","","","","","","test","TF","1"
"","show_choice","267","457040","0.0-235.0-1.0","""event"",""trial"",""time""
""fullscreenenter"",""0"",""2859""
","
","
","""event"",""trial"",""time""
""fullscreenenter"",""0"",""2859""
","
","null","run_exp/static/images/Set 6_rs/149a.jpg","null","","","","","","test","TF",""
"","html-keyboard-response","268","457556","0.0-235.0-2.0","""event"",""trial"",""time""
""fullscreenenter"",""0"",""2859""
","
","
","""event"",""trial"",""time""
""fullscreenenter"",""0"",""2859""
","
","null","<p></p>","null","","","","","","","",""
"","image","269","459003","0.0-236.0-0.0","""event"",""trial"",""time""
""fullscreenenter"",""0"",""2859""
","
","
","""event"",""trial"",""time""
""fullscreenenter"",""0"",""2859""
","
","1442.2999999970198","run_exp/static/images/Set 6_rs/076a.jpg","86","","","","","","test","TR","4"
"","show_choice","270","459508","0.0-236.0-1.0","""event"",""trial"",""time""
""fullscreenenter"",""0"",""2859""
","
","
","""event"",""trial"",""time""
""fullscreenenter"",""0"",""2859""
","
","null","run_exp/static/images/Set 6_rs/076a.jpg","null","","","","","","test","TR",""
"","html-keyboard-response","271","460024","0.0-236.0-2.0","""event"",""trial"",""time""
""fullscreenenter"",""0"",""2859""
","
","
","""event"",""trial"",""time""
""fullscreenenter"",""0"",""2859""
","
","null","<p></p>","null","","","","","","","",""
"","image","272","460983","0.0-237.0-0.0","""event"",""trial"",""time""
""fullscreenenter"",""0"",""2859""
","
","
","""event"",""trial"",""time""
""fullscreenenter"",""0"",""2859""
","
","956.2999999970198","run_exp/static/images/Set 6_rs/047a.jpg","78","","","","","","test","TF","3"
"","show_choice","273","461491","0.0-237.0-1.0","""event"",""trial"",""time""
""fullscreenenter"",""0"",""2859""
","
","
","""event"",""trial"",""time""
""fullscreenenter"",""0"",""2859""
","
","null","run_exp/static/images/Set 6_rs/047a.jpg","null","","","","","","test","TF",""
"","html-keyboard-response","274","462008","0.0-237.0-2.0","""event"",""trial"",""time""
""fullscreenenter"",""0"",""2859""
","
","
","""event"",""trial"",""time""
""fullscreenenter"",""0"",""2859""
","
","null","<p></p>","null","","","","","","","",""
"","image","275","463024","0.0-238.0-0.0","""event"",""trial"",""time""
""fullscreenenter"",""0"",""2859""
","
","
","""event"",""trial"",""time""
""fullscreenenter"",""0"",""2859""
","
","1013","run_exp/static/images/Set 6_rs/176a.jpg","78","","","","","","test","TF","4"
"","show_choice","276","463540","0.0-238.0-1.0","""event"",""trial"",""time""
""fullscreenenter"",""0"",""2859""
","
","
","""event"",""trial"",""time""
""fullscreenenter"",""0"",""2859""
","
","null","run_exp/static/images/Set 6_rs/176a.jpg","null","","","","","","test","TF",""
"","html-keyboard-response","277","464058","0.0-238.0-2.0","""event"",""trial"",""time""
""fullscreenenter"",""0"",""2859""
","
","
","""event"",""trial"",""time""
""fullscreenenter"",""0"",""2859""
","
","null","<p></p>","null","","","","","","","",""
"","image","278","465232","0.0-239.0-0.0","""event"",""trial"",""time""
""fullscreenenter"",""0"",""2859""
","
","
","""event"",""trial"",""time""
""fullscreenenter"",""0"",""2859""
","
","1168.9000000059605","run_exp/static/images/Set 6_rs/170a.jpg","78","","","","","","test","TF","2"
"","show_choice","279","465744","0.0-239.0-1.0","""event"",""trial"",""time""
""fullscreenenter"",""0"",""2859""
","
","
","""event"",""trial"",""time""
""fullscreenenter"",""0"",""2859""
","
","null","run_exp/static/images/Set 6_rs/170a.jpg","null","","","","","","test","TF",""
"","html-keyboard-response","280","466259","0.0-239.0-2.0","""event"",""trial"",""time""
""fullscreenenter"",""0"",""2859""
","
","
","""event"",""trial"",""time""
""fullscreenenter"",""0"",""2859""
","
","null","<p></p>","null","","","","","","","",""
"","image","281","467363","0.0-240.0-0.0","""event"",""trial"",""time""
""fullscreenenter"",""0"",""2859""
","
","
","""event"",""trial"",""time""
""fullscreenenter"",""0"",""2859""
","
","1101.2000000029802","run_exp/static/images/Set 6_rs/126a.jpg","86","","","","","","test","TR","2"
"","show_choice","282","467876","0.0-240.0-1.0","""event"",""trial"",""time""
""fullscreenenter"",""0"",""2859""
","
","
","""event"",""trial"",""time""
""fullscreenenter"",""0"",""2859""
","
","null","run_exp/static/images/Set 6_rs/126a.jpg","null","","","","","","test","TR",""
"","html-keyboard-response","283","468380","0.0-240.0-2.0","""event"",""trial"",""time""
""fullscreenenter"",""0"",""2859""
","
","
","""event"",""trial"",""time""
""fullscreenenter"",""0"",""2859""
","
","null","<p></p>","null","","","","","","","",""
"","image","284","469385","0.0-241.0-0.0","""event"",""trial"",""time""
""fullscreenenter"",""0"",""2859""
","
","
","""event"",""trial"",""time""
""fullscreenenter"",""0"",""2859""
","
","1001.4000000059605","run_exp/static/images/Set 6_rs/138b.jpg","86","","","","","","test","TL","1"
"","show_choice","285","469894","0.0-241.0-1.0","""event"",""trial"",""time""
""fullscreenenter"",""0"",""2859""
","
","
","""event"",""trial"",""time""
""fullscreenenter"",""0"",""2859""
","
","null","run_exp/static/images/Set 6_rs/138b.jpg","null","","","","","","test","TL",""
"","html-keyboard-response","286","470410","0.0-241.0-2.0","""event"",""trial"",""time""
""fullscreenenter"",""0"",""2859""
","
","
","""event"",""trial"",""time""
""fullscreenenter"",""0"",""2859""
","
","null","<p></p>","null","","","","","","","",""
"","image","287","471553","0.0-242.0-0.0","""event"",""trial"",""time""
""fullscreenenter"",""0"",""2859""
","
","
","""event"",""trial"",""time""
""fullscreenenter"",""0"",""2859""
","
","1117.2999999970198","run_exp/static/images/Set 6_rs/132a.jpg","86","","","","","","test","TR","5"
"","show_choice","288","472062","0.0-242.0-1.0","""event"",""trial"",""time""
""fullscreenenter"",""0"",""2859""
","
","
","""event"",""trial"",""time""
""fullscreenenter"",""0"",""2859""
","
","null","run_exp/static/images/Set 6_rs/132a.jpg","null","","","","","","test","TR",""
"","html-keyboard-response","289","472578","0.0-242.0-2.0","""event"",""trial"",""time""
""fullscreenenter"",""0"",""2859""
","
","
","""event"",""trial"",""time""
""fullscreenenter"",""0"",""2859""
","
","null","<p></p>","null","","","","","","","",""
"","image","290","473761","0.0-243.0-0.0","""event"",""trial"",""time""
""fullscreenenter"",""0"",""2859""
","
","
","""event"",""trial"",""time""
""fullscreenenter"",""0"",""2859""
","
","1179","run_exp/static/images/Set 6_rs/117b.jpg","86","","","","","","test","TL","5"
"","show_choice","291","474277","0.0-243.0-1.0","""event"",""trial"",""time""
""fullscreenenter"",""0"",""2859""
","
","
","""event"",""trial"",""time""
""fullscreenenter"",""0"",""2859""
","
","null","run_exp/static/images/Set 6_rs/117b.jpg","null","","","","","","test","TL",""
"","html-keyboard-response","292","474795","0.0-243.0-2.0","""event"",""trial"",""time""
""fullscreenenter"",""0"",""2859""
","
","
","""event"",""trial"",""time""
""fullscreenenter"",""0"",""2859""
","
","null","<p></p>","null","","","","","","","",""
"","image","293","475989","0.0-244.0-0.0","""event"",""trial"",""time""
""fullscreenenter"",""0"",""2859""
","
","
","""event"",""trial"",""time""
""fullscreenenter"",""0"",""2859""
","
","1191.0999999940395","run_exp/static/images/Set 6_rs/025b.jpg","66","","","","","","test","TL","5"
"","show_choice","294","476496","0.0-244.0-1.0","""event"",""trial"",""time""
""fullscreenenter"",""0"",""2859""
","
","
","""event"",""trial"",""time""
""fullscreenenter"",""0"",""2859""
","
","null","run_exp/static/images/Set 6_rs/025b.jpg","null","","","","","","test","TL",""
"","html-keyboard-response","295","477013","0.0-244.0-2.0","""event"",""trial"",""time""
""fullscreenenter"",""0"",""2859""
","
","
","""event"",""trial"",""time""
""fullscreenenter"",""0"",""2859""
","
","null","<p></p>","null","","","","","","","",""
"","image","296","478464","0.0-245.0-0.0","""event"",""trial"",""time""
""fullscreenenter"",""0"",""2859""
","
","
","""event"",""trial"",""time""
""fullscreenenter"",""0"",""2859""
","
","1448.1000000089407","run_exp/static/images/Set 6_rs/036b.jpg","86","","","","","","test","TL","4"
"","show_choice","297","478981","0.0-245.0-1.0","""event"",""trial"",""time""
""fullscreenenter"",""0"",""2859""
","
","
","""event"",""trial"",""time""
""fullscreenenter"",""0"",""2859""
","
","null","run_exp/static/images/Set 6_rs/036b.jpg","null","","","","","","test","TL",""
"","html-keyboard-response","298","479496","0.0-245.0-2.0","""event"",""trial"",""time""
""fullscreenenter"",""0"",""2859""
","
","
","""event"",""trial"",""time""
""fullscreenenter"",""0"",""2859""
","
","null","<p></p>","null","","","","","","","",""
"","image","299","480773","0.0-246.0-0.0","""event"",""trial"",""time""
""fullscreenenter"",""0"",""2859""
","
","
","""event"",""trial"",""time""
""fullscreenenter"",""0"",""2859""
","
","1272.3999999910593","run_exp/static/images/Set 6_rs/141a.jpg","86","","","","","","test","TR","2"
"","show_choice","300","481282","0.0-246.0-1.0","""event"",""trial"",""time""
""fullscreenenter"",""0"",""2859""
","
","
","""event"",""trial"",""time""
""fullscreenenter"",""0"",""2859""
","
","null","run_exp/static/images/Set 6_rs/141a.jpg","null","","","","","","test","TR",""
"","html-keyboard-response","301","481798","0.0-246.0-2.0","""event"",""trial"",""time""
""fullscreenenter"",""0"",""2859""
","
","
","""event"",""trial"",""time""
""fullscreenenter"",""0"",""2859""
","
","null","<p></p>","null","","","","","","","",""
"","image","302","482899","0.0-247.0-0.0","""event"",""trial"",""time""
""fullscreenenter"",""0"",""2859""
","
","
","""event"",""trial"",""time""
""fullscreenenter"",""0"",""2859""
","
","1098.1000000089407","run_exp/static/images/Set 6_rs/022a.jpg","78","","","","","","test","TF","4"
"","show_choice","303","483414","0.0-247.0-1.0","""event"",""trial"",""time""
""fullscreenenter"",""0"",""2859""
","
","
","""event"",""trial"",""time""
""fullscreenenter"",""0"",""2859""
","
","null","run_exp/static/images/Set 6_rs/022a.jpg","null","","","","","","test","TF",""
"","html-keyboard-response","304","483930","0.0-247.0-2.0","""event"",""trial"",""time""
""fullscreenenter"",""0"",""2859""
","
","
","""event"",""trial"",""time""
""fullscreenenter"",""0"",""2859""
","
","null","<p></p>","null","","","","","","","",""
"","image","305","484992","0.0-248.0-0.0","""event"",""trial"",""time""
""fullscreenenter"",""0"",""2859""
","
","
","""event"",""trial"",""time""
""fullscreenenter"",""0"",""2859""
","
","1058.1000000089407","run_exp/static/images/Set 6_rs/188a.jpg","78","","","","","","test","TF","3"
"","show_choice","306","485497","0.0-248.0-1.0","""event"",""trial"",""time""
""fullscreenenter"",""0"",""2859""
","
","
","""event"",""trial"",""time""
""fullscreenenter"",""0"",""2859""
","
","null","run_exp/static/images/Set 6_rs/188a.jpg","null","","","","","","test","TF",""
"","html-keyboard-response","307","486015","0.0-248.0-2.0","""event"",""trial"",""time""
""fullscreenenter"",""0"",""2859""
","
","
","""event"",""trial"",""time""
""fullscreenenter"",""0"",""2859""
","
","null","<p></p>","null","","","","","","","",""
"","image","308","487022","0.0-249.0-0.0","""event"",""trial"",""time""
""fullscreenenter"",""0"",""2859""
","
","
","""event"",""trial"",""time""
""fullscreenenter"",""0"",""2859""
","
","1003.7999999970198","run_exp/static/images/Set 6_rs/075a.jpg","86","","","","","","test","TR","1"
"","show_choice","309","487533","0.0-249.0-1.0","""event"",""trial"",""time""
""fullscreenenter"",""0"",""2859""
","
","
","""event"",""trial"",""time""
""fullscreenenter"",""0"",""2859""
","
","null","run_exp/static/images/Set 6_rs/075a.jpg","null","","","","","","test","TR",""
"","html-keyboard-response","310","488050","0.0-249.0-2.0","""event"",""trial"",""time""
""fullscreenenter"",""0"",""2859""
","
","
","""event"",""trial"",""time""
""fullscreenenter"",""0"",""2859""
","
","null","<p></p>","null","","","","","","","",""
"","image","311","489082","0.0-250.0-0.0","""event"",""trial"",""time""
""fullscreenenter"",""0"",""2859""
","
","
","""event"",""trial"",""time""
""fullscreenenter"",""0"",""2859""
","
","1028.6000000089407","run_exp/static/images/Set 6_rs/140a.jpg","66","","","","","","test","TF","1"
"","show_choice","312","489597","0.0-250.0-1.0","""event"",""trial"",""time""
""fullscreenenter"",""0"",""2859""
","
","
","""event"",""trial"",""time""
""fullscreenenter"",""0"",""2859""
","
","null","run_exp/static/images/Set 6_rs/140a.jpg","null","","","","","","test","TF",""
"","html-keyboard-response","313","490104","0.0-250.0-2.0","""event"",""trial"",""time""
""fullscreenenter"",""0"",""2859""
","
","
","""event"",""trial"",""time""
""fullscreenenter"",""0"",""2859""
","
","null","<p></p>","null","","","","","","","",""
"","image","314","492086","0.0-251.0-0.0","""event"",""trial"",""time""
""fullscreenenter"",""0"",""2859""
","
","
","""event"",""trial"",""time""
""fullscreenenter"",""0"",""2859""
","
","1978.9000000059605","run_exp/static/images/Set 6_rs/021a.jpg","78","","","","","","test","TF","2"
"","show_choice","315","492597","0.0-251.0-1.0","""event"",""trial"",""time""
""fullscreenenter"",""0"",""2859""
","
","
","""event"",""trial"",""time""
""fullscreenenter"",""0"",""2859""
","
","null","run_exp/static/images/Set 6_rs/021a.jpg","null","","","","","","test","TF",""
"","html-keyboard-response","316","493112","0.0-251.0-2.0","""event"",""trial"",""time""
""fullscreenenter"",""0"",""2859""
","
","
","""event"",""trial"",""time""
""fullscreenenter"",""0"",""2859""
","
","null","<p></p>","null","","","","","","","",""
"","image","317","494832","0.0-252.0-0.0","""event"",""trial"",""time""
""fullscreenenter"",""0"",""2859""
","
","
","""event"",""trial"",""time""
""fullscreenenter"",""0"",""2859""
","
","1715","run_exp/static/images/Set 6_rs/070a.jpg","66","","","","","","test","TR","2"
"","show_choice","318","495350","0.0-252.0-1.0","""event"",""trial"",""time""
""fullscreenenter"",""0"",""2859""
","
","
","""event"",""trial"",""time""
""fullscreenenter"",""0"",""2859""
","
","null","run_exp/static/images/Set 6_rs/070a.jpg","null","","","","","","test","TR",""
"","html-keyboard-response","319","495868","0.0-252.0-2.0","""event"",""trial"",""time""
""fullscreenenter"",""0"",""2859""
","
","
","""event"",""trial"",""time""
""fullscreenenter"",""0"",""2859""
","
","null","<p></p>","null","","","","","","","",""
"","image","320","497382","0.0-253.0-0.0","""event"",""trial"",""time""
""fullscreenenter"",""0"",""2859""
","
","
","""event"",""trial"",""time""
""fullscreenenter"",""0"",""2859""
","
","1510.9000000059605","run_exp/static/images/Set 6_rs/112a.jpg","86","","","","","","test","TR","5"
"","show_choice","321","497886","0.0-253.0-1.0","""event"",""trial"",""time""
""fullscreenenter"",""0"",""2859""
","
","
","""event"",""trial"",""time""
""fullscreenenter"",""0"",""2859""
","
","null","run_exp/static/images/Set 6_rs/112a.jpg","null","","","","","","test","TR",""
"","html-keyboard-response","322","498402","0.0-253.0-2.0","""event"",""trial"",""time""
""fullscreenenter"",""0"",""2859""
","
","
","""event"",""trial"",""time""
""fullscreenenter"",""0"",""2859""
","
","null","<p></p>","null","","","","","","","",""
"","image","323","499429","0.0-254.0-0.0","""event"",""trial"",""time""
""fullscreenenter"",""0"",""2859""
","
","
","""event"",""trial"",""time""
""fullscreenenter"",""0"",""2859""
","
","1024.300000011921","run_exp/static/images/Set 6_rs/057b.jpg","86","","","","","","test","TL","1"
"","show_choice","324","499936","0.0-254.0-1.0","""event"",""trial"",""time""
""fullscreenenter"",""0"",""2859""
","
","
","""event"",""trial"",""time""
""fullscreenenter"",""0"",""2859""
","
","null","run_exp/static/images/Set 6_rs/057b.jpg","null","","","","","","test","TL",""
"","html-keyboard-response","325","500453","0.0-254.0-2.0","""event"",""trial"",""time""
""fullscreenenter"",""0"",""2859""
","
","
","""event"",""trial"",""time""
""fullscreenenter"",""0"",""2859""
","
","null","<p></p>","null","","","","","","","",""
"","image","326","501750","0.0-255.0-0.0","""event"",""trial"",""time""
""fullscreenenter"",""0"",""2859""
","
","
","""event"",""trial"",""time""
""fullscreenenter"",""0"",""2859""
","
","1294.2000000029802","run_exp/static/images/Set 6_rs/008b.jpg","66","","","","","","test","TL","2"
"","show_choice","327","502254","0.0-255.0-1.0","""event"",""trial"",""time""
""fullscreenenter"",""0"",""2859""
","
","
","""event"",""trial"",""time""
""fullscreenenter"",""0"",""2859""
","
","null","run_exp/static/images/Set 6_rs/008b.jpg","null","","","","","","test","TL",""
"","html-keyboard-response","328","502770","0.0-255.0-2.0","""event"",""trial"",""time""
""fullscreenenter"",""0"",""2859""
","
","
","""event"",""trial"",""time""
""fullscreenenter"",""0"",""2859""
","
","null","<p></p>","null","","","","","","","",""
"","image","329","504496","0.0-256.0-0.0","""event"",""trial"",""time""
""fullscreenenter"",""0"",""2859""
","
","
","""event"",""trial"",""time""
""fullscreenenter"",""0"",""2859""
","
","1721.9000000059605","run_exp/static/images/Set 6_rs/122a.jpg","86","","","","","","test","TR","5"
"","show_choice","330","505005","0.0-256.0-1.0","""event"",""trial"",""time""
""fullscreenenter"",""0"",""2859""
","
","
","""event"",""trial"",""time""
""fullscreenenter"",""0"",""2859""
","
","null","run_exp/static/images/Set 6_rs/122a.jpg","null","","","","","","test","TR",""
"","html-keyboard-response","331","505523","0.0-256.0-2.0","""event"",""trial"",""time""
""fullscreenenter"",""0"",""2859""
","
","
","""event"",""trial"",""time""
""fullscreenenter"",""0"",""2859""
","
","null","<p></p>","null","","","","","","","",""
"","image","332","506404","0.0-257.0-0.0","""event"",""trial"",""time""
""fullscreenenter"",""0"",""2859""
","
","
","""event"",""trial"",""time""
""fullscreenenter"",""0"",""2859""
","
","877.5999999940395","run_exp/static/images/Set 6_rs/078a.jpg","78","","","","","","test","TF","1"
"","show_choice","333","506921","0.0-257.0-1.0","""event"",""trial"",""time""
""fullscreenenter"",""0"",""2859""
","
","
","""event"",""trial"",""time""
""fullscreenenter"",""0"",""2859""
","
","null","run_exp/static/images/Set 6_rs/078a.jpg","null","","","","","","test","TF",""
"","html-keyboard-response","334","507439","0.0-257.0-2.0","""event"",""trial"",""time""
""fullscreenenter"",""0"",""2859""
","
","
","""event"",""trial"",""time""
""fullscreenenter"",""0"",""2859""
","
","null","<p></p>","null","","","","","","","",""
"","image","335","508662","0.0-258.0-0.0","""event"",""trial"",""time""
""fullscreenenter"",""0"",""2859""
","
","
","""event"",""trial"",""time""
""fullscreenenter"",""0"",""2859""
","
","1220.0999999940395","run_exp/static/images/Set 6_rs/121a.jpg","86","","","","","","test","TR","4"
"","show_choice","336","509172","0.0-258.0-1.0","""event"",""trial"",""time""
""fullscreenenter"",""0"",""2859""
","
","
","""event"",""trial"",""time""
""fullscreenenter"",""0"",""2859""
","
","null","run_exp/static/images/Set 6_rs/121a.jpg","null","","","","","","test","TR",""
"","html-keyboard-response","337","509705","0.0-258.0-2.0","""event"",""trial"",""time""
""fullscreenenter"",""0"",""2859""
","
","
","""event"",""trial"",""time""
""fullscreenenter"",""0"",""2859""
","
