"success","trial_type","trial_index","time_elapsed","internal_node_id","interactions","blur_events","focus_events","fullscreenenter_events","fullscreenexit_events","rt","stimulus","key_press","subject_id","participant_id","age","gender","prompt","phase","condition","lure_bin"
"true","fullscreen","0","4654","0.0-0.0","""event"",""trial"",""time""
""fullscreenenter"",""0"",""3674""
","
","
","""event"",""trial"",""time""
""fullscreenenter"",""0"",""3674""
","
","","","","","","","","","","",""
"","pavlovia","1","4658","0.0-1.0","""event"",""trial"",""time""
""fullscreenenter"",""0"",""3674""
","
","
","""event"",""trial"",""time""
""fullscreenenter"",""0"",""3674""
","
","","","","","","","","","","",""
"","welcome","2","39824","0.0-2.0","""event"",""trial"",""time""
""fullscreenenter"",""0"",""3674""
","
","
","""event"",""trial"",""time""
""fullscreenenter"",""0"",""3674""
","
","null","run_exp/static/audio/clip_1_welcome.m4a","null","552","136","14","Male","<div class='center'><p>Welcome to the third part of the study! First, you'll be shown pictures of items one at a time. For each picture, you have to decide if the item is typically found indoors or outdoors.</p><p>If you think it's usually found indoors, then press <b>v</b> key on your keyboard. If you think it's usually found outdoors, then press the <b>n</b> key.There will be reminders on the screen to help you remember which keys to press. </p><p>If you're not sure whether the item is an indoor item or an outdoor item, go ahead and take a guess but try your best not to skip that choice. </p></div>","","",""
"","html-keyboard-response","3","40166","0.0-3.0","""event"",""trial"",""time""
""fullscreenenter"",""0"",""3674""
","
","
","""event"",""trial"",""time""
""fullscreenenter"",""0"",""3674""
","
","340.70000000298023","<div class='center'><p>Welcome to the third part of the study! First, you'll be shown pictures of items one at a time. For each picture, you have to decide if the item is typically found indoors or outdoors.</p><p>If you think it's usually found indoors, then press <b>v</b> key on your keyboard. If you think it's usually found outdoors, then press the <b>n</b> key.There will be reminders on the screen to help you remember which keys to press. </p><p>If you're not sure whether the item is an indoor item or an outdoor item, go ahead and take a guess but try your best not to skip that choice. </p><div><p><b>[Press the space bar to continue]</b></p></div>","32","","","","","","","",""
"","image","4","41617","0.0-4.0","""event"",""trial"",""time""
""fullscreenenter"",""0"",""3674""
","
","
","""event"",""trial"",""time""
""fullscreenenter"",""0"",""3674""
","
","1449.8999999910593","run_exp/static/images/Set 6_rs/064a.jpg","86","","","","","","learn","SR",""
"","show_choice","5","42181","0.0-5.0","""event"",""trial"",""time""
""fullscreenenter"",""0"",""3674""
","
","
","""event"",""trial"",""time""
""fullscreenenter"",""0"",""3674""
","
","null","run_exp/static/images/Set 6_rs/064a.jpg","null","","","","","","learn","SR",""
"","html-keyboard-response","6","42694","0.0-6.0","""event"",""trial"",""time""
""fullscreenenter"",""0"",""3674""
","
","
","""event"",""trial"",""time""
""fullscreenenter"",""0"",""3674""
","
","null","<p></p>","null","","","","","","","",""
"","image","7","44537","0.0-7.0","""event"",""trial"",""time""
""fullscreenenter"",""0"",""3674""
","
","
","""event"",""trial"",""time""
""fullscreenenter"",""0"",""3674""
","
","1841.6000000089407","run_exp/static/images/Set 6_rs/152a.jpg","86","","","","","","learn","SR",""
"","show_choice","8","44709","0.0-8.0","""event"",""trial"",""time""
""fullscreenenter"",""0"",""3674""
","
","
","""event"",""trial"",""time""
""fullscreenenter"",""0"",""3674""
","
","null","run_exp/static/images/Set 6_rs/152a.jpg","null","","","","","","learn","SR",""
"","html-keyboard-response","9","45224","0.0-9.0","""event"",""trial"",""time""
""fullscreenenter"",""0"",""3674""
","
","
","""event"",""trial"",""time""
""fullscreenenter"",""0"",""3674""
","
","null","<p></p>","null","","","","","","","",""
"","image","10","46269","0.0-10.0","""event"",""trial"",""time""
""fullscreenenter"",""0"",""3674""
","
","
","""event"",""trial"",""time""
""fullscreenenter"",""0"",""3674""
","
","1044.199999988079","run_exp/static/images/Set 6_rs/123a.jpg","78","","","","","","learn","SL",""
"","show_choice","11","47231","0.0-11.0","""event"",""trial"",""time""
""fullscreenenter"",""0"",""3674""
","
","
","""event"",""trial"",""time""
""fullscreenenter"",""0"",""3674""
","
","null","run_exp/static/images/Set 6_rs/123a.jpg","null","","","","","","learn","SL",""
"","html-keyboard-response","12","47744","0.0-12.0","""event"",""trial"",""time""
""fullscreenenter"",""0"",""3674""
","
","
","""event"",""trial"",""time""
""fullscreenenter"",""0"",""3674""
","
","null","<p></p>","null","","","","","","","",""
"","image","13","48661","0.0-13.0","""event"",""trial"",""time""
""fullscreenenter"",""0"",""3674""
","
","
","""event"",""trial"",""time""
""fullscreenenter"",""0"",""3674""
","
","915.6000000089407","run_exp/static/images/Set 6_rs/186a.jpg","86","","","","","","learn","SR",""
"","show_choice","14","49748","0.0-14.0","""event"",""trial"",""time""
""fullscreenenter"",""0"",""3674""
","
","
","""event"",""trial"",""time""
""fullscreenenter"",""0"",""3674""
","
","null","run_exp/static/images/Set 6_rs/186a.jpg","null","","","","","","learn","SR",""
"","html-keyboard-response","15","50265","0.0-15.0","""event"",""trial"",""time""
""fullscreenenter"",""0"",""3674""
","
","
","""event"",""trial"",""time""
""fullscreenenter"",""0"",""3674""
","
","null","<p></p>","null","","","","","","","",""
"","image","16","51329","0.0-16.0","""event"",""trial"",""time""
""fullscreenenter"",""0"",""3674""
","
","
","""event"",""trial"",""time""
""fullscreenenter"",""0"",""3674""
","
","1063.2999999970198","run_exp/static/images/Set 6_rs/088a.jpg","86","","","","","","learn","SR",""
"","show_choice","17","52276","0.0-17.0","""event"",""trial"",""time""
""fullscreenenter"",""0"",""3674""
","
","
","""event"",""trial"",""time""
""fullscreenenter"",""0"",""3674""
","
","null","run_exp/static/images/Set 6_rs/088a.jpg","null","","","","","","learn","SR",""
"","html-keyboard-response","18","52778","0.0-18.0","""event"",""trial"",""time""
""fullscreenenter"",""0"",""3674""
","
","
","""event"",""trial"",""time""
""fullscreenenter"",""0"",""3674""
","
","null","<p></p>","null","","","","","","","",""
"","image","19","53531","0.0-19.0","""event"",""trial"",""time""
""fullscreenenter"",""0"",""3674""
","
","
","""event"",""trial"",""time""
""fullscreenenter"",""0"",""3674""
","
","751.5","run_exp/static/images/Set 6_rs/076a.jpg","78","","","","","","learn","SR",""
"","show_choice","20","54788","0.0-20.0","""event"",""trial"",""time""
""fullscreenenter"",""0"",""3674""
","
","
","""event"",""trial"",""time""
""fullscreenenter"",""0"",""3674""
","
","null","run_exp/static/images/Set 6_rs/076a.jpg","null","","","","","","learn","SR",""
"","html-keyboard-response","21","55305","0.0-21.0","""event"",""trial"",""time""
""fullscreenenter"",""0"",""3674""
","
","
","""event"",""trial"",""time""
""fullscreenenter"",""0"",""3674""
","
","null","<p></p>","null","","","","","","","",""
"","image","22","57052","0.0-22.0","""event"",""trial"",""time""
""fullscreenenter"",""0"",""3674""
","
","
","""event"",""trial"",""time""
""fullscreenenter"",""0"",""3674""
","
","1745.9000000059605","run_exp/static/images/Set 6_rs/121a.jpg","78","","","","","","learn","SR",""
"","show_choice","23","57314","0.0-23.0","""event"",""trial"",""time""
""fullscreenenter"",""0"",""3674""
","
","
","""event"",""trial"",""time""
""fullscreenenter"",""0"",""3674""
","
","null","run_exp/static/images/Set 6_rs/121a.jpg","null","","","","","","learn","SR",""
"","html-keyboard-response","24","57831","0.0-24.0","""event"",""trial"",""time""
""fullscreenenter"",""0"",""3674""
","
","
","""event"",""trial"",""time""
""fullscreenenter"",""0"",""3674""
","
","null","<p></p>","null","","","","","","","",""
"","image","25","58877","0.0-25.0","""event"",""trial"",""time""
""fullscreenenter"",""0"",""3674""
","
","
","""event"",""trial"",""time""
""fullscreenenter"",""0"",""3674""
","
","1045","run_exp/static/images/Set 6_rs/073a.jpg","86","","","","","","learn","SL",""
"","show_choice","26","59845","0.0-26.0","""event"",""trial"",""time""
""fullscreenenter"",""0"",""3674""
","
","
","""event"",""trial"",""time""
""fullscreenenter"",""0"",""3674""
","
","null","run_exp/static/images/Set 6_rs/073a.jpg","null","","","","","","learn","SL",""
"","html-keyboard-response","27","60346","0.0-27.0","""event"",""trial"",""time""
""fullscreenenter"",""0"",""3674""
","
","
","""event"",""trial"",""time""
""fullscreenenter"",""0"",""3674""
","
","null","<p></p>","null","","","","","","","",""
"","image","28","61332","0.0-28.0","""event"",""trial"",""time""
""fullscreenenter"",""0"",""3674""
","
","
","""event"",""trial"",""time""
""fullscreenenter"",""0"",""3674""
","
","985.4000000059605","run_exp/static/images/Set 6_rs/172a.jpg","78","","","","","","learn","SR",""
"","show_choice","29","62350","0.0-29.0","""event"",""trial"",""time""
""fullscreenenter"",""0"",""3674""
","
","
","""event"",""trial"",""time""
""fullscreenenter"",""0"",""3674""
","
","null","run_exp/static/images/Set 6_rs/172a.jpg","null","","","","","","learn","SR",""
"","html-keyboard-response","30","62860","0.0-30.0","""event"",""trial"",""time""
""fullscreenenter"",""0"",""3674""
","
","
","""event"",""trial"",""time""
""fullscreenenter"",""0"",""3674""
","
","null","<p></p>","null","","","","","","","",""
"","image","31","64865","0.0-31.0","""event"",""trial"",""time""
""fullscreenenter"",""0"",""3674""
","
","
","""event"",""trial"",""time""
""fullscreenenter"",""0"",""3674""
","
","null","run_exp/static/images/Set 6_rs/085a.jpg","null","","","","","","learn","SL",""
"","show_choice","32","66880","0.0-32.0","""event"",""trial"",""time""
""fullscreenenter"",""0"",""3674""
","
","
","""event"",""trial"",""time""
""fullscreenenter"",""0"",""3674""
","
","null","run_exp/static/images/blank.png","null","","","","","","learn","SL",""
"","html-keyboard-response","33","67387","0.0-33.0","""event"",""trial"",""time""
""fullscreenenter"",""0"",""3674""
","
","
","""event"",""trial"",""time""
""fullscreenenter"",""0"",""3674""
","
","null","<p></p>","null","","","","","","","",""
"","image","34","68230","0.0-34.0","""event"",""trial"",""time""
""fullscreenenter"",""0"",""3674""
","
","
","""event"",""trial"",""time""
""fullscreenenter"",""0"",""3674""
","
","842.5999999940395","run_exp/static/images/Set 6_rs/007a.jpg","86","","","","","","learn","SR",""
"","show_choice","35","69403","0.0-35.0","""event"",""trial"",""time""
""fullscreenenter"",""0"",""3674""
","
","
","""event"",""trial"",""time""
""fullscreenenter"",""0"",""3674""
","
","null","run_exp/static/images/Set 6_rs/007a.jpg","null","","","","","","learn","SR",""
"","html-keyboard-response","36","69916","0.0-36.0","""event"",""trial"",""time""
""fullscreenenter"",""0"",""3674""
","
","
","""event"",""trial"",""time""
""fullscreenenter"",""0"",""3674""
","
","null","<p></p>","null","","","","","","","",""
"","image","37","71054","0.0-37.0","""event"",""trial"",""time""
""fullscreenenter"",""0"",""3674""
","
","
","""event"",""trial"",""time""
""fullscreenenter"",""0"",""3674""
","
","1136.9000000059605","run_exp/static/images/Set 6_rs/168a.jpg","86","","","","","","learn","SL",""
"","show_choice","38","71927","0.0-38.0","""event"",""trial"",""time""
""fullscreenenter"",""0"",""3674""
","
","
","""event"",""trial"",""time""
""fullscreenenter"",""0"",""3674""
","
","null","run_exp/static/images/Set 6_rs/168a.jpg","null","","","","","","learn","SL",""
"","html-keyboard-response","39","72443","0.0-39.0","""event"",""trial"",""time""
""fullscreenenter"",""0"",""3674""
","
","
","""event"",""trial"",""time""
""fullscreenenter"",""0"",""3674""
","
","null","<p></p>","null","","","","","","","",""
"","image","40","73189","0.0-40.0","""event"",""trial"",""time""
""fullscreenenter"",""0"",""3674""
","
","
","""event"",""trial"",""time""
""fullscreenenter"",""0"",""3674""
","
","744.5","run_exp/static/images/Set 6_rs/019a.jpg","86","","","","","","learn","SL",""
"","show_choice","41","74448","0.0-41.0","""event"",""trial"",""time""
""fullscreenenter"",""0"",""3674""
","
","
","""event"",""trial"",""time""
""fullscreenenter"",""0"",""3674""
","
","null","run_exp/static/images/Set 6_rs/019a.jpg","null","","","","","","learn","SL",""
"","html-keyboard-response","42","74963","0.0-42.0","""event"",""trial"",""time""
""fullscreenenter"",""0"",""3674""
","
","
","""event"",""trial"",""time""
""fullscreenenter"",""0"",""3674""
","
","null","<p></p>","null","","","","","","","",""
"","image","43","76012","0.0-43.0","""event"",""trial"",""time""
""fullscreenenter"",""0"",""3674""
","
","
","""event"",""trial"",""time""
""fullscreenenter"",""0"",""3674""
","
","1046.4000000059605","run_exp/static/images/Set 6_rs/066a.jpg","78","","","","","","learn","SL",""
"","show_choice","44","76970","0.0-44.0","""event"",""trial"",""time""
""fullscreenenter"",""0"",""3674""
","
","
","""event"",""trial"",""time""
""fullscreenenter"",""0"",""3674""
","
","null","run_exp/static/images/Set 6_rs/066a.jpg","null","","","","","","learn","SL",""
"","html-keyboard-response","45","77472","0.0-45.0","""event"",""trial"",""time""
""fullscreenenter"",""0"",""3674""
","
","
","""event"",""trial"",""time""
""fullscreenenter"",""0"",""3674""
","
","null","<p></p>","null","","","","","","","",""
"","image","46","78585","0.0-46.0","""event"",""trial"",""time""
""fullscreenenter"",""0"",""3674""
","
","
","""event"",""trial"",""time""
""fullscreenenter"",""0"",""3674""
","
","1111.5","run_exp/static/images/Set 6_rs/091a.jpg","78","","","","","","learn","SL",""
"","show_choice","47","79487","0.0-47.0","""event"",""trial"",""time""
""fullscreenenter"",""0"",""3674""
","
","
","""event"",""trial"",""time""
""fullscreenenter"",""0"",""3674""
","
","null","run_exp/static/images/Set 6_rs/091a.jpg","null","","","","","","learn","SL",""
"","html-keyboard-response","48","79989","0.0-48.0","""event"",""trial"",""time""
""fullscreenenter"",""0"",""3674""
","
","
","""event"",""trial"",""time""
""fullscreenenter"",""0"",""3674""
","
","null","<p></p>","null","","","","","","","",""
"","image","49","81166","0.0-49.0","""event"",""trial"",""time""
""fullscreenenter"",""0"",""3674""
","
","
","""event"",""trial"",""time""
""fullscreenenter"",""0"",""3674""
","
","1175.7999999970198","run_exp/static/images/Set 6_rs/141a.jpg","78","","","","","","learn","SR",""
"","show_choice","50","82000","0.0-50.0","""event"",""trial"",""time""
""fullscreenenter"",""0"",""3674""
","
","
","""event"",""trial"",""time""
""fullscreenenter"",""0"",""3674""
","
","null","run_exp/static/images/Set 6_rs/141a.jpg","null","","","","","","learn","SR",""
"","html-keyboard-response","51","82516","0.0-51.0","""event"",""trial"",""time""
""fullscreenenter"",""0"",""3674""
","
","
","""event"",""trial"",""time""
""fullscreenenter"",""0"",""3674""
","
","null","<p></p>","null","","","","","","","",""
"","image","52","83549","0.0-52.0","""event"",""trial"",""time""
""fullscreenenter"",""0"",""3674""
","
","
","""event"",""trial"",""time""
""fullscreenenter"",""0"",""3674""
","
","1030.8999999910593","run_exp/static/images/Set 6_rs/187a.jpg","86","","","","","","learn","SR",""
"","show_choice","53","84534","0.0-53.0","""event"",""trial"",""time""
""fullscreenenter"",""0"",""3674""
","
","
","""event"",""trial"",""time""
""fullscreenenter"",""0"",""3674""
","
","null","run_exp/static/images/Set 6_rs/187a.jpg","null","","","","","","learn","SR",""
"","html-keyboard-response","54","85037","0.0-54.0","""event"",""trial"",""time""
""fullscreenenter"",""0"",""3674""
","
","
","""event"",""trial"",""time""
""fullscreenenter"",""0"",""3674""
","
","null","<p></p>","null","","","","","","","",""
"","image","55","85915","0.0-55.0","""event"",""trial"",""time""
""fullscreenenter"",""0"",""3674""
","
","
","""event"",""trial"",""time""
""fullscreenenter"",""0"",""3674""
","
","876.4000000059605","run_exp/static/images/Set 6_rs/070a.jpg","86","","","","","","learn","SR",""
"","show_choice","56","87045","0.0-56.0","""event"",""trial"",""time""
""fullscreenenter"",""0"",""3674""
","
","
","""event"",""trial"",""time""
""fullscreenenter"",""0"",""3674""
","
","null","run_exp/static/images/Set 6_rs/070a.jpg","null","","","","","","learn","SR",""
"","html-keyboard-response","57","87549","0.0-57.0","""event"",""trial"",""time""
""fullscreenenter"",""0"",""3674""
","
","
","""event"",""trial"",""time""
""fullscreenenter"",""0"",""3674""
","
","null","<p></p>","null","","","","","","","",""
"","image","58","88190","0.0-58.0","""event"",""trial"",""time""
""fullscreenenter"",""0"",""3674""
","
","
","""event"",""trial"",""time""
""fullscreenenter"",""0"",""3674""
","
","639.1999999880791","run_exp/static/images/Set 6_rs/154a.jpg","78","","","","","","learn","SR",""
"","show_choice","59","89554","0.0-59.0","""event"",""trial"",""time""
""fullscreenenter"",""0"",""3674""
","
","
","""event"",""trial"",""time""
""fullscreenenter"",""0"",""3674""
","
","null","run_exp/static/images/Set 6_rs/154a.jpg","null","","","","","","learn","SR",""
"","html-keyboard-response","60","90057","0.0-60.0","""event"",""trial"",""time""
""fullscreenenter"",""0"",""3674""
","
","
","""event"",""trial"",""time""
""fullscreenenter"",""0"",""3674""
","
","null","<p></p>","null","","","","","","","",""
"","image","61","90956","0.0-61.0","""event"",""trial"",""time""
""fullscreenenter"",""0"",""3674""
","
","
","""event"",""trial"",""time""
""fullscreenenter"",""0"",""3674""
","
","896.9000000059605","run_exp/static/images/Set 6_rs/089a.jpg","86","","","","","","learn","SL",""
"","show_choice","62","92063","0.0-62.0","""event"",""trial"",""time""
""fullscreenenter"",""0"",""3674""
","
","
","""event"",""trial"",""time""
""fullscreenenter"",""0"",""3674""
","
","null","run_exp/static/images/Set 6_rs/089a.jpg","null","","","","","","learn","SL",""
"","html-keyboard-response","63","92570","0.0-63.0","""event"",""trial"",""time""
""fullscreenenter"",""0"",""3674""
","
","
","""event"",""trial"",""time""
""fullscreenenter"",""0"",""3674""
","
","null","<p></p>","null","","","","","","","",""
"","image","64","93392","0.0-64.0","""event"",""trial"",""time""
""fullscreenenter"",""0"",""3674""
","
","
","""event"",""trial"",""time""
""fullscreenenter"",""0"",""3674""
","
","821.0999999940395","run_exp/static/images/Set 6_rs/144a.jpg","86","","","","","","learn","SL",""
"","show_choice","65","94586","0.0-65.0","""event"",""trial"",""time""
""fullscreenenter"",""0"",""3674""
","
","
","""event"",""trial"",""time""
""fullscreenenter"",""0"",""3674""
","
","null","run_exp/static/images/Set 6_rs/144a.jpg","null","","","","","","learn","SL",""
"","html-keyboard-response","66","95101","0.0-66.0","""event"",""trial"",""time""
""fullscreenenter"",""0"",""3674""
","
","
","""event"",""trial"",""time""
""fullscreenenter"",""0"",""3674""
","
","null","<p></p>","null","","","","","","","",""
"","image","67","95994","0.0-67.0","""event"",""trial"",""time""
""fullscreenenter"",""0"",""3674""
","
","
","""event"",""trial"",""time""
""fullscreenenter"",""0"",""3674""
","
","890.8999999910593","run_exp/static/images/Set 6_rs/169a.jpg","78","","","","","","learn","SR",""
"","show_choice","68","97119","0.0-68.0","""event"",""trial"",""time""
""fullscreenenter"",""0"",""3674""
","
","
","""event"",""trial"",""time""
""fullscreenenter"",""0"",""3674""
","
","null","run_exp/static/images/Set 6_rs/169a.jpg","null","","","","","","learn","SR",""
"","html-keyboard-response","69","97622","0.0-69.0","""event"",""trial"",""time""
""fullscreenenter"",""0"",""3674""
","
","
","""event"",""trial"",""time""
""fullscreenenter"",""0"",""3674""
","
","null","<p></p>","null","","","","","","","",""
"","image","70","98276","0.0-70.0","""event"",""trial"",""time""
""fullscreenenter"",""0"",""3674""
","
","
","""event"",""trial"",""time""
""fullscreenenter"",""0"",""3674""
","
","652.1000000089407","run_exp/static/images/Set 6_rs/079a.jpg","86","","","","","","learn","SL",""
"","show_choice","71","99635","0.0-71.0","""event"",""trial"",""time""
""fullscreenenter"",""0"",""3674""
","
","
","""event"",""trial"",""time""
""fullscreenenter"",""0"",""3674""
","
","null","run_exp/static/images/Set 6_rs/079a.jpg","null","","","","","","learn","SL",""
"","html-keyboard-response","72","100151","0.0-72.0","""event"",""trial"",""time""
""fullscreenenter"",""0"",""3674""
","
","
","""event"",""trial"",""time""
""fullscreenenter"",""0"",""3674""
","
","null","<p></p>","null","","","","","","","",""
"","image","73","100962","0.0-73.0","""event"",""trial"",""time""
""fullscreenenter"",""0"",""3674""
","
","
","""event"",""trial"",""time""
""fullscreenenter"",""0"",""3674""
","
","809.1000000089407","run_exp/static/images/Set 6_rs/016a.jpg","86","","","","","","learn","SL",""
"","show_choice","74","102162","0.0-74.0","""event"",""trial"",""time""
""fullscreenenter"",""0"",""3674""
","
","
","""event"",""trial"",""time""
""fullscreenenter"",""0"",""3674""
","
","null","run_exp/static/images/Set 6_rs/016a.jpg","null","","","","","","learn","SL",""
"","html-keyboard-response","75","102678","0.0-75.0","""event"",""trial"",""time""
""fullscreenenter"",""0"",""3674""
","
","
","""event"",""trial"",""time""
""fullscreenenter"",""0"",""3674""
","
","null","<p></p>","null","","","","","","","",""
"","image","76","103355","0.0-76.0","""event"",""trial"",""time""
""fullscreenenter"",""0"",""3674""
","
","
","""event"",""trial"",""time""
""fullscreenenter"",""0"",""3674""
","
","674.9000000059605","run_exp/static/images/Set 6_rs/181a.jpg","78","","","","","","learn","SL",""
"","show_choice","77","104696","0.0-77.0","""event"",""trial"",""time""
""fullscreenenter"",""0"",""3674""
","
","
","""event"",""trial"",""time""
""fullscreenenter"",""0"",""3674""
","
","null","run_exp/static/images/Set 6_rs/181a.jpg","null","","","","","","learn","SL",""
"","html-keyboard-response","78","105198","0.0-78.0","""event"",""trial"",""time""
""fullscreenenter"",""0"",""3674""
","
","
","""event"",""trial"",""time""
""fullscreenenter"",""0"",""3674""
","
","null","<p></p>","null","","","","","","","",""
"","image","79","106274","0.0-79.0","""event"",""trial"",""time""
""fullscreenenter"",""0"",""3674""
","
","
","""event"",""trial"",""time""
""fullscreenenter"",""0"",""3674""
","
","1074.2000000029802","run_exp/static/images/Set 6_rs/061a.jpg","78","","","","","","learn","SR",""
"","show_choice","80","107208","0.0-80.0","""event"",""trial"",""time""
""fullscreenenter"",""0"",""3674""
","
","
","""event"",""trial"",""time""
""fullscreenenter"",""0"",""3674""
","
","null","run_exp/static/images/Set 6_rs/061a.jpg","null","","","","","","learn","SR",""
"","html-keyboard-response","81","107711","0.0-81.0","""event"",""trial"",""time""
""fullscreenenter"",""0"",""3674""
","
","
","""event"",""trial"",""time""
""fullscreenenter"",""0"",""3674""
","
","null","<p></p>","null","","","","","","","",""
"","image","82","108881","0.0-82.0","""event"",""trial"",""time""
""fullscreenenter"",""0"",""3674""
","
","
","""event"",""trial"",""time""
""fullscreenenter"",""0"",""3674""
","
","1167.8999999910593","run_exp/static/images/Set 6_rs/166a.jpg","78","","","","","","learn","SR",""
"","show_choice","83","109718","0.0-83.0","""event"",""trial"",""time""
""fullscreenenter"",""0"",""3674""
","
","
","""event"",""trial"",""time""
""fullscreenenter"",""0"",""3674""
","
","null","run_exp/static/images/Set 6_rs/166a.jpg","null","","","","","","learn","SR",""
"","html-keyboard-response","84","110236","0.0-84.0","""event"",""trial"",""time""
""fullscreenenter"",""0"",""3674""
","
","
","""event"",""trial"",""time""
""fullscreenenter"",""0"",""3674""
","
","null","<p></p>","null","","","","","","","",""
"","image","85","111708","0.0-85.0","""event"",""trial"",""time""
""fullscreenenter"",""0"",""3674""
","
","
","""event"",""trial"",""time""
""fullscreenenter"",""0"",""3674""
","
","1470.3999999910593","run_exp/static/images/Set 6_rs/131a.jpg","86","","","","","","learn","SR",""
"","show_choice","86","112251","0.0-86.0","""event"",""trial"",""time""
""fullscreenenter"",""0"",""3674""
","
","
","""event"",""trial"",""time""
""fullscreenenter"",""0"",""3674""
","
","null","run_exp/static/images/Set 6_rs/131a.jpg","null","","","","","","learn","SR",""
"","html-keyboard-response","87","112753","0.0-87.0","""event"",""trial"",""time""
""fullscreenenter"",""0"",""3674""
","
","
","""event"",""trial"",""time""
""fullscreenenter"",""0"",""3674""
","
","null","<p></p>","null","","","","","","","",""
"","image","88","113879","0.0-88.0","""event"",""trial"",""time""
""fullscreenenter"",""0"",""3674""
","
","
","""event"",""trial"",""time""
""fullscreenenter"",""0"",""3674""
","
","1124.7000000029802","run_exp/static/images/Set 6_rs/008a.jpg","86","","","","","","learn","SL",""
"","show_choice","89","114764","0.0-89.0","""event"",""trial"",""time""
""fullscreenenter"",""0"",""3674""
","
","
","""event"",""trial"",""time""
""fullscreenenter"",""0"",""3674""
","
","null","run_exp/static/images/Set 6_rs/008a.jpg","null","","","","","","learn","SL",""
"","html-keyboard-response","90","115268","0.0-90.0","""event"",""trial"",""time""
""fullscreenenter"",""0"",""3674""
","
","
","""event"",""trial"",""time""
""fullscreenenter"",""0"",""3674""
","
","null","<p></p>","null","","","","","","","",""
"","image","91","116042","0.0-91.0","""event"",""trial"",""time""
""fullscreenenter"",""0"",""3674""
","
","
","""event"",""trial"",""time""
""fullscreenenter"",""0"",""3674""
","
","771.5","run_exp/static/images/Set 6_rs/095a.jpg","86","","","","","","learn","SL",""
"","show_choice","92","117280","0.0-92.0","""event"",""trial"",""time""
""fullscreenenter"",""0"",""3674""
","
","
","""event"",""trial"",""time""
""fullscreenenter"",""0"",""3674""
","
","null","run_exp/static/images/Set 6_rs/095a.jpg","null","","","","","","learn","SL",""
"","html-keyboard-response","93","117785","0.0-93.0","""event"",""trial"",""time""
""fullscreenenter"",""0"",""3674""
","
","
","""event"",""trial"",""time""
""fullscreenenter"",""0"",""3674""
","
","null","<p></p>","null","","","","","","","",""
"","image","94","118518","0.0-94.0","""event"",""trial"",""time""
""fullscreenenter"",""0"",""3674""
","
","
","""event"",""trial"",""time""
""fullscreenenter"",""0"",""3674""
","
","730.3000000119209","run_exp/static/images/Set 6_rs/117a.jpg","86","","","","","","learn","SL",""
"","show_choice","95","119796","0.0-95.0","""event"",""trial"",""time""
""fullscreenenter"",""0"",""3674""
","
","
","""event"",""trial"",""time""
""fullscreenenter"",""0"",""3674""
","
","null","run_exp/static/images/Set 6_rs/117a.jpg","null","","","","","","learn","SL",""
"","html-keyboard-response","96","120312","0.0-96.0","""event"",""trial"",""time""
""fullscreenenter"",""0"",""3674""
","
","
","""event"",""trial"",""time""
""fullscreenenter"",""0"",""3674""
","
","null","<p></p>","null","","","","","","","",""
"","image","97","121174","0.0-97.0","""event"",""trial"",""time""
""fullscreenenter"",""0"",""3674""
","
","
","""event"",""trial"",""time""
""fullscreenenter"",""0"",""3674""
","
","860.4000000059605","run_exp/static/images/Set 6_rs/057a.jpg","86","","","","","","learn","SL",""
"","show_choice","98","122325","0.0-98.0","""event"",""trial"",""time""
""fullscreenenter"",""0"",""3674""
","
","
","""event"",""trial"",""time""
""fullscreenenter"",""0"",""3674""
","
","null","run_exp/static/images/Set 6_rs/057a.jpg","null","","","","","","learn","SL",""
"","html-keyboard-response","99","122828","0.0-99.0","""event"",""trial"",""time""
""fullscreenenter"",""0"",""3674""
","
","
","""event"",""trial"",""time""
""fullscreenenter"",""0"",""3674""
","
","null","<p></p>","null","","","","","","","",""
"","image","100","123636","0.0-100.0","""event"",""trial"",""time""
""fullscreenenter"",""0"",""3674""
","
","
","""event"",""trial"",""time""
""fullscreenenter"",""0"",""3674""
","
","807.1000000089407","run_exp/static/images/Set 6_rs/012a.jpg","86","","","","","","learn","SR",""
"","show_choice","101","124841","0.0-101.0","""event"",""trial"",""time""
""fullscreenenter"",""0"",""3674""
","
","
","""event"",""trial"",""time""
""fullscreenenter"",""0"",""3674""
","
","null","run_exp/static/images/Set 6_rs/012a.jpg","null","","","","","","learn","SR",""
"","html-keyboard-response","102","125346","0.0-102.0","""event"",""trial"",""time""
""fullscreenenter"",""0"",""3674""
","
","
","""event"",""trial"",""time""
""fullscreenenter"",""0"",""3674""
","
","null","<p></p>","null","","","","","","","",""
"","image","103","126134","0.0-103.0","""event"",""trial"",""time""
""fullscreenenter"",""0"",""3674""
","
","
","""event"",""trial"",""time""
""fullscreenenter"",""0"",""3674""
","
","786.3000000119209","run_exp/static/images/Set 6_rs/063a.jpg","86","","","","","","learn","SR",""
"","show_choice","104","127357","0.0-104.0","""event"",""trial"",""time""
""fullscreenenter"",""0"",""3674""
","
","
","""event"",""trial"",""time""
""fullscreenenter"",""0"",""3674""
","
","null","run_exp/static/images/Set 6_rs/063a.jpg","null","","","","","","learn","SR",""
"","html-keyboard-response","105","127871","0.0-105.0","""event"",""trial"",""time""
""fullscreenenter"",""0"",""3674""
","
","
","""event"",""trial"",""time""
""fullscreenenter"",""0"",""3674""
","
","null","<p></p>","null","","","","","","","",""
"","image","106","128504","0.0-106.0","""event"",""trial"",""time""
""fullscreenenter"",""0"",""3674""
","
","
","""event"",""trial"",""time""
""fullscreenenter"",""0"",""3674""
","
","631.2000000029802","run_exp/static/images/Set 6_rs/023a.jpg","86","","","","","","learn","SR",""
"","show_choice","107","129882","0.0-107.0","""event"",""trial"",""time""
""fullscreenenter"",""0"",""3674""
","
","
","""event"",""trial"",""time""
""fullscreenenter"",""0"",""3674""
","
","null","run_exp/static/images/Set 6_rs/023a.jpg","null","","","","","","learn","SR",""
"","html-keyboard-response","108","130387","0.0-108.0","""event"",""trial"",""time""
""fullscreenenter"",""0"",""3674""
","
","
","""event"",""trial"",""time""
""fullscreenenter"",""0"",""3674""
","
","null","<p></p>","null","","","","","","","",""
"","image","109","131249","0.0-109.0","""event"",""trial"",""time""
""fullscreenenter"",""0"",""3674""
","
","
","""event"",""trial"",""time""
""fullscreenenter"",""0"",""3674""
","
","860.9000000059605","run_exp/static/images/Set 6_rs/036a.jpg","86","","","","","","learn","SL",""
"","show_choice","110","132399","0.0-110.0","""event"",""trial"",""time""
""fullscreenenter"",""0"",""3674""
","
","
","""event"",""trial"",""time""
""fullscreenenter"",""0"",""3674""
","
","null","run_exp/static/images/Set 6_rs/036a.jpg","null","","","","","","learn","SL",""
"","html-keyboard-response","111","132902","0.0-111.0","""event"",""trial"",""time""
""fullscreenenter"",""0"",""3674""
","
","
","""event"",""trial"",""time""
""fullscreenenter"",""0"",""3674""
","
","null","<p></p>","null","","","","","","","",""
"","image","112","133724","0.0-112.0","""event"",""trial"",""time""
""fullscreenenter"",""0"",""3674""
","
","
","""event"",""trial"",""time""
""fullscreenenter"",""0"",""3674""
","
","820.7000000029802","run_exp/static/images/Set 6_rs/111a.jpg","86","","","","","","learn","SL",""
"","show_choice","113","134911","0.0-113.0","""event"",""trial"",""time""
""fullscreenenter"",""0"",""3674""
","
","
","""event"",""trial"",""time""
""fullscreenenter"",""0"",""3674""
","
","null","run_exp/static/images/Set 6_rs/111a.jpg","null","","","","","","learn","SL",""
"","html-keyboard-response","114","135413","0.0-114.0","""event"",""trial"",""time""
""fullscreenenter"",""0"",""3674""
","
","
","""event"",""trial"",""time""
""fullscreenenter"",""0"",""3674""
","
","null","<p></p>","null","","","","","","","",""
"","image","115","136026","0.0-115.0","""event"",""trial"",""time""
""fullscreenenter"",""0"",""3674""
","
","
","""event"",""trial"",""time""
""fullscreenenter"",""0"",""3674""
","
","611.7999999970198","run_exp/static/images/Set 6_rs/075a.jpg","86","","","","","","learn","SR",""
"","show_choice","116","137420","0.0-116.0","""event"",""trial"",""time""
""fullscreenenter"",""0"",""3674""
","
","
","""event"",""trial"",""time""
""fullscreenenter"",""0"",""3674""
","
","null","run_exp/static/images/Set 6_rs/075a.jpg","null","","","","","","learn","SR",""
"","html-keyboard-response","117","137924","0.0-117.0","""event"",""trial"",""time""
""fullscreenenter"",""0"",""3674""
","
","
","""event"",""trial"",""time""
""fullscreenenter"",""0"",""3674""
","
","null","<p></p>","null","","","","","","","",""
"","image","118","139015","0.0-118.0","""event"",""trial"",""time""
""fullscreenenter"",""0"",""3674""
","
","
","""event"",""trial"",""time""
""fullscreenenter"",""0"",""3674""
","
","1089.7999999970198","run_exp/static/images/Set 6_rs/122a.jpg","86","","","","","","learn","SR",""
"","show_choice","119","139937","0.0-119.0","""event"",""trial"",""time""
""fullscreenenter"",""0"",""3674""
","
","
","""event"",""trial"",""time""
""fullscreenenter"",""0"",""3674""
","
","null","run_exp/static/images/Set 6_rs/122a.jpg","null","","","","","","learn","SR",""
"","html-keyboard-response","120","140441","0.0-120.0","""event"",""trial"",""time""
""fullscreenenter"",""0"",""3674""
","
","
","""event"",""trial"",""time""
""fullscreenenter"",""0"",""3674""
","
","null","<p></p>","null","","","","","","","",""
"","image","121","141220","0.0-121.0","""event"",""trial"",""time""
""fullscreenenter"",""0"",""3674""
","
","
","""event"",""trial"",""time""
""fullscreenenter"",""0"",""3674""
","
","777.8999999910593","run_exp/static/images/Set 6_rs/024a.jpg","86","","","","","","learn","SR",""
"","show_choice","122","142455","0.0-122.0","""event"",""trial"",""time""
""fullscreenenter"",""0"",""3674""
","
","
","""event"",""trial"",""time""
""fullscreenenter"",""0"",""3674""
","
","null","run_exp/static/images/Set 6_rs/024a.jpg","null","","","","","","learn","SR",""
"","html-keyboard-response","123","142956","0.0-123.0","""event"",""trial"",""time""
""fullscreenenter"",""0"",""3674""
","
","
","""event"",""trial"",""time""
""fullscreenenter"",""0"",""3674""
","
","null","<p></p>","null","","","","","","","",""
"","image","124","143826","0.0-124.0","""event"",""trial"",""time""
""fullscreenenter"",""0"",""3674""
","
","
","""event"",""trial"",""time""
""fullscreenenter"",""0"",""3674""
","
","868","run_exp/static/images/Set 6_rs/138a.jpg","78","","","","","","learn","SL",""
"","show_choice","125","144966","0.0-125.0","""event"",""trial"",""time""
""fullscreenenter"",""0"",""3674""
","
","
","""event"",""trial"",""time""
""fullscreenenter"",""0"",""3674""
","
","null","run_exp/static/images/Set 6_rs/138a.jpg","null","","","","","","learn","SL",""
"","html-keyboard-response","126","145483","0.0-126.0","""event"",""trial"",""time""
""fullscreenenter"",""0"",""3674""
","
","
","""event"",""trial"",""time""
""fullscreenenter"",""0"",""3674""
","
","null","<p></p>","null","","","","","","","",""
"","image","127","146265","0.0-127.0","""event"",""trial"",""time""
""fullscreenenter"",""0"",""3674""
","
","
","""event"",""trial"",""time""
""fullscreenenter"",""0"",""3674""
","
","780.6000000089407","run_exp/static/images/Set 6_rs/134a.jpg","86","","","","","","learn","SR",""
"","show_choice","128","147494","0.0-128.0","""event"",""trial"",""time""
""fullscreenenter"",""0"",""3674""
","
","
","""event"",""trial"",""time""
""fullscreenenter"",""0"",""3674""
","
","null","run_exp/static/images/Set 6_rs/134a.jpg","null","","","","","","learn","SR",""
"","html-keyboard-response","129","147997","0.0-129.0","""event"",""trial"",""time""
""fullscreenenter"",""0"",""3674""
","
","
","""event"",""trial"",""time""
""fullscreenenter"",""0"",""3674""
","
","null","<p></p>","null","","","","","","","",""
"","image","130","149216","0.0-130.0","""event"",""trial"",""time""
""fullscreenenter"",""0"",""3674""
","
","
","""event"",""trial"",""time""
""fullscreenenter"",""0"",""3674""
","
","1217.2000000029802","run_exp/static/images/Set 6_rs/014a.jpg","86","","","","","","learn","SL",""
"","show_choice","131","150007","0.0-131.0","""event"",""trial"",""time""
""fullscreenenter"",""0"",""3674""
","
","
","""event"",""trial"",""time""
""fullscreenenter"",""0"",""3674""
","
","null","run_exp/static/images/Set 6_rs/014a.jpg","null","","","","","","learn","SL",""
"","html-keyboard-response","132","150508","0.0-132.0","""event"",""trial"",""time""
""fullscreenenter"",""0"",""3674""
","
","
","""event"",""trial"",""time""
""fullscreenenter"",""0"",""3674""
","
","null","<p></p>","null","","","","","","","",""
"","image","133","151243","0.0-133.0","""event"",""trial"",""time""
""fullscreenenter"",""0"",""3674""
","
","
","""event"",""trial"",""time""
""fullscreenenter"",""0"",""3674""
","
","733.2999999970198","run_exp/static/images/Set 6_rs/006a.jpg","86","","","","","","learn","SL",""
"","show_choice","134","152520","0.0-134.0","""event"",""trial"",""time""
""fullscreenenter"",""0"",""3674""
","
","
","""event"",""trial"",""time""
""fullscreenenter"",""0"",""3674""
","
","null","run_exp/static/images/Set 6_rs/006a.jpg","null","","","","","","learn","SL",""
"","html-keyboard-response","135","153025","0.0-135.0","""event"",""trial"",""time""
""fullscreenenter"",""0"",""3674""
","
","
","""event"",""trial"",""time""
""fullscreenenter"",""0"",""3674""
","
","null","<p></p>","null","","","","","","","",""
"","image","136","153878","0.0-136.0","""event"",""trial"",""time""
""fullscreenenter"",""0"",""3674""
","
","
","""event"",""trial"",""time""
""fullscreenenter"",""0"",""3674""
","
","852.2000000029802","run_exp/static/images/Set 6_rs/150a.jpg","86","","","","","","learn","SR",""
"","show_choice","137","155039","0.0-137.0","""event"",""trial"",""time""
""fullscreenenter"",""0"",""3674""
","
","
","""event"",""trial"",""time""
""fullscreenenter"",""0"",""3674""
","
","null","run_exp/static/images/Set 6_rs/150a.jpg","null","","","","","","learn","SR",""
"","html-keyboard-response","138","155542","0.0-138.0","""event"",""trial"",""time""
""fullscreenenter"",""0"",""3674""
","
","
","""event"",""trial"",""time""
""fullscreenenter"",""0"",""3674""
","
","null","<p></p>","null","","","","","","","",""
"","image","139","156359","0.0-139.0","""event"",""trial"",""time""
""fullscreenenter"",""0"",""3674""
","
","
","""event"",""trial"",""time""
""fullscreenenter"",""0"",""3674""
","
","815.4000000059605","run_exp/static/images/Set 6_rs/129a.jpg","86","","","","","","learn","SL",""
"","show_choice","140","157552","0.0-140.0","""event"",""trial"",""time""
""fullscreenenter"",""0"",""3674""
","
","
","""event"",""trial"",""time""
""fullscreenenter"",""0"",""3674""
","
","null","run_exp/static/images/Set 6_rs/129a.jpg","null","","","","","","learn","SL",""
"","html-keyboard-response","141","158055","0.0-141.0","""event"",""trial"",""time""
""fullscreenenter"",""0"",""3674""
","
","
","""event"",""trial"",""time""
""fullscreenenter"",""0"",""3674""
","
","null","<p></p>","null","","","","","","","",""
"","image","142","158835","0.0-142.0","""event"",""trial"",""time""
""fullscreenenter"",""0"",""3674""
","
","
","""event"",""trial"",""time""
""fullscreenenter"",""0"",""3674""
","
","778.8999999910593","run_exp/static/images/Set 6_rs/112a.jpg","86","","","","","","learn","SR",""
"","show_choice","143","160064","0.0-143.0","""event"",""trial"",""time""
""fullscreenenter"",""0"",""3674""
","
","
","""event"",""trial"",""time""
""fullscreenenter"",""0"",""3674""
","
","null","run_exp/static/images/Set 6_rs/112a.jpg","null","","","","","","learn","SR",""
"","html-keyboard-response","144","160580","0.0-144.0","""event"",""trial"",""time""
""fullscreenenter"",""0"",""3674""
","
","
","""event"",""trial"",""time""
""fullscreenenter"",""0"",""3674""
","
","null","<p></p>","null","","","","","","","",""
"","image","145","161293","0.0-145.0","""event"",""trial"",""time""
""fullscreenenter"",""0"",""3674""
","
","
","""event"",""trial"",""time""
""fullscreenenter"",""0"",""3674""
","
","711.5","run_exp/static/images/Set 6_rs/045a.jpg","86","","","","","","learn","SR",""
"","show_choice","146","162587","0.0-146.0","""event"",""trial"",""time""
""fullscreenenter"",""0"",""3674""
","
","
","""event"",""trial"",""time""
""fullscreenenter"",""0"",""3674""
","
","null","run_exp/static/images/Set 6_rs/045a.jpg","null","","","","","","learn","SR",""
"","html-keyboard-response","147","163088","0.0-147.0","""event"",""trial"",""time""
""fullscreenenter"",""0"",""3674""
","
","
","""event"",""trial"",""time""
""fullscreenenter"",""0"",""3674""
","
","null","<p></p>","null","","","","","","","",""
"","image","148","164800","0.0-148.0","""event"",""trial"",""time""
""fullscreenenter"",""0"",""3674""
","
","
","""event"",""trial"",""time""
""fullscreenenter"",""0"",""3674""
","
","1709.8999999910593","run_exp/static/images/Set 6_rs/074a.jpg","78","","","","","","learn","SL",""
"","show_choice","149","165101","0.0-149.0","""event"",""trial"",""time""
""fullscreenenter"",""0"",""3674""
","
","
","""event"",""trial"",""time""
""fullscreenenter"",""0"",""3674""
","
","null","run_exp/static/images/Set 6_rs/074a.jpg","null","","","","","","learn","SL",""
"","html-keyboard-response","150","165605","0.0-150.0","""event"",""trial"",""time""
""fullscreenenter"",""0"",""3674""
","
","
","""event"",""trial"",""time""
""fullscreenenter"",""0"",""3674""
","
","null","<p></p>","null","","","","","","","",""
"","image","151","166532","0.0-151.0","""event"",""trial"",""time""
""fullscreenenter"",""0"",""3674""
","
","
","""event"",""trial"",""time""
""fullscreenenter"",""0"",""3674""
","
","925.5","run_exp/static/images/Set 6_rs/055a.jpg","86","","","","","","learn","SL",""
"","show_choice","152","167608","0.0-152.0","""event"",""trial"",""time""
""fullscreenenter"",""0"",""3674""
","
","
","""event"",""trial"",""time""
""fullscreenenter"",""0"",""3674""
","
","null","run_exp/static/images/Set 6_rs/055a.jpg","null","","","","","","learn","SL",""
"","html-keyboard-response","153","168112","0.0-153.0","""event"",""trial"",""time""
""fullscreenenter"",""0"",""3674""
","
","
","""event"",""trial"",""time""
""fullscreenenter"",""0"",""3674""
","
","null","<p></p>","null","","","","","","","",""
"","image","154","168779","0.0-154.0","""event"",""trial"",""time""
""fullscreenenter"",""0"",""3674""
","
","
","""event"",""trial"",""time""
""fullscreenenter"",""0"",""3674""
","
","664.7000000029802","run_exp/static/images/Set 6_rs/178a.jpg","86","","","","","","learn","SR",""
"","show_choice","155","170124","0.0-155.0","""event"",""trial"",""time""
""fullscreenenter"",""0"",""3674""
","
","
","""event"",""trial"",""time""
""fullscreenenter"",""0"",""3674""
","
","null","run_exp/static/images/Set 6_rs/178a.jpg","null","","","","","","learn","SR",""
"","html-keyboard-response","156","170625","0.0-156.0","""event"",""trial"",""time""
""fullscreenenter"",""0"",""3674""
","
","
","""event"",""trial"",""time""
""fullscreenenter"",""0"",""3674""
","
","null","<p></p>","null","","","","","","","",""
"","image","157","171321","0.0-157.0","""event"",""trial"",""time""
""fullscreenenter"",""0"",""3674""
","
","
","""event"",""trial"",""time""
""fullscreenenter"",""0"",""3674""
","
","693.8000000119209","run_exp/static/images/Set 6_rs/050a.jpg","86","","","","","","learn","SL",""
"","show_choice","158","172640","0.0-158.0","""event"",""trial"",""time""
""fullscreenenter"",""0"",""3674""
","
","
","""event"",""trial"",""time""
""fullscreenenter"",""0"",""3674""
","
","null","run_exp/static/images/Set 6_rs/050a.jpg","null","","","","","","learn","SL",""
"","html-keyboard-response","159","173142","0.0-159.0","""event"",""trial"",""time""
""fullscreenenter"",""0"",""3674""
","
","
","""event"",""trial"",""time""
""fullscreenenter"",""0"",""3674""
","
","null","<p></p>","null","","","","","","","",""
"","image","160","174274","0.0-160.0","""event"",""trial"",""time""
""fullscreenenter"",""0"",""3674""
","
","
","""event"",""trial"",""time""
""fullscreenenter"",""0"",""3674""
","
","1130.7999999970198","run_exp/static/images/Set 6_rs/025a.jpg","78","","","","","","learn","SL",""
"","show_choice","161","175156","0.0-161.0","""event"",""trial"",""time""
""fullscreenenter"",""0"",""3674""
","
","
","""event"",""trial"",""time""
""fullscreenenter"",""0"",""3674""
","
","null","run_exp/static/images/Set 6_rs/025a.jpg","null","","","","","","learn","SL",""
"","html-keyboard-response","162","175660","0.0-162.0","""event"",""trial"",""time""
""fullscreenenter"",""0"",""3674""
","
","
","""event"",""trial"",""time""
""fullscreenenter"",""0"",""3674""
","
","null","<p></p>","null","","","","","","","",""
"","image","163","176455","0.0-163.0","""event"",""trial"",""time""
""fullscreenenter"",""0"",""3674""
","
","
","""event"",""trial"",""time""
""fullscreenenter"",""0"",""3674""
","
","793.8999999910593","run_exp/static/images/Set 6_rs/177a.jpg","78","","","","","","learn","SR",""
"","show_choice","164","177677","0.0-164.0","""event"",""trial"",""time""
""fullscreenenter"",""0"",""3674""
","
","
","""event"",""trial"",""time""
""fullscreenenter"",""0"",""3674""
","
","null","run_exp/static/images/Set 6_rs/177a.jpg","null","","","","","","learn","SR",""
"","html-keyboard-response","165","178182","0.0-165.0","""event"",""trial"",""time""
""fullscreenenter"",""0"",""3674""
","
","
","""event"",""trial"",""time""
""fullscreenenter"",""0"",""3674""
","
","null","<p></p>","null","","","","","","","",""
"","image","166","179334","0.0-166.0","""event"",""trial"",""time""
""fullscreenenter"",""0"",""3674""
","
","
","""event"",""trial"",""time""
""fullscreenenter"",""0"",""3674""
","
","1151.5","run_exp/static/images/Set 6_rs/126a.jpg","78","","","","","","learn","SR",""
"","show_choice","167","180190","0.0-167.0","""event"",""trial"",""time""
""fullscreenenter"",""0"",""3674""
","
","
","""event"",""trial"",""time""
""fullscreenenter"",""0"",""3674""
","
","null","run_exp/static/images/Set 6_rs/126a.jpg","null","","","","","","learn","SR",""
"","html-keyboard-response","168","180694","0.0-168.0","""event"",""trial"",""time""
""fullscreenenter"",""0"",""3674""
","
","
","""event"",""trial"",""time""
""fullscreenenter"",""0"",""3674""
","
","null","<p></p>","null","","","","","","","",""
"","image","169","181798","0.0-169.0","""event"",""trial"",""time""
""fullscreenenter"",""0"",""3674""
","
","
","""event"",""trial"",""time""
""fullscreenenter"",""0"",""3674""
","
","1102.5","run_exp/static/images/Set 6_rs/116a.jpg","86","","","","","","learn","SL",""
"","show_choice","170","182710","0.0-170.0","""event"",""trial"",""time""
""fullscreenenter"",""0"",""3674""
","
","
","""event"",""trial"",""time""
""fullscreenenter"",""0"",""3674""
","
","null","run_exp/static/images/Set 6_rs/116a.jpg","null","","","","","","learn","SL",""
"","html-keyboard-response","171","183215","0.0-171.0","""event"",""trial"",""time""
""fullscreenenter"",""0"",""3674""
","
","
","""event"",""trial"",""time""
""fullscreenenter"",""0"",""3674""
","
","null","<p></p>","null","","","","","","","",""
"","image","172","185123","0.0-172.0","""event"",""trial"",""time""
""fullscreenenter"",""0"",""3674""
","
","
","""event"",""trial"",""time""
""fullscreenenter"",""0"",""3674""
","
","1907","run_exp/static/images/Set 6_rs/017a.jpg","78","","","","","","learn","SL",""
"","show_choice","173","185229","0.0-173.0","""event"",""trial"",""time""
""fullscreenenter"",""0"",""3674""
","
","
","""event"",""trial"",""time""
""fullscreenenter"",""0"",""3674""
","
","null","run_exp/static/images/Set 6_rs/017a.jpg","null","","","","","","learn","SL",""
"","html-keyboard-response","174","185746","0.0-174.0","""event"",""trial"",""time""
""fullscreenenter"",""0"",""3674""
","
","
","""event"",""trial"",""time""
""fullscreenenter"",""0"",""3674""
","
","null","<p></p>","null","","","","","","","",""
"","image","175","186769","0.0-175.0","""event"",""trial"",""time""
""fullscreenenter"",""0"",""3674""
","
","
","""event"",""trial"",""time""
""fullscreenenter"",""0"",""3674""
","
","1021.5","run_exp/static/images/Set 6_rs/132a.jpg","86","","","","","","learn","SR",""
"","show_choice","176","187757","0.0-176.0","""event"",""trial"",""time""
""fullscreenenter"",""0"",""3674""
","
","
","""event"",""trial"",""time""
""fullscreenenter"",""0"",""3674""
","
","null","run_exp/static/images/Set 6_rs/132a.jpg","null","","","","","","learn","SR",""
"","html-keyboard-response","177","188272","0.0-177.0","""event"",""trial"",""time""
""fullscreenenter"",""0"",""3674""
","
","
","""event"",""trial"",""time""
""fullscreenenter"",""0"",""3674""
","
","null","<p></p>","null","","","","","","","",""
"","image","178","189317","0.0-178.0","""event"",""trial"",""time""
""fullscreenenter"",""0"",""3674""
","
","
","""event"",""trial"",""time""
""fullscreenenter"",""0"",""3674""
","
","1043.5","run_exp/static/images/Set 6_rs/010a.jpg","86","","","","","","learn","SR",""
"","show_choice","179","190279","0.0-179.0","""event"",""trial"",""time""
""fullscreenenter"",""0"",""3674""
","
","
","""event"",""trial"",""time""
""fullscreenenter"",""0"",""3674""
","
","null","run_exp/static/images/Set 6_rs/010a.jpg","null","","","","","","learn","SR",""
"","html-keyboard-response","180","190795","0.0-180.0","""event"",""trial"",""time""
""fullscreenenter"",""0"",""3674""
","
","
","""event"",""trial"",""time""
""fullscreenenter"",""0"",""3674""
","
","null","<p></p>","null","","","","","","","",""
"","image","181","191885","0.0-181.0","""event"",""trial"",""time""
""fullscreenenter"",""0"",""3674""
","
","
","""event"",""trial"",""time""
""fullscreenenter"",""0"",""3674""
","
","1088.4000000059605","run_exp/static/images/Set 6_rs/062a.jpg","86","","","","","","learn","SL",""
"","show_choice","182","192802","0.0-182.0","""event"",""trial"",""time""
""fullscreenenter"",""0"",""3674""
","
","
","""event"",""trial"",""time""
""fullscreenenter"",""0"",""3674""
","
","null","run_exp/static/images/Set 6_rs/062a.jpg","null","","","","","","learn","SL",""
"","html-keyboard-response","183","193318","0.0-183.0","""event"",""trial"",""time""
""fullscreenenter"",""0"",""3674""
","
","
","""event"",""trial"",""time""
""fullscreenenter"",""0"",""3674""
","
","null","<p></p>","null","","","","","","","",""
"","image","184","194372","0.0-184.0","""event"",""trial"",""time""
""fullscreenenter"",""0"",""3674""
","
","
","""event"",""trial"",""time""
""fullscreenenter"",""0"",""3674""
","
","1052.5999999940395","run_exp/static/images/Set 6_rs/167a.jpg","78","","","","","","learn","SL",""
"","show_choice","185","195321","0.0-185.0","""event"",""trial"",""time""
""fullscreenenter"",""0"",""3674""
","
","
","""event"",""trial"",""time""
""fullscreenenter"",""0"",""3674""
","
","null","run_exp/static/images/Set 6_rs/167a.jpg","null","","","","","","learn","SL",""
"","html-keyboard-response","186","195837","0.0-186.0","""event"",""trial"",""time""
""fullscreenenter"",""0"",""3674""
","
","
","""event"",""trial"",""time""
""fullscreenenter"",""0"",""3674""
","
","null","<p></p>","null","","","","","","","",""
"","image","187","197552","0.0-187.0","""event"",""trial"",""time""
""fullscreenenter"",""0"",""3674""
","
","
","""event"",""trial"",""time""
""fullscreenenter"",""0"",""3674""
","
","1713.7999999970198","run_exp/static/images/Set 6_rs/191a.jpg","78","","","","","","learn","SL",""
"","show_choice","188","197848","0.0-188.0","""event"",""trial"",""time""
""fullscreenenter"",""0"",""3674""
","
","
","""event"",""trial"",""time""
""fullscreenenter"",""0"",""3674""
","
","null","run_exp/static/images/Set 6_rs/191a.jpg","null","","","","","","learn","SL",""
"","html-keyboard-response","189","198364","0.0-189.0","""event"",""trial"",""time""
""fullscreenenter"",""0"",""3674""
","
","
","""event"",""trial"",""time""
""fullscreenenter"",""0"",""3674""
","
","null","<p></p>","null","","","","","","","",""
"","image","190","199215","0.0-190.0","""event"",""trial"",""time""
""fullscreenenter"",""0"",""3674""
","
","
","""event"",""trial"",""time""
""fullscreenenter"",""0"",""3674""
","
","849.3999999910593","run_exp/static/images/Set 6_rs/108a.jpg","86","","","","","","learn","SR",""
"","show_choice","191","200371","0.0-191.0","""event"",""trial"",""time""
""fullscreenenter"",""0"",""3674""
","
","
","""event"",""trial"",""time""
""fullscreenenter"",""0"",""3674""
","
","null","run_exp/static/images/Set 6_rs/108a.jpg","null","","","","","","learn","SR",""
"","html-keyboard-response","192","200887","0.0-192.0","""event"",""trial"",""time""
""fullscreenenter"",""0"",""3674""
","
","
","""event"",""trial"",""time""
""fullscreenenter"",""0"",""3674""
","
","null","<p></p>","null","","","","","","","",""
"","image","193","201994","0.0-193.0","""event"",""trial"",""time""
""fullscreenenter"",""0"",""3674""
","
","
","""event"",""trial"",""time""
""fullscreenenter"",""0"",""3674""
","
","1105.2000000029802","run_exp/static/images/Set 6_rs/071a.jpg","86","","","","","","learn","SL",""
"","show_choice","194","202894","0.0-194.0","""event"",""trial"",""time""
""fullscreenenter"",""0"",""3674""
","
","
","""event"",""trial"",""time""
""fullscreenenter"",""0"",""3674""
","
","null","run_exp/static/images/Set 6_rs/071a.jpg","null","","","","","","learn","SL",""
"","html-keyboard-response","195","203410","0.0-195.0","""event"",""trial"",""time""
""fullscreenenter"",""0"",""3674""
","
","
","""event"",""trial"",""time""
""fullscreenenter"",""0"",""3674""
","
","null","<p></p>","null","","","","","","","",""
"","test_intro","196","240321","0.0-196.0","""event"",""trial"",""time""
""fullscreenenter"",""0"",""3674""
","
","
","""event"",""trial"",""time""
""fullscreenenter"",""0"",""3674""
","
","null","run_exp/static/audio/clip_2_memory.m4a","null","","","","","<div class='center'><p>Now, lets see how much you remember about the items you just saw.  For each item, you need to indicate if it was <b>old</b> by pressing the <b>v</b> key, <b>similar</b> by pressing the <b>b</b> key, or <b>new</b> by pressing the <b>n</b> key.</p><p>Old refers to an item that you saw before in the indoor/outdoor game that you just played, new refers to an item you have <b>not</b> seen before within the indoor/outdoor game, and similar refers to an item that is similar to an item youve seen before but is not exactly the same. </p><p>Before we begin, lets go over some brief demonstrations to make sure you understand.</p></div>","","",""
"","html-keyboard-response","197","240866","0.0-197.0","""event"",""trial"",""time""
""fullscreenenter"",""0"",""3674""
","
","
","""event"",""trial"",""time""
""fullscreenenter"",""0"",""3674""
","
","544.1000000089407","<div class='center'><p>Now, lets see how much you remember about the items you just saw.  For each item, you need to indicate if it was <b>old</b> by pressing the <b>v</b> key, <b>similar</b> by pressing the <b>b</b> key, or <b>new</b> by pressing the <b>n</b> key.</p><p>Old refers to an item that you saw before in the indoor/outdoor game that you just played, new refers to an item you have <b>not</b> seen before within the indoor/outdoor game, and similar refers to an item that is similar to an item youve seen before but is not exactly the same. </p><p>Before we begin, lets go over some brief demonstrations to make sure you understand.</p><div><p><b>[Press the space bar to continue]</b></p></div>","32","","","","","","","",""
"","items","198","248380","0.0-198.0","""event"",""trial"",""time""
""fullscreenenter"",""0"",""3674""
","
","
","""event"",""trial"",""time""
""fullscreenenter"",""0"",""3674""
","
","null","run_exp/static/audio/clip_3_items.m4a","null","","","","","","","",""
"","mop","199","252892","0.0-199.0","""event"",""trial"",""time""
""fullscreenenter"",""0"",""3674""
","
","
","""event"",""trial"",""time""
""fullscreenenter"",""0"",""3674""
","
","null","run_exp/static/audio/clip_4_mop.m4a","null","","","","","","","",""
"","baseball","200","256401","0.0-200.0","""event"",""trial"",""time""
""fullscreenenter"",""0"",""3674""
","
","
","""event"",""trial"",""time""
""fullscreenenter"",""0"",""3674""
","
","null","run_exp/static/audio/clip_5_baseball.m4a","null","","","","","","","",""
"","trumpet","201","259910","0.0-201.0","""event"",""trial"",""time""
""fullscreenenter"",""0"",""3674""
","
","
","""event"",""trial"",""time""
""fullscreenenter"",""0"",""3674""
","
","null","run_exp/static/audio/clip_6_trumpet.m4a","null","","","","","","","",""
"","gummies","202","263423","0.0-202.0","""event"",""trial"",""time""
""fullscreenenter"",""0"",""3674""
","
","
","""event"",""trial"",""time""
""fullscreenenter"",""0"",""3674""
","
","null","run_exp/static/audio/clip_7_gummies.m4a","null","","","","","","","",""
"","osn","203","267933","0.0-203.0","""event"",""trial"",""time""
""fullscreenenter"",""0"",""3674""
","
","
","""event"",""trial"",""time""
""fullscreenenter"",""0"",""3674""
","
","null","run_exp/static/audio/clip_8_osn.m4a","null","","","","","","","",""
"","old_1","204","274436","0.0-204.0","""event"",""trial"",""time""
""fullscreenenter"",""0"",""3674""
","
","
","""event"",""trial"",""time""
""fullscreenenter"",""0"",""3674""
","
","null","run_exp/static/audio/clip_9_old_trumpet.m4a","null","","","","","","","",""
"","new_1","205","281950","0.0-205.0","""event"",""trial"",""time""
""fullscreenenter"",""0"",""3674""
","
","
","""event"",""trial"",""time""
""fullscreenenter"",""0"",""3674""
","
","null","run_exp/static/audio/clip_10_new_balloon.m4a","null","","","","","","","",""
"","similar_1a","206","286462","0.0-206.0","""event"",""trial"",""time""
""fullscreenenter"",""0"",""3674""
","
","
","""event"",""trial"",""time""
""fullscreenenter"",""0"",""3674""
","
","null","run_exp/static/audio/clip_11a_similar_mop.m4a","null","","","","","","","",""
"","similar_1b","207","292978","0.0-207.0","""event"",""trial"",""time""
""fullscreenenter"",""0"",""3674""
","
","
","""event"",""trial"",""time""
""fullscreenenter"",""0"",""3674""
","
","null","run_exp/static/audio/clip_11b_similar_mop.m4a","null","","","","","","","",""
"","new_2","208","296492","0.0-208.0","""event"",""trial"",""time""
""fullscreenenter"",""0"",""3674""
","
","
","""event"",""trial"",""time""
""fullscreenenter"",""0"",""3674""
","
","null","run_exp/static/audio/clip_12_new_stoplight.m4a","null","","","","","","","",""
"","old_2","209","300006","0.0-209.0","""event"",""trial"",""time""
""fullscreenenter"",""0"",""3674""
","
","
","""event"",""trial"",""time""
""fullscreenenter"",""0"",""3674""
","
","null","run_exp/static/audio/clip_13_old_baseball.m4a","null","","","","","","","",""
"","similar_2a","210","303515","0.0-210.0","""event"",""trial"",""time""
""fullscreenenter"",""0"",""3674""
","
","
","""event"",""trial"",""time""
""fullscreenenter"",""0"",""3674""
","
","null","run_exp/static/audio/clip_14a_similar_gummies.m4a","null","","","","","","","",""
"","similar_2b","211","311027","0.0-211.0","""event"",""trial"",""time""
""fullscreenenter"",""0"",""3674""
","
","
","""event"",""trial"",""time""
""fullscreenenter"",""0"",""3674""
","
","null","run_exp/static/audio/clip_14b_similar_gummies.m4a","null","","","","","","","",""
"","practice","212","353122","0.0-212.0","""event"",""trial"",""time""
""fullscreenenter"",""0"",""3674""
","
","
","""event"",""trial"",""time""
""fullscreenenter"",""0"",""3674""
","
","null","run_exp/static/audio/clip_15_practice.m4a","null","","","","","<div class='center'><p>Lets practice a little to make sure you understand the difference between new, similar, and old. Lets say you saw these three items in the indoor/outdoor game.</p><p> Try your best to remember these images because youll soon be tested on them in a practice game. In the practice game, youll be shown images and youll have to say if they are old (one of the three images belows), similar (similar to one of the images below but not exactly the same), or new (are not one of the images below nor similar to them).</p><p>Once you press the space bar youll be shown these images again but one at time. Then youll begin the practice game.</p><p><img src='run_exp/static/images/tutorial/test/three_indoor_outdoor.png' height='300'></p></div>","","",""
"","html-keyboard-response","213","353409","0.0-213.0","""event"",""trial"",""time""
""fullscreenenter"",""0"",""3674""
","
","
","""event"",""trial"",""time""
""fullscreenenter"",""0"",""3674""
","
","286.19999998807907","<div class='center'><p>Lets practice a little to make sure you understand the difference between new, similar, and old. Lets say you saw these three items in the indoor/outdoor game.</p><p> Try your best to remember these images because youll soon be tested on them in a practice game. In the practice game, youll be shown images and youll have to say if they are old (one of the three images belows), similar (similar to one of the images below but not exactly the same), or new (are not one of the images below nor similar to them).</p><p>Once you press the space bar youll be shown these images again but one at time. Then youll begin the practice game.</p><p><img src='run_exp/static/images/tutorial/test/three_indoor_outdoor.png' height='300'></p><div><p><b>[Press the space bar to continue]</b></p></div>","32","","","","","","","",""
"","planet","214","355425","0.0-214.0","""event"",""trial"",""time""
""fullscreenenter"",""0"",""3674""
","
","
","""event"",""trial"",""time""
""fullscreenenter"",""0"",""3674""
","
","null","run_exp/static/images/tutorial/test/008a.jpg","null","","","","","","","",""
"","boot","215","357435","0.0-215.0","""event"",""trial"",""time""
""fullscreenenter"",""0"",""3674""
","
","
","""event"",""trial"",""time""
""fullscreenenter"",""0"",""3674""
","
","null","run_exp/static/images/tutorial/test/011a.jpg","null","","","","","","","",""
"","lemon","216","359450","0.0-216.0","""event"",""trial"",""time""
""fullscreenenter"",""0"",""3674""
","
","
","""event"",""trial"",""time""
""fullscreenenter"",""0"",""3674""
","
","null","run_exp/static/images/tutorial/test/018a.jpg","null","","","","","","","",""
"","practice_q1","217","361393","0.0-217.0","""event"",""trial"",""time""
""fullscreenenter"",""0"",""3674""
","
","
","""event"",""trial"",""time""
""fullscreenenter"",""0"",""3674""
","
","1934.199999988079","run_exp/static/audio/clip_16_practice_question.m4a","78","","","","","","","",""
"","correct","218","363281","0.0-218.0-0.0","""event"",""trial"",""time""
""fullscreenenter"",""0"",""3674""
","
","
","""event"",""trial"",""time""
""fullscreenenter"",""0"",""3674""
","
","null","run_exp/static/audio/clip_17_correct.m4a","null","","","","","<div class='center'><p>That's correct!</p></div>","","",""
"","html-keyboard-response","219","363971","0.0-218.0-1.0","""event"",""trial"",""time""
""fullscreenenter"",""0"",""3674""
","
","
","""event"",""trial"",""time""
""fullscreenenter"",""0"",""3674""
","
","687.7000000029802","<div class='center'><p>That's correct!</p><div><p><b>[Press the space bar to continue]</b></p></div>","32","","","","","","","",""
"","practice_q2","220","364815","0.0-218.0-2.0","""event"",""trial"",""time""
""fullscreenenter"",""0"",""3674""
","
","
","""event"",""trial"",""time""
""fullscreenenter"",""0"",""3674""
","
","842.7999999970198","run_exp/static/audio/clip_16_practice_question.m4a","86","","","","","","","",""
"","correct","221","366702","0.0-219.0-0.0","""event"",""trial"",""time""
""fullscreenenter"",""0"",""3674""
","
","
","""event"",""trial"",""time""
""fullscreenenter"",""0"",""3674""
","
","null","run_exp/static/audio/clip_17_correct.m4a","null","","","","","<div class='center'><p>That's correct!</p></div>","","",""
"","html-keyboard-response","222","366991","0.0-219.0-1.0","""event"",""trial"",""time""
""fullscreenenter"",""0"",""3674""
","
","
","""event"",""trial"",""time""
""fullscreenenter"",""0"",""3674""
","
","287.90000000596046","<div class='center'><p>That's correct!</p><div><p><b>[Press the space bar to continue]</b></p></div>","32","","","","","","","",""
"","practice_q3","223","368042","0.0-219.0-2.0","""event"",""trial"",""time""
""fullscreenenter"",""0"",""3674""
","
","
","""event"",""trial"",""time""
""fullscreenenter"",""0"",""3674""
","
","1048","run_exp/static/audio/clip_16_practice_question.m4a","66","","","","","","","",""
"","correct","224","370041","0.0-220.0-0.0","""event"",""trial"",""time""
""fullscreenenter"",""0"",""3674""
","
","
","""event"",""trial"",""time""
""fullscreenenter"",""0"",""3674""
","
","null","run_exp/static/audio/clip_17_correct.m4a","null","","","","","<div class='center'><p>That's correct!</p></div>","","",""
"","html-keyboard-response","225","370262","0.0-220.0-1.0","""event"",""trial"",""time""
""fullscreenenter"",""0"",""3674""
","
","
","""event"",""trial"",""time""
""fullscreenenter"",""0"",""3674""
","
","220.1000000089407","<div class='center'><p>That's correct!</p><div><p><b>[Press the space bar to continue]</b></p></div>","32","","","","","","","",""
"","begin_text","226","388724","0.0-221.0-0.0","""event"",""trial"",""time""
""fullscreenenter"",""0"",""3674""
","
","
","""event"",""trial"",""time""
""fullscreenenter"",""0"",""3674""
","
","null","run_exp/static/audio/clip_22_begin_test.m4a","null","","","","","<div class='center'><p>On to the real game where well test your memory of items from the indoor/outdoor game. For each item, you need to indicate if the item is <b>old</b> by pressing the <b>v</b> key, <b>similar</b> by pressing the <b>b</b> key, or <b>new</b> by pressing the <b>n</b> key. </p></div>","","",""
"","html-keyboard-response","227","389499","0.0-221.0-1.0","""event"",""trial"",""time""
""fullscreenenter"",""0"",""3674""
","
","
","""event"",""trial"",""time""
""fullscreenenter"",""0"",""3674""
","
","772.7000000029802","<div class='center'><p>On to the real game where well test your memory of items from the indoor/outdoor game. For each item, you need to indicate if the item is <b>old</b> by pressing the <b>v</b> key, <b>similar</b> by pressing the <b>b</b> key, or <b>new</b> by pressing the <b>n</b> key. </p><div><p><b>[Press the space bar to continue]</b></p></div>","32","","","","","","","",""
"","image","228","390642","0.0-222.0-0.0","""event"",""trial"",""time""
""fullscreenenter"",""0"",""3674""
","
","
","""event"",""trial"",""time""
""fullscreenenter"",""0"",""3674""
","
","1142.2000000029802","run_exp/static/images/Set 6_rs/111b.jpg","86","","","","","","test","TL","3"
"","show_choice","229","391158","0.0-222.0-1.0","""event"",""trial"",""time""
""fullscreenenter"",""0"",""3674""
","
","
","""event"",""trial"",""time""
""fullscreenenter"",""0"",""3674""
","
","null","run_exp/static/images/Set 6_rs/111b.jpg","null","","","","","","test","TL",""
"","html-keyboard-response","230","391670","0.0-222.0-2.0","""event"",""trial"",""time""
""fullscreenenter"",""0"",""3674""
","
","
","""event"",""trial"",""time""
""fullscreenenter"",""0"",""3674""
","
","null","<p></p>","null","","","","","","","",""
"","image","231","392879","0.0-223.0-0.0","""event"",""trial"",""time""
""fullscreenenter"",""0"",""3674""
","
","
","""event"",""trial"",""time""
""fullscreenenter"",""0"",""3674""
","
","1207.5999999940395","run_exp/static/images/Set 6_rs/131a.jpg","86","","","","","","test","TR","5"
"","show_choice","232","393395","0.0-223.0-1.0","""event"",""trial"",""time""
""fullscreenenter"",""0"",""3674""
","
","
","""event"",""trial"",""time""
""fullscreenenter"",""0"",""3674""
","
","null","run_exp/static/images/Set 6_rs/131a.jpg","null","","","","","","test","TR",""
"","html-keyboard-response","233","393908","0.0-223.0-2.0","""event"",""trial"",""time""
""fullscreenenter"",""0"",""3674""
","
","
","""event"",""trial"",""time""
""fullscreenenter"",""0"",""3674""
","
","null","<p></p>","null","","","","","","","",""
"","image","234","395693","0.0-224.0-0.0","""event"",""trial"",""time""
""fullscreenenter"",""0"",""3674""
","
","
","""event"",""trial"",""time""
""fullscreenenter"",""0"",""3674""
","
","1783.5","run_exp/static/images/Set 6_rs/140a.jpg","78","","","","","","test","TF","1"
"","show_choice","235","396201","0.0-224.0-1.0","""event"",""trial"",""time""
""fullscreenenter"",""0"",""3674""
","
","
","""event"",""trial"",""time""
""fullscreenenter"",""0"",""3674""
","
","null","run_exp/static/images/Set 6_rs/140a.jpg","null","","","","","","test","TF",""
"","html-keyboard-response","236","396717","0.0-224.0-2.0","""event"",""trial"",""time""
""fullscreenenter"",""0"",""3674""
","
","
","""event"",""trial"",""time""
""fullscreenenter"",""0"",""3674""
","
","null","<p></p>","null","","","","","","","",""
"","image","237","397563","0.0-225.0-0.0","""event"",""trial"",""time""
""fullscreenenter"",""0"",""3674""
","
","
","""event"",""trial"",""time""
""fullscreenenter"",""0"",""3674""
","
","845.3999999910593","run_exp/static/images/Set 6_rs/071b.jpg","66","","","","","","test","TL","4"
"","show_choice","238","398076","0.0-225.0-1.0","""event"",""trial"",""time""
""fullscreenenter"",""0"",""3674""
","
","
","""event"",""trial"",""time""
""fullscreenenter"",""0"",""3674""
","
","null","run_exp/static/images/Set 6_rs/071b.jpg","null","","","","","","test","TL",""
"","html-keyboard-response","239","398591","0.0-225.0-2.0","""event"",""trial"",""time""
""fullscreenenter"",""0"",""3674""
","
","
","""event"",""trial"",""time""
""fullscreenenter"",""0"",""3674""
","
","null","<p></p>","null","","","","","","","",""
"","image","240","399609","0.0-226.0-0.0","""event"",""trial"",""time""
""fullscreenenter"",""0"",""3674""
","
","
","""event"",""trial"",""time""
""fullscreenenter"",""0"",""3674""
","
","1016.6000000089407","run_exp/static/images/Set 6_rs/019b.jpg","66","","","","","","test","TL","2"
"","show_choice","241","400126","0.0-226.0-1.0","""event"",""trial"",""time""
""fullscreenenter"",""0"",""3674""
","
","
","""event"",""trial"",""time""
""fullscreenenter"",""0"",""3674""
","
","null","run_exp/static/images/Set 6_rs/019b.jpg","null","","","","","","test","TL",""
"","html-keyboard-response","242","400628","0.0-226.0-2.0","""event"",""trial"",""time""
""fullscreenenter"",""0"",""3674""
","
","
","""event"",""trial"",""time""
""fullscreenenter"",""0"",""3674""
","
","null","<p></p>","null","","","","","","","",""
"","image","243","401632","0.0-227.0-0.0","""event"",""trial"",""time""
""fullscreenenter"",""0"",""3674""
","
","
","""event"",""trial"",""time""
""fullscreenenter"",""0"",""3674""
","
","1001.9000000059605","run_exp/static/images/Set 6_rs/075a.jpg","86","","","","","","test","TR","1"
"","show_choice","244","402133","0.0-227.0-1.0","""event"",""trial"",""time""
""fullscreenenter"",""0"",""3674""
","
","
","""event"",""trial"",""time""
""fullscreenenter"",""0"",""3674""
","
","null","run_exp/static/images/Set 6_rs/075a.jpg","null","","","","","","test","TR",""
"","html-keyboard-response","245","402637","0.0-227.0-2.0","""event"",""trial"",""time""
""fullscreenenter"",""0"",""3674""
","
","
","""event"",""trial"",""time""
""fullscreenenter"",""0"",""3674""
","
","null","<p></p>","null","","","","","","","",""
"","image","246","403767","0.0-228.0-0.0","""event"",""trial"",""time""
""fullscreenenter"",""0"",""3674""
","
","
","""event"",""trial"",""time""
""fullscreenenter"",""0"",""3674""
","
","1128.6000000089407","run_exp/static/images/Set 6_rs/050b.jpg","66","","","","","","test","TL","3"
"","show_choice","247","404276","0.0-228.0-1.0","""event"",""trial"",""time""
""fullscreenenter"",""0"",""3674""
","
","
","""event"",""trial"",""time""
""fullscreenenter"",""0"",""3674""
","
","null","run_exp/static/images/Set 6_rs/050b.jpg","null","","","","","","test","TL",""
"","html-keyboard-response","248","404791","0.0-228.0-2.0","""event"",""trial"",""time""
""fullscreenenter"",""0"",""3674""
","
","
","""event"",""trial"",""time""
""fullscreenenter"",""0"",""3674""
","
","null","<p></p>","null","","","","","","","",""
"","image","249","406034","0.0-229.0-0.0","""event"",""trial"",""time""
""fullscreenenter"",""0"",""3674""
","
","
","""event"",""trial"",""time""
""fullscreenenter"",""0"",""3674""
","
","1241.5999999940395","run_exp/static/images/Set 6_rs/085b.jpg","86","","","","","","test","TL","1"
"","show_choice","250","406541","0.0-229.0-1.0","""event"",""trial"",""time""
""fullscreenenter"",""0"",""3674""
","
","
","""event"",""trial"",""time""
""fullscreenenter"",""0"",""3674""
","
","null","run_exp/static/images/Set 6_rs/085b.jpg","null","","","","","","test","TL",""
"","html-keyboard-response","251","407043","0.0-229.0-2.0","""event"",""trial"",""time""
""fullscreenenter"",""0"",""3674""
","
","
","""event"",""trial"",""time""
""fullscreenenter"",""0"",""3674""
","
","null","<p></p>","null","","","","","","","",""
"","image","252","408447","0.0-230.0-0.0","""event"",""trial"",""time""
""fullscreenenter"",""0"",""3674""
","
","
","""event"",""trial"",""time""
""fullscreenenter"",""0"",""3674""
","
","1402.4000000059605","run_exp/static/images/Set 6_rs/007a.jpg","86","","","","","","test","TR","3"
"","show_choice","253","408956","0.0-230.0-1.0","""event"",""trial"",""time""
""fullscreenenter"",""0"",""3674""
","
","
","""event"",""trial"",""time""
""fullscreenenter"",""0"",""3674""
","
","null","run_exp/static/images/Set 6_rs/007a.jpg","null","","","","","","test","TR",""
"","html-keyboard-response","254","409459","0.0-230.0-2.0","""event"",""trial"",""time""
""fullscreenenter"",""0"",""3674""
","
","
","""event"",""trial"",""time""
""fullscreenenter"",""0"",""3674""
","
","null","<p></p>","null","","","","","","","",""
"","image","255","410361","0.0-231.0-0.0","""event"",""trial"",""time""
""fullscreenenter"",""0"",""3674""
","
","
","""event"",""trial"",""time""
""fullscreenenter"",""0"",""3674""
","
","900.5999999940395","run_exp/static/images/Set 6_rs/188a.jpg","78","","","","","","test","TF","3"
"","show_choice","256","410870","0.0-231.0-1.0","""event"",""trial"",""time""
""fullscreenenter"",""0"",""3674""
","
","
","""event"",""trial"",""time""
""fullscreenenter"",""0"",""3674""
","
","null","run_exp/static/images/Set 6_rs/188a.jpg","null","","","","","","test","TF",""
"","html-keyboard-response","257","411374","0.0-231.0-2.0","""event"",""trial"",""time""
""fullscreenenter"",""0"",""3674""
","
","
","""event"",""trial"",""time""
""fullscreenenter"",""0"",""3674""
","
","null","<p></p>","null","","","","","","","",""
"","image","258","412410","0.0-232.0-0.0","""event"",""trial"",""time""
""fullscreenenter"",""0"",""3674""
","
","
","""event"",""trial"",""time""
""fullscreenenter"",""0"",""3674""
","
","1034.8999999910593","run_exp/static/images/Set 6_rs/001a.jpg","78","","","","","","test","TF","1"
"","show_choice","259","412915","0.0-232.0-1.0","""event"",""trial"",""time""
""fullscreenenter"",""0"",""3674""
","
","
","""event"",""trial"",""time""
""fullscreenenter"",""0"",""3674""
","
","null","run_exp/static/images/Set 6_rs/001a.jpg","null","","","","","","test","TF",""
"","html-keyboard-response","260","413421","0.0-232.0-2.0","""event"",""trial"",""time""
""fullscreenenter"",""0"",""3674""
","
","
","""event"",""trial"",""time""
""fullscreenenter"",""0"",""3674""
","
","null","<p></p>","null","","","","","","","",""
"","image","261","414370","0.0-233.0-0.0","""event"",""trial"",""time""
""fullscreenenter"",""0"",""3674""
","
","
","""event"",""trial"",""time""
""fullscreenenter"",""0"",""3674""
","
","947.7999999970198","run_exp/static/images/Set 6_rs/116b.jpg","66","","","","","","test","TL","2"
"","show_choice","262","414881","0.0-233.0-1.0","""event"",""trial"",""time""
""fullscreenenter"",""0"",""3674""
","
","
","""event"",""trial"",""time""
""fullscreenenter"",""0"",""3674""
","
","null","run_exp/static/images/Set 6_rs/116b.jpg","null","","","","","","test","TL",""
"","html-keyboard-response","263","415386","0.0-233.0-2.0","""event"",""trial"",""time""
""fullscreenenter"",""0"",""3674""
","
","
","""event"",""trial"",""time""
""fullscreenenter"",""0"",""3674""
","
","null","<p></p>","null","","","","","","","",""
"","image","264","416322","0.0-234.0-0.0","""event"",""trial"",""time""
""fullscreenenter"",""0"",""3674""
","
","
","""event"",""trial"",""time""
""fullscreenenter"",""0"",""3674""
","
","934","run_exp/static/images/Set 6_rs/149a.jpg","66","","","","","","test","TF","1"
"","show_choice","265","416832","0.0-234.0-1.0","""event"",""trial"",""time""
""fullscreenenter"",""0"",""3674""
","
","
","""event"",""trial"",""time""
""fullscreenenter"",""0"",""3674""
","
","null","run_exp/static/images/Set 6_rs/149a.jpg","null","","","","","","test","TF",""
"","html-keyboard-response","266","417336","0.0-234.0-2.0","""event"",""trial"",""time""
""fullscreenenter"",""0"",""3674""
","
","
","""event"",""trial"",""time""
""fullscreenenter"",""0"",""3674""
","
","null","<p></p>","null","","","","","","","",""
"","image","267","418425","0.0-235.0-0.0","""event"",""trial"",""time""
""fullscreenenter"",""0"",""3674""
","
","
","""event"",""trial"",""time""
""fullscreenenter"",""0"",""3674""
","
","1087.9000000059605","run_exp/static/images/Set 6_rs/091b.jpg","66","","","","","","test","TL","3"
"","show_choice","268","418934","0.0-235.0-1.0","""event"",""trial"",""time""
""fullscreenenter"",""0"",""3674""
","
","
","""event"",""trial"",""time""
""fullscreenenter"",""0"",""3674""
","
","null","run_exp/static/images/Set 6_rs/091b.jpg","null","","","","","","test","TL",""
"","html-keyboard-response","269","419436","0.0-235.0-2.0","""event"",""trial"",""time""
""fullscreenenter"",""0"",""3674""
","
","
","""event"",""trial"",""time""
""fullscreenenter"",""0"",""3674""
","
","null","<p></p>","null","","","","","","","",""
"","image","270","420314","0.0-236.0-0.0","""event"",""trial"",""time""
""fullscreenenter"",""0"",""3674""
","
","
","""event"",""trial"",""time""
""fullscreenenter"",""0"",""3674""
","
","877.2000000029802","run_exp/static/images/Set 6_rs/015a.jpg","78","","","","","","test","TF","4"
"","show_choice","271","420816","0.0-236.0-1.0","""event"",""trial"",""time""
""fullscreenenter"",""0"",""3674""
","
","
","""event"",""trial"",""time""
""fullscreenenter"",""0"",""3674""
","
","null","run_exp/static/images/Set 6_rs/015a.jpg","null","","","","","","test","TF",""
"","html-keyboard-response","272","421333","0.0-236.0-2.0","""event"",""trial"",""time""
""fullscreenenter"",""0"",""3674""
","
","
","""event"",""trial"",""time""
""fullscreenenter"",""0"",""3674""
","
","null","<p></p>","null","","","","","","","",""
"","image","273","422473","0.0-237.0-0.0","""event"",""trial"",""time""
""fullscreenenter"",""0"",""3674""
","
","
","""event"",""trial"",""time""
""fullscreenenter"",""0"",""3674""
","
","1138.0999999940395","run_exp/static/images/Set 6_rs/014b.jpg","66","","","","","","test","TL","5"
"","show_choice","274","422980","0.0-237.0-1.0","""event"",""trial"",""time""
""fullscreenenter"",""0"",""3674""
","
","
","""event"",""trial"",""time""
""fullscreenenter"",""0"",""3674""
","
","null","run_exp/static/images/Set 6_rs/014b.jpg","null","","","","","","test","TL",""
"","html-keyboard-response","275","423497","0.0-237.0-2.0","""event"",""trial"",""time""
""fullscreenenter"",""0"",""3674""
","
","
","""event"",""trial"",""time""
""fullscreenenter"",""0"",""3674""
","
","null","<p></p>","null","","","","","","","",""
"","image","276","424649","0.0-238.0-0.0","""event"",""trial"",""time""
""fullscreenenter"",""0"",""3674""
","
","
","""event"",""trial"",""time""
""fullscreenenter"",""0"",""3674""
","
","1150.8999999910593","run_exp/static/images/Set 6_rs/122a.jpg","86","","","","","","test","TR","5"
"","show_choice","277","425162","0.0-238.0-1.0","""event"",""trial"",""time""
""fullscreenenter"",""0"",""3674""
","
","
","""event"",""trial"",""time""
""fullscreenenter"",""0"",""3674""
","
","null","run_exp/static/images/Set 6_rs/122a.jpg","null","","","","","","test","TR",""
"","html-keyboard-response","278","425666","0.0-238.0-2.0","""event"",""trial"",""time""
""fullscreenenter"",""0"",""3674""
","
","
","""event"",""trial"",""time""
""fullscreenenter"",""0"",""3674""
","
","null","<p></p>","null","","","","","","","",""
"","image","279","426607","0.0-239.0-0.0","""event"",""trial"",""time""
""fullscreenenter"",""0"",""3674""
","
","
","""event"",""trial"",""time""
""fullscreenenter"",""0"",""3674""
","
","938.7000000029802","run_exp/static/images/Set 6_rs/005a.jpg","78","","","","","","test","TF","5"
"","show_choice","280","427123","0.0-239.0-1.0","""event"",""trial"",""time""
""fullscreenenter"",""0"",""3674""
","
","
","""event"",""trial"",""time""
""fullscreenenter"",""0"",""3674""
","
","null","run_exp/static/images/Set 6_rs/005a.jpg","null","","","","","","test","TF",""
"","html-keyboard-response","281","427630","0.0-239.0-2.0","""event"",""trial"",""time""
""fullscreenenter"",""0"",""3674""
","
","
","""event"",""trial"",""time""
""fullscreenenter"",""0"",""3674""
","
","null","<p></p>","null","","","","","","","",""
"","image","282","428616","0.0-240.0-0.0","""event"",""trial"",""time""
""fullscreenenter"",""0"",""3674""
","
","
","""event"",""trial"",""time""
""fullscreenenter"",""0"",""3674""
","
","984.6000000089407","run_exp/static/images/Set 6_rs/064a.jpg","86","","","","","","test","TR","5"
"","show_choice","283","429129","0.0-240.0-1.0","""event"",""trial"",""time""
""fullscreenenter"",""0"",""3674""
","
","
","""event"",""trial"",""time""
""fullscreenenter"",""0"",""3674""
","
","null","run_exp/static/images/Set 6_rs/064a.jpg","null","","","","","","test","TR",""
"","html-keyboard-response","284","429634","0.0-240.0-2.0","""event"",""trial"",""time""
""fullscreenenter"",""0"",""3674""
","
","
","""event"",""trial"",""time""
""fullscreenenter"",""0"",""3674""
","
","null","<p></p>","null","","","","","","","",""
"","image","285","430784","0.0-241.0-0.0","""event"",""trial"",""time""
""fullscreenenter"",""0"",""3674""
","
","
","""event"",""trial"",""time""
""fullscreenenter"",""0"",""3674""
","
","1147.199999988079","run_exp/static/images/Set 6_rs/077a.jpg","78","","","","","","test","TF","3"
"","show_choice","286","431297","0.0-241.0-1.0","""event"",""trial"",""time""
""fullscreenenter"",""0"",""3674""
","
","
","""event"",""trial"",""time""
""fullscreenenter"",""0"",""3674""
","
","null","run_exp/static/images/Set 6_rs/077a.jpg","null","","","","","","test","TF",""
"","html-keyboard-response","287","431799","0.0-241.0-2.0","""event"",""trial"",""time""
""fullscreenenter"",""0"",""3674""
","
","
","""event"",""trial"",""time""
""fullscreenenter"",""0"",""3674""
","
","null","<p></p>","null","","","","","","","",""
"","image","288","432811","0.0-242.0-0.0","""event"",""trial"",""time""
""fullscreenenter"",""0"",""3674""
","
","
","""event"",""trial"",""time""
""fullscreenenter"",""0"",""3674""
","
","1010.5","run_exp/static/images/Set 6_rs/012a.jpg","86","","","","","","test","TR","1"
"","show_choice","289","433322","0.0-242.0-1.0","""event"",""trial"",""time""
""fullscreenenter"",""0"",""3674""
","
","
","""event"",""trial"",""time""
""fullscreenenter"",""0"",""3674""
","
","null","run_exp/static/images/Set 6_rs/012a.jpg","null","","","","","","test","TR",""
"","html-keyboard-response","290","433824","0.0-242.0-2.0","""event"",""trial"",""time""
""fullscreenenter"",""0"",""3674""
","
","
","""event"",""trial"",""time""
""fullscreenenter"",""0"",""3674""
","
","null","<p></p>","null","","","","","","","",""
"","image","291","434515","0.0-243.0-0.0","""event"",""trial"",""time""
""fullscreenenter"",""0"",""3674""
","
","
","""event"",""trial"",""time""
""fullscreenenter"",""0"",""3674""
","
","688.4000000059605","run_exp/static/images/Set 6_rs/181b.jpg","78","","","","","","test","TL","1"
"","show_choice","292","435018","0.0-243.0-1.0","""event"",""trial"",""time""
""fullscreenenter"",""0"",""3674""
","
","
","""event"",""trial"",""time""
""fullscreenenter"",""0"",""3674""
","
","null","run_exp/static/images/Set 6_rs/181b.jpg","null","","","","","","test","TL",""
"","html-keyboard-response","293","435534","0.0-243.0-2.0","""event"",""trial"",""time""
""fullscreenenter"",""0"",""3674""
","
","
","""event"",""trial"",""time""
""fullscreenenter"",""0"",""3674""
","
","null","<p></p>","null","","","","","","","",""
"","image","294","437238","0.0-244.0-0.0","""event"",""trial"",""time""
""fullscreenenter"",""0"",""3674""
","
","
","""event"",""trial"",""time""
""fullscreenenter"",""0"",""3674""
","
","1703.1000000089407","run_exp/static/images/Set 6_rs/171a.jpg","78","","","","","","test","TF","1"
"","show_choice","295","437753","0.0-244.0-1.0","""event"",""trial"",""time""
""fullscreenenter"",""0"",""3674""
","
","
","""event"",""trial"",""time""
""fullscreenenter"",""0"",""3674""
","
","null","run_exp/static/images/Set 6_rs/171a.jpg","null","","","","","","test","TF",""
"","html-keyboard-response","296","438254","0.0-244.0-2.0","""event"",""trial"",""time""
""fullscreenenter"",""0"",""3674""
","
","
","""event"",""trial"",""time""
""fullscreenenter"",""0"",""3674""
","
","null","<p></p>","null","","","","","","","",""
"","image","297","439209","0.0-245.0-0.0","""event"",""trial"",""time""
""fullscreenenter"",""0"",""3674""
","
","
","""event"",""trial"",""time""
""fullscreenenter"",""0"",""3674""
","
","953.2999999970198","run_exp/static/images/Set 6_rs/155a.jpg","78","","","","","","test","TF","4"
"","show_choice","298","439716","0.0-245.0-1.0","""event"",""trial"",""time""
""fullscreenenter"",""0"",""3674""
","
","
","""event"",""trial"",""time""
""fullscreenenter"",""0"",""3674""
","
","null","run_exp/static/images/Set 6_rs/155a.jpg","null","","","","","","test","TF",""
"","html-keyboard-response","299","440222","0.0-245.0-2.0","""event"",""trial"",""time""
""fullscreenenter"",""0"",""3674""
","
","
","""event"",""trial"",""time""
""fullscreenenter"",""0"",""3674""
","
","null","<p></p>","null","","","","","","","",""
"","image","300","441087","0.0-246.0-0.0","""event"",""trial"",""time""
""fullscreenenter"",""0"",""3674""
","
","
","""event"",""trial"",""time""
""fullscreenenter"",""0"",""3674""
","
","864.2000000029802","run_exp/static/images/Set 6_rs/097a.jpg","78","","","","","","test","TF","5"
"","show_choice","301","441597","0.0-246.0-1.0","""event"",""trial"",""time""
""fullscreenenter"",""0"",""3674""
","
","
","""event"",""trial"",""time""
""fullscreenenter"",""0"",""3674""
","
","null","run_exp/static/images/Set 6_rs/097a.jpg","null","","","","","","test","TF",""
"","html-keyboard-response","302","442113","0.0-246.0-2.0","""event"",""trial"",""time""
""fullscreenenter"",""0"",""3674""
","
","
","""event"",""trial"",""time""
""fullscreenenter"",""0"",""3674""
","
","null","<p></p>","null","","","","","","","",""
"","image","303","443379","0.0-247.0-0.0","""event"",""trial"",""time""
""fullscreenenter"",""0"",""3674""
","
","
","""event"",""trial"",""time""
""fullscreenenter"",""0"",""3674""
","
","1264.4000000059605","run_exp/static/images/Set 6_rs/176a.jpg","66","","","","","","test","TF","4"
"","show_choice","304","443887","0.0-247.0-1.0","""event"",""trial"",""time""
""fullscreenenter"",""0"",""3674""
","
","
","""event"",""trial"",""time""
""fullscreenenter"",""0"",""3674""
","
","null","run_exp/static/images/Set 6_rs/176a.jpg","null","","","","","","test","TF",""
"","html-keyboard-response","305","444391","0.0-247.0-2.0","""event"",""trial"",""time""
""fullscreenenter"",""0"",""3674""
","
","
","""event"",""trial"",""time""
""fullscreenenter"",""0"",""3674""
","
","null","<p></p>","null","","","","","","","",""
"","image","306","445253","0.0-248.0-0.0","""event"",""trial"",""time""
""fullscreenenter"",""0"",""3674""
","
","
","""event"",""trial"",""time""
""fullscreenenter"",""0"",""3674""
","
","860","run_exp/static/images/Set 6_rs/063a.jpg","86","","","","","","test","TR","2"
"","show_choice","307","445769","0.0-248.0-1.0","""event"",""trial"",""time""
""fullscreenenter"",""0"",""3674""
","
","
","""event"",""trial"",""time""
""fullscreenenter"",""0"",""3674""
","
","null","run_exp/static/images/Set 6_rs/063a.jpg","null","","","","","","test","TR",""
"","html-keyboard-response","308","446285","0.0-248.0-2.0","""event"",""trial"",""time""
""fullscreenenter"",""0"",""3674""
","
","
","""event"",""trial"",""time""
""fullscreenenter"",""0"",""3674""
","
","null","<p></p>","null","","","","","","","",""
"","image","309","447584","0.0-249.0-0.0","""event"",""trial"",""time""
""fullscreenenter"",""0"",""3674""
","
","
","""event"",""trial"",""time""
""fullscreenenter"",""0"",""3674""
","
","1293.2999999970198","run_exp/static/images/Set 6_rs/167b.jpg","66","","","","","","test","TL","2"
"","show_choice","310","448085","0.0-249.0-1.0","""event"",""trial"",""time""
""fullscreenenter"",""0"",""3674""
","
","
","""event"",""trial"",""time""
""fullscreenenter"",""0"",""3674""
","
","null","run_exp/static/images/Set 6_rs/167b.jpg","null","","","","","","test","TL",""
"","html-keyboard-response","311","448602","0.0-249.0-2.0","""event"",""trial"",""time""
""fullscreenenter"",""0"",""3674""
","
","
","""event"",""trial"",""time""
""fullscreenenter"",""0"",""3674""
","
","null","<p></p>","null","","","","","","","",""
"","image","312","449541","0.0-250.0-0.0","""event"",""trial"",""time""
""fullscreenenter"",""0"",""3674""
","
","
","""event"",""trial"",""time""
""fullscreenenter"",""0"",""3674""
","
","937.5","run_exp/static/images/Set 6_rs/090a.jpg","78","","","","","","test","TF","5"
"","show_choice","313","450047","0.0-250.0-1.0","""event"",""trial"",""time""
""fullscreenenter"",""0"",""3674""
","
","
","""event"",""trial"",""time""
""fullscreenenter"",""0"",""3674""
","
","null","run_exp/static/images/Set 6_rs/090a.jpg","null","","","","","","test","TF",""
"","html-keyboard-response","314","450550","0.0-250.0-2.0","""event"",""trial"",""time""
""fullscreenenter"",""0"",""3674""
","
","
","""event"",""trial"",""time""
""fullscreenenter"",""0"",""3674""
","
","null","<p></p>","null","","","","","","","",""
"","image","315","451957","0.0-251.0-0.0","""event"",""trial"",""time""
""fullscreenenter"",""0"",""3674""
","
","
","""event"",""trial"",""time""
""fullscreenenter"",""0"",""3674""
","
","1405.7999999970198","run_exp/static/images/Set 6_rs/062b.jpg","86","","","","","","test","TL","1"
"","show_choice","316","452465","0.0-251.0-1.0","""event"",""trial"",""time""
""fullscreenenter"",""0"",""3674""
","
","
","""event"",""trial"",""time""
""fullscreenenter"",""0"",""3674""
","
","null","run_exp/static/images/Set 6_rs/062b.jpg","null","","","","","","test","TL",""
"","html-keyboard-response","317","452968","0.0-251.0-2.0","""event"",""trial"",""time""
""fullscreenenter"",""0"",""3674""
","
","
","""event"",""trial"",""time""
""fullscreenenter"",""0"",""3674""
","
","null","<p></p>","null","","","","","","","",""
"","image","318","454298","0.0-252.0-0.0","""event"",""trial"",""time""
""fullscreenenter"",""0"",""3674""
","
","
","""event"",""trial"",""time""
""fullscreenenter"",""0"",""3674""
","
","1328.4000000059605","run_exp/static/images/Set 6_rs/089b.jpg","66","","","","","","test","TL","4"
"","show_choice","319","454810","0.0-252.0-1.0","""event"",""trial"",""time""
""fullscreenenter"",""0"",""3674""
","
","
","""event"",""trial"",""time""
""fullscreenenter"",""0"",""3674""
","
","null","run_exp/static/images/Set 6_rs/089b.jpg","null","","","","","","test","TL",""
"","html-keyboard-response","320","455312","0.0-252.0-2.0","""event"",""trial"",""time""
""fullscreenenter"",""0"",""3674""
","
","
","""event"",""trial"",""time""
""fullscreenenter"",""0"",""3674""
","
","null","<p></p>","null","","","","","","","",""
"","image","321","456513","0.0-253.0-0.0","""event"",""trial"",""time""
""fullscreenenter"",""0"",""3674""
","
","
","""event"",""trial"",""time""
""fullscreenenter"",""0"",""3674""
","
","1199","run_exp/static/images/Set 6_rs/121a.jpg","86","","","","","","test","TR","4"
"","show_choice","322","457023","0.0-253.0-1.0","""event"",""trial"",""time""
""fullscreenenter"",""0"",""3674""
","
","
","""event"",""trial"",""time""
""fullscreenenter"",""0"",""3674""
","
","null","run_exp/static/images/Set 6_rs/121a.jpg","null","","","","","","test","TR",""
"","html-keyboard-response","323","457527","0.0-253.0-2.0","""event"",""trial"",""time""
""fullscreenenter"",""0"",""3674""
","
","
","""event"",""trial"",""time""
""fullscreenenter"",""0"",""3674""
","
","null","<p></p>","null","","","","","","","",""
"","image","324","458585","0.0-254.0-0.0","""event"",""trial"",""time""
""fullscreenenter"",""0"",""3674""
","
","
","""event"",""trial"",""time""
""fullscreenenter"",""0"",""3674""
","
","1056.5","run_exp/static/images/Set 6_rs/154a.jpg","86","","","","","","test","TR","3"
"","show_choice","325","459094","0.0-254.0-1.0","""event"",""trial"",""time""
""fullscreenenter"",""0"",""3674""
","
","
","""event"",""trial"",""time""
""fullscreenenter"",""0"",""3674""
","
","null","run_exp/static/images/Set 6_rs/154a.jpg","null","","","","","","test","TR",""
"","html-keyboard-response","326","459598","0.0-254.0-2.0","""event"",""trial"",""time""
""fullscreenenter"",""0"",""3674""
","
","
","""event"",""trial"",""time""
""fullscreenenter"",""0"",""3674""
","
","null","<p></p>","null","","","","","","","",""
"","image","327","460371","0.0-255.0-0.0","""event"",""trial"",""time""
""fullscreenenter"",""0"",""3674""
","
","
","""event"",""trial"",""time""
""fullscreenenter"",""0"",""3674""
","
","772.3999999910593","run_exp/static/images/Set 6_rs/088a.jpg","86","","","","","","test","TR","2"
"","show_choice","328","460883","0.0-255.0-1.0","""event"",""trial"",""time""
""fullscreenenter"",""0"",""3674""
","
","
","""event"",""trial"",""time""
""fullscreenenter"",""0"",""3674""
","
","null","run_exp/static/images/Set 6_rs/088a.jpg","null","","","","","","test","TR",""
"","html-keyboard-response","329","461400","0.0-255.0-2.0","""event"",""trial"",""time""
""fullscreenenter"",""0"",""3674""
","
","
","""event"",""trial"",""time""
""fullscreenenter"",""0"",""3674""
","
","null","<p></p>","null","","","","","","","",""
"","image","330","462376","0.0-256.0-0.0","""event"",""trial"",""time""
""fullscreenenter"",""0"",""3674""
","
","
","""event"",""trial"",""time""
""fullscreenenter"",""0"",""3674""
","
","974.7999999970198","run_exp/static/images/Set 6_rs/123b.jpg","66","","","","","","test","TL","2"
"","show_choice","331","462878","0.0-256.0-1.0","""event"",""trial"",""time""
""fullscreenenter"",""0"",""3674""
","
","
","""event"",""trial"",""time""
""fullscreenenter"",""0"",""3674""
","
","null","run_exp/static/images/Set 6_rs/123b.jpg","null","","","","","","test","TL",""
"","html-keyboard-response","332","463394","0.0-256.0-2.0","""event"",""trial"",""time""
""fullscreenenter"",""0"",""3674""
","
","
","""event"",""trial"",""time""
""fullscreenenter"",""0"",""3674""
","
","null","<p></p>","null","","","","","","","",""
"","image","333","464388","0.0-257.0-0.0","""event"",""trial"",""time""
""fullscreenenter"",""0"",""3674""
","
","
","""event"",""trial"",""time""
""fullscreenenter"",""0"",""3674""
","
","992.3999999910593","run_exp/static/images/Set 6_rs/126a.jpg","86","","","","","","test","TR","2"
"","show_choice","334","464889","0.0-257.0-1.0","""event"",""trial"",""time""
""fullscreenenter"",""0"",""3674""
","
","
","""event"",""trial"",""time""
""fullscreenenter"",""0"",""3674""
","
","null","run_exp/static/images/Set 6_rs/126a.jpg","null","","","","","","test","TR",""
"","html-keyboard-response","335","465391","0.0-257.0-2.0","""event"",""trial"",""time""
""fullscreenenter"",""0"",""3674""
","
","
","""event"",""trial"",""time""
""fullscreenenter"",""0"",""3674""
","
","null","<p></p>","null","","","","","","","",""
"","image","336","466054","0.0-258.0-0.0","""event"",""trial"",""time""
""fullscreenenter"",""0"",""3674""
","
","
","""event"",""trial"",""time""
""fullscreenenter"",""0"",""3674""
","
","660.5999999940395","run_exp/static/images/Set 6_rs/186a.jpg","86","","","","","","test","TR","5"
"","show_choice","337","466555","0.0-258.0-1.0","""event"",""trial"",""time""
""fullscreenenter"",""0"",""3674""
","
","
","""event"",""trial"",""time""
""fullscreenenter"",""0"",""3674""
","
","null","run_exp/static/images/Set 6_rs/186a.jpg","null","","","","","","test","TR",""
"","html-keyboard-response","338","467060","0.0-258.0-2.0","""event"",""trial"",""time""
""fullscreenenter"",""0"",""3674""
","
","
","""event"",""trial"",""time""
""fullscreenenter"",""0"",""3674""
","
","null","<p></p>","null","","","","","","","",""
"","image","339","468114","0.0-259.0-0.0","""event"",""trial"",""time""
""fullscreenenter"",""0"",""3674""
","
","
","""event"",""trial"",""time""
""fullscreenenter"",""0"",""3674""
","
","1052.7000000029802","run_exp/static/images/Set 6_rs/025b.jpg","66","","","","","","test","TL","5"
"","show_choice","340","468617","0.0-259.0-1.0","""event"",""trial"",""time""
""fullscreenenter"",""0"",""3674""
","
","
","""event"",""trial"",""time""
""fullscreenenter"",""0"",""3674""
","
","null","run_exp/static/images/Set 6_rs/025b.jpg","null","","","","","","test","TL",""
