"success","trial_type","trial_index","time_elapsed","internal_node_id","interactions","blur_events","focus_events","fullscreenenter_events","fullscreenexit_events","rt","stimulus","key_press","subject_id","participant_id","age","gender","prompt","phase","condition","lure_bin"
"true","fullscreen","0","25327","0.0-0.0","""event"",""trial"",""time""
""fullscreenenter"",""0"",""24345""
","
","
","""event"",""trial"",""time""
""fullscreenenter"",""0"",""24345""
","
","","","","","","","","","","",""
"","pavlovia","1","25332","0.0-1.0","""event"",""trial"",""time""
""fullscreenenter"",""0"",""24345""
","
","
","""event"",""trial"",""time""
""fullscreenenter"",""0"",""24345""
","
","","","","","","","","","","",""
"","welcome","2","61532","0.0-2.0","""event"",""trial"",""time""
""fullscreenenter"",""0"",""24345""
","
","
","""event"",""trial"",""time""
""fullscreenenter"",""0"",""24345""
","
","null","run_exp/static/audio/clip_1_welcome.m4a","null","1458","1063","9","Female","<div class='center'><p>Welcome to the third part of the study! First, you'll be shown pictures of items one at a time. For each picture, you have to decide if the item is typically found indoors or outdoors.</p><p>If you think it's usually found indoors, then press <b>v</b> key on your keyboard. If you think it's usually found outdoors, then press the <b>n</b> key.There will be reminders on the screen to help you remember which keys to press. </p><p>If you're not sure whether the item is an indoor item or an outdoor item, go ahead and take a guess but try your best not to skip that choice. </p></div>","","",""
"","html-keyboard-response","3","66366","0.0-3.0","""event"",""trial"",""time""
""fullscreenenter"",""0"",""24345""
","
","
","""event"",""trial"",""time""
""fullscreenenter"",""0"",""24345""
","
","4819.400000095367","<div class='center'><p>Welcome to the third part of the study! First, you'll be shown pictures of items one at a time. For each picture, you have to decide if the item is typically found indoors or outdoors.</p><p>If you think it's usually found indoors, then press <b>v</b> key on your keyboard. If you think it's usually found outdoors, then press the <b>n</b> key.There will be reminders on the screen to help you remember which keys to press. </p><p>If you're not sure whether the item is an indoor item or an outdoor item, go ahead and take a guess but try your best not to skip that choice. </p><div><p><b>[Press the space bar to continue]</b></p></div>","32","","","","","","","",""
"","image","4","68372","0.0-4.0","""event"",""trial"",""time""
""fullscreenenter"",""0"",""24345""
","
","
","""event"",""trial"",""time""
""fullscreenenter"",""0"",""24345""
","
","null","run_exp/static/images/Set 6_rs/019a.jpg","null","","","","","","learn","SL",""
"","show_choice","5","70386","0.0-5.0","""event"",""trial"",""time""
""fullscreenenter"",""0"",""24345""
","
","
","""event"",""trial"",""time""
""fullscreenenter"",""0"",""24345""
","
","null","run_exp/static/images/blank.png","null","","","","","","learn","SL",""
"","html-keyboard-response","6","70896","0.0-6.0","""event"",""trial"",""time""
""fullscreenenter"",""0"",""24345""
","
","
","""event"",""trial"",""time""
""fullscreenenter"",""0"",""24345""
","
","null","<p></p>","null","","","","","","","",""
"","image","7","72669","0.0-7.0","""event"",""trial"",""time""
""fullscreenenter"",""0"",""24345""
","
","
","""event"",""trial"",""time""
""fullscreenenter"",""0"",""24345""
","
","1770.1000001430511","run_exp/static/images/Set 6_rs/014a.jpg","86","","","","","","learn","SL",""
"","show_choice","8","72911","0.0-8.0","""event"",""trial"",""time""
""fullscreenenter"",""0"",""24345""
","
","
","""event"",""trial"",""time""
""fullscreenenter"",""0"",""24345""
","
","null","run_exp/static/images/Set 6_rs/014a.jpg","null","","","","","","learn","SL",""
"","html-keyboard-response","9","73427","0.0-9.0","""event"",""trial"",""time""
""fullscreenenter"",""0"",""24345""
","
","
","""event"",""trial"",""time""
""fullscreenenter"",""0"",""24345""
","
","null","<p></p>","null","","","","","","","",""
"","image","10","74580","0.0-10.0","""event"",""trial"",""time""
""fullscreenenter"",""0"",""24345""
","
","
","""event"",""trial"",""time""
""fullscreenenter"",""0"",""24345""
","
","1150.1000001430511","run_exp/static/images/Set 6_rs/050a.jpg","86","","","","","","learn","SL",""
"","show_choice","11","75446","0.0-11.0","""event"",""trial"",""time""
""fullscreenenter"",""0"",""24345""
","
","
","""event"",""trial"",""time""
""fullscreenenter"",""0"",""24345""
","
","null","run_exp/static/images/Set 6_rs/050a.jpg","null","","","","","","learn","SL",""
"","html-keyboard-response","12","75962","0.0-12.0","""event"",""trial"",""time""
""fullscreenenter"",""0"",""24345""
","
","
","""event"",""trial"",""time""
""fullscreenenter"",""0"",""24345""
","
","null","<p></p>","null","","","","","","","",""
"","image","13","77037","0.0-13.0","""event"",""trial"",""time""
""fullscreenenter"",""0"",""24345""
","
","
","""event"",""trial"",""time""
""fullscreenenter"",""0"",""24345""
","
","1071.5999999046326","run_exp/static/images/Set 6_rs/121a.jpg","86","","","","","","learn","SR",""
"","show_choice","14","77977","0.0-14.0","""event"",""trial"",""time""
""fullscreenenter"",""0"",""24345""
","
","
","""event"",""trial"",""time""
""fullscreenenter"",""0"",""24345""
","
","null","run_exp/static/images/Set 6_rs/121a.jpg","null","","","","","","learn","SR",""
"","html-keyboard-response","15","78485","0.0-15.0","""event"",""trial"",""time""
""fullscreenenter"",""0"",""24345""
","
","
","""event"",""trial"",""time""
""fullscreenenter"",""0"",""24345""
","
","null","<p></p>","null","","","","","","","",""
"","image","16","79239","0.0-16.0","""event"",""trial"",""time""
""fullscreenenter"",""0"",""24345""
","
","
","""event"",""trial"",""time""
""fullscreenenter"",""0"",""24345""
","
","751.5","run_exp/static/images/Set 6_rs/172a.jpg","78","","","","","","learn","SR",""
"","show_choice","17","80502","0.0-17.0","""event"",""trial"",""time""
""fullscreenenter"",""0"",""24345""
","
","
","""event"",""trial"",""time""
""fullscreenenter"",""0"",""24345""
","
","null","run_exp/static/images/Set 6_rs/172a.jpg","null","","","","","","learn","SR",""
"","html-keyboard-response","18","81019","0.0-18.0","""event"",""trial"",""time""
""fullscreenenter"",""0"",""24345""
","
","
","""event"",""trial"",""time""
""fullscreenenter"",""0"",""24345""
","
","null","<p></p>","null","","","","","","","",""
"","image","19","83026","0.0-19.0","""event"",""trial"",""time""
""fullscreenenter"",""0"",""24345""
","
","
","""event"",""trial"",""time""
""fullscreenenter"",""0"",""24345""
","
","null","run_exp/static/images/Set 6_rs/122a.jpg","null","","","","","","learn","SR",""
"","show_choice","20","85034","0.0-20.0","""event"",""trial"",""time""
""fullscreenenter"",""0"",""24345""
","
","
","""event"",""trial"",""time""
""fullscreenenter"",""0"",""24345""
","
","null","run_exp/static/images/blank.png","null","","","","","","learn","SR",""
"","html-keyboard-response","21","85547","0.0-21.0","""event"",""trial"",""time""
""fullscreenenter"",""0"",""24345""
","
","
","""event"",""trial"",""time""
""fullscreenenter"",""0"",""24345""
","
","null","<p></p>","null","","","","","","","",""
"","image","22","86249","0.0-22.0","""event"",""trial"",""time""
""fullscreenenter"",""0"",""24345""
","
","
","""event"",""trial"",""time""
""fullscreenenter"",""0"",""24345""
","
","699.2999999523163","run_exp/static/images/Set 6_rs/079a.jpg","86","","","","","","learn","SL",""
"","show_choice","23","87560","0.0-23.0","""event"",""trial"",""time""
""fullscreenenter"",""0"",""24345""
","
","
","""event"",""trial"",""time""
""fullscreenenter"",""0"",""24345""
","
","null","run_exp/static/images/Set 6_rs/079a.jpg","null","","","","","","learn","SL",""
"","html-keyboard-response","24","88064","0.0-24.0","""event"",""trial"",""time""
""fullscreenenter"",""0"",""24345""
","
","
","""event"",""trial"",""time""
""fullscreenenter"",""0"",""24345""
","
","null","<p></p>","null","","","","","","","",""
"","image","25","89204","0.0-25.0","""event"",""trial"",""time""
""fullscreenenter"",""0"",""24345""
","
","
","""event"",""trial"",""time""
""fullscreenenter"",""0"",""24345""
","
","1137.8999998569489","run_exp/static/images/Set 6_rs/070a.jpg","78","","","","","","learn","SR",""
"","show_choice","26","90071","0.0-26.0","""event"",""trial"",""time""
""fullscreenenter"",""0"",""24345""
","
","
","""event"",""trial"",""time""
""fullscreenenter"",""0"",""24345""
","
","null","run_exp/static/images/Set 6_rs/070a.jpg","null","","","","","","learn","SR",""
"","html-keyboard-response","27","90587","0.0-27.0","""event"",""trial"",""time""
""fullscreenenter"",""0"",""24345""
","
","
","""event"",""trial"",""time""
""fullscreenenter"",""0"",""24345""
","
","null","<p></p>","null","","","","","","","",""
"","image","28","92440","0.0-28.0","""event"",""trial"",""time""
""fullscreenenter"",""0"",""24345""
","
","
","""event"",""trial"",""time""
""fullscreenenter"",""0"",""24345""
","
","1850","run_exp/static/images/Set 6_rs/095a.jpg","86","","","","","","learn","SL",""
"","show_choice","29","92599","0.0-29.0","""event"",""trial"",""time""
""fullscreenenter"",""0"",""24345""
","
","
","""event"",""trial"",""time""
""fullscreenenter"",""0"",""24345""
","
","null","run_exp/static/images/Set 6_rs/095a.jpg","null","","","","","","learn","SL",""
"","html-keyboard-response","30","93106","0.0-30.0","""event"",""trial"",""time""
""fullscreenenter"",""0"",""24345""
","
","
","""event"",""trial"",""time""
""fullscreenenter"",""0"",""24345""
","
","null","<p></p>","null","","","","","","","",""
"","image","31","94290","0.0-31.0","""event"",""trial"",""time""
""fullscreenenter"",""0"",""24345""
","
","
","""event"",""trial"",""time""
""fullscreenenter"",""0"",""24345""
","
","1181.5","run_exp/static/images/Set 6_rs/131a.jpg","86","","","","","","learn","SR",""
"","show_choice","32","95120","0.0-32.0","""event"",""trial"",""time""
""fullscreenenter"",""0"",""24345""
","
","
","""event"",""trial"",""time""
""fullscreenenter"",""0"",""24345""
","
","null","run_exp/static/images/Set 6_rs/131a.jpg","null","","","","","","learn","SR",""
"","html-keyboard-response","33","95623","0.0-33.0","""event"",""trial"",""time""
""fullscreenenter"",""0"",""24345""
","
","
","""event"",""trial"",""time""
""fullscreenenter"",""0"",""24345""
","
","null","<p></p>","null","","","","","","","",""
"","image","34","96757","0.0-34.0","""event"",""trial"",""time""
""fullscreenenter"",""0"",""24345""
","
","
","""event"",""trial"",""time""
""fullscreenenter"",""0"",""24345""
","
","1131.6000001430511","run_exp/static/images/Set 6_rs/088a.jpg","86","","","","","","learn","SR",""
"","show_choice","35","97631","0.0-35.0","""event"",""trial"",""time""
""fullscreenenter"",""0"",""24345""
","
","
","""event"",""trial"",""time""
""fullscreenenter"",""0"",""24345""
","
","null","run_exp/static/images/Set 6_rs/088a.jpg","null","","","","","","learn","SR",""
"","html-keyboard-response","36","98136","0.0-36.0","""event"",""trial"",""time""
""fullscreenenter"",""0"",""24345""
","
","
","""event"",""trial"",""time""
""fullscreenenter"",""0"",""24345""
","
","null","<p></p>","null","","","","","","","",""
"","image","37","99237","0.0-37.0","""event"",""trial"",""time""
""fullscreenenter"",""0"",""24345""
","
","
","""event"",""trial"",""time""
""fullscreenenter"",""0"",""24345""
","
","1098.5999999046326","run_exp/static/images/Set 6_rs/117a.jpg","78","","","","","","learn","SL",""
"","show_choice","38","100142","0.0-38.0","""event"",""trial"",""time""
""fullscreenenter"",""0"",""24345""
","
","
","""event"",""trial"",""time""
""fullscreenenter"",""0"",""24345""
","
","null","run_exp/static/images/Set 6_rs/117a.jpg","null","","","","","","learn","SL",""
"","html-keyboard-response","39","100649","0.0-39.0","""event"",""trial"",""time""
""fullscreenenter"",""0"",""24345""
","
","
","""event"",""trial"",""time""
""fullscreenenter"",""0"",""24345""
","
","null","<p></p>","null","","","","","","","",""
"","image","40","102132","0.0-40.0","""event"",""trial"",""time""
""fullscreenenter"",""0"",""24345""
","
","
","""event"",""trial"",""time""
""fullscreenenter"",""0"",""24345""
","
","1480.1000001430511","run_exp/static/images/Set 6_rs/112a.jpg","86","","","","","","learn","SR",""
"","show_choice","41","102664","0.0-41.0","""event"",""trial"",""time""
""fullscreenenter"",""0"",""24345""
","
","
","""event"",""trial"",""time""
""fullscreenenter"",""0"",""24345""
","
","null","run_exp/static/images/Set 6_rs/112a.jpg","null","","","","","","learn","SR",""
"","html-keyboard-response","42","103166","0.0-42.0","""event"",""trial"",""time""
""fullscreenenter"",""0"",""24345""
","
","
","""event"",""trial"",""time""
""fullscreenenter"",""0"",""24345""
","
","null","<p></p>","null","","","","","","","",""
"","image","43","104023","0.0-43.0","""event"",""trial"",""time""
""fullscreenenter"",""0"",""24345""
","
","
","""event"",""trial"",""time""
""fullscreenenter"",""0"",""24345""
","
","855","run_exp/static/images/Set 6_rs/132a.jpg","86","","","","","","learn","SR",""
"","show_choice","44","105173","0.0-44.0","""event"",""trial"",""time""
""fullscreenenter"",""0"",""24345""
","
","
","""event"",""trial"",""time""
""fullscreenenter"",""0"",""24345""
","
","null","run_exp/static/images/Set 6_rs/132a.jpg","null","","","","","","learn","SR",""
"","html-keyboard-response","45","105689","0.0-45.0","""event"",""trial"",""time""
""fullscreenenter"",""0"",""24345""
","
","
","""event"",""trial"",""time""
""fullscreenenter"",""0"",""24345""
","
","null","<p></p>","null","","","","","","","",""
"","image","46","106536","0.0-46.0","""event"",""trial"",""time""
""fullscreenenter"",""0"",""24345""
","
","
","""event"",""trial"",""time""
""fullscreenenter"",""0"",""24345""
","
","844.2999999523163","run_exp/static/images/Set 6_rs/057a.jpg","86","","","","","","learn","SL",""
"","show_choice","47","107701","0.0-47.0","""event"",""trial"",""time""
""fullscreenenter"",""0"",""24345""
","
","
","""event"",""trial"",""time""
""fullscreenenter"",""0"",""24345""
","
","null","run_exp/static/images/Set 6_rs/057a.jpg","null","","","","","","learn","SL",""
"","html-keyboard-response","48","108210","0.0-48.0","""event"",""trial"",""time""
""fullscreenenter"",""0"",""24345""
","
","
","""event"",""trial"",""time""
""fullscreenenter"",""0"",""24345""
","
","null","<p></p>","null","","","","","","","",""
"","image","49","109068","0.0-49.0","""event"",""trial"",""time""
""fullscreenenter"",""0"",""24345""
","
","
","""event"",""trial"",""time""
""fullscreenenter"",""0"",""24345""
","
","855.2999999523163","run_exp/static/images/Set 6_rs/024a.jpg","86","","","","","","learn","SR",""
"","show_choice","50","110221","0.0-50.0","""event"",""trial"",""time""
""fullscreenenter"",""0"",""24345""
","
","
","""event"",""trial"",""time""
""fullscreenenter"",""0"",""24345""
","
","null","run_exp/static/images/Set 6_rs/024a.jpg","null","","","","","","learn","SR",""
"","html-keyboard-response","51","110726","0.0-51.0","""event"",""trial"",""time""
""fullscreenenter"",""0"",""24345""
","
","
","""event"",""trial"",""time""
""fullscreenenter"",""0"",""24345""
","
","null","<p></p>","null","","","","","","","",""
"","image","52","111673","0.0-52.0","""event"",""trial"",""time""
""fullscreenenter"",""0"",""24345""
","
","
","""event"",""trial"",""time""
""fullscreenenter"",""0"",""24345""
","
","943.2999999523163","run_exp/static/images/Set 6_rs/169a.jpg","78","","","","","","learn","SR",""
"","show_choice","53","112737","0.0-53.0","""event"",""trial"",""time""
""fullscreenenter"",""0"",""24345""
","
","
","""event"",""trial"",""time""
""fullscreenenter"",""0"",""24345""
","
","null","run_exp/static/images/Set 6_rs/169a.jpg","null","","","","","","learn","SR",""
"","html-keyboard-response","54","113254","0.0-54.0","""event"",""trial"",""time""
""fullscreenenter"",""0"",""24345""
","
","
","""event"",""trial"",""time""
""fullscreenenter"",""0"",""24345""
","
","null","<p></p>","null","","","","","","","",""
"","image","55","115259","0.0-55.0","""event"",""trial"",""time""
""fullscreenenter"",""0"",""24345""
","
","
","""event"",""trial"",""time""
""fullscreenenter"",""0"",""24345""
","
","null","run_exp/static/images/Set 6_rs/036a.jpg","null","","","","","","learn","SL",""
"","show_choice","56","117263","0.0-56.0","""event"",""trial"",""time""
""fullscreenenter"",""0"",""24345""
","
","
","""event"",""trial"",""time""
""fullscreenenter"",""0"",""24345""
","
","null","run_exp/static/images/blank.png","null","","","","","","learn","SL",""
"","html-keyboard-response","57","117770","0.0-57.0","""event"",""trial"",""time""
""fullscreenenter"",""0"",""24345""
","
","
","""event"",""trial"",""time""
""fullscreenenter"",""0"",""24345""
","
","null","<p></p>","null","","","","","","","",""
"","image","58","119012","0.0-58.0","""event"",""trial"",""time""
""fullscreenenter"",""0"",""24345""
","
","
","""event"",""trial"",""time""
""fullscreenenter"",""0"",""24345""
","
","1239.2000000476837","run_exp/static/images/Set 6_rs/167a.jpg","86","","","","","","learn","SL",""
"","show_choice","59","119786","0.0-59.0","""event"",""trial"",""time""
""fullscreenenter"",""0"",""24345""
","
","
","""event"",""trial"",""time""
""fullscreenenter"",""0"",""24345""
","
","null","run_exp/static/images/Set 6_rs/167a.jpg","null","","","","","","learn","SL",""
"","html-keyboard-response","60","120299","0.0-60.0","""event"",""trial"",""time""
""fullscreenenter"",""0"",""24345""
","
","
","""event"",""trial"",""time""
""fullscreenenter"",""0"",""24345""
","
","null","<p></p>","null","","","","","","","",""
"","image","61","121275","0.0-61.0","""event"",""trial"",""time""
""fullscreenenter"",""0"",""24345""
","
","
","""event"",""trial"",""time""
""fullscreenenter"",""0"",""24345""
","
","972.9000000953674","run_exp/static/images/Set 6_rs/071a.jpg","78","","","","","","learn","SL",""
"","show_choice","62","122313","0.0-62.0","""event"",""trial"",""time""
""fullscreenenter"",""0"",""24345""
","
","
","""event"",""trial"",""time""
""fullscreenenter"",""0"",""24345""
","
","null","run_exp/static/images/Set 6_rs/071a.jpg","null","","","","","","learn","SL",""
"","html-keyboard-response","63","122830","0.0-63.0","""event"",""trial"",""time""
""fullscreenenter"",""0"",""24345""
","
","
","""event"",""trial"",""time""
""fullscreenenter"",""0"",""24345""
","
","null","<p></p>","null","","","","","","","",""
"","image","64","124481","0.0-64.0","""event"",""trial"",""time""
""fullscreenenter"",""0"",""24345""
","
","
","""event"",""trial"",""time""
""fullscreenenter"",""0"",""24345""
","
","1648.5","run_exp/static/images/Set 6_rs/016a.jpg","86","","","","","","learn","SL",""
"","show_choice","65","124837","0.0-65.0","""event"",""trial"",""time""
""fullscreenenter"",""0"",""24345""
","
","
","""event"",""trial"",""time""
""fullscreenenter"",""0"",""24345""
","
","null","run_exp/static/images/Set 6_rs/016a.jpg","null","","","","","","learn","SL",""
"","html-keyboard-response","66","125344","0.0-66.0","""event"",""trial"",""time""
""fullscreenenter"",""0"",""24345""
","
","
","""event"",""trial"",""time""
""fullscreenenter"",""0"",""24345""
","
","null","<p></p>","null","","","","","","","",""
"","image","67","126598","0.0-67.0","""event"",""trial"",""time""
""fullscreenenter"",""0"",""24345""
","
","
","""event"",""trial"",""time""
""fullscreenenter"",""0"",""24345""
","
","1251.2000000476837","run_exp/static/images/Set 6_rs/168a.jpg","78","","","","","","learn","SL",""
"","show_choice","68","127358","0.0-68.0","""event"",""trial"",""time""
""fullscreenenter"",""0"",""24345""
","
","
","""event"",""trial"",""time""
""fullscreenenter"",""0"",""24345""
","
","null","run_exp/static/images/Set 6_rs/168a.jpg","null","","","","","","learn","SL",""
"","html-keyboard-response","69","127860","0.0-69.0","""event"",""trial"",""time""
""fullscreenenter"",""0"",""24345""
","
","
","""event"",""trial"",""time""
""fullscreenenter"",""0"",""24345""
","
","null","<p></p>","null","","","","","","","",""
"","image","70","129744","0.0-70.0","""event"",""trial"",""time""
""fullscreenenter"",""0"",""24345""
","
","
","""event"",""trial"",""time""
""fullscreenenter"",""0"",""24345""
","
","1881.4000000953674","run_exp/static/images/Set 6_rs/111a.jpg","86","","","","","","learn","SL",""
"","show_choice","71","129865","0.0-71.0","""event"",""trial"",""time""
""fullscreenenter"",""0"",""24345""
","
","
","""event"",""trial"",""time""
""fullscreenenter"",""0"",""24345""
","
","null","run_exp/static/images/Set 6_rs/111a.jpg","null","","","","","","learn","SL",""
"","html-keyboard-response","72","130371","0.0-72.0","""event"",""trial"",""time""
""fullscreenenter"",""0"",""24345""
","
","
","""event"",""trial"",""time""
""fullscreenenter"",""0"",""24345""
","
","null","<p></p>","null","","","","","","","",""
"","image","73","131451","0.0-73.0","""event"",""trial"",""time""
""fullscreenenter"",""0"",""24345""
","
","
","""event"",""trial"",""time""
""fullscreenenter"",""0"",""24345""
","
","1077.7999999523163","run_exp/static/images/Set 6_rs/150a.jpg","86","","","","","","learn","SR",""
"","show_choice","74","132377","0.0-74.0","""event"",""trial"",""time""
""fullscreenenter"",""0"",""24345""
","
","
","""event"",""trial"",""time""
""fullscreenenter"",""0"",""24345""
","
","null","run_exp/static/images/Set 6_rs/150a.jpg","null","","","","","","learn","SR",""
"","html-keyboard-response","75","132887","0.0-75.0","""event"",""trial"",""time""
""fullscreenenter"",""0"",""24345""
","
","
","""event"",""trial"",""time""
""fullscreenenter"",""0"",""24345""
","
","null","<p></p>","null","","","","","","","",""
"","image","76","134353","0.0-76.0","""event"",""trial"",""time""
""fullscreenenter"",""0"",""24345""
","
","
","""event"",""trial"",""time""
""fullscreenenter"",""0"",""24345""
","
","1463","run_exp/static/images/Set 6_rs/076a.jpg","78","","","","","","learn","SR",""
"","show_choice","77","134900","0.0-77.0","""event"",""trial"",""time""
""fullscreenenter"",""0"",""24345""
","
","
","""event"",""trial"",""time""
""fullscreenenter"",""0"",""24345""
","
","null","run_exp/static/images/Set 6_rs/076a.jpg","null","","","","","","learn","SR",""
"","html-keyboard-response","78","135402","0.0-78.0","""event"",""trial"",""time""
""fullscreenenter"",""0"",""24345""
","
","
","""event"",""trial"",""time""
""fullscreenenter"",""0"",""24345""
","
","null","<p></p>","null","","","","","","","",""
"","image","79","136252","0.0-79.0","""event"",""trial"",""time""
""fullscreenenter"",""0"",""24345""
","
","
","""event"",""trial"",""time""
""fullscreenenter"",""0"",""24345""
","
","847.1000001430511","run_exp/static/images/Set 6_rs/010a.jpg","86","","","","","","learn","SR",""
"","show_choice","80","137406","0.0-80.0","""event"",""trial"",""time""
""fullscreenenter"",""0"",""24345""
","
","
","""event"",""trial"",""time""
""fullscreenenter"",""0"",""24345""
","
","null","run_exp/static/images/Set 6_rs/010a.jpg","null","","","","","","learn","SR",""
"","html-keyboard-response","81","137915","0.0-81.0","""event"",""trial"",""time""
""fullscreenenter"",""0"",""24345""
","
","
","""event"",""trial"",""time""
""fullscreenenter"",""0"",""24345""
","
","null","<p></p>","null","","","","","","","",""
"","image","82","139270","0.0-82.0","""event"",""trial"",""time""
""fullscreenenter"",""0"",""24345""
","
","
","""event"",""trial"",""time""
""fullscreenenter"",""0"",""24345""
","
","1352.6000001430511","run_exp/static/images/Set 6_rs/023a.jpg","86","","","","","","learn","SR",""
"","show_choice","83","139920","0.0-83.0","""event"",""trial"",""time""
""fullscreenenter"",""0"",""24345""
","
","
","""event"",""trial"",""time""
""fullscreenenter"",""0"",""24345""
","
","null","run_exp/static/images/Set 6_rs/023a.jpg","null","","","","","","learn","SR",""
"","html-keyboard-response","84","140430","0.0-84.0","""event"",""trial"",""time""
""fullscreenenter"",""0"",""24345""
","
","
","""event"",""trial"",""time""
""fullscreenenter"",""0"",""24345""
","
","null","<p></p>","null","","","","","","","",""
"","image","85","141255","0.0-85.0","""event"",""trial"",""time""
""fullscreenenter"",""0"",""24345""
","
","
","""event"",""trial"",""time""
""fullscreenenter"",""0"",""24345""
","
","822.6000001430511","run_exp/static/images/Set 6_rs/141a.jpg","78","","","","","","learn","SR",""
"","show_choice","86","142448","0.0-86.0","""event"",""trial"",""time""
""fullscreenenter"",""0"",""24345""
","
","
","""event"",""trial"",""time""
""fullscreenenter"",""0"",""24345""
","
","null","run_exp/static/images/Set 6_rs/141a.jpg","null","","","","","","learn","SR",""
"","html-keyboard-response","87","142961","0.0-87.0","""event"",""trial"",""time""
""fullscreenenter"",""0"",""24345""
","
","
","""event"",""trial"",""time""
""fullscreenenter"",""0"",""24345""
","
","null","<p></p>","null","","","","","","","",""
"","image","88","143773","0.0-88.0","""event"",""trial"",""time""
""fullscreenenter"",""0"",""24345""
","
","
","""event"",""trial"",""time""
""fullscreenenter"",""0"",""24345""
","
","808.5999999046326","run_exp/static/images/Set 6_rs/187a.jpg","86","","","","","","learn","SR",""
"","show_choice","89","144970","0.0-89.0","""event"",""trial"",""time""
""fullscreenenter"",""0"",""24345""
","
","
","""event"",""trial"",""time""
""fullscreenenter"",""0"",""24345""
","
","null","run_exp/static/images/Set 6_rs/187a.jpg","null","","","","","","learn","SR",""
"","html-keyboard-response","90","145476","0.0-90.0","""event"",""trial"",""time""
""fullscreenenter"",""0"",""24345""
","
","
","""event"",""trial"",""time""
""fullscreenenter"",""0"",""24345""
","
","null","<p></p>","null","","","","","","","",""
"","image","91","146524","0.0-91.0","""event"",""trial"",""time""
""fullscreenenter"",""0"",""24345""
","
","
","""event"",""trial"",""time""
""fullscreenenter"",""0"",""24345""
","
","1045.8000001907349","run_exp/static/images/Set 6_rs/055a.jpg","86","","","","","","learn","SL",""
"","show_choice","92","147494","0.0-92.0","""event"",""trial"",""time""
""fullscreenenter"",""0"",""24345""
","
","
","""event"",""trial"",""time""
""fullscreenenter"",""0"",""24345""
","
","null","run_exp/static/images/Set 6_rs/055a.jpg","null","","","","","","learn","SL",""
"","html-keyboard-response","93","148009","0.0-93.0","""event"",""trial"",""time""
""fullscreenenter"",""0"",""24345""
","
","
","""event"",""trial"",""time""
""fullscreenenter"",""0"",""24345""
","
","null","<p></p>","null","","","","","","","",""
"","image","94","149527","0.0-94.0","""event"",""trial"",""time""
""fullscreenenter"",""0"",""24345""
","
","
","""event"",""trial"",""time""
""fullscreenenter"",""0"",""24345""
","
","1515.0999999046326","run_exp/static/images/Set 6_rs/178a.jpg","86","","","","","","learn","SR",""
"","show_choice","95","150022","0.0-95.0","""event"",""trial"",""time""
""fullscreenenter"",""0"",""24345""
","
","
","""event"",""trial"",""time""
""fullscreenenter"",""0"",""24345""
","
","null","run_exp/static/images/Set 6_rs/178a.jpg","null","","","","","","learn","SR",""
"","html-keyboard-response","96","150537","0.0-96.0","""event"",""trial"",""time""
""fullscreenenter"",""0"",""24345""
","
","
","""event"",""trial"",""time""
""fullscreenenter"",""0"",""24345""
","
","null","<p></p>","null","","","","","","","",""
"","image","97","151693","0.0-97.0","""event"",""trial"",""time""
""fullscreenenter"",""0"",""24345""
","
","
","""event"",""trial"",""time""
""fullscreenenter"",""0"",""24345""
","
","1153.0999999046326","run_exp/static/images/Set 6_rs/012a.jpg","86","","","","","","learn","SR",""
"","show_choice","98","152544","0.0-98.0","""event"",""trial"",""time""
""fullscreenenter"",""0"",""24345""
","
","
","""event"",""trial"",""time""
""fullscreenenter"",""0"",""24345""
","
","null","run_exp/static/images/Set 6_rs/012a.jpg","null","","","","","","learn","SR",""
"","html-keyboard-response","99","153057","0.0-99.0","""event"",""trial"",""time""
""fullscreenenter"",""0"",""24345""
","
","
","""event"",""trial"",""time""
""fullscreenenter"",""0"",""24345""
","
","null","<p></p>","null","","","","","","","",""
"","image","100","155061","0.0-100.0","""event"",""trial"",""time""
""fullscreenenter"",""0"",""24345""
","
","
","""event"",""trial"",""time""
""fullscreenenter"",""0"",""24345""
","
","null","run_exp/static/images/Set 6_rs/091a.jpg","null","","","","","","learn","SL",""
"","show_choice","101","157072","0.0-101.0","""event"",""trial"",""time""
""fullscreenenter"",""0"",""24345""
","
","
","""event"",""trial"",""time""
""fullscreenenter"",""0"",""24345""
","
","null","run_exp/static/images/blank.png","null","","","","","","learn","SL",""
"","html-keyboard-response","102","157581","0.0-102.0","""event"",""trial"",""time""
""fullscreenenter"",""0"",""24345""
","
","
","""event"",""trial"",""time""
""fullscreenenter"",""0"",""24345""
","
","null","<p></p>","null","","","","","","","",""
"","image","103","158816","0.0-103.0","""event"",""trial"",""time""
""fullscreenenter"",""0"",""24345""
","
","
","""event"",""trial"",""time""
""fullscreenenter"",""0"",""24345""
","
","1233","run_exp/static/images/Set 6_rs/116a.jpg","78","","","","","","learn","SL",""
"","show_choice","104","159594","0.0-104.0","""event"",""trial"",""time""
""fullscreenenter"",""0"",""24345""
","
","
","""event"",""trial"",""time""
""fullscreenenter"",""0"",""24345""
","
","null","run_exp/static/images/Set 6_rs/116a.jpg","null","","","","","","learn","SL",""
"","html-keyboard-response","105","160110","0.0-105.0","""event"",""trial"",""time""
""fullscreenenter"",""0"",""24345""
","
","
","""event"",""trial"",""time""
""fullscreenenter"",""0"",""24345""
","
","null","<p></p>","null","","","","","","","",""
"","image","106","161334","0.0-106.0","""event"",""trial"",""time""
""fullscreenenter"",""0"",""24345""
","
","
","""event"",""trial"",""time""
""fullscreenenter"",""0"",""24345""
","
","1221.1999998092651","run_exp/static/images/Set 6_rs/007a.jpg","86","","","","","","learn","SR",""
"","show_choice","107","162126","0.0-107.0","""event"",""trial"",""time""
""fullscreenenter"",""0"",""24345""
","
","
","""event"",""trial"",""time""
""fullscreenenter"",""0"",""24345""
","
","null","run_exp/static/images/Set 6_rs/007a.jpg","null","","","","","","learn","SR",""
"","html-keyboard-response","108","162642","0.0-108.0","""event"",""trial"",""time""
""fullscreenenter"",""0"",""24345""
","
","
","""event"",""trial"",""time""
""fullscreenenter"",""0"",""24345""
","
","null","<p></p>","null","","","","","","","",""
"","image","109","164646","0.0-109.0","""event"",""trial"",""time""
""fullscreenenter"",""0"",""24345""
","
","
","""event"",""trial"",""time""
""fullscreenenter"",""0"",""24345""
","
","null","run_exp/static/images/Set 6_rs/074a.jpg","null","","","","","","learn","SL",""
"","show_choice","110","166655","0.0-110.0","""event"",""trial"",""time""
""fullscreenenter"",""0"",""24345""
","
","
","""event"",""trial"",""time""
""fullscreenenter"",""0"",""24345""
","
","null","run_exp/static/images/blank.png","null","","","","","","learn","SL",""
"","html-keyboard-response","111","167167","0.0-111.0","""event"",""trial"",""time""
""fullscreenenter"",""0"",""24345""
","
","
","""event"",""trial"",""time""
""fullscreenenter"",""0"",""24345""
","
","null","<p></p>","null","","","","","","","",""
"","image","112","168289","0.0-112.0","""event"",""trial"",""time""
""fullscreenenter"",""0"",""24345""
","
","
","""event"",""trial"",""time""
""fullscreenenter"",""0"",""24345""
","
","1120.0999999046326","run_exp/static/images/Set 6_rs/191a.jpg","78","","","","","","learn","SL",""
"","show_choice","113","169172","0.0-113.0","""event"",""trial"",""time""
""fullscreenenter"",""0"",""24345""
","
","
","""event"",""trial"",""time""
""fullscreenenter"",""0"",""24345""
","
","null","run_exp/static/images/Set 6_rs/191a.jpg","null","","","","","","learn","SL",""
"","html-keyboard-response","114","169687","0.0-114.0","""event"",""trial"",""time""
""fullscreenenter"",""0"",""24345""
","
","
","""event"",""trial"",""time""
""fullscreenenter"",""0"",""24345""
","
","null","<p></p>","null","","","","","","","",""
"","image","115","171626","0.0-115.0","""event"",""trial"",""time""
""fullscreenenter"",""0"",""24345""
","
","
","""event"",""trial"",""time""
""fullscreenenter"",""0"",""24345""
","
","1937.5","run_exp/static/images/Set 6_rs/017a.jpg","86","","","","","","learn","SL",""
"","show_choice","116","171691","0.0-116.0","""event"",""trial"",""time""
""fullscreenenter"",""0"",""24345""
","
","
","""event"",""trial"",""time""
""fullscreenenter"",""0"",""24345""
","
","null","run_exp/static/images/Set 6_rs/017a.jpg","null","","","","","","learn","SL",""
"","html-keyboard-response","117","172206","0.0-117.0","""event"",""trial"",""time""
""fullscreenenter"",""0"",""24345""
","
","
","""event"",""trial"",""time""
""fullscreenenter"",""0"",""24345""
","
","null","<p></p>","null","","","","","","","",""
"","image","118","173109","0.0-118.0","""event"",""trial"",""time""
""fullscreenenter"",""0"",""24345""
","
","
","""event"",""trial"",""time""
""fullscreenenter"",""0"",""24345""
","
","900.5","run_exp/static/images/Set 6_rs/062a.jpg","86","","","","","","learn","SL",""
"","show_choice","119","174217","0.0-119.0","""event"",""trial"",""time""
""fullscreenenter"",""0"",""24345""
","
","
","""event"",""trial"",""time""
""fullscreenenter"",""0"",""24345""
","
","null","run_exp/static/images/Set 6_rs/062a.jpg","null","","","","","","learn","SL",""
"","html-keyboard-response","120","174724","0.0-120.0","""event"",""trial"",""time""
""fullscreenenter"",""0"",""24345""
","
","
","""event"",""trial"",""time""
""fullscreenenter"",""0"",""24345""
","
","null","<p></p>","null","","","","","","","",""
"","image","121","176093","0.0-121.0","""event"",""trial"",""time""
""fullscreenenter"",""0"",""24345""
","
","
","""event"",""trial"",""time""
""fullscreenenter"",""0"",""24345""
","
","1367.2000000476837","run_exp/static/images/Set 6_rs/066a.jpg","86","","","","","","learn","SL",""
"","show_choice","122","176738","0.0-122.0","""event"",""trial"",""time""
""fullscreenenter"",""0"",""24345""
","
","
","""event"",""trial"",""time""
""fullscreenenter"",""0"",""24345""
","
","null","run_exp/static/images/Set 6_rs/066a.jpg","null","","","","","","learn","SL",""
"","html-keyboard-response","123","177240","0.0-123.0","""event"",""trial"",""time""
""fullscreenenter"",""0"",""24345""
","
","
","""event"",""trial"",""time""
""fullscreenenter"",""0"",""24345""
","
","null","<p></p>","null","","","","","","","",""
"","image","124","178326","0.0-124.0","""event"",""trial"",""time""
""fullscreenenter"",""0"",""24345""
","
","
","""event"",""trial"",""time""
""fullscreenenter"",""0"",""24345""
","
","1082","run_exp/static/images/Set 6_rs/045a.jpg","86","","","","","","learn","SR",""
"","show_choice","125","179251","0.0-125.0","""event"",""trial"",""time""
""fullscreenenter"",""0"",""24345""
","
","
","""event"",""trial"",""time""
""fullscreenenter"",""0"",""24345""
","
","null","run_exp/static/images/Set 6_rs/045a.jpg","null","","","","","","learn","SR",""
"","html-keyboard-response","126","179760","0.0-126.0","""event"",""trial"",""time""
""fullscreenenter"",""0"",""24345""
","
","
","""event"",""trial"",""time""
""fullscreenenter"",""0"",""24345""
","
","null","<p></p>","null","","","","","","","",""
"","image","127","180856","0.0-127.0","""event"",""trial"",""time""
""fullscreenenter"",""0"",""24345""
","
","
","""event"",""trial"",""time""
""fullscreenenter"",""0"",""24345""
","
","1093.5999999046326","run_exp/static/images/Set 6_rs/108a.jpg","86","","","","","","learn","SR",""
"","show_choice","128","181765","0.0-128.0","""event"",""trial"",""time""
""fullscreenenter"",""0"",""24345""
","
","
","""event"",""trial"",""time""
""fullscreenenter"",""0"",""24345""
","
","null","run_exp/static/images/Set 6_rs/108a.jpg","null","","","","","","learn","SR",""
"","html-keyboard-response","129","182272","0.0-129.0","""event"",""trial"",""time""
""fullscreenenter"",""0"",""24345""
","
","
","""event"",""trial"",""time""
""fullscreenenter"",""0"",""24345""
","
","null","<p></p>","null","","","","","","","",""
"","image","130","183742","0.0-130.0","""event"",""trial"",""time""
""fullscreenenter"",""0"",""24345""
","
","
","""event"",""trial"",""time""
""fullscreenenter"",""0"",""24345""
","
","1475.7999999523163","run_exp/static/images/Set 6_rs/144a.jpg","86","","","","","","learn","SL",""
"","show_choice","131","184280","0.0-131.0","""event"",""trial"",""time""
""fullscreenenter"",""0"",""24345""
","
","
","""event"",""trial"",""time""
""fullscreenenter"",""0"",""24345""
","
","null","run_exp/static/images/Set 6_rs/144a.jpg","null","","","","","","learn","SL",""
"","html-keyboard-response","132","184797","0.0-132.0","""event"",""trial"",""time""
""fullscreenenter"",""0"",""24345""
","
","
","""event"",""trial"",""time""
""fullscreenenter"",""0"",""24345""
","
","null","<p></p>","null","","","","","","","",""
"","image","133","186394","0.0-133.0","""event"",""trial"",""time""
""fullscreenenter"",""0"",""24345""
","
","
","""event"",""trial"",""time""
""fullscreenenter"",""0"",""24345""
","
","1594.6000001430511","run_exp/static/images/Set 6_rs/181a.jpg","78","","","","","","learn","SL",""
"","show_choice","134","186802","0.0-134.0","""event"",""trial"",""time""
""fullscreenenter"",""0"",""24345""
","
","
","""event"",""trial"",""time""
""fullscreenenter"",""0"",""24345""
","
","null","run_exp/static/images/Set 6_rs/181a.jpg","null","","","","","","learn","SL",""
"","html-keyboard-response","135","187309","0.0-135.0","""event"",""trial"",""time""
""fullscreenenter"",""0"",""24345""
","
","
","""event"",""trial"",""time""
""fullscreenenter"",""0"",""24345""
","
","null","<p></p>","null","","","","","","","",""
"","image","136","189127","0.0-136.0","""event"",""trial"",""time""
""fullscreenenter"",""0"",""24345""
","
","
","""event"",""trial"",""time""
""fullscreenenter"",""0"",""24345""
","
","1815.1999998092651","run_exp/static/images/Set 6_rs/025a.jpg","86","","","","","","learn","SL",""
"","show_choice","137","189328","0.0-137.0","""event"",""trial"",""time""
""fullscreenenter"",""0"",""24345""
","
","
","""event"",""trial"",""time""
""fullscreenenter"",""0"",""24345""
","
","null","run_exp/static/images/Set 6_rs/025a.jpg","null","","","","","","learn","SL",""
"","html-keyboard-response","138","189842","0.0-138.0","""event"",""trial"",""time""
""fullscreenenter"",""0"",""24345""
","
","
","""event"",""trial"",""time""
""fullscreenenter"",""0"",""24345""
","
","null","<p></p>","null","","","","","","","",""
"","image","139","190998","0.0-139.0","""event"",""trial"",""time""
""fullscreenenter"",""0"",""24345""
","
","
","""event"",""trial"",""time""
""fullscreenenter"",""0"",""24345""
","
","1153.2999999523163","run_exp/static/images/Set 6_rs/152a.jpg","86","","","","","","learn","SR",""
"","show_choice","140","191852","0.0-140.0","""event"",""trial"",""time""
""fullscreenenter"",""0"",""24345""
","
","
","""event"",""trial"",""time""
""fullscreenenter"",""0"",""24345""
","
","null","run_exp/static/images/Set 6_rs/152a.jpg","null","","","","","","learn","SR",""
"","html-keyboard-response","141","192358","0.0-141.0","""event"",""trial"",""time""
""fullscreenenter"",""0"",""24345""
","
","
","""event"",""trial"",""time""
""fullscreenenter"",""0"",""24345""
","
","null","<p></p>","null","","","","","","","",""
"","image","142","194367","0.0-142.0","""event"",""trial"",""time""
""fullscreenenter"",""0"",""24345""
","
","
","""event"",""trial"",""time""
""fullscreenenter"",""0"",""24345""
","
","2006.7000000476837","run_exp/static/images/Set 6_rs/089a.jpg","86","","","","","","learn","SL",""
"","show_choice","143","194372","0.0-143.0","""event"",""trial"",""time""
""fullscreenenter"",""0"",""24345""
","
","
","""event"",""trial"",""time""
""fullscreenenter"",""0"",""24345""
","
","null","run_exp/static/images/Set 6_rs/089a.jpg","null","","","","","","learn","SL",""
"","html-keyboard-response","144","194888","0.0-144.0","""event"",""trial"",""time""
""fullscreenenter"",""0"",""24345""
","
","
","""event"",""trial"",""time""
""fullscreenenter"",""0"",""24345""
","
","null","<p></p>","null","","","","","","","",""
"","image","145","195975","0.0-145.0","""event"",""trial"",""time""
""fullscreenenter"",""0"",""24345""
","
","
","""event"",""trial"",""time""
""fullscreenenter"",""0"",""24345""
","
","1083.6999998092651","run_exp/static/images/Set 6_rs/075a.jpg","86","","","","","","learn","SR",""
"","show_choice","146","196907","0.0-146.0","""event"",""trial"",""time""
""fullscreenenter"",""0"",""24345""
","
","
","""event"",""trial"",""time""
""fullscreenenter"",""0"",""24345""
","
","null","run_exp/static/images/Set 6_rs/075a.jpg","null","","","","","","learn","SR",""
"","html-keyboard-response","147","197416","0.0-147.0","""event"",""trial"",""time""
""fullscreenenter"",""0"",""24345""
","
","
","""event"",""trial"",""time""
""fullscreenenter"",""0"",""24345""
","
","null","<p></p>","null","","","","","","","",""
"","image","148","198174","0.0-148.0","""event"",""trial"",""time""
""fullscreenenter"",""0"",""24345""
","
","
","""event"",""trial"",""time""
""fullscreenenter"",""0"",""24345""
","
","755","run_exp/static/images/Set 6_rs/063a.jpg","86","","","","","","learn","SR",""
"","show_choice","149","199430","0.0-149.0","""event"",""trial"",""time""
""fullscreenenter"",""0"",""24345""
","
","
","""event"",""trial"",""time""
""fullscreenenter"",""0"",""24345""
","
","null","run_exp/static/images/Set 6_rs/063a.jpg","null","","","","","","learn","SR",""
"","html-keyboard-response","150","199934","0.0-150.0","""event"",""trial"",""time""
""fullscreenenter"",""0"",""24345""
","
","
","""event"",""trial"",""time""
""fullscreenenter"",""0"",""24345""
","
","null","<p></p>","null","","","","","","","",""
"","image","151","201948","0.0-151.0","""event"",""trial"",""time""
""fullscreenenter"",""0"",""24345""
","
","
","""event"",""trial"",""time""
""fullscreenenter"",""0"",""24345""
","
","null","run_exp/static/images/Set 6_rs/177a.jpg","null","","","","","","learn","SR",""
"","show_choice","152","203957","0.0-152.0","""event"",""trial"",""time""
""fullscreenenter"",""0"",""24345""
","
","
","""event"",""trial"",""time""
""fullscreenenter"",""0"",""24345""
","
","null","run_exp/static/images/blank.png","null","","","","","","learn","SR",""
"","html-keyboard-response","153","204466","0.0-153.0","""event"",""trial"",""time""
""fullscreenenter"",""0"",""24345""
","
","
","""event"",""trial"",""time""
""fullscreenenter"",""0"",""24345""
","
","null","<p></p>","null","","","","","","","",""
"","image","154","205780","0.0-154.0","""event"",""trial"",""time""
""fullscreenenter"",""0"",""24345""
","
","
","""event"",""trial"",""time""
""fullscreenenter"",""0"",""24345""
","
","1311.5999999046326","run_exp/static/images/Set 6_rs/134a.jpg","86","","","","","","learn","SR",""
"","show_choice","155","206475","0.0-155.0","""event"",""trial"",""time""
""fullscreenenter"",""0"",""24345""
","
","
","""event"",""trial"",""time""
""fullscreenenter"",""0"",""24345""
","
","null","run_exp/static/images/Set 6_rs/134a.jpg","null","","","","","","learn","SR",""
"","html-keyboard-response","156","206977","0.0-156.0","""event"",""trial"",""time""
""fullscreenenter"",""0"",""24345""
","
","
","""event"",""trial"",""time""
""fullscreenenter"",""0"",""24345""
","
","null","<p></p>","null","","","","","","","",""
"","image","157","208983","0.0-157.0","""event"",""trial"",""time""
""fullscreenenter"",""0"",""24345""
","
","
","""event"",""trial"",""time""
""fullscreenenter"",""0"",""24345""
","
","null","run_exp/static/images/Set 6_rs/008a.jpg","null","","","","","","learn","SL",""
"","show_choice","158","210992","0.0-158.0","""event"",""trial"",""time""
""fullscreenenter"",""0"",""24345""
","
","
","""event"",""trial"",""time""
""fullscreenenter"",""0"",""24345""
","
","null","run_exp/static/images/blank.png","null","","","","","","learn","SL",""
"","html-keyboard-response","159","211505","0.0-159.0","""event"",""trial"",""time""
""fullscreenenter"",""0"",""24345""
","
","
","""event"",""trial"",""time""
""fullscreenenter"",""0"",""24345""
","
","null","<p></p>","null","","","","","","","",""
"","image","160","212227","0.0-160.0","""event"",""trial"",""time""
""fullscreenenter"",""0"",""24345""
","
","
","""event"",""trial"",""time""
""fullscreenenter"",""0"",""24345""
","
","718.3999998569489","run_exp/static/images/Set 6_rs/154a.jpg","86","","","","","","learn","SR",""
"","show_choice","161","213518","0.0-161.0","""event"",""trial"",""time""
""fullscreenenter"",""0"",""24345""
","
","
","""event"",""trial"",""time""
""fullscreenenter"",""0"",""24345""
","
","null","run_exp/static/images/Set 6_rs/154a.jpg","null","","","","","","learn","SR",""
"","html-keyboard-response","162","214021","0.0-162.0","""event"",""trial"",""time""
""fullscreenenter"",""0"",""24345""
","
","
","""event"",""trial"",""time""
""fullscreenenter"",""0"",""24345""
","
","null","<p></p>","null","","","","","","","",""
"","image","163","214913","0.0-163.0","""event"",""trial"",""time""
""fullscreenenter"",""0"",""24345""
","
","
","""event"",""trial"",""time""
""fullscreenenter"",""0"",""24345""
","
","890.0999999046326","run_exp/static/images/Set 6_rs/064a.jpg","86","","","","","","learn","SR",""
"","show_choice","164","216026","0.0-164.0","""event"",""trial"",""time""
""fullscreenenter"",""0"",""24345""
","
","
","""event"",""trial"",""time""
""fullscreenenter"",""0"",""24345""
","
","null","run_exp/static/images/Set 6_rs/064a.jpg","null","","","","","","learn","SR",""
"","html-keyboard-response","165","216545","0.0-165.0","""event"",""trial"",""time""
""fullscreenenter"",""0"",""24345""
","
","
","""event"",""trial"",""time""
""fullscreenenter"",""0"",""24345""
","
","null","<p></p>","null","","","","","","","",""
"","image","166","218069","0.0-166.0","""event"",""trial"",""time""
""fullscreenenter"",""0"",""24345""
","
","
","""event"",""trial"",""time""
""fullscreenenter"",""0"",""24345""
","
","1522.2000000476837","run_exp/static/images/Set 6_rs/138a.jpg","86","","","","","","learn","SL",""
"","show_choice","167","218550","0.0-167.0","""event"",""trial"",""time""
""fullscreenenter"",""0"",""24345""
","
","
","""event"",""trial"",""time""
""fullscreenenter"",""0"",""24345""
","
","null","run_exp/static/images/Set 6_rs/138a.jpg","null","","","","","","learn","SL",""
"","html-keyboard-response","168","219064","0.0-168.0","""event"",""trial"",""time""
""fullscreenenter"",""0"",""24345""
","
","
","""event"",""trial"",""time""
""fullscreenenter"",""0"",""24345""
","
","null","<p></p>","null","","","","","","","",""
"","image","169","220898","0.0-169.0","""event"",""trial"",""time""
""fullscreenenter"",""0"",""24345""
","
","
","""event"",""trial"",""time""
""fullscreenenter"",""0"",""24345""
","
","1832.9000000953674","run_exp/static/images/Set 6_rs/126a.jpg","78","","","","","","learn","SR",""
"","show_choice","170","221068","0.0-170.0","""event"",""trial"",""time""
""fullscreenenter"",""0"",""24345""
","
","
","""event"",""trial"",""time""
""fullscreenenter"",""0"",""24345""
","
","null","run_exp/static/images/Set 6_rs/126a.jpg","null","","","","","","learn","SR",""
"","html-keyboard-response","171","221573","0.0-171.0","""event"",""trial"",""time""
""fullscreenenter"",""0"",""24345""
","
","
","""event"",""trial"",""time""
""fullscreenenter"",""0"",""24345""
","
","null","<p></p>","null","","","","","","","",""
"","image","172","222584","0.0-172.0","""event"",""trial"",""time""
""fullscreenenter"",""0"",""24345""
","
","
","""event"",""trial"",""time""
""fullscreenenter"",""0"",""24345""
","
","1006.5999999046326","run_exp/static/images/Set 6_rs/166a.jpg","86","","","","","","learn","SR",""
"","show_choice","173","223589","0.0-173.0","""event"",""trial"",""time""
""fullscreenenter"",""0"",""24345""
","
","
","""event"",""trial"",""time""
""fullscreenenter"",""0"",""24345""
","
","null","run_exp/static/images/Set 6_rs/166a.jpg","null","","","","","","learn","SR",""
"","html-keyboard-response","174","224095","0.0-174.0","""event"",""trial"",""time""
""fullscreenenter"",""0"",""24345""
","
","
","""event"",""trial"",""time""
""fullscreenenter"",""0"",""24345""
","
","null","<p></p>","null","","","","","","","",""
"","image","175","224908","0.0-175.0","""event"",""trial"",""time""
""fullscreenenter"",""0"",""24345""
","
","
","""event"",""trial"",""time""
""fullscreenenter"",""0"",""24345""
","
","809.9000000953674","run_exp/static/images/Set 6_rs/073a.jpg","86","","","","","","learn","SL",""
"","show_choice","176","226113","0.0-176.0","""event"",""trial"",""time""
""fullscreenenter"",""0"",""24345""
","
","
","""event"",""trial"",""time""
""fullscreenenter"",""0"",""24345""
","
","null","run_exp/static/images/Set 6_rs/073a.jpg","null","","","","","","learn","SL",""
"","html-keyboard-response","177","226624","0.0-177.0","""event"",""trial"",""time""
""fullscreenenter"",""0"",""24345""
","
","
","""event"",""trial"",""time""
""fullscreenenter"",""0"",""24345""
","
","null","<p></p>","null","","","","","","","",""
"","image","178","227553","0.0-178.0","""event"",""trial"",""time""
""fullscreenenter"",""0"",""24345""
","
","
","""event"",""trial"",""time""
""fullscreenenter"",""0"",""24345""
","
","926.9000000953674","run_exp/static/images/Set 6_rs/123a.jpg","78","","","","","","learn","SL",""
"","show_choice","179","228641","0.0-179.0","""event"",""trial"",""time""
""fullscreenenter"",""0"",""24345""
","
","
","""event"",""trial"",""time""
""fullscreenenter"",""0"",""24345""
","
","null","run_exp/static/images/Set 6_rs/123a.jpg","null","","","","","","learn","SL",""
"","html-keyboard-response","180","229155","0.0-180.0","""event"",""trial"",""time""
""fullscreenenter"",""0"",""24345""
","
","
","""event"",""trial"",""time""
""fullscreenenter"",""0"",""24345""
","
","null","<p></p>","null","","","","","","","",""
"","image","181","230786","0.0-181.0","""event"",""trial"",""time""
""fullscreenenter"",""0"",""24345""
","
","
","""event"",""trial"",""time""
""fullscreenenter"",""0"",""24345""
","
","1627.9000000953674","run_exp/static/images/Set 6_rs/061a.jpg","86","","","","","","learn","SR",""
"","show_choice","182","231169","0.0-182.0","""event"",""trial"",""time""
""fullscreenenter"",""0"",""24345""
","
","
","""event"",""trial"",""time""
""fullscreenenter"",""0"",""24345""
","
","null","run_exp/static/images/Set 6_rs/061a.jpg","null","","","","","","learn","SR",""
"","html-keyboard-response","183","231675","0.0-183.0","""event"",""trial"",""time""
""fullscreenenter"",""0"",""24345""
","
","
","""event"",""trial"",""time""
""fullscreenenter"",""0"",""24345""
","
","null","<p></p>","null","","","","","","","",""
"","image","184","232715","0.0-184.0","""event"",""trial"",""time""
""fullscreenenter"",""0"",""24345""
","
","
","""event"",""trial"",""time""
""fullscreenenter"",""0"",""24345""
","
","1038.5999999046326","run_exp/static/images/Set 6_rs/186a.jpg","86","","","","","","learn","SR",""
"","show_choice","185","233679","0.0-185.0","""event"",""trial"",""time""
""fullscreenenter"",""0"",""24345""
","
","
","""event"",""trial"",""time""
""fullscreenenter"",""0"",""24345""
","
","null","run_exp/static/images/Set 6_rs/186a.jpg","null","","","","","","learn","SR",""
"","html-keyboard-response","186","234196","0.0-186.0","""event"",""trial"",""time""
""fullscreenenter"",""0"",""24345""
","
","
","""event"",""trial"",""time""
""fullscreenenter"",""0"",""24345""
","
","null","<p></p>","null","","","","","","","",""
"","image","187","235159","0.0-187.0","""event"",""trial"",""time""
""fullscreenenter"",""0"",""24345""
","
","
","""event"",""trial"",""time""
""fullscreenenter"",""0"",""24345""
","
","960","run_exp/static/images/Set 6_rs/129a.jpg","86","","","","","","learn","SL",""
"","show_choice","188","236210","0.0-188.0","""event"",""trial"",""time""
""fullscreenenter"",""0"",""24345""
","
","
","""event"",""trial"",""time""
""fullscreenenter"",""0"",""24345""
","
","null","run_exp/static/images/Set 6_rs/129a.jpg","null","","","","","","learn","SL",""
"","html-keyboard-response","189","236718","0.0-189.0","""event"",""trial"",""time""
""fullscreenenter"",""0"",""24345""
","
","
","""event"",""trial"",""time""
""fullscreenenter"",""0"",""24345""
","
","null","<p></p>","null","","","","","","","",""
"","image","190","238370","0.0-190.0","""event"",""trial"",""time""
""fullscreenenter"",""0"",""24345""
","
","
","""event"",""trial"",""time""
""fullscreenenter"",""0"",""24345""
","
","1649.0999999046326","run_exp/static/images/Set 6_rs/085a.jpg","86","","","","","","learn","SL",""
"","show_choice","191","238724","0.0-191.0","""event"",""trial"",""time""
""fullscreenenter"",""0"",""24345""
","
","
","""event"",""trial"",""time""
""fullscreenenter"",""0"",""24345""
","
","null","run_exp/static/images/Set 6_rs/085a.jpg","null","","","","","","learn","SL",""
"","html-keyboard-response","192","239230","0.0-192.0","""event"",""trial"",""time""
""fullscreenenter"",""0"",""24345""
","
","
","""event"",""trial"",""time""
""fullscreenenter"",""0"",""24345""
","
","null","<p></p>","null","","","","","","","",""
"","image","193","241244","0.0-193.0","""event"",""trial"",""time""
""fullscreenenter"",""0"",""24345""
","
","
","""event"",""trial"",""time""
""fullscreenenter"",""0"",""24345""
","
","null","run_exp/static/images/Set 6_rs/006a.jpg","null","","","","","","learn","SL",""
"","show_choice","194","243248","0.0-194.0","""event"",""trial"",""time""
""fullscreenenter"",""0"",""24345""
","
","
","""event"",""trial"",""time""
""fullscreenenter"",""0"",""24345""
","
","null","run_exp/static/images/blank.png","null","","","","","","learn","SL",""
"","html-keyboard-response","195","243767","0.0-195.0","""event"",""trial"",""time""
""fullscreenenter"",""0"",""24345""
","
","
","""event"",""trial"",""time""
""fullscreenenter"",""0"",""24345""
","
","null","<p></p>","null","","","","","","","",""
"","test_intro","196","282045","0.0-196.0","""event"",""trial"",""time""
""fullscreenenter"",""0"",""24345""
","
","
","""event"",""trial"",""time""
""fullscreenenter"",""0"",""24345""
","
","null","run_exp/static/audio/clip_2_memory.m4a","null","","","","","<div class='center'><p>Now, lets see how much you remember about the items you just saw.  For each item, you need to indicate if it was <b>old</b> by pressing the <b>v</b> key, <b>similar</b> by pressing the <b>b</b> key, or <b>new</b> by pressing the <b>n</b> key.</p><p>Old refers to an item that you saw before in the indoor/outdoor game that you just played, new refers to an item you have <b>not</b> seen before within the indoor/outdoor game, and similar refers to an item that is similar to an item youve seen before but is not exactly the same. </p><p>Before we begin, lets go over some brief demonstrations to make sure you understand.</p></div>","","",""
"","html-keyboard-response","197","303684","0.0-197.0","""event"",""trial"",""time""
""fullscreenenter"",""0"",""24345""
","
","
","""event"",""trial"",""time""
""fullscreenenter"",""0"",""24345""
","
","21635","<div class='center'><p>Now, lets see how much you remember about the items you just saw.  For each item, you need to indicate if it was <b>old</b> by pressing the <b>v</b> key, <b>similar</b> by pressing the <b>b</b> key, or <b>new</b> by pressing the <b>n</b> key.</p><p>Old refers to an item that you saw before in the indoor/outdoor game that you just played, new refers to an item you have <b>not</b> seen before within the indoor/outdoor game, and similar refers to an item that is similar to an item youve seen before but is not exactly the same. </p><p>Before we begin, lets go over some brief demonstrations to make sure you understand.</p><div><p><b>[Press the space bar to continue]</b></p></div>","32","","","","","","","",""
"","items","198","311203","0.0-198.0","""event"",""trial"",""time""
""fullscreenenter"",""0"",""24345""
","
","
","""event"",""trial"",""time""
""fullscreenenter"",""0"",""24345""
","
","null","run_exp/static/audio/clip_3_items.m4a","null","","","","","","","",""
"","mop","199","315713","0.0-199.0","""event"",""trial"",""time""
""fullscreenenter"",""0"",""24345""
","
","
","""event"",""trial"",""time""
""fullscreenenter"",""0"",""24345""
","
","null","run_exp/static/audio/clip_4_mop.m4a","null","","","","","","","",""
"","baseball","200","319218","0.0-200.0","""event"",""trial"",""time""
""fullscreenenter"",""0"",""24345""
","
","
","""event"",""trial"",""time""
""fullscreenenter"",""0"",""24345""
","
","null","run_exp/static/audio/clip_5_baseball.m4a","null","","","","","","","",""
"","trumpet","201","322733","0.0-201.0","""event"",""trial"",""time""
""fullscreenenter"",""0"",""24345""
","
","
","""event"",""trial"",""time""
""fullscreenenter"",""0"",""24345""
","
","null","run_exp/static/audio/clip_6_trumpet.m4a","null","","","","","","","",""
"","gummies","202","326243","0.0-202.0","""event"",""trial"",""time""
""fullscreenenter"",""0"",""24345""
","
","
","""event"",""trial"",""time""
""fullscreenenter"",""0"",""24345""
","
","null","run_exp/static/audio/clip_7_gummies.m4a","null","","","","","","","",""
"","osn","203","330763","0.0-203.0","""event"",""trial"",""time""
""fullscreenenter"",""0"",""24345""
","
","
","""event"",""trial"",""time""
""fullscreenenter"",""0"",""24345""
","
","null","run_exp/static/audio/clip_8_osn.m4a","null","","","","","","","",""
"","old_1","204","337283","0.0-204.0","""event"",""trial"",""time""
""fullscreenenter"",""0"",""24345""
","
","
","""event"",""trial"",""time""
""fullscreenenter"",""0"",""24345""
","
","null","run_exp/static/audio/clip_9_old_trumpet.m4a","null","","","","","","","",""
"","new_1","205","344794","0.0-205.0","""event"",""trial"",""time""
""fullscreenenter"",""0"",""24345""
","
","
","""event"",""trial"",""time""
""fullscreenenter"",""0"",""24345""
","
","null","run_exp/static/audio/clip_10_new_balloon.m4a","null","","","","","","","",""
"","similar_1a","206","349303","0.0-206.0","""event"",""trial"",""time""
""fullscreenenter"",""0"",""24345""
","
","
","""event"",""trial"",""time""
""fullscreenenter"",""0"",""24345""
","
","null","run_exp/static/audio/clip_11a_similar_mop.m4a","null","","","","","","","",""
"","similar_1b","207","355813","0.0-207.0","""event"",""trial"",""time""
""fullscreenenter"",""0"",""24345""
","
","
","""event"",""trial"",""time""
""fullscreenenter"",""0"",""24345""
","
","null","run_exp/static/audio/clip_11b_similar_mop.m4a","null","","","","","","","",""
"","new_2","208","359321","0.0-208.0","""event"",""trial"",""time""
""fullscreenenter"",""0"",""24345""
","
","
","""event"",""trial"",""time""
""fullscreenenter"",""0"",""24345""
","
","null","run_exp/static/audio/clip_12_new_stoplight.m4a","null","","","","","","","",""
"","old_2","209","362843","0.0-209.0","""event"",""trial"",""time""
""fullscreenenter"",""0"",""24345""
","
","
","""event"",""trial"",""time""
""fullscreenenter"",""0"",""24345""
","
","null","run_exp/static/audio/clip_13_old_baseball.m4a","null","","","","","","","",""
"","similar_2a","210","366366","0.0-210.0","""event"",""trial"",""time""
""fullscreenenter"",""0"",""24345""
","
","
","""event"",""trial"",""time""
""fullscreenenter"",""0"",""24345""
","
","null","run_exp/static/audio/clip_14a_similar_gummies.m4a","null","","","","","","","",""
"","similar_2b","211","373876","0.0-211.0","""event"",""trial"",""time""
""fullscreenenter"",""0"",""24345""
","
","
","""event"",""trial"",""time""
""fullscreenenter"",""0"",""24345""
","
","null","run_exp/static/audio/clip_14b_similar_gummies.m4a","null","","","","","","","",""
"","practice","212","416011","0.0-212.0","""event"",""trial"",""time""
""fullscreenenter"",""0"",""24345""
","
","
","""event"",""trial"",""time""
""fullscreenenter"",""0"",""24345""
","
","null","run_exp/static/audio/clip_15_practice.m4a","null","","","","","<div class='center'><p>Lets practice a little to make sure you understand the difference between new, similar, and old. Lets say you saw these three items in the indoor/outdoor game.</p><p> Try your best to remember these images because youll soon be tested on them in a practice game. In the practice game, youll be shown images and youll have to say if they are old (one of the three images belows), similar (similar to one of the images below but not exactly the same), or new (are not one of the images below nor similar to them).</p><p>Once you press the space bar youll be shown these images again but one at time. Then youll begin the practice game.</p><p><img src='run_exp/static/images/tutorial/test/three_indoor_outdoor.png' height='300'></p></div>","","",""
"","html-keyboard-response","213","429344","0.0-213.0","""event"",""trial"",""time""
""fullscreenenter"",""0"",""24345""
","
","
","""event"",""trial"",""time""
""fullscreenenter"",""0"",""24345""
","
","13325.399999856949","<div class='center'><p>Lets practice a little to make sure you understand the difference between new, similar, and old. Lets say you saw these three items in the indoor/outdoor game.</p><p> Try your best to remember these images because youll soon be tested on them in a practice game. In the practice game, youll be shown images and youll have to say if they are old (one of the three images belows), similar (similar to one of the images below but not exactly the same), or new (are not one of the images below nor similar to them).</p><p>Once you press the space bar youll be shown these images again but one at time. Then youll begin the practice game.</p><p><img src='run_exp/static/images/tutorial/test/three_indoor_outdoor.png' height='300'></p><div><p><b>[Press the space bar to continue]</b></p></div>","32","","","","","","","",""
"","planet","214","431362","0.0-214.0","""event"",""trial"",""time""
""fullscreenenter"",""0"",""24345""
","
","
","""event"",""trial"",""time""
""fullscreenenter"",""0"",""24345""
","
","null","run_exp/static/images/tutorial/test/008a.jpg","null","","","","","","","",""
"","boot","215","433376","0.0-215.0","""event"",""trial"",""time""
""fullscreenenter"",""0"",""24345""
","
","
","""event"",""trial"",""time""
""fullscreenenter"",""0"",""24345""
","
","null","run_exp/static/images/tutorial/test/011a.jpg","null","","","","","","","",""
"","lemon","216","435392","0.0-216.0","""event"",""trial"",""time""
""fullscreenenter"",""0"",""24345""
","
","
","""event"",""trial"",""time""
""fullscreenenter"",""0"",""24345""
","
","null","run_exp/static/images/tutorial/test/018a.jpg","null","","","","","","","",""
"","practice_q1","217","442851","0.0-217.0","""event"",""trial"",""time""
""fullscreenenter"",""0"",""24345""
","
","
","""event"",""trial"",""time""
""fullscreenenter"",""0"",""24345""
","
","7454.900000095367","run_exp/static/audio/clip_16_practice_question.m4a","86","","","","","","","",""
"","incorrect_q1","218","445707","0.0-218.0-0.0","""event"",""trial"",""time""
""fullscreenenter"",""0"",""24345""
","
","
","""event"",""trial"",""time""
""fullscreenenter"",""0"",""24345""
","
","null","run_exp/static/audio/clip_18_incorrect_new.m4a","null","","","","","<div class='center'><p>Thats incorrect. Its new.</p></div>","","",""
"","html-keyboard-response","219","447340","0.0-218.0-1.0","""event"",""trial"",""time""
""fullscreenenter"",""0"",""24345""
","
","
","""event"",""trial"",""time""
""fullscreenenter"",""0"",""24345""
","
","1630.6000001430511","<div class='center'><p>Thats incorrect. Its new.</p><div><p><b>[Press the space bar to continue]</b></p></div>","32","","","","","","","",""
"","practice_q2","220","453047","0.0-218.0-2.0","""event"",""trial"",""time""
""fullscreenenter"",""0"",""24345""
","
","
","""event"",""trial"",""time""
""fullscreenenter"",""0"",""24345""
","
","5704.099999904633","run_exp/static/audio/clip_16_practice_question.m4a","78","","","","","","","",""
"","incorrect_q2","221","456106","0.0-219.0-0.0","""event"",""trial"",""time""
""fullscreenenter"",""0"",""24345""
","
","
","""event"",""trial"",""time""
""fullscreenenter"",""0"",""24345""
","
","null","run_exp/static/audio/clip_19_incorrect_old.m4a","null","","","","","<div class='center'><p>Thats incorrect. Its old.</p></div>","","",""
"","html-keyboard-response","222","461360","0.0-219.0-1.0","""event"",""trial"",""time""
""fullscreenenter"",""0"",""24345""
","
","
","""event"",""trial"",""time""
""fullscreenenter"",""0"",""24345""
","
","5252.099999904633","<div class='center'><p>Thats incorrect. Its old.</p><div><p><b>[Press the space bar to continue]</b></p></div>","32","","","","","","","",""
"","practice_q3","223","468315","0.0-219.0-2.0","""event"",""trial"",""time""
""fullscreenenter"",""0"",""24345""
","
","
","""event"",""trial"",""time""
""fullscreenenter"",""0"",""24345""
","
","6951.200000047684","run_exp/static/audio/clip_16_practice_question.m4a","66","","","","","","","",""
"","correct","224","470245","0.0-220.0-0.0","""event"",""trial"",""time""
""fullscreenenter"",""0"",""24345""
","
","
","""event"",""trial"",""time""
""fullscreenenter"",""0"",""24345""
","
","null","run_exp/static/audio/clip_17_correct.m4a","null","","","","","<div class='center'><p>That's correct!</p></div>","","",""
"","html-keyboard-response","225","472133","0.0-220.0-1.0","""event"",""trial"",""time""
""fullscreenenter"",""0"",""24345""
","
","
","""event"",""trial"",""time""
""fullscreenenter"",""0"",""24345""
","
","1885.5","<div class='center'><p>That's correct!</p><div><p><b>[Press the space bar to continue]</b></p></div>","32","","","","","","","",""
"","repeat","226","476866","0.0-221.0-0.0","""event"",""trial"",""time""
""fullscreenenter"",""0"",""24345""
","
","
","""event"",""trial"",""time""
""fullscreenenter"",""0"",""24345""
","
","null","run_exp/static/audio/clip_21_practice_again.m4a","null","","","","","<div class='center'><p>Oops. you missed at least one of these questions. Let's try practicing again. </p></div>","","",""
"","html-keyboard-response","227","477652","0.0-221.0-1.0","""event"",""trial"",""time""
""fullscreenenter"",""0"",""24345""
","
","
","""event"",""trial"",""time""
""fullscreenenter"",""0"",""24345""
","
","783.2000000476837","<div class='center'><p>Oops. you missed at least one of these questions. Let's try practicing again. </p><div><p><b>[Press the space bar to continue]</b></p></div>","32","","","","","","","",""
"","practice_q1","228","480649","0.0-221.0-2.0","""event"",""trial"",""time""
""fullscreenenter"",""0"",""24345""
","
","
","""event"",""trial"",""time""
""fullscreenenter"",""0"",""24345""
","
","2992.800000190735","run_exp/static/audio/clip_16_practice_question.m4a","78","","","","","","","",""
"","correct","229","482546","0.0-222.0-0.0","""event"",""trial"",""time""
""fullscreenenter"",""0"",""24345""
","
","
","""event"",""trial"",""time""
""fullscreenenter"",""0"",""24345""
","
","null","run_exp/static/audio/clip_17_correct.m4a","null","","","","","<div class='center'><p>That's correct!</p></div>","","",""
"","html-keyboard-response","230","484147","0.0-222.0-1.0","""event"",""trial"",""time""
""fullscreenenter"",""0"",""24345""
","
","
","""event"",""trial"",""time""
""fullscreenenter"",""0"",""24345""
","
","1597.3999998569489","<div class='center'><p>That's correct!</p><div><p><b>[Press the space bar to continue]</b></p></div>","32","","","","","","","",""
"","practice_q2","231","486467","0.0-222.0-2.0","""event"",""trial"",""time""
""fullscreenenter"",""0"",""24345""
","
","
","""event"",""trial"",""time""
""fullscreenenter"",""0"",""24345""
","
","2316","run_exp/static/audio/clip_16_practice_question.m4a","86","","","","","","","",""
"","correct","232","488366","0.0-223.0-0.0","""event"",""trial"",""time""
""fullscreenenter"",""0"",""24345""
","
","
","""event"",""trial"",""time""
""fullscreenenter"",""0"",""24345""
","
","null","run_exp/static/audio/clip_17_correct.m4a","null","","","","","<div class='center'><p>That's correct!</p></div>","","",""
"","html-keyboard-response","233","490133","0.0-223.0-1.0","""event"",""trial"",""time""
""fullscreenenter"",""0"",""24345""
","
","
","""event"",""trial"",""time""
""fullscreenenter"",""0"",""24345""
","
","1764.2000000476837","<div class='center'><p>That's correct!</p><div><p><b>[Press the space bar to continue]</b></p></div>","32","","","","","","","",""
"","practice_q3","234","494732","0.0-223.0-2.0","""event"",""trial"",""time""
""fullscreenenter"",""0"",""24345""
","
","
","""event"",""trial"",""time""
""fullscreenenter"",""0"",""24345""
","
","4595.100000143051","run_exp/static/audio/clip_16_practice_question.m4a","66","","","","","","","",""
"","correct","235","496885","0.0-224.0-0.0","""event"",""trial"",""time""
""fullscreenenter"",""0"",""24345""
","
","
","""event"",""trial"",""time""
""fullscreenenter"",""0"",""24345""
","
","null","run_exp/static/audio/clip_17_correct.m4a","null","","","","","<div class='center'><p>That's correct!</p></div>","","",""
"","html-keyboard-response","236","499622","0.0-224.0-1.0","""event"",""trial"",""time""
""fullscreenenter"",""0"",""24345""
","
","
","""event"",""trial"",""time""
""fullscreenenter"",""0"",""24345""
","
","2734.5999999046326","<div class='center'><p>That's correct!</p><div><p><b>[Press the space bar to continue]</b></p></div>","32","","","","","","","",""
"","begin_text","237","518127","0.0-225.0-0.0","""event"",""trial"",""time""
""fullscreenenter"",""0"",""24345""
","
","
","""event"",""trial"",""time""
""fullscreenenter"",""0"",""24345""
","
","null","run_exp/static/audio/clip_22_begin_test.m4a","null","","","","","<div class='center'><p>On to the real game where well test your memory of items from the indoor/outdoor game. For each item, you need to indicate if the item is <b>old</b> by pressing the <b>v</b> key, <b>similar</b> by pressing the <b>b</b> key, or <b>new</b> by pressing the <b>n</b> key. </p></div>","","",""
"","html-keyboard-response","238","519080","0.0-225.0-1.0","""event"",""trial"",""time""
""fullscreenenter"",""0"",""24345""
","
","
","""event"",""trial"",""time""
""fullscreenenter"",""0"",""24345""
","
","946.2000000476837","<div class='center'><p>On to the real game where well test your memory of items from the indoor/outdoor game. For each item, you need to indicate if the item is <b>old</b> by pressing the <b>v</b> key, <b>similar</b> by pressing the <b>b</b> key, or <b>new</b> by pressing the <b>n</b> key. </p><div><p><b>[Press the space bar to continue]</b></p></div>","32","","","","","","","",""
"","image","239","521403","0.0-226.0-0.0","""event"",""trial"",""time""
""fullscreenenter"",""0"",""24345""
","
","
","""event"",""trial"",""time""
""fullscreenenter"",""0"",""24345""
","
","2319.4000000953674","run_exp/static/images/Set 6_rs/086a.jpg","86","","","","","","test","TF","1"
"","show_choice","240","521912","0.0-226.0-1.0","""event"",""trial"",""time""
""fullscreenenter"",""0"",""24345""
","
","
","""event"",""trial"",""time""
""fullscreenenter"",""0"",""24345""
","
","null","run_exp/static/images/Set 6_rs/086a.jpg","null","","","","","","test","TF",""
"","html-keyboard-response","241","522422","0.0-226.0-2.0","""event"",""trial"",""time""
""fullscreenenter"",""0"",""24345""
","
","
","""event"",""trial"",""time""
""fullscreenenter"",""0"",""24345""
","
","null","<p></p>","null","","","","","","","",""
"","image","242","525426","0.0-227.0-0.0","""event"",""trial"",""time""
""fullscreenenter"",""0"",""24345""
","
","
","""event"",""trial"",""time""
""fullscreenenter"",""0"",""24345""
","
","null","run_exp/static/images/Set 6_rs/105a.jpg","null","","","","","","test","TF","5"
"","show_choice","243","525932","0.0-227.0-1.0","""event"",""trial"",""time""
""fullscreenenter"",""0"",""24345""
","
","
","""event"",""trial"",""time""
""fullscreenenter"",""0"",""24345""
","
","null","run_exp/static/images/Set 6_rs/105a.jpg","null","","","","","","test","TF",""
"","html-keyboard-response","244","526441","0.0-227.0-2.0","""event"",""trial"",""time""
""fullscreenenter"",""0"",""24345""
","
","
","""event"",""trial"",""time""
""fullscreenenter"",""0"",""24345""
","
","null","<p></p>","null","","","","","","","",""
"","image","245","528834","0.0-228.0-0.0","""event"",""trial"",""time""
""fullscreenenter"",""0"",""24345""
","
","
","""event"",""trial"",""time""
""fullscreenenter"",""0"",""24345""
","
","2389.7999999523163","run_exp/static/images/Set 6_rs/123b.jpg","78","","","","","","test","TL","2"
"","show_choice","246","529349","0.0-228.0-1.0","""event"",""trial"",""time""
""fullscreenenter"",""0"",""24345""
","
","
","""event"",""trial"",""time""
""fullscreenenter"",""0"",""24345""
","
","null","run_exp/static/images/Set 6_rs/123b.jpg","null","","","","","","test","TL",""
"","html-keyboard-response","247","529872","0.0-228.0-2.0","""event"",""trial"",""time""
""fullscreenenter"",""0"",""24345""
","
","
","""event"",""trial"",""time""
""fullscreenenter"",""0"",""24345""
","
","null","<p></p>","null","","","","","","","",""
"","image","248","532025","0.0-229.0-0.0","""event"",""trial"",""time""
""fullscreenenter"",""0"",""24345""
","
","
","""event"",""trial"",""time""
""fullscreenenter"",""0"",""24345""
","
","2150.4000000953674","run_exp/static/images/Set 6_rs/079b.jpg","66","","","","","","test","TL","5"
"","show_choice","249","532540","0.0-229.0-1.0","""event"",""trial"",""time""
""fullscreenenter"",""0"",""24345""
","
","
","""event"",""trial"",""time""
""fullscreenenter"",""0"",""24345""
","
","null","run_exp/static/images/Set 6_rs/079b.jpg","null","","","","","","test","TL",""
"","html-keyboard-response","250","533057","0.0-229.0-2.0","""event"",""trial"",""time""
""fullscreenenter"",""0"",""24345""
","
","
","""event"",""trial"",""time""
""fullscreenenter"",""0"",""24345""
","
","null","<p></p>","null","","","","","","","",""
"","image","251","535247","0.0-230.0-0.0","""event"",""trial"",""time""
""fullscreenenter"",""0"",""24345""
","
","
","""event"",""trial"",""time""
""fullscreenenter"",""0"",""24345""
","
","2187","run_exp/static/images/Set 6_rs/065a.jpg","66","","","","","","test","TF","3"
"","show_choice","252","535763","0.0-230.0-1.0","""event"",""trial"",""time""
""fullscreenenter"",""0"",""24345""
","
","
","""event"",""trial"",""time""
""fullscreenenter"",""0"",""24345""
","
","null","run_exp/static/images/Set 6_rs/065a.jpg","null","","","","","","test","TF",""
"","html-keyboard-response","253","536274","0.0-230.0-2.0","""event"",""trial"",""time""
""fullscreenenter"",""0"",""24345""
","
","
","""event"",""trial"",""time""
""fullscreenenter"",""0"",""24345""
","
","null","<p></p>","null","","","","","","","",""
"","image","254","538855","0.0-231.0-0.0","""event"",""trial"",""time""
""fullscreenenter"",""0"",""24345""
","
","
","""event"",""trial"",""time""
""fullscreenenter"",""0"",""24345""
","
","2577.0999999046326","run_exp/static/images/Set 6_rs/006b.jpg","86","","","","","","test","TL","2"
"","show_choice","255","539363","0.0-231.0-1.0","""event"",""trial"",""time""
""fullscreenenter"",""0"",""24345""
","
","
","""event"",""trial"",""time""
""fullscreenenter"",""0"",""24345""
","
","null","run_exp/static/images/Set 6_rs/006b.jpg","null","","","","","","test","TL",""
"","html-keyboard-response","256","539875","0.0-231.0-2.0","""event"",""trial"",""time""
""fullscreenenter"",""0"",""24345""
","
","
","""event"",""trial"",""time""
""fullscreenenter"",""0"",""24345""
","
","null","<p></p>","null","","","","","","","",""
"","image","257","542345","0.0-232.0-0.0","""event"",""trial"",""time""
""fullscreenenter"",""0"",""24345""
","
","
","""event"",""trial"",""time""
""fullscreenenter"",""0"",""24345""
","
","2467.199999809265","run_exp/static/images/Set 6_rs/017b.jpg","66","","","","","","test","TL","3"
"","show_choice","258","542861","0.0-232.0-1.0","""event"",""trial"",""time""
""fullscreenenter"",""0"",""24345""
","
","
","""event"",""trial"",""time""
""fullscreenenter"",""0"",""24345""
","
","null","run_exp/static/images/Set 6_rs/017b.jpg","null","","","","","","test","TL",""
"","html-keyboard-response","259","543371","0.0-232.0-2.0","""event"",""trial"",""time""
""fullscreenenter"",""0"",""24345""
","
","
","""event"",""trial"",""time""
""fullscreenenter"",""0"",""24345""
","
","null","<p></p>","null","","","","","","","",""
"","image","260","545294","0.0-233.0-0.0","""event"",""trial"",""time""
""fullscreenenter"",""0"",""24345""
","
","
","""event"",""trial"",""time""
""fullscreenenter"",""0"",""24345""
","
","1920.1999998092651","run_exp/static/images/Set 6_rs/005a.jpg","86","","","","","","test","TF","5"
"","show_choice","261","545801","0.0-233.0-1.0","""event"",""trial"",""time""
""fullscreenenter"",""0"",""24345""
","
","
","""event"",""trial"",""time""
""fullscreenenter"",""0"",""24345""
","
","null","run_exp/static/images/Set 6_rs/005a.jpg","null","","","","","","test","TF",""
"","html-keyboard-response","262","546303","0.0-233.0-2.0","""event"",""trial"",""time""
""fullscreenenter"",""0"",""24345""
","
","
","""event"",""trial"",""time""
""fullscreenenter"",""0"",""24345""
","
","null","<p></p>","null","","","","","","","",""
"","image","263","549317","0.0-234.0-0.0","""event"",""trial"",""time""
""fullscreenenter"",""0"",""24345""
","
","
","""event"",""trial"",""time""
""fullscreenenter"",""0"",""24345""
","
","null","run_exp/static/images/Set 6_rs/066b.jpg","null","","","","","","test","TL","5"
"","show_choice","264","549822","0.0-234.0-1.0","""event"",""trial"",""time""
""fullscreenenter"",""0"",""24345""
","
","
","""event"",""trial"",""time""
""fullscreenenter"",""0"",""24345""
","
","null","run_exp/static/images/Set 6_rs/066b.jpg","null","","","","","","test","TL",""
"","html-keyboard-response","265","550332","0.0-234.0-2.0","""event"",""trial"",""time""
""fullscreenenter"",""0"",""24345""
","
","
","""event"",""trial"",""time""
""fullscreenenter"",""0"",""24345""
","
","null","<p></p>","null","","","","","","","",""
"","image","266","553297","0.0-235.0-0.0","""event"",""trial"",""time""
""fullscreenenter"",""0"",""24345""
","
","
","""event"",""trial"",""time""
""fullscreenenter"",""0"",""24345""
","
","2961.7999999523163","run_exp/static/images/Set 6_rs/097a.jpg","66","","","","","","test","TF","5"
"","show_choice","267","553813","0.0-235.0-1.0","""event"",""trial"",""time""
""fullscreenenter"",""0"",""24345""
","
","
","""event"",""trial"",""time""
""fullscreenenter"",""0"",""24345""
","
","null","run_exp/static/images/Set 6_rs/097a.jpg","null","","","","","","test","TF",""
"","html-keyboard-response","268","554328","0.0-235.0-2.0","""event"",""trial"",""time""
""fullscreenenter"",""0"",""24345""
","
","
","""event"",""trial"",""time""
""fullscreenenter"",""0"",""24345""
","
","null","<p></p>","null","","","","","","","",""
"","image","269","555957","0.0-236.0-0.0","""event"",""trial"",""time""
""fullscreenenter"",""0"",""24345""
","
","
","""event"",""trial"",""time""
""fullscreenenter"",""0"",""24345""
","
","1626.0999999046326","run_exp/static/images/Set 6_rs/019b.jpg","78","","","","","","test","TL","2"
"","show_choice","270","556461","0.0-236.0-1.0","""event"",""trial"",""time""
""fullscreenenter"",""0"",""24345""
","
","
","""event"",""trial"",""time""
""fullscreenenter"",""0"",""24345""
","
","null","run_exp/static/images/Set 6_rs/019b.jpg","null","","","","","","test","TL",""
"","html-keyboard-response","271","556976","0.0-236.0-2.0","""event"",""trial"",""time""
""fullscreenenter"",""0"",""24345""
","
","
","""event"",""trial"",""time""
""fullscreenenter"",""0"",""24345""
","
","null","<p></p>","null","","","","","","","",""
"","image","272","559477","0.0-237.0-0.0","""event"",""trial"",""time""
""fullscreenenter"",""0"",""24345""
","
","
","""event"",""trial"",""time""
""fullscreenenter"",""0"",""24345""
","
","2497.7000000476837","run_exp/static/images/Set 6_rs/191b.jpg","66","","","","","","test","TL","2"
"","show_choice","273","559995","0.0-237.0-1.0","""event"",""trial"",""time""
""fullscreenenter"",""0"",""24345""
","
","
","""event"",""trial"",""time""
""fullscreenenter"",""0"",""24345""
","
","null","run_exp/static/images/Set 6_rs/191b.jpg","null","","","","","","test","TL",""
"","html-keyboard-response","274","560506","0.0-237.0-2.0","""event"",""trial"",""time""
""fullscreenenter"",""0"",""24345""
","
","
","""event"",""trial"",""time""
""fullscreenenter"",""0"",""24345""
","
","null","<p></p>","null","","","","","","","",""
"","image","275","562424","0.0-238.0-0.0","""event"",""trial"",""time""
""fullscreenenter"",""0"",""24345""
","
","
","""event"",""trial"",""time""
""fullscreenenter"",""0"",""24345""
","
","1914.5","run_exp/static/images/Set 6_rs/021a.jpg","66","","","","","","test","TF","2"
"","show_choice","276","562933","0.0-238.0-1.0","""event"",""trial"",""time""
""fullscreenenter"",""0"",""24345""
","
","
","""event"",""trial"",""time""
""fullscreenenter"",""0"",""24345""
","
","null","run_exp/static/images/Set 6_rs/021a.jpg","null","","","","","","test","TF",""
"","html-keyboard-response","277","563443","0.0-238.0-2.0","""event"",""trial"",""time""
""fullscreenenter"",""0"",""24345""
","
","
","""event"",""trial"",""time""
""fullscreenenter"",""0"",""24345""
","
","null","<p></p>","null","","","","","","","",""
"","image","278","565759","0.0-239.0-0.0","""event"",""trial"",""time""
""fullscreenenter"",""0"",""24345""
","
","
","""event"",""trial"",""time""
""fullscreenenter"",""0"",""24345""
","
","2312.2000000476837","run_exp/static/images/Set 6_rs/190a.jpg","78","","","","","","test","TF","3"
"","show_choice","279","566270","0.0-239.0-1.0","""event"",""trial"",""time""
""fullscreenenter"",""0"",""24345""
","
","
","""event"",""trial"",""time""
""fullscreenenter"",""0"",""24345""
","
","null","run_exp/static/images/Set 6_rs/190a.jpg","null","","","","","","test","TF",""
"","html-keyboard-response","280","566783","0.0-239.0-2.0","""event"",""trial"",""time""
""fullscreenenter"",""0"",""24345""
","
","
","""event"",""trial"",""time""
""fullscreenenter"",""0"",""24345""
","
","null","<p></p>","null","","","","","","","",""
"","image","281","568347","0.0-240.0-0.0","""event"",""trial"",""time""
""fullscreenenter"",""0"",""24345""
","
","
","""event"",""trial"",""time""
""fullscreenenter"",""0"",""24345""
","
","1561.5","run_exp/static/images/Set 6_rs/025b.jpg","66","","","","","","test","TL","5"
"","show_choice","282","568865","0.0-240.0-1.0","""event"",""trial"",""time""
""fullscreenenter"",""0"",""24345""
","
","
","""event"",""trial"",""time""
""fullscreenenter"",""0"",""24345""
","
","null","run_exp/static/images/Set 6_rs/025b.jpg","null","","","","","","test","TL",""
"","html-keyboard-response","283","569381","0.0-240.0-2.0","""event"",""trial"",""time""
""fullscreenenter"",""0"",""24345""
","
","
","""event"",""trial"",""time""
""fullscreenenter"",""0"",""24345""
","
","null","<p></p>","null","","","","","","","",""
"","image","284","570685","0.0-241.0-0.0","""event"",""trial"",""time""
""fullscreenenter"",""0"",""24345""
","
","
","""event"",""trial"",""time""
""fullscreenenter"",""0"",""24345""
","
","1301.2999999523163","run_exp/static/images/Set 6_rs/063a.jpg","66","","","","","","test","TR","2"
"","show_choice","285","571195","0.0-241.0-1.0","""event"",""trial"",""time""
""fullscreenenter"",""0"",""24345""
","
","
","""event"",""trial"",""time""
""fullscreenenter"",""0"",""24345""
","
","null","run_exp/static/images/Set 6_rs/063a.jpg","null","","","","","","test","TR",""
"","html-keyboard-response","286","571712","0.0-241.0-2.0","""event"",""trial"",""time""
""fullscreenenter"",""0"",""24345""
","
","
","""event"",""trial"",""time""
""fullscreenenter"",""0"",""24345""
","
","null","<p></p>","null","","","","","","","",""
"","image","287","572538","0.0-242.0-0.0","""event"",""trial"",""time""
""fullscreenenter"",""0"",""24345""
","
","
","""event"",""trial"",""time""
""fullscreenenter"",""0"",""24345""
","
","823","run_exp/static/images/Set 6_rs/144b.jpg","66","","","","","","test","TL","4"
"","show_choice","288","573045","0.0-242.0-1.0","""event"",""trial"",""time""
""fullscreenenter"",""0"",""24345""
","
","
","""event"",""trial"",""time""
""fullscreenenter"",""0"",""24345""
","
","null","run_exp/static/images/Set 6_rs/144b.jpg","null","","","","","","test","TL",""
"","html-keyboard-response","289","573562","0.0-242.0-2.0","""event"",""trial"",""time""
""fullscreenenter"",""0"",""24345""
","
","
","""event"",""trial"",""time""
""fullscreenenter"",""0"",""24345""
","
","null","<p></p>","null","","","","","","","",""
"","image","290","574428","0.0-243.0-0.0","""event"",""trial"",""time""
""fullscreenenter"",""0"",""24345""
","
","
","""event"",""trial"",""time""
""fullscreenenter"",""0"",""24345""
","
","863.4000000953674","run_exp/static/images/Set 6_rs/167b.jpg","66","","","","","","test","TL","2"
"","show_choice","291","574942","0.0-243.0-1.0","""event"",""trial"",""time""
""fullscreenenter"",""0"",""24345""
","
","
","""event"",""trial"",""time""
""fullscreenenter"",""0"",""24345""
","
","null","run_exp/static/images/Set 6_rs/167b.jpg","null","","","","","","test","TL",""
"","html-keyboard-response","292","575458","0.0-243.0-2.0","""event"",""trial"",""time""
""fullscreenenter"",""0"",""24345""
","
","
","""event"",""trial"",""time""
""fullscreenenter"",""0"",""24345""
","
","null","<p></p>","null","","","","","","","",""
"","image","293","576644","0.0-244.0-0.0","""event"",""trial"",""time""
""fullscreenenter"",""0"",""24345""
","
","
","""event"",""trial"",""time""
""fullscreenenter"",""0"",""24345""
","
","1183.7000000476837","run_exp/static/images/Set 6_rs/047a.jpg","86","","","","","","test","TF","3"
"","show_choice","294","577156","0.0-244.0-1.0","""event"",""trial"",""time""
""fullscreenenter"",""0"",""24345""
","
","
","""event"",""trial"",""time""
""fullscreenenter"",""0"",""24345""
","
","null","run_exp/static/images/Set 6_rs/047a.jpg","null","","","","","","test","TF",""
"","html-keyboard-response","295","577673","0.0-244.0-2.0","""event"",""trial"",""time""
""fullscreenenter"",""0"",""24345""
","
","
","""event"",""trial"",""time""
""fullscreenenter"",""0"",""24345""
","
","null","<p></p>","null","","","","","","","",""
"","image","296","580111","0.0-245.0-0.0","""event"",""trial"",""time""
""fullscreenenter"",""0"",""24345""
","
","
","""event"",""trial"",""time""
""fullscreenenter"",""0"",""24345""
","
","2434.0999999046326","run_exp/static/images/Set 6_rs/132a.jpg","78","","","","","","test","TR","5"
"","show_choice","297","580622","0.0-245.0-1.0","""event"",""trial"",""time""
""fullscreenenter"",""0"",""24345""
","
","
","""event"",""trial"",""time""
""fullscreenenter"",""0"",""24345""
","
","null","run_exp/static/images/Set 6_rs/132a.jpg","null","","","","","","test","TR",""
"","html-keyboard-response","298","581137","0.0-245.0-2.0","""event"",""trial"",""time""
""fullscreenenter"",""0"",""24345""
","
","
","""event"",""trial"",""time""
""fullscreenenter"",""0"",""24345""
","
","null","<p></p>","null","","","","","","","",""
"","image","299","582628","0.0-246.0-0.0","""event"",""trial"",""time""
""fullscreenenter"",""0"",""24345""
","
","
","""event"",""trial"",""time""
""fullscreenenter"",""0"",""24345""
","
","1488.1999998092651","run_exp/static/images/Set 6_rs/057b.jpg","66","","","","","","test","TL","1"
"","show_choice","300","583143","0.0-246.0-1.0","""event"",""trial"",""time""
""fullscreenenter"",""0"",""24345""
","
","
","""event"",""trial"",""time""
""fullscreenenter"",""0"",""24345""
","
","null","run_exp/static/images/Set 6_rs/057b.jpg","null","","","","","","test","TL",""
"","html-keyboard-response","301","583651","0.0-246.0-2.0","""event"",""trial"",""time""
""fullscreenenter"",""0"",""24345""
","
","
","""event"",""trial"",""time""
""fullscreenenter"",""0"",""24345""
","
","null","<p></p>","null","","","","","","","",""
"","image","302","584989","0.0-247.0-0.0","""event"",""trial"",""time""
""fullscreenenter"",""0"",""24345""
","
","
","""event"",""trial"",""time""
""fullscreenenter"",""0"",""24345""
","
","1334.3999998569489","run_exp/static/images/Set 6_rs/141a.jpg","66","","","","","","test","TR","2"
"","show_choice","303","585505","0.0-247.0-1.0","""event"",""trial"",""time""
""fullscreenenter"",""0"",""24345""
","
","
","""event"",""trial"",""time""
""fullscreenenter"",""0"",""24345""
","
","null","run_exp/static/images/Set 6_rs/141a.jpg","null","","","","","","test","TR",""
"","html-keyboard-response","304","586015","0.0-247.0-2.0","""event"",""trial"",""time""
""fullscreenenter"",""0"",""24345""
","
","
","""event"",""trial"",""time""
""fullscreenenter"",""0"",""24345""
","
","null","<p></p>","null","","","","","","","",""
"","image","305","586852","0.0-248.0-0.0","""event"",""trial"",""time""
""fullscreenenter"",""0"",""24345""
","
","
","""event"",""trial"",""time""
""fullscreenenter"",""0"",""24345""
","
","833.7999999523163","run_exp/static/images/Set 6_rs/177a.jpg","66","","","","","","test","TR","5"
"","show_choice","306","587370","0.0-248.0-1.0","""event"",""trial"",""time""
""fullscreenenter"",""0"",""24345""
","
","
","""event"",""trial"",""time""
""fullscreenenter"",""0"",""24345""
","
","null","run_exp/static/images/Set 6_rs/177a.jpg","null","","","","","","test","TR",""
"","html-keyboard-response","307","587874","0.0-248.0-2.0","""event"",""trial"",""time""
""fullscreenenter"",""0"",""24345""
","
","
","""event"",""trial"",""time""
""fullscreenenter"",""0"",""24345""
","
","null","<p></p>","null","","","","","","","",""
"","image","308","588982","0.0-249.0-0.0","""event"",""trial"",""time""
""fullscreenenter"",""0"",""24345""
","
","
","""event"",""trial"",""time""
""fullscreenenter"",""0"",""24345""
","
","1104.2000000476837","run_exp/static/images/Set 6_rs/076a.jpg","66","","","","","","test","TR","4"
"","show_choice","309","589496","0.0-249.0-1.0","""event"",""trial"",""time""
""fullscreenenter"",""0"",""24345""
","
","
","""event"",""trial"",""time""
""fullscreenenter"",""0"",""24345""
","
","null","run_exp/static/images/Set 6_rs/076a.jpg","null","","","","","","test","TR",""
"","html-keyboard-response","310","590013","0.0-249.0-2.0","""event"",""trial"",""time""
""fullscreenenter"",""0"",""24345""
","
","
","""event"",""trial"",""time""
""fullscreenenter"",""0"",""24345""
","
","null","<p></p>","null","","","","","","","",""
"","image","311","591023","0.0-250.0-0.0","""event"",""trial"",""time""
""fullscreenenter"",""0"",""24345""
","
","
","""event"",""trial"",""time""
""fullscreenenter"",""0"",""24345""
","
","1006.7000000476837","run_exp/static/images/Set 6_rs/108a.jpg","66","","","","","","test","TR","5"
"","show_choice","312","591542","0.0-250.0-1.0","""event"",""trial"",""time""
""fullscreenenter"",""0"",""24345""
","
","
","""event"",""trial"",""time""
""fullscreenenter"",""0"",""24345""
","
","null","run_exp/static/images/Set 6_rs/108a.jpg","null","","","","","","test","TR",""
"","html-keyboard-response","313","592045","0.0-250.0-2.0","""event"",""trial"",""time""
""fullscreenenter"",""0"",""24345""
","
","
","""event"",""trial"",""time""
""fullscreenenter"",""0"",""24345""
","
","null","<p></p>","null","","","","","","","",""
"","image","314","593575","0.0-251.0-0.0","""event"",""trial"",""time""
""fullscreenenter"",""0"",""24345""
","
","
","""event"",""trial"",""time""
""fullscreenenter"",""0"",""24345""
","
","1527.1000001430511","run_exp/static/images/Set 6_rs/048a.jpg","78","","","","","","test","TF","4"
"","show_choice","315","594091","0.0-251.0-1.0","""event"",""trial"",""time""
""fullscreenenter"",""0"",""24345""
","
","
","""event"",""trial"",""time""
""fullscreenenter"",""0"",""24345""
","
","null","run_exp/static/images/Set 6_rs/048a.jpg","null","","","","","","test","TF",""
"","html-keyboard-response","316","594608","0.0-251.0-2.0","""event"",""trial"",""time""
""fullscreenenter"",""0"",""24345""
","
","
","""event"",""trial"",""time""
""fullscreenenter"",""0"",""24345""
","
","null","<p></p>","null","","","","","","","",""
"","image","317","595681","0.0-252.0-0.0","""event"",""trial"",""time""
""fullscreenenter"",""0"",""24345""
","
","
","""event"",""trial"",""time""
""fullscreenenter"",""0"",""24345""
","
","1070.2999999523163","run_exp/static/images/Set 6_rs/187a.jpg","66","","","","","","test","TR","3"
"","show_choice","318","596190","0.0-252.0-1.0","""event"",""trial"",""time""
""fullscreenenter"",""0"",""24345""
","
","
","""event"",""trial"",""time""
""fullscreenenter"",""0"",""24345""
","
","null","run_exp/static/images/Set 6_rs/187a.jpg","null","","","","","","test","TR",""
"","html-keyboard-response","319","596706","0.0-252.0-2.0","""event"",""trial"",""time""
""fullscreenenter"",""0"",""24345""
","
","
","""event"",""trial"",""time""
""fullscreenenter"",""0"",""24345""
","
","null","<p></p>","null","","","","","","","",""
"","image","320","597640","0.0-253.0-0.0","""event"",""trial"",""time""
""fullscreenenter"",""0"",""24345""
","
","
","""event"",""trial"",""time""
""fullscreenenter"",""0"",""24345""
","
","930.7999999523163","run_exp/static/images/Set 6_rs/055b.jpg","66","","","","","","test","TL","4"
"","show_choice","321","598155","0.0-253.0-1.0","""event"",""trial"",""time""
""fullscreenenter"",""0"",""24345""
","
","
","""event"",""trial"",""time""
""fullscreenenter"",""0"",""24345""
","
","null","run_exp/static/images/Set 6_rs/055b.jpg","null","","","","","","test","TL",""
"","html-keyboard-response","322","598670","0.0-253.0-2.0","""event"",""trial"",""time""
""fullscreenenter"",""0"",""24345""
","
","
","""event"",""trial"",""time""
""fullscreenenter"",""0"",""24345""
","
","null","<p></p>","null","","","","","","","",""
"","image","323","599581","0.0-254.0-0.0","""event"",""trial"",""time""
""fullscreenenter"",""0"",""24345""
","
","
","""event"",""trial"",""time""
""fullscreenenter"",""0"",""24345""
","
","907.6999998092651","run_exp/static/images/Set 6_rs/061a.jpg","66","","","","","","test","TR","5"
"","show_choice","324","600087","0.0-254.0-1.0","""event"",""trial"",""time""
""fullscreenenter"",""0"",""24345""
","
","
","""event"",""trial"",""time""
""fullscreenenter"",""0"",""24345""
","
","null","run_exp/static/images/Set 6_rs/061a.jpg","null","","","","","","test","TR",""
"","html-keyboard-response","325","600602","0.0-254.0-2.0","""event"",""trial"",""time""
""fullscreenenter"",""0"",""24345""
","
","
","""event"",""trial"",""time""
""fullscreenenter"",""0"",""24345""
","
","null","<p></p>","null","","","","","","","",""
"","image","326","601538","0.0-255.0-0.0","""event"",""trial"",""time""
""fullscreenenter"",""0"",""24345""
","
","
","""event"",""trial"",""time""
""fullscreenenter"",""0"",""24345""
","
","931.9000000953674","run_exp/static/images/Set 6_rs/129b.jpg","66","","","","","","test","TL","1"
"","show_choice","327","602050","0.0-255.0-1.0","""event"",""trial"",""time""
""fullscreenenter"",""0"",""24345""
","
","
","""event"",""trial"",""time""
""fullscreenenter"",""0"",""24345""
","
","null","run_exp/static/images/Set 6_rs/129b.jpg","null","","","","","","test","TL",""
"","html-keyboard-response","328","602567","0.0-255.0-2.0","""event"",""trial"",""time""
""fullscreenenter"",""0"",""24345""
","
","
","""event"",""trial"",""time""
""fullscreenenter"",""0"",""24345""
","
","null","<p></p>","null","","","","","","","",""
"","image","329","603437","0.0-256.0-0.0","""event"",""trial"",""time""
""fullscreenenter"",""0"",""24345""
","
","
","""event"",""trial"",""time""
""fullscreenenter"",""0"",""24345""
","
","867.5","run_exp/static/images/Set 6_rs/010a.jpg","66","","","","","","test","TR","5"
"","show_choice","330","603941","0.0-256.0-1.0","""event"",""trial"",""time""
""fullscreenenter"",""0"",""24345""
","
","
","""event"",""trial"",""time""
""fullscreenenter"",""0"",""24345""
","
","null","run_exp/static/images/Set 6_rs/010a.jpg","null","","","","","","test","TR",""
"","html-keyboard-response","331","604451","0.0-256.0-2.0","""event"",""trial"",""time""
""fullscreenenter"",""0"",""24345""
","
","
","""event"",""trial"",""time""
""fullscreenenter"",""0"",""24345""
","
","null","<p></p>","null","","","","","","","",""
"","image","332","605530","0.0-257.0-0.0","""event"",""trial"",""time""
""fullscreenenter"",""0"",""24345""
","
","
","""event"",""trial"",""time""
""fullscreenenter"",""0"",""24345""
","
","1075.9000000953674","run_exp/static/images/Set 6_rs/178a.jpg","66","","","","","","test","TR","3"
"","show_choice","333","606047","0.0-257.0-1.0","""event"",""trial"",""time""
""fullscreenenter"",""0"",""24345""
","
","
","""event"",""trial"",""time""
""fullscreenenter"",""0"",""24345""
","
","null","run_exp/static/images/Set 6_rs/178a.jpg","null","","","","","","test","TR",""
"","html-keyboard-response","334","606552","0.0-257.0-2.0","""event"",""trial"",""time""
""fullscreenenter"",""0"",""24345""
","
","
","""event"",""trial"",""time""
""fullscreenenter"",""0"",""24345""
","
","null","<p></p>","null","","","","","","","",""
"","image","335","607406","0.0-258.0-0.0","""event"",""trial"",""time""
""fullscreenenter"",""0"",""24345""
","
","
","""event"",""trial"",""time""
""fullscreenenter"",""0"",""24345""
","
","849.6000001430511","run_exp/static/images/Set 6_rs/088a.jpg","66","","","","","","test","TR","2"
"","show_choice","336","607923","0.0-258.0-1.0","""event"",""trial"",""time""
