"success","trial_type","trial_index","time_elapsed","internal_node_id","interactions","blur_events","focus_events","fullscreenenter_events","fullscreenexit_events","rt","stimulus","key_press","subject_id","participant_id","age","gender","prompt","phase","condition","lure_bin"
"true","fullscreen","0","3161","0.0-0.0","""event"",""trial"",""time""
""fullscreenenter"",""0"",""2187""
","
","
","""event"",""trial"",""time""
""fullscreenenter"",""0"",""2187""
","
","","","","","","","","","","",""
"","pavlovia","1","3167","0.0-1.0","""event"",""trial"",""time""
""fullscreenenter"",""0"",""2187""
","
","
","""event"",""trial"",""time""
""fullscreenenter"",""0"",""2187""
","
","","","","","","","","","","",""
"","welcome","2","37936","0.0-2.0","""event"",""trial"",""time""
""fullscreenenter"",""0"",""2187""
","
","
","""event"",""trial"",""time""
""fullscreenenter"",""0"",""2187""
","
","null","run_exp/static/audio/clip_1_welcome.m4a","null","485","754","20","Male","<div class='center'><p>Welcome to the third part of the study! First, you'll be shown pictures of items one at a time. For each picture, you have to decide if the item is typically found indoors or outdoors.</p><p>If you think it's usually found indoors, then press <b>v</b> key on your keyboard. If you think it's usually found outdoors, then press the <b>n</b> key.There will be reminders on the screen to help you remember which keys to press. </p><p>If you're not sure whether the item is an indoor item or an outdoor item, go ahead and take a guess but try your best not to skip that choice. </p></div>","","",""
"","html-keyboard-response","3","38166","0.0-3.0","""event"",""trial"",""time""
""fullscreenenter"",""0"",""2187""
","
","
","""event"",""trial"",""time""
""fullscreenenter"",""0"",""2187""
","
","227.39999997615814","<div class='center'><p>Welcome to the third part of the study! First, you'll be shown pictures of items one at a time. For each picture, you have to decide if the item is typically found indoors or outdoors.</p><p>If you think it's usually found indoors, then press <b>v</b> key on your keyboard. If you think it's usually found outdoors, then press the <b>n</b> key.There will be reminders on the screen to help you remember which keys to press. </p><p>If you're not sure whether the item is an indoor item or an outdoor item, go ahead and take a guess but try your best not to skip that choice. </p><div><p><b>[Press the space bar to continue]</b></p></div>","32","","","","","","","",""
"","image","4","40171","0.0-4.0","""event"",""trial"",""time""
""fullscreenenter"",""0"",""2187""
","
","
","""event"",""trial"",""time""
""fullscreenenter"",""0"",""2187""
","
","null","run_exp/static/images/Set 6_rs/075a.jpg","null","","","","","","learn","SR",""
"","show_choice","5","42175","0.0-5.0","""event"",""trial"",""time""
""fullscreenenter"",""0"",""2187""
","
","
","""event"",""trial"",""time""
""fullscreenenter"",""0"",""2187""
","
","null","run_exp/static/images/blank.png","null","","","","","","learn","SR",""
"","html-keyboard-response","6","42677","0.0-6.0","""event"",""trial"",""time""
""fullscreenenter"",""0"",""2187""
","
","
","""event"",""trial"",""time""
""fullscreenenter"",""0"",""2187""
","
","null","<p></p>","null","","","","","","","",""
"","image","7","43425","0.0-7.0","""event"",""trial"",""time""
""fullscreenenter"",""0"",""2187""
","
","
","""event"",""trial"",""time""
""fullscreenenter"",""0"",""2187""
","
","745.1000000238419","run_exp/static/images/Set 6_rs/073a.jpg","86","","","","","","learn","SL",""
"","show_choice","8","44683","0.0-8.0","""event"",""trial"",""time""
""fullscreenenter"",""0"",""2187""
","
","
","""event"",""trial"",""time""
""fullscreenenter"",""0"",""2187""
","
","null","run_exp/static/images/Set 6_rs/073a.jpg","null","","","","","","learn","SL",""
"","html-keyboard-response","9","45186","0.0-9.0","""event"",""trial"",""time""
""fullscreenenter"",""0"",""2187""
","
","
","""event"",""trial"",""time""
""fullscreenenter"",""0"",""2187""
","
","null","<p></p>","null","","","","","","","",""
"","image","10","45955","0.0-10.0","""event"",""trial"",""time""
""fullscreenenter"",""0"",""2187""
","
","
","""event"",""trial"",""time""
""fullscreenenter"",""0"",""2187""
","
","767.6000000238419","run_exp/static/images/Set 6_rs/169a.jpg","78","","","","","","learn","SR",""
"","show_choice","11","47199","0.0-11.0","""event"",""trial"",""time""
""fullscreenenter"",""0"",""2187""
","
","
","""event"",""trial"",""time""
""fullscreenenter"",""0"",""2187""
","
","null","run_exp/static/images/Set 6_rs/169a.jpg","null","","","","","","learn","SR",""
"","html-keyboard-response","12","47701","0.0-12.0","""event"",""trial"",""time""
""fullscreenenter"",""0"",""2187""
","
","
","""event"",""trial"",""time""
""fullscreenenter"",""0"",""2187""
","
","null","<p></p>","null","","","","","","","",""
"","image","13","48399","0.0-13.0","""event"",""trial"",""time""
""fullscreenenter"",""0"",""2187""
","
","
","""event"",""trial"",""time""
""fullscreenenter"",""0"",""2187""
","
","694.6000000238419","run_exp/static/images/Set 6_rs/177a.jpg","86","","","","","","learn","SR",""
"","show_choice","14","49707","0.0-14.0","""event"",""trial"",""time""
""fullscreenenter"",""0"",""2187""
","
","
","""event"",""trial"",""time""
""fullscreenenter"",""0"",""2187""
","
","null","run_exp/static/images/Set 6_rs/177a.jpg","null","","","","","","learn","SR",""
"","html-keyboard-response","15","50210","0.0-15.0","""event"",""trial"",""time""
""fullscreenenter"",""0"",""2187""
","
","
","""event"",""trial"",""time""
""fullscreenenter"",""0"",""2187""
","
","null","<p></p>","null","","","","","","","",""
"","image","16","51324","0.0-16.0","""event"",""trial"",""time""
""fullscreenenter"",""0"",""2187""
","
","
","""event"",""trial"",""time""
""fullscreenenter"",""0"",""2187""
","
","1111.7000000476837","run_exp/static/images/Set 6_rs/017a.jpg","86","","","","","","learn","SL",""
"","show_choice","17","52215","0.0-17.0","""event"",""trial"",""time""
""fullscreenenter"",""0"",""2187""
","
","
","""event"",""trial"",""time""
""fullscreenenter"",""0"",""2187""
","
","null","run_exp/static/images/Set 6_rs/017a.jpg","null","","","","","","learn","SL",""
"","html-keyboard-response","18","52722","0.0-18.0","""event"",""trial"",""time""
""fullscreenenter"",""0"",""2187""
","
","
","""event"",""trial"",""time""
""fullscreenenter"",""0"",""2187""
","
","null","<p></p>","null","","","","","","","",""
"","image","19","53634","0.0-19.0","""event"",""trial"",""time""
""fullscreenenter"",""0"",""2187""
","
","
","""event"",""trial"",""time""
""fullscreenenter"",""0"",""2187""
","
","911.5","run_exp/static/images/Set 6_rs/121a.jpg","86","","","","","","learn","SR",""
"","show_choice","20","54724","0.0-20.0","""event"",""trial"",""time""
""fullscreenenter"",""0"",""2187""
","
","
","""event"",""trial"",""time""
""fullscreenenter"",""0"",""2187""
","
","null","run_exp/static/images/Set 6_rs/121a.jpg","null","","","","","","learn","SR",""
"","html-keyboard-response","21","55226","0.0-21.0","""event"",""trial"",""time""
""fullscreenenter"",""0"",""2187""
","
","
","""event"",""trial"",""time""
""fullscreenenter"",""0"",""2187""
","
","null","<p></p>","null","","","","","","","",""
"","image","22","56020","0.0-22.0","""event"",""trial"",""time""
""fullscreenenter"",""0"",""2187""
","
","
","""event"",""trial"",""time""
""fullscreenenter"",""0"",""2187""
","
","792","run_exp/static/images/Set 6_rs/016a.jpg","86","","","","","","learn","SL",""
"","show_choice","23","57230","0.0-23.0","""event"",""trial"",""time""
""fullscreenenter"",""0"",""2187""
","
","
","""event"",""trial"",""time""
""fullscreenenter"",""0"",""2187""
","
","null","run_exp/static/images/Set 6_rs/016a.jpg","null","","","","","","learn","SL",""
"","html-keyboard-response","24","57731","0.0-24.0","""event"",""trial"",""time""
""fullscreenenter"",""0"",""2187""
","
","
","""event"",""trial"",""time""
""fullscreenenter"",""0"",""2187""
","
","null","<p></p>","null","","","","","","","",""
"","image","25","58467","0.0-25.0","""event"",""trial"",""time""
""fullscreenenter"",""0"",""2187""
","
","
","""event"",""trial"",""time""
""fullscreenenter"",""0"",""2187""
","
","733.2000000476837","run_exp/static/images/Set 6_rs/187a.jpg","86","","","","","","learn","SR",""
"","show_choice","26","59736","0.0-26.0","""event"",""trial"",""time""
""fullscreenenter"",""0"",""2187""
","
","
","""event"",""trial"",""time""
""fullscreenenter"",""0"",""2187""
","
","null","run_exp/static/images/Set 6_rs/187a.jpg","null","","","","","","learn","SR",""
"","html-keyboard-response","27","60239","0.0-27.0","""event"",""trial"",""time""
""fullscreenenter"",""0"",""2187""
","
","
","""event"",""trial"",""time""
""fullscreenenter"",""0"",""2187""
","
","null","<p></p>","null","","","","","","","",""
"","image","28","61056","0.0-28.0","""event"",""trial"",""time""
""fullscreenenter"",""0"",""2187""
","
","
","""event"",""trial"",""time""
""fullscreenenter"",""0"",""2187""
","
","815","run_exp/static/images/Set 6_rs/154a.jpg","86","","","","","","learn","SR",""
"","show_choice","29","62244","0.0-29.0","""event"",""trial"",""time""
""fullscreenenter"",""0"",""2187""
","
","
","""event"",""trial"",""time""
""fullscreenenter"",""0"",""2187""
","
","null","run_exp/static/images/Set 6_rs/154a.jpg","null","","","","","","learn","SR",""
"","html-keyboard-response","30","62745","0.0-30.0","""event"",""trial"",""time""
""fullscreenenter"",""0"",""2187""
","
","
","""event"",""trial"",""time""
""fullscreenenter"",""0"",""2187""
","
","null","<p></p>","null","","","","","","","",""
"","image","31","63536","0.0-31.0","""event"",""trial"",""time""
""fullscreenenter"",""0"",""2187""
","
","
","""event"",""trial"",""time""
""fullscreenenter"",""0"",""2187""
","
","789.1999999284744","run_exp/static/images/Set 6_rs/055a.jpg","86","","","","","","learn","SL",""
"","show_choice","32","64755","0.0-32.0","""event"",""trial"",""time""
""fullscreenenter"",""0"",""2187""
","
","
","""event"",""trial"",""time""
""fullscreenenter"",""0"",""2187""
","
","null","run_exp/static/images/Set 6_rs/055a.jpg","null","","","","","","learn","SL",""
"","html-keyboard-response","33","65269","0.0-33.0","""event"",""trial"",""time""
""fullscreenenter"",""0"",""2187""
","
","
","""event"",""trial"",""time""
""fullscreenenter"",""0"",""2187""
","
","null","<p></p>","null","","","","","","","",""
"","image","34","66029","0.0-34.0","""event"",""trial"",""time""
""fullscreenenter"",""0"",""2187""
","
","
","""event"",""trial"",""time""
""fullscreenenter"",""0"",""2187""
","
","759.2000000476837","run_exp/static/images/Set 6_rs/172a.jpg","78","","","","","","learn","SR",""
"","show_choice","35","67270","0.0-35.0","""event"",""trial"",""time""
""fullscreenenter"",""0"",""2187""
","
","
","""event"",""trial"",""time""
""fullscreenenter"",""0"",""2187""
","
","null","run_exp/static/images/Set 6_rs/172a.jpg","null","","","","","","learn","SR",""
"","html-keyboard-response","36","67772","0.0-36.0","""event"",""trial"",""time""
""fullscreenenter"",""0"",""2187""
","
","
","""event"",""trial"",""time""
""fullscreenenter"",""0"",""2187""
","
","null","<p></p>","null","","","","","","","",""
"","image","37","68744","0.0-37.0","""event"",""trial"",""time""
""fullscreenenter"",""0"",""2187""
","
","
","""event"",""trial"",""time""
""fullscreenenter"",""0"",""2187""
","
","969.3000000715256","run_exp/static/images/Set 6_rs/191a.jpg","86","","","","","","learn","SL",""
"","show_choice","38","69777","0.0-38.0","""event"",""trial"",""time""
""fullscreenenter"",""0"",""2187""
","
","
","""event"",""trial"",""time""
""fullscreenenter"",""0"",""2187""
","
","null","run_exp/static/images/Set 6_rs/191a.jpg","null","","","","","","learn","SL",""
"","html-keyboard-response","39","70279","0.0-39.0","""event"",""trial"",""time""
""fullscreenenter"",""0"",""2187""
","
","
","""event"",""trial"",""time""
""fullscreenenter"",""0"",""2187""
","
","null","<p></p>","null","","","","","","","",""
"","image","40","70968","0.0-40.0","""event"",""trial"",""time""
""fullscreenenter"",""0"",""2187""
","
","
","""event"",""trial"",""time""
""fullscreenenter"",""0"",""2187""
","
","686","run_exp/static/images/Set 6_rs/166a.jpg","86","","","","","","learn","SR",""
"","show_choice","41","72285","0.0-41.0","""event"",""trial"",""time""
""fullscreenenter"",""0"",""2187""
","
","
","""event"",""trial"",""time""
""fullscreenenter"",""0"",""2187""
","
","null","run_exp/static/images/Set 6_rs/166a.jpg","null","","","","","","learn","SR",""
"","html-keyboard-response","42","72788","0.0-42.0","""event"",""trial"",""time""
""fullscreenenter"",""0"",""2187""
","
","
","""event"",""trial"",""time""
""fullscreenenter"",""0"",""2187""
","
","null","<p></p>","null","","","","","","","",""
"","image","43","73951","0.0-43.0","""event"",""trial"",""time""
""fullscreenenter"",""0"",""2187""
","
","
","""event"",""trial"",""time""
""fullscreenenter"",""0"",""2187""
","
","1161.6000000238419","run_exp/static/images/Set 6_rs/111a.jpg","86","","","","","","learn","SL",""
"","show_choice","44","74792","0.0-44.0","""event"",""trial"",""time""
""fullscreenenter"",""0"",""2187""
","
","
","""event"",""trial"",""time""
""fullscreenenter"",""0"",""2187""
","
","null","run_exp/static/images/Set 6_rs/111a.jpg","null","","","","","","learn","SL",""
"","html-keyboard-response","45","75294","0.0-45.0","""event"",""trial"",""time""
""fullscreenenter"",""0"",""2187""
","
","
","""event"",""trial"",""time""
""fullscreenenter"",""0"",""2187""
","
","null","<p></p>","null","","","","","","","",""
"","image","46","76165","0.0-46.0","""event"",""trial"",""time""
""fullscreenenter"",""0"",""2187""
","
","
","""event"",""trial"",""time""
""fullscreenenter"",""0"",""2187""
","
","867.9000000953674","run_exp/static/images/Set 6_rs/138a.jpg","78","","","","","","learn","SL",""
"","show_choice","47","77299","0.0-47.0","""event"",""trial"",""time""
""fullscreenenter"",""0"",""2187""
","
","
","""event"",""trial"",""time""
""fullscreenenter"",""0"",""2187""
","
","null","run_exp/static/images/Set 6_rs/138a.jpg","null","","","","","","learn","SL",""
"","html-keyboard-response","48","77801","0.0-48.0","""event"",""trial"",""time""
""fullscreenenter"",""0"",""2187""
","
","
","""event"",""trial"",""time""
""fullscreenenter"",""0"",""2187""
","
","null","<p></p>","null","","","","","","","",""
"","image","49","78866","0.0-49.0","""event"",""trial"",""time""
""fullscreenenter"",""0"",""2187""
","
","
","""event"",""trial"",""time""
""fullscreenenter"",""0"",""2187""
","
","1062.8000000715256","run_exp/static/images/Set 6_rs/050a.jpg","86","","","","","","learn","SL",""
"","show_choice","50","79804","0.0-50.0","""event"",""trial"",""time""
""fullscreenenter"",""0"",""2187""
","
","
","""event"",""trial"",""time""
""fullscreenenter"",""0"",""2187""
","
","null","run_exp/static/images/Set 6_rs/050a.jpg","null","","","","","","learn","SL",""
"","html-keyboard-response","51","80306","0.0-51.0","""event"",""trial"",""time""
""fullscreenenter"",""0"",""2187""
","
","
","""event"",""trial"",""time""
""fullscreenenter"",""0"",""2187""
","
","null","<p></p>","null","","","","","","","",""
"","image","52","81317","0.0-52.0","""event"",""trial"",""time""
""fullscreenenter"",""0"",""2187""
","
","
","""event"",""trial"",""time""
""fullscreenenter"",""0"",""2187""
","
","1007.6999999284744","run_exp/static/images/Set 6_rs/006a.jpg","86","","","","","","learn","SL",""
"","show_choice","53","82311","0.0-53.0","""event"",""trial"",""time""
""fullscreenenter"",""0"",""2187""
","
","
","""event"",""trial"",""time""
""fullscreenenter"",""0"",""2187""
","
","null","run_exp/static/images/Set 6_rs/006a.jpg","null","","","","","","learn","SL",""
"","html-keyboard-response","54","82813","0.0-54.0","""event"",""trial"",""time""
""fullscreenenter"",""0"",""2187""
","
","
","""event"",""trial"",""time""
""fullscreenenter"",""0"",""2187""
","
","null","<p></p>","null","","","","","","","",""
"","image","55","83580","0.0-55.0","""event"",""trial"",""time""
""fullscreenenter"",""0"",""2187""
","
","
","""event"",""trial"",""time""
""fullscreenenter"",""0"",""2187""
","
","764.2000000476837","run_exp/static/images/Set 6_rs/063a.jpg","86","","","","","","learn","SR",""
"","show_choice","56","84818","0.0-56.0","""event"",""trial"",""time""
""fullscreenenter"",""0"",""2187""
","
","
","""event"",""trial"",""time""
""fullscreenenter"",""0"",""2187""
","
","null","run_exp/static/images/Set 6_rs/063a.jpg","null","","","","","","learn","SR",""
"","html-keyboard-response","57","85319","0.0-57.0","""event"",""trial"",""time""
""fullscreenenter"",""0"",""2187""
","
","
","""event"",""trial"",""time""
""fullscreenenter"",""0"",""2187""
","
","null","<p></p>","null","","","","","","","",""
"","image","58","86427","0.0-58.0","""event"",""trial"",""time""
""fullscreenenter"",""0"",""2187""
","
","
","""event"",""trial"",""time""
""fullscreenenter"",""0"",""2187""
","
","1105.2999999523163","run_exp/static/images/Set 6_rs/012a.jpg","86","","","","","","learn","SR",""
"","show_choice","59","87324","0.0-59.0","""event"",""trial"",""time""
""fullscreenenter"",""0"",""2187""
","
","
","""event"",""trial"",""time""
""fullscreenenter"",""0"",""2187""
","
","null","run_exp/static/images/Set 6_rs/012a.jpg","null","","","","","","learn","SR",""
"","html-keyboard-response","60","87826","0.0-60.0","""event"",""trial"",""time""
""fullscreenenter"",""0"",""2187""
","
","
","""event"",""trial"",""time""
""fullscreenenter"",""0"",""2187""
","
","null","<p></p>","null","","","","","","","",""
"","image","61","88717","0.0-61.0","""event"",""trial"",""time""
""fullscreenenter"",""0"",""2187""
","
","
","""event"",""trial"",""time""
""fullscreenenter"",""0"",""2187""
","
","887.8999999761581","run_exp/static/images/Set 6_rs/088a.jpg","86","","","","","","learn","SR",""
"","show_choice","62","89831","0.0-62.0","""event"",""trial"",""time""
""fullscreenenter"",""0"",""2187""
","
","
","""event"",""trial"",""time""
""fullscreenenter"",""0"",""2187""
","
","null","run_exp/static/images/Set 6_rs/088a.jpg","null","","","","","","learn","SR",""
"","html-keyboard-response","63","90334","0.0-63.0","""event"",""trial"",""time""
""fullscreenenter"",""0"",""2187""
","
","
","""event"",""trial"",""time""
""fullscreenenter"",""0"",""2187""
","
","null","<p></p>","null","","","","","","","",""
"","image","64","91370","0.0-64.0","""event"",""trial"",""time""
""fullscreenenter"",""0"",""2187""
","
","
","""event"",""trial"",""time""
""fullscreenenter"",""0"",""2187""
","
","1034.9000000953674","run_exp/static/images/Set 6_rs/168a.jpg","86","","","","","","learn","SL",""
"","show_choice","65","92336","0.0-65.0","""event"",""trial"",""time""
""fullscreenenter"",""0"",""2187""
","
","
","""event"",""trial"",""time""
""fullscreenenter"",""0"",""2187""
","
","null","run_exp/static/images/Set 6_rs/168a.jpg","null","","","","","","learn","SL",""
"","html-keyboard-response","66","92839","0.0-66.0","""event"",""trial"",""time""
""fullscreenenter"",""0"",""2187""
","
","
","""event"",""trial"",""time""
""fullscreenenter"",""0"",""2187""
","
","null","<p></p>","null","","","","","","","",""
"","image","67","93807","0.0-67.0","""event"",""trial"",""time""
""fullscreenenter"",""0"",""2187""
","
","
","""event"",""trial"",""time""
""fullscreenenter"",""0"",""2187""
","
","967.1000000238419","run_exp/static/images/Set 6_rs/074a.jpg","78","","","","","","learn","SL",""
"","show_choice","68","94842","0.0-68.0","""event"",""trial"",""time""
""fullscreenenter"",""0"",""2187""
","
","
","""event"",""trial"",""time""
""fullscreenenter"",""0"",""2187""
","
","null","run_exp/static/images/Set 6_rs/074a.jpg","null","","","","","","learn","SL",""
"","html-keyboard-response","69","95345","0.0-69.0","""event"",""trial"",""time""
""fullscreenenter"",""0"",""2187""
","
","
","""event"",""trial"",""time""
""fullscreenenter"",""0"",""2187""
","
","null","<p></p>","null","","","","","","","",""
"","image","70","96040","0.0-70.0","""event"",""trial"",""time""
""fullscreenenter"",""0"",""2187""
","
","
","""event"",""trial"",""time""
""fullscreenenter"",""0"",""2187""
","
","692.5","run_exp/static/images/Set 6_rs/024a.jpg","86","","","","","","learn","SR",""
"","show_choice","71","97350","0.0-71.0","""event"",""trial"",""time""
""fullscreenenter"",""0"",""2187""
","
","
","""event"",""trial"",""time""
""fullscreenenter"",""0"",""2187""
","
","null","run_exp/static/images/Set 6_rs/024a.jpg","null","","","","","","learn","SR",""
"","html-keyboard-response","72","97853","0.0-72.0","""event"",""trial"",""time""
""fullscreenenter"",""0"",""2187""
","
","
","""event"",""trial"",""time""
""fullscreenenter"",""0"",""2187""
","
","null","<p></p>","null","","","","","","","",""
"","image","73","99118","0.0-73.0","""event"",""trial"",""time""
""fullscreenenter"",""0"",""2187""
","
","
","""event"",""trial"",""time""
""fullscreenenter"",""0"",""2187""
","
","1263.2000000476837","run_exp/static/images/Set 6_rs/167a.jpg","86","","","","","","learn","SL",""
"","show_choice","74","99857","0.0-74.0","""event"",""trial"",""time""
""fullscreenenter"",""0"",""2187""
","
","
","""event"",""trial"",""time""
""fullscreenenter"",""0"",""2187""
","
","null","run_exp/static/images/Set 6_rs/167a.jpg","null","","","","","","learn","SL",""
"","html-keyboard-response","75","100358","0.0-75.0","""event"",""trial"",""time""
""fullscreenenter"",""0"",""2187""
","
","
","""event"",""trial"",""time""
""fullscreenenter"",""0"",""2187""
","
","null","<p></p>","null","","","","","","","",""
"","image","76","101772","0.0-76.0","""event"",""trial"",""time""
""fullscreenenter"",""0"",""2187""
","
","
","""event"",""trial"",""time""
""fullscreenenter"",""0"",""2187""
","
","1411.3000000715256","run_exp/static/images/Set 6_rs/126a.jpg","78","","","","","","learn","SR",""
"","show_choice","77","102363","0.0-77.0","""event"",""trial"",""time""
""fullscreenenter"",""0"",""2187""
","
","
","""event"",""trial"",""time""
""fullscreenenter"",""0"",""2187""
","
","null","run_exp/static/images/Set 6_rs/126a.jpg","null","","","","","","learn","SR",""
"","html-keyboard-response","78","102865","0.0-78.0","""event"",""trial"",""time""
""fullscreenenter"",""0"",""2187""
","
","
","""event"",""trial"",""time""
""fullscreenenter"",""0"",""2187""
","
","null","<p></p>","null","","","","","","","",""
"","image","79","103663","0.0-79.0","""event"",""trial"",""time""
""fullscreenenter"",""0"",""2187""
","
","
","""event"",""trial"",""time""
""fullscreenenter"",""0"",""2187""
","
","794.8999999761581","run_exp/static/images/Set 6_rs/089a.jpg","86","","","","","","learn","SL",""
"","show_choice","80","104870","0.0-80.0","""event"",""trial"",""time""
""fullscreenenter"",""0"",""2187""
","
","
","""event"",""trial"",""time""
""fullscreenenter"",""0"",""2187""
","
","null","run_exp/static/images/Set 6_rs/089a.jpg","null","","","","","","learn","SL",""
"","html-keyboard-response","81","105371","0.0-81.0","""event"",""trial"",""time""
""fullscreenenter"",""0"",""2187""
","
","
","""event"",""trial"",""time""
""fullscreenenter"",""0"",""2187""
","
","null","<p></p>","null","","","","","","","",""
"","image","82","106189","0.0-82.0","""event"",""trial"",""time""
""fullscreenenter"",""0"",""2187""
","
","
","""event"",""trial"",""time""
""fullscreenenter"",""0"",""2187""
","
","815.1000000238419","run_exp/static/images/Set 6_rs/023a.jpg","86","","","","","","learn","SR",""
"","show_choice","83","107375","0.0-83.0","""event"",""trial"",""time""
""fullscreenenter"",""0"",""2187""
","
","
","""event"",""trial"",""time""
""fullscreenenter"",""0"",""2187""
","
","null","run_exp/static/images/Set 6_rs/023a.jpg","null","","","","","","learn","SR",""
"","html-keyboard-response","84","107892","0.0-84.0","""event"",""trial"",""time""
""fullscreenenter"",""0"",""2187""
","
","
","""event"",""trial"",""time""
""fullscreenenter"",""0"",""2187""
","
","null","<p></p>","null","","","","","","","",""
"","image","85","108632","0.0-85.0","""event"",""trial"",""time""
""fullscreenenter"",""0"",""2187""
","
","
","""event"",""trial"",""time""
""fullscreenenter"",""0"",""2187""
","
","738.5999999046326","run_exp/static/images/Set 6_rs/181a.jpg","78","","","","","","learn","SL",""
"","show_choice","86","109895","0.0-86.0","""event"",""trial"",""time""
""fullscreenenter"",""0"",""2187""
","
","
","""event"",""trial"",""time""
""fullscreenenter"",""0"",""2187""
","
","null","run_exp/static/images/Set 6_rs/181a.jpg","null","","","","","","learn","SL",""
"","html-keyboard-response","87","110397","0.0-87.0","""event"",""trial"",""time""
""fullscreenenter"",""0"",""2187""
","
","
","""event"",""trial"",""time""
""fullscreenenter"",""0"",""2187""
","
","null","<p></p>","null","","","","","","","",""
"","image","88","111550","0.0-88.0","""event"",""trial"",""time""
""fullscreenenter"",""0"",""2187""
","
","
","""event"",""trial"",""time""
""fullscreenenter"",""0"",""2187""
","
","1148","run_exp/static/images/Set 6_rs/117a.jpg","78","","","","","","learn","SL",""
"","show_choice","89","112405","0.0-89.0","""event"",""trial"",""time""
""fullscreenenter"",""0"",""2187""
","
","
","""event"",""trial"",""time""
""fullscreenenter"",""0"",""2187""
","
","null","run_exp/static/images/Set 6_rs/117a.jpg","null","","","","","","learn","SL",""
"","html-keyboard-response","90","112907","0.0-90.0","""event"",""trial"",""time""
""fullscreenenter"",""0"",""2187""
","
","
","""event"",""trial"",""time""
""fullscreenenter"",""0"",""2187""
","
","null","<p></p>","null","","","","","","","",""
"","image","91","114011","0.0-91.0","""event"",""trial"",""time""
""fullscreenenter"",""0"",""2187""
","
","
","""event"",""trial"",""time""
""fullscreenenter"",""0"",""2187""
","
","1102.0999999046326","run_exp/static/images/Set 6_rs/008a.jpg","86","","","","","","learn","SL",""
"","show_choice","92","114910","0.0-92.0","""event"",""trial"",""time""
""fullscreenenter"",""0"",""2187""
","
","
","""event"",""trial"",""time""
""fullscreenenter"",""0"",""2187""
","
","null","run_exp/static/images/Set 6_rs/008a.jpg","null","","","","","","learn","SL",""
"","html-keyboard-response","93","115412","0.0-93.0","""event"",""trial"",""time""
""fullscreenenter"",""0"",""2187""
","
","
","""event"",""trial"",""time""
""fullscreenenter"",""0"",""2187""
","
","null","<p></p>","null","","","","","","","",""
"","image","94","116327","0.0-94.0","""event"",""trial"",""time""
""fullscreenenter"",""0"",""2187""
","
","
","""event"",""trial"",""time""
""fullscreenenter"",""0"",""2187""
","
","913.5","run_exp/static/images/Set 6_rs/129a.jpg","86","","","","","","learn","SL",""
"","show_choice","95","117416","0.0-95.0","""event"",""trial"",""time""
""fullscreenenter"",""0"",""2187""
","
","
","""event"",""trial"",""time""
""fullscreenenter"",""0"",""2187""
","
","null","run_exp/static/images/Set 6_rs/129a.jpg","null","","","","","","learn","SL",""
"","html-keyboard-response","96","117918","0.0-96.0","""event"",""trial"",""time""
""fullscreenenter"",""0"",""2187""
","
","
","""event"",""trial"",""time""
""fullscreenenter"",""0"",""2187""
","
","null","<p></p>","null","","","","","","","",""
"","image","97","118784","0.0-97.0","""event"",""trial"",""time""
""fullscreenenter"",""0"",""2187""
","
","
","""event"",""trial"",""time""
""fullscreenenter"",""0"",""2187""
","
","865.1000000238419","run_exp/static/images/Set 6_rs/010a.jpg","86","","","","","","learn","SR",""
"","show_choice","98","119921","0.0-98.0","""event"",""trial"",""time""
""fullscreenenter"",""0"",""2187""
","
","
","""event"",""trial"",""time""
""fullscreenenter"",""0"",""2187""
","
","null","run_exp/static/images/Set 6_rs/010a.jpg","null","","","","","","learn","SR",""
"","html-keyboard-response","99","120423","0.0-99.0","""event"",""trial"",""time""
""fullscreenenter"",""0"",""2187""
","
","
","""event"",""trial"",""time""
""fullscreenenter"",""0"",""2187""
","
","null","<p></p>","null","","","","","","","",""
"","image","100","121550","0.0-100.0","""event"",""trial"",""time""
""fullscreenenter"",""0"",""2187""
","
","
","""event"",""trial"",""time""
""fullscreenenter"",""0"",""2187""
","
","1124.2999999523163","run_exp/static/images/Set 6_rs/122a.jpg","86","","","","","","learn","SR",""
"","show_choice","101","122427","0.0-101.0","""event"",""trial"",""time""
""fullscreenenter"",""0"",""2187""
","
","
","""event"",""trial"",""time""
""fullscreenenter"",""0"",""2187""
","
","null","run_exp/static/images/Set 6_rs/122a.jpg","null","","","","","","learn","SR",""
"","html-keyboard-response","102","122930","0.0-102.0","""event"",""trial"",""time""
""fullscreenenter"",""0"",""2187""
","
","
","""event"",""trial"",""time""
""fullscreenenter"",""0"",""2187""
","
","null","<p></p>","null","","","","","","","",""
"","image","103","123988","0.0-103.0","""event"",""trial"",""time""
""fullscreenenter"",""0"",""2187""
","
","
","""event"",""trial"",""time""
""fullscreenenter"",""0"",""2187""
","
","1055.6000000238419","run_exp/static/images/Set 6_rs/066a.jpg","78","","","","","","learn","SL",""
"","show_choice","104","124934","0.0-104.0","""event"",""trial"",""time""
""fullscreenenter"",""0"",""2187""
","
","
","""event"",""trial"",""time""
""fullscreenenter"",""0"",""2187""
","
","null","run_exp/static/images/Set 6_rs/066a.jpg","null","","","","","","learn","SL",""
"","html-keyboard-response","105","125446","0.0-105.0","""event"",""trial"",""time""
""fullscreenenter"",""0"",""2187""
","
","
","""event"",""trial"",""time""
""fullscreenenter"",""0"",""2187""
","
","null","<p></p>","null","","","","","","","",""
"","image","106","126141","0.0-106.0","""event"",""trial"",""time""
""fullscreenenter"",""0"",""2187""
","
","
","""event"",""trial"",""time""
""fullscreenenter"",""0"",""2187""
","
","692.6000000238419","run_exp/static/images/Set 6_rs/116a.jpg","78","","","","","","learn","SL",""
"","show_choice","107","127451","0.0-107.0","""event"",""trial"",""time""
""fullscreenenter"",""0"",""2187""
","
","
","""event"",""trial"",""time""
""fullscreenenter"",""0"",""2187""
","
","null","run_exp/static/images/Set 6_rs/116a.jpg","null","","","","","","learn","SL",""
"","html-keyboard-response","108","127952","0.0-108.0","""event"",""trial"",""time""
""fullscreenenter"",""0"",""2187""
","
","
","""event"",""trial"",""time""
""fullscreenenter"",""0"",""2187""
","
","null","<p></p>","null","","","","","","","",""
"","image","109","128873","0.0-109.0","""event"",""trial"",""time""
""fullscreenenter"",""0"",""2187""
","
","
","""event"",""trial"",""time""
""fullscreenenter"",""0"",""2187""
","
","918.5999999046326","run_exp/static/images/Set 6_rs/123a.jpg","78","","","","","","learn","SL",""
"","show_choice","110","129956","0.0-110.0","""event"",""trial"",""time""
""fullscreenenter"",""0"",""2187""
","
","
","""event"",""trial"",""time""
""fullscreenenter"",""0"",""2187""
","
","null","run_exp/static/images/Set 6_rs/123a.jpg","null","","","","","","learn","SL",""
"","html-keyboard-response","111","130457","0.0-111.0","""event"",""trial"",""time""
""fullscreenenter"",""0"",""2187""
","
","
","""event"",""trial"",""time""
""fullscreenenter"",""0"",""2187""
","
","null","<p></p>","null","","","","","","","",""
"","image","112","131461","0.0-112.0","""event"",""trial"",""time""
""fullscreenenter"",""0"",""2187""
","
","
","""event"",""trial"",""time""
""fullscreenenter"",""0"",""2187""
","
","1001.2000000476837","run_exp/static/images/Set 6_rs/134a.jpg","86","","","","","","learn","SR",""
"","show_choice","113","132461","0.0-113.0","""event"",""trial"",""time""
""fullscreenenter"",""0"",""2187""
","
","
","""event"",""trial"",""time""
""fullscreenenter"",""0"",""2187""
","
","null","run_exp/static/images/Set 6_rs/134a.jpg","null","","","","","","learn","SR",""
"","html-keyboard-response","114","132963","0.0-114.0","""event"",""trial"",""time""
""fullscreenenter"",""0"",""2187""
","
","
","""event"",""trial"",""time""
""fullscreenenter"",""0"",""2187""
","
","null","<p></p>","null","","","","","","","",""
"","image","115","134018","0.0-115.0","""event"",""trial"",""time""
""fullscreenenter"",""0"",""2187""
","
","
","""event"",""trial"",""time""
""fullscreenenter"",""0"",""2187""
","
","1052.7999999523163","run_exp/static/images/Set 6_rs/061a.jpg","78","","","","","","learn","SR",""
"","show_choice","116","134967","0.0-116.0","""event"",""trial"",""time""
""fullscreenenter"",""0"",""2187""
","
","
","""event"",""trial"",""time""
""fullscreenenter"",""0"",""2187""
","
","null","run_exp/static/images/Set 6_rs/061a.jpg","null","","","","","","learn","SR",""
"","html-keyboard-response","117","135470","0.0-117.0","""event"",""trial"",""time""
""fullscreenenter"",""0"",""2187""
","
","
","""event"",""trial"",""time""
""fullscreenenter"",""0"",""2187""
","
","null","<p></p>","null","","","","","","","",""
"","image","118","136496","0.0-118.0","""event"",""trial"",""time""
""fullscreenenter"",""0"",""2187""
","
","
","""event"",""trial"",""time""
""fullscreenenter"",""0"",""2187""
","
","1023.8999999761581","run_exp/static/images/Set 6_rs/071a.jpg","78","","","","","","learn","SL",""
"","show_choice","119","137473","0.0-119.0","""event"",""trial"",""time""
""fullscreenenter"",""0"",""2187""
","
","
","""event"",""trial"",""time""
""fullscreenenter"",""0"",""2187""
","
","null","run_exp/static/images/Set 6_rs/071a.jpg","null","","","","","","learn","SL",""
"","html-keyboard-response","120","137975","0.0-120.0","""event"",""trial"",""time""
""fullscreenenter"",""0"",""2187""
","
","
","""event"",""trial"",""time""
""fullscreenenter"",""0"",""2187""
","
","null","<p></p>","null","","","","","","","",""
"","image","121","139085","0.0-121.0","""event"",""trial"",""time""
""fullscreenenter"",""0"",""2187""
","
","
","""event"",""trial"",""time""
""fullscreenenter"",""0"",""2187""
","
","1107.8999999761581","run_exp/static/images/Set 6_rs/062a.jpg","86","","","","","","learn","SL",""
"","show_choice","122","139979","0.0-122.0","""event"",""trial"",""time""
""fullscreenenter"",""0"",""2187""
","
","
","""event"",""trial"",""time""
""fullscreenenter"",""0"",""2187""
","
","null","run_exp/static/images/Set 6_rs/062a.jpg","null","","","","","","learn","SL",""
"","html-keyboard-response","123","140480","0.0-123.0","""event"",""trial"",""time""
""fullscreenenter"",""0"",""2187""
","
","
","""event"",""trial"",""time""
""fullscreenenter"",""0"",""2187""
","
","null","<p></p>","null","","","","","","","",""
"","image","124","141267","0.0-124.0","""event"",""trial"",""time""
""fullscreenenter"",""0"",""2187""
","
","
","""event"",""trial"",""time""
""fullscreenenter"",""0"",""2187""
","
","785.6000000238419","run_exp/static/images/Set 6_rs/178a.jpg","78","","","","","","learn","SR",""
"","show_choice","125","142483","0.0-125.0","""event"",""trial"",""time""
""fullscreenenter"",""0"",""2187""
","
","
","""event"",""trial"",""time""
""fullscreenenter"",""0"",""2187""
","
","null","run_exp/static/images/Set 6_rs/178a.jpg","null","","","","","","learn","SR",""
"","html-keyboard-response","126","142984","0.0-126.0","""event"",""trial"",""time""
""fullscreenenter"",""0"",""2187""
","
","
","""event"",""trial"",""time""
""fullscreenenter"",""0"",""2187""
","
","null","<p></p>","null","","","","","","","",""
"","image","127","143799","0.0-127.0","""event"",""trial"",""time""
""fullscreenenter"",""0"",""2187""
","
","
","""event"",""trial"",""time""
""fullscreenenter"",""0"",""2187""
","
","813.5","run_exp/static/images/Set 6_rs/076a.jpg","78","","","","","","learn","SR",""
"","show_choice","128","144987","0.0-128.0","""event"",""trial"",""time""
""fullscreenenter"",""0"",""2187""
","
","
","""event"",""trial"",""time""
""fullscreenenter"",""0"",""2187""
","
","null","run_exp/static/images/Set 6_rs/076a.jpg","null","","","","","","learn","SR",""
"","html-keyboard-response","129","145489","0.0-129.0","""event"",""trial"",""time""
""fullscreenenter"",""0"",""2187""
","
","
","""event"",""trial"",""time""
""fullscreenenter"",""0"",""2187""
","
","null","<p></p>","null","","","","","","","",""
"","image","130","146213","0.0-130.0","""event"",""trial"",""time""
""fullscreenenter"",""0"",""2187""
","
","
","""event"",""trial"",""time""
""fullscreenenter"",""0"",""2187""
","
","721.8999999761581","run_exp/static/images/Set 6_rs/007a.jpg","86","","","","","","learn","SR",""
"","show_choice","131","147495","0.0-131.0","""event"",""trial"",""time""
""fullscreenenter"",""0"",""2187""
","
","
","""event"",""trial"",""time""
""fullscreenenter"",""0"",""2187""
","
","null","run_exp/static/images/Set 6_rs/007a.jpg","null","","","","","","learn","SR",""
"","html-keyboard-response","132","148003","0.0-132.0","""event"",""trial"",""time""
""fullscreenenter"",""0"",""2187""
","
","
","""event"",""trial"",""time""
""fullscreenenter"",""0"",""2187""
","
","null","<p></p>","null","","","","","","","",""
"","image","133","148829","0.0-133.0","""event"",""trial"",""time""
""fullscreenenter"",""0"",""2187""
","
","
","""event"",""trial"",""time""
""fullscreenenter"",""0"",""2187""
","
","823.8999999761581","run_exp/static/images/Set 6_rs/186a.jpg","86","","","","","","learn","SR",""
"","show_choice","134","150008","0.0-134.0","""event"",""trial"",""time""
""fullscreenenter"",""0"",""2187""
","
","
","""event"",""trial"",""time""
""fullscreenenter"",""0"",""2187""
","
","null","run_exp/static/images/Set 6_rs/186a.jpg","null","","","","","","learn","SR",""
"","html-keyboard-response","135","150510","0.0-135.0","""event"",""trial"",""time""
""fullscreenenter"",""0"",""2187""
","
","
","""event"",""trial"",""time""
""fullscreenenter"",""0"",""2187""
","
","null","<p></p>","null","","","","","","","",""
"","image","136","151241","0.0-136.0","""event"",""trial"",""time""
""fullscreenenter"",""0"",""2187""
","
","
","""event"",""trial"",""time""
""fullscreenenter"",""0"",""2187""
","
","729.1000000238419","run_exp/static/images/Set 6_rs/079a.jpg","86","","","","","","learn","SL",""
"","show_choice","137","152514","0.0-137.0","""event"",""trial"",""time""
""fullscreenenter"",""0"",""2187""
","
","
","""event"",""trial"",""time""
""fullscreenenter"",""0"",""2187""
","
","null","run_exp/static/images/Set 6_rs/079a.jpg","null","","","","","","learn","SL",""
"","html-keyboard-response","138","153015","0.0-138.0","""event"",""trial"",""time""
""fullscreenenter"",""0"",""2187""
","
","
","""event"",""trial"",""time""
""fullscreenenter"",""0"",""2187""
","
","null","<p></p>","null","","","","","","","",""
"","image","139","153927","0.0-139.0","""event"",""trial"",""time""
""fullscreenenter"",""0"",""2187""
","
","
","""event"",""trial"",""time""
""fullscreenenter"",""0"",""2187""
","
","911.1000000238419","run_exp/static/images/Set 6_rs/036a.jpg","86","","","","","","learn","SL",""
"","show_choice","140","155018","0.0-140.0","""event"",""trial"",""time""
""fullscreenenter"",""0"",""2187""
","
","
","""event"",""trial"",""time""
""fullscreenenter"",""0"",""2187""
","
","null","run_exp/static/images/Set 6_rs/036a.jpg","null","","","","","","learn","SL",""
"","html-keyboard-response","141","155520","0.0-141.0","""event"",""trial"",""time""
""fullscreenenter"",""0"",""2187""
","
","
","""event"",""trial"",""time""
""fullscreenenter"",""0"",""2187""
","
","null","<p></p>","null","","","","","","","",""
"","image","142","156423","0.0-142.0","""event"",""trial"",""time""
""fullscreenenter"",""0"",""2187""
","
","
","""event"",""trial"",""time""
""fullscreenenter"",""0"",""2187""
","
","900.8000000715256","run_exp/static/images/Set 6_rs/132a.jpg","86","","","","","","learn","SR",""
"","show_choice","143","157525","0.0-143.0","""event"",""trial"",""time""
""fullscreenenter"",""0"",""2187""
","
","
","""event"",""trial"",""time""
""fullscreenenter"",""0"",""2187""
","
","null","run_exp/static/images/Set 6_rs/132a.jpg","null","","","","","","learn","SR",""
"","html-keyboard-response","144","158040","0.0-144.0","""event"",""trial"",""time""
""fullscreenenter"",""0"",""2187""
","
","
","""event"",""trial"",""time""
""fullscreenenter"",""0"",""2187""
","
","null","<p></p>","null","","","","","","","",""
"","image","145","158761","0.0-145.0","""event"",""trial"",""time""
""fullscreenenter"",""0"",""2187""
","
","
","""event"",""trial"",""time""
""fullscreenenter"",""0"",""2187""
","
","719.7000000476837","run_exp/static/images/Set 6_rs/095a.jpg","86","","","","","","learn","SL",""
"","show_choice","146","160043","0.0-146.0","""event"",""trial"",""time""
""fullscreenenter"",""0"",""2187""
","
","
","""event"",""trial"",""time""
""fullscreenenter"",""0"",""2187""
","
","null","run_exp/static/images/Set 6_rs/095a.jpg","null","","","","","","learn","SL",""
"","html-keyboard-response","147","160549","0.0-147.0","""event"",""trial"",""time""
""fullscreenenter"",""0"",""2187""
","
","
","""event"",""trial"",""time""
""fullscreenenter"",""0"",""2187""
","
","null","<p></p>","null","","","","","","","",""
"","image","148","161345","0.0-148.0","""event"",""trial"",""time""
""fullscreenenter"",""0"",""2187""
","
","
","""event"",""trial"",""time""
""fullscreenenter"",""0"",""2187""
","
","795.9000000953674","run_exp/static/images/Set 6_rs/108a.jpg","78","","","","","","learn","SR",""
"","show_choice","149","162552","0.0-149.0","""event"",""trial"",""time""
""fullscreenenter"",""0"",""2187""
","
","
","""event"",""trial"",""time""
""fullscreenenter"",""0"",""2187""
","
","null","run_exp/static/images/Set 6_rs/108a.jpg","null","","","","","","learn","SR",""
"","html-keyboard-response","150","163053","0.0-150.0","""event"",""trial"",""time""
""fullscreenenter"",""0"",""2187""
","
","
","""event"",""trial"",""time""
""fullscreenenter"",""0"",""2187""
","
","null","<p></p>","null","","","","","","","",""
"","image","151","163804","0.0-151.0","""event"",""trial"",""time""
""fullscreenenter"",""0"",""2187""
","
","
","""event"",""trial"",""time""
""fullscreenenter"",""0"",""2187""
","
","748.3999999761581","run_exp/static/images/Set 6_rs/141a.jpg","78","","","","","","learn","SR",""
"","show_choice","152","165058","0.0-152.0","""event"",""trial"",""time""
""fullscreenenter"",""0"",""2187""
","
","
","""event"",""trial"",""time""
""fullscreenenter"",""0"",""2187""
","
","null","run_exp/static/images/Set 6_rs/141a.jpg","null","","","","","","learn","SR",""
"","html-keyboard-response","153","165559","0.0-153.0","""event"",""trial"",""time""
""fullscreenenter"",""0"",""2187""
","
","
","""event"",""trial"",""time""
""fullscreenenter"",""0"",""2187""
","
","null","<p></p>","null","","","","","","","",""
"","image","154","166653","0.0-154.0","""event"",""trial"",""time""
""fullscreenenter"",""0"",""2187""
","
","
","""event"",""trial"",""time""
""fullscreenenter"",""0"",""2187""
","
","1091.1999999284744","run_exp/static/images/Set 6_rs/064a.jpg","86","","","","","","learn","SR",""
"","show_choice","155","167564","0.0-155.0","""event"",""trial"",""time""
""fullscreenenter"",""0"",""2187""
","
","
","""event"",""trial"",""time""
""fullscreenenter"",""0"",""2187""
","
","null","run_exp/static/images/Set 6_rs/064a.jpg","null","","","","","","learn","SR",""
"","html-keyboard-response","156","168066","0.0-156.0","""event"",""trial"",""time""
""fullscreenenter"",""0"",""2187""
","
","
","""event"",""trial"",""time""
""fullscreenenter"",""0"",""2187""
","
","null","<p></p>","null","","","","","","","",""
"","image","157","168758","0.0-157.0","""event"",""trial"",""time""
""fullscreenenter"",""0"",""2187""
","
","
","""event"",""trial"",""time""
""fullscreenenter"",""0"",""2187""
","
","689.7000000476837","run_exp/static/images/Set 6_rs/112a.jpg","86","","","","","","learn","SR",""
"","show_choice","158","170070","0.0-158.0","""event"",""trial"",""time""
""fullscreenenter"",""0"",""2187""
","
","
","""event"",""trial"",""time""
""fullscreenenter"",""0"",""2187""
","
","null","run_exp/static/images/Set 6_rs/112a.jpg","null","","","","","","learn","SR",""
"","html-keyboard-response","159","170571","0.0-159.0","""event"",""trial"",""time""
""fullscreenenter"",""0"",""2187""
","
","
","""event"",""trial"",""time""
""fullscreenenter"",""0"",""2187""
","
","null","<p></p>","null","","","","","","","",""
"","image","160","171870","0.0-160.0","""event"",""trial"",""time""
""fullscreenenter"",""0"",""2187""
","
","
","""event"",""trial"",""time""
""fullscreenenter"",""0"",""2187""
","
","1297.2000000476837","run_exp/static/images/Set 6_rs/152a.jpg","86","","","","","","learn","SR",""
"","show_choice","161","172575","0.0-161.0","""event"",""trial"",""time""
""fullscreenenter"",""0"",""2187""
","
","
","""event"",""trial"",""time""
""fullscreenenter"",""0"",""2187""
","
","null","run_exp/static/images/Set 6_rs/152a.jpg","null","","","","","","learn","SR",""
"","html-keyboard-response","162","173076","0.0-162.0","""event"",""trial"",""time""
""fullscreenenter"",""0"",""2187""
","
","
","""event"",""trial"",""time""
""fullscreenenter"",""0"",""2187""
","
","null","<p></p>","null","","","","","","","",""
"","image","163","173832","0.0-163.0","""event"",""trial"",""time""
""fullscreenenter"",""0"",""2187""
","
","
","""event"",""trial"",""time""
""fullscreenenter"",""0"",""2187""
","
","753.1999999284744","run_exp/static/images/Set 6_rs/025a.jpg","78","","","","","","learn","SL",""
"","show_choice","164","175080","0.0-164.0","""event"",""trial"",""time""
""fullscreenenter"",""0"",""2187""
","
","
","""event"",""trial"",""time""
""fullscreenenter"",""0"",""2187""
","
","null","run_exp/static/images/Set 6_rs/025a.jpg","null","","","","","","learn","SL",""
"","html-keyboard-response","165","175582","0.0-165.0","""event"",""trial"",""time""
""fullscreenenter"",""0"",""2187""
","
","
","""event"",""trial"",""time""
""fullscreenenter"",""0"",""2187""
","
","null","<p></p>","null","","","","","","","",""
"","image","166","176365","0.0-166.0","""event"",""trial"",""time""
""fullscreenenter"",""0"",""2187""
","
","
","""event"",""trial"",""time""
""fullscreenenter"",""0"",""2187""
","
","780.8999999761581","run_exp/static/images/Set 6_rs/057a.jpg","86","","","","","","learn","SL",""
"","show_choice","167","177586","0.0-167.0","""event"",""trial"",""time""
""fullscreenenter"",""0"",""2187""
","
","
","""event"",""trial"",""time""
""fullscreenenter"",""0"",""2187""
","
","null","run_exp/static/images/Set 6_rs/057a.jpg","null","","","","","","learn","SL",""
"","html-keyboard-response","168","178088","0.0-168.0","""event"",""trial"",""time""
""fullscreenenter"",""0"",""2187""
","
","
","""event"",""trial"",""time""
""fullscreenenter"",""0"",""2187""
","
","null","<p></p>","null","","","","","","","",""
"","image","169","179097","0.0-169.0","""event"",""trial"",""time""
""fullscreenenter"",""0"",""2187""
","
","
","""event"",""trial"",""time""
""fullscreenenter"",""0"",""2187""
","
","1008.1000000238419","run_exp/static/images/Set 6_rs/150a.jpg","86","","","","","","learn","SR",""
"","show_choice","170","180091","0.0-170.0","""event"",""trial"",""time""
""fullscreenenter"",""0"",""2187""
","
","
","""event"",""trial"",""time""
""fullscreenenter"",""0"",""2187""
","
","null","run_exp/static/images/Set 6_rs/150a.jpg","null","","","","","","learn","SR",""
"","html-keyboard-response","171","180593","0.0-171.0","""event"",""trial"",""time""
""fullscreenenter"",""0"",""2187""
","
","
","""event"",""trial"",""time""
""fullscreenenter"",""0"",""2187""
","
","null","<p></p>","null","","","","","","","",""
"","image","172","181650","0.0-172.0","""event"",""trial"",""time""
""fullscreenenter"",""0"",""2187""
","
","
","""event"",""trial"",""time""
""fullscreenenter"",""0"",""2187""
","
","1054.8000000715256","run_exp/static/images/Set 6_rs/019a.jpg","86","","","","","","learn","SL",""
"","show_choice","173","182597","0.0-173.0","""event"",""trial"",""time""
""fullscreenenter"",""0"",""2187""
","
","
","""event"",""trial"",""time""
""fullscreenenter"",""0"",""2187""
","
","null","run_exp/static/images/Set 6_rs/019a.jpg","null","","","","","","learn","SL",""
"","html-keyboard-response","174","183099","0.0-174.0","""event"",""trial"",""time""
""fullscreenenter"",""0"",""2187""
","
","
","""event"",""trial"",""time""
""fullscreenenter"",""0"",""2187""
","
","null","<p></p>","null","","","","","","","",""
"","image","175","184134","0.0-175.0","""event"",""trial"",""time""
""fullscreenenter"",""0"",""2187""
","
","
","""event"",""trial"",""time""
""fullscreenenter"",""0"",""2187""
","
","1032.3000000715256","run_exp/static/images/Set 6_rs/070a.jpg","86","","","","","","learn","SR",""
"","show_choice","176","185103","0.0-176.0","""event"",""trial"",""time""
""fullscreenenter"",""0"",""2187""
","
","
","""event"",""trial"",""time""
""fullscreenenter"",""0"",""2187""
","
","null","run_exp/static/images/Set 6_rs/070a.jpg","null","","","","","","learn","SR",""
"","html-keyboard-response","177","185604","0.0-177.0","""event"",""trial"",""time""
""fullscreenenter"",""0"",""2187""
","
","
","""event"",""trial"",""time""
""fullscreenenter"",""0"",""2187""
","
","null","<p></p>","null","","","","","","","",""
"","image","178","186464","0.0-178.0","""event"",""trial"",""time""
""fullscreenenter"",""0"",""2187""
","
","
","""event"",""trial"",""time""
""fullscreenenter"",""0"",""2187""
","
","857.1000000238419","run_exp/static/images/Set 6_rs/014a.jpg","86","","","","","","learn","SL",""
"","show_choice","179","187608","0.0-179.0","""event"",""trial"",""time""
""fullscreenenter"",""0"",""2187""
","
","
","""event"",""trial"",""time""
""fullscreenenter"",""0"",""2187""
","
","null","run_exp/static/images/Set 6_rs/014a.jpg","null","","","","","","learn","SL",""
"","html-keyboard-response","180","188111","0.0-180.0","""event"",""trial"",""time""
""fullscreenenter"",""0"",""2187""
","
","
","""event"",""trial"",""time""
""fullscreenenter"",""0"",""2187""
","
","null","<p></p>","null","","","","","","","",""
"","image","181","189662","0.0-181.0","""event"",""trial"",""time""
""fullscreenenter"",""0"",""2187""
","
","
","""event"",""trial"",""time""
""fullscreenenter"",""0"",""2187""
","
","1549.2000000476837","run_exp/static/images/Set 6_rs/091a.jpg","78","","","","","","learn","SL",""
"","show_choice","182","190114","0.0-182.0","""event"",""trial"",""time""
""fullscreenenter"",""0"",""2187""
","
","
","""event"",""trial"",""time""
""fullscreenenter"",""0"",""2187""
","
","null","run_exp/static/images/Set 6_rs/091a.jpg","null","","","","","","learn","SL",""
"","html-keyboard-response","183","190615","0.0-183.0","""event"",""trial"",""time""
""fullscreenenter"",""0"",""2187""
","
","
","""event"",""trial"",""time""
""fullscreenenter"",""0"",""2187""
","
","null","<p></p>","null","","","","","","","",""
"","image","184","191731","0.0-184.0","""event"",""trial"",""time""
""fullscreenenter"",""0"",""2187""
","
","
","""event"",""trial"",""time""
""fullscreenenter"",""0"",""2187""
","
","1113.1000000238419","run_exp/static/images/Set 6_rs/045a.jpg","86","","","","","","learn","SR",""
"","show_choice","185","192620","0.0-185.0","""event"",""trial"",""time""
""fullscreenenter"",""0"",""2187""
","
","
","""event"",""trial"",""time""
""fullscreenenter"",""0"",""2187""
","
","null","run_exp/static/images/Set 6_rs/045a.jpg","null","","","","","","learn","SR",""
"","html-keyboard-response","186","193122","0.0-186.0","""event"",""trial"",""time""
""fullscreenenter"",""0"",""2187""
","
","
","""event"",""trial"",""time""
""fullscreenenter"",""0"",""2187""
","
","null","<p></p>","null","","","","","","","",""
"","image","187","193946","0.0-187.0","""event"",""trial"",""time""
""fullscreenenter"",""0"",""2187""
","
","
","""event"",""trial"",""time""
""fullscreenenter"",""0"",""2187""
","
","821.2000000476837","run_exp/static/images/Set 6_rs/085a.jpg","86","","","","","","learn","SL",""
"","show_choice","188","195126","0.0-188.0","""event"",""trial"",""time""
""fullscreenenter"",""0"",""2187""
","
","
","""event"",""trial"",""time""
""fullscreenenter"",""0"",""2187""
","
","null","run_exp/static/images/Set 6_rs/085a.jpg","null","","","","","","learn","SL",""
"","html-keyboard-response","189","195628","0.0-189.0","""event"",""trial"",""time""
""fullscreenenter"",""0"",""2187""
","
","
","""event"",""trial"",""time""
""fullscreenenter"",""0"",""2187""
","
","null","<p></p>","null","","","","","","","",""
"","image","190","197286","0.0-190.0","""event"",""trial"",""time""
""fullscreenenter"",""0"",""2187""
","
","
","""event"",""trial"",""time""
""fullscreenenter"",""0"",""2187""
","
","1655.3999999761581","run_exp/static/images/Set 6_rs/144a.jpg","86","","","","","","learn","SL",""
"","show_choice","191","197633","0.0-191.0","""event"",""trial"",""time""
""fullscreenenter"",""0"",""2187""
","
","
","""event"",""trial"",""time""
""fullscreenenter"",""0"",""2187""
","
","null","run_exp/static/images/Set 6_rs/144a.jpg","null","","","","","","learn","SL",""
"","html-keyboard-response","192","198138","0.0-192.0","""event"",""trial"",""time""
""fullscreenenter"",""0"",""2187""
","
","
","""event"",""trial"",""time""
""fullscreenenter"",""0"",""2187""
","
","null","<p></p>","null","","","","","","","",""
"","image","193","199034","0.0-193.0","""event"",""trial"",""time""
""fullscreenenter"",""0"",""2187""
","
","
","""event"",""trial"",""time""
""fullscreenenter"",""0"",""2187""
","
","895.3999999761581","run_exp/static/images/Set 6_rs/131a.jpg","86","","","","","","learn","SR",""
"","show_choice","194","200141","0.0-194.0","""event"",""trial"",""time""
""fullscreenenter"",""0"",""2187""
","
","
","""event"",""trial"",""time""
""fullscreenenter"",""0"",""2187""
","
","null","run_exp/static/images/Set 6_rs/131a.jpg","null","","","","","","learn","SR",""
"","html-keyboard-response","195","200643","0.0-195.0","""event"",""trial"",""time""
""fullscreenenter"",""0"",""2187""
","
","
","""event"",""trial"",""time""
""fullscreenenter"",""0"",""2187""
","
","null","<p></p>","null","","","","","","","",""
"","test_intro","196","238226","0.0-196.0","""event"",""trial"",""time""
""fullscreenenter"",""0"",""2187""
","
","
","""event"",""trial"",""time""
""fullscreenenter"",""0"",""2187""
","
","null","run_exp/static/audio/clip_2_memory.m4a","null","","","","","<div class='center'><p>Now, lets see how much you remember about the items you just saw.  For each item, you need to indicate if it was <b>old</b> by pressing the <b>v</b> key, <b>similar</b> by pressing the <b>b</b> key, or <b>new</b> by pressing the <b>n</b> key.</p><p>Old refers to an item that you saw before in the indoor/outdoor game that you just played, new refers to an item you have <b>not</b> seen before within the indoor/outdoor game, and similar refers to an item that is similar to an item youve seen before but is not exactly the same. </p><p>Before we begin, lets go over some brief demonstrations to make sure you understand.</p></div>","","",""
"","html-keyboard-response","197","239164","0.0-197.0","""event"",""trial"",""time""
""fullscreenenter"",""0"",""2187""
","
","
","""event"",""trial"",""time""
""fullscreenenter"",""0"",""2187""
","
","936.6999999284744","<div class='center'><p>Now, lets see how much you remember about the items you just saw.  For each item, you need to indicate if it was <b>old</b> by pressing the <b>v</b> key, <b>similar</b> by pressing the <b>b</b> key, or <b>new</b> by pressing the <b>n</b> key.</p><p>Old refers to an item that you saw before in the indoor/outdoor game that you just played, new refers to an item you have <b>not</b> seen before within the indoor/outdoor game, and similar refers to an item that is similar to an item youve seen before but is not exactly the same. </p><p>Before we begin, lets go over some brief demonstrations to make sure you understand.</p><div><p><b>[Press the space bar to continue]</b></p></div>","32","","","","","","","",""
"","items","198","246667","0.0-198.0","""event"",""trial"",""time""
""fullscreenenter"",""0"",""2187""
","
","
","""event"",""trial"",""time""
""fullscreenenter"",""0"",""2187""
","
","null","run_exp/static/audio/clip_3_items.m4a","null","","","","","","","",""
"","mop","199","251172","0.0-199.0","""event"",""trial"",""time""
""fullscreenenter"",""0"",""2187""
","
","
","""event"",""trial"",""time""
""fullscreenenter"",""0"",""2187""
","
","null","run_exp/static/audio/clip_4_mop.m4a","null","","","","","","","",""
"","baseball","200","254685","0.0-200.0","""event"",""trial"",""time""
""fullscreenenter"",""0"",""2187""
","
","
","""event"",""trial"",""time""
""fullscreenenter"",""0"",""2187""
","
","null","run_exp/static/audio/clip_5_baseball.m4a","null","","","","","","","",""
"","trumpet","201","258189","0.0-201.0","""event"",""trial"",""time""
""fullscreenenter"",""0"",""2187""
","
","
","""event"",""trial"",""time""
""fullscreenenter"",""0"",""2187""
","
","null","run_exp/static/audio/clip_6_trumpet.m4a","null","","","","","","","",""
"","gummies","202","261700","0.0-202.0","""event"",""trial"",""time""
""fullscreenenter"",""0"",""2187""
","
","
","""event"",""trial"",""time""
""fullscreenenter"",""0"",""2187""
","
","null","run_exp/static/audio/clip_7_gummies.m4a","null","","","","","","","",""
"","osn","203","266204","0.0-203.0","""event"",""trial"",""time""
""fullscreenenter"",""0"",""2187""
","
","
","""event"",""trial"",""time""
""fullscreenenter"",""0"",""2187""
","
","null","run_exp/static/audio/clip_8_osn.m4a","null","","","","","","","",""
"","old_1","204","272709","0.0-204.0","""event"",""trial"",""time""
""fullscreenenter"",""0"",""2187""
","
","
","""event"",""trial"",""time""
""fullscreenenter"",""0"",""2187""
","
","null","run_exp/static/audio/clip_9_old_trumpet.m4a","null","","","","","","","",""
"","new_1","205","280212","0.0-205.0","""event"",""trial"",""time""
""fullscreenenter"",""0"",""2187""
","
","
","""event"",""trial"",""time""
""fullscreenenter"",""0"",""2187""
","
","null","run_exp/static/audio/clip_10_new_balloon.m4a","null","","","","","","","",""
"","similar_1a","206","284716","0.0-206.0","""event"",""trial"",""time""
""fullscreenenter"",""0"",""2187""
","
","
","""event"",""trial"",""time""
""fullscreenenter"",""0"",""2187""
","
","null","run_exp/static/audio/clip_11a_similar_mop.m4a","null","","","","","","","",""
"","similar_1b","207","291221","0.0-207.0","""event"",""trial"",""time""
""fullscreenenter"",""0"",""2187""
","
","
","""event"",""trial"",""time""
""fullscreenenter"",""0"",""2187""
","
","null","run_exp/static/audio/clip_11b_similar_mop.m4a","null","","","","","","","",""
"","new_2","208","294727","0.0-208.0","""event"",""trial"",""time""
""fullscreenenter"",""0"",""2187""
","
","
","""event"",""trial"",""time""
""fullscreenenter"",""0"",""2187""
","
","null","run_exp/static/audio/clip_12_new_stoplight.m4a","null","","","","","","","",""
"","old_2","209","298231","0.0-209.0","""event"",""trial"",""time""
""fullscreenenter"",""0"",""2187""
","
","
","""event"",""trial"",""time""
""fullscreenenter"",""0"",""2187""
","
","null","run_exp/static/audio/clip_13_old_baseball.m4a","null","","","","","","","",""
"","similar_2a","210","301736","0.0-210.0","""event"",""trial"",""time""
""fullscreenenter"",""0"",""2187""
","
","
","""event"",""trial"",""time""
""fullscreenenter"",""0"",""2187""
","
","null","run_exp/static/audio/clip_14a_similar_gummies.m4a","null","","","","","","","",""
"","similar_2b","211","309245","0.0-211.0","""event"",""trial"",""time""
""fullscreenenter"",""0"",""2187""
","
","
","""event"",""trial"",""time""
""fullscreenenter"",""0"",""2187""
","
","null","run_exp/static/audio/clip_14b_similar_gummies.m4a","null","","","","","","","",""
"","practice","212","351348","0.0-212.0","""event"",""trial"",""time""
""fullscreenenter"",""0"",""2187""
","
","
","""event"",""trial"",""time""
""fullscreenenter"",""0"",""2187""
","
","null","run_exp/static/audio/clip_15_practice.m4a","null","","","","","<div class='center'><p>Lets practice a little to make sure you understand the difference between new, similar, and old. Lets say you saw these three items in the indoor/outdoor game.</p><p> Try your best to remember these images because youll soon be tested on them in a practice game. In the practice game, youll be shown images and youll have to say if they are old (one of the three images belows), similar (similar to one of the images below but not exactly the same), or new (are not one of the images below nor similar to them).</p><p>Once you press the space bar youll be shown these images again but one at time. Then youll begin the practice game.</p><p><img src='run_exp/static/images/tutorial/test/three_indoor_outdoor.png' height='300'></p></div>","","",""
"","html-keyboard-response","213","352332","0.0-213.0","""event"",""trial"",""time""
""fullscreenenter"",""0"",""2187""
","
","
","""event"",""trial"",""time""
""fullscreenenter"",""0"",""2187""
","
","980.1000000238419","<div class='center'><p>Lets practice a little to make sure you understand the difference between new, similar, and old. Lets say you saw these three items in the indoor/outdoor game.</p><p> Try your best to remember these images because youll soon be tested on them in a practice game. In the practice game, youll be shown images and youll have to say if they are old (one of the three images belows), similar (similar to one of the images below but not exactly the same), or new (are not one of the images below nor similar to them).</p><p>Once you press the space bar youll be shown these images again but one at time. Then youll begin the practice game.</p><p><img src='run_exp/static/images/tutorial/test/three_indoor_outdoor.png' height='300'></p><div><p><b>[Press the space bar to continue]</b></p></div>","32","","","","","","","",""
"","planet","214","354336","0.0-214.0","""event"",""trial"",""time""
""fullscreenenter"",""0"",""2187""
","
","
","""event"",""trial"",""time""
""fullscreenenter"",""0"",""2187""
","
","null","run_exp/static/images/tutorial/test/008a.jpg","null","","","","","","","",""
"","boot","215","356340","0.0-215.0","""event"",""trial"",""time""
""fullscreenenter"",""0"",""2187""
","
","
","""event"",""trial"",""time""
""fullscreenenter"",""0"",""2187""
","
","null","run_exp/static/images/tutorial/test/011a.jpg","null","","","","","","","",""
"","lemon","216","358342","0.0-216.0","""event"",""trial"",""time""
""fullscreenenter"",""0"",""2187""
","
","
","""event"",""trial"",""time""
""fullscreenenter"",""0"",""2187""
","
","null","run_exp/static/images/tutorial/test/018a.jpg","null","","","","","","","",""
"","practice_q1","217","363587","0.0-217.0","""event"",""trial"",""time""
""fullscreenenter"",""0"",""2187""
","
","
","""event"",""trial"",""time""
""fullscreenenter"",""0"",""2187""
","
","5240.699999928474","run_exp/static/audio/clip_16_practice_question.m4a","78","","","","","","","",""
"","correct","218","365508","0.0-218.0-0.0","""event"",""trial"",""time""
""fullscreenenter"",""0"",""2187""
","
","
","""event"",""trial"",""time""
""fullscreenenter"",""0"",""2187""
","
","null","run_exp/static/audio/clip_17_correct.m4a","null","","","","","<div class='center'><p>That's correct!</p></div>","","",""
"","html-keyboard-response","219","366606","0.0-218.0-1.0","""event"",""trial"",""time""
""fullscreenenter"",""0"",""2187""
","
","
","""event"",""trial"",""time""
""fullscreenenter"",""0"",""2187""
","
","1096.2999999523163","<div class='center'><p>That's correct!</p><div><p><b>[Press the space bar to continue]</b></p></div>","32","","","","","","","",""
"","practice_q2","220","367564","0.0-218.0-2.0","""event"",""trial"",""time""
""fullscreenenter"",""0"",""2187""
","
","
","""event"",""trial"",""time""
""fullscreenenter"",""0"",""2187""
","
","956.5","run_exp/static/audio/clip_16_practice_question.m4a","86","","","","","","","",""
"","correct","221","369467","0.0-219.0-0.0","""event"",""trial"",""time""
""fullscreenenter"",""0"",""2187""
","
","
","""event"",""trial"",""time""
""fullscreenenter"",""0"",""2187""
","
","null","run_exp/static/audio/clip_17_correct.m4a","null","","","","","<div class='center'><p>That's correct!</p></div>","","",""
"","html-keyboard-response","222","370030","0.0-219.0-1.0","""event"",""trial"",""time""
""fullscreenenter"",""0"",""2187""
","
","
","""event"",""trial"",""time""
""fullscreenenter"",""0"",""2187""
","
","560.5","<div class='center'><p>That's correct!</p><div><p><b>[Press the space bar to continue]</b></p></div>","32","","","","","","","",""
"","practice_q3","223","375392","0.0-219.0-2.0","""event"",""trial"",""time""
""fullscreenenter"",""0"",""2187""
","
","
","""event"",""trial"",""time""
""fullscreenenter"",""0"",""2187""
","
","5359","run_exp/static/audio/clip_16_practice_question.m4a","66","","","","","","","",""
"","correct","224","377407","0.0-220.0-0.0","""event"",""trial"",""time""
""fullscreenenter"",""0"",""2187""
","
","
","""event"",""trial"",""time""
""fullscreenenter"",""0"",""2187""
","
","null","run_exp/static/audio/clip_17_correct.m4a","null","","","","","<div class='center'><p>That's correct!</p></div>","","",""
"","html-keyboard-response","225","378083","0.0-220.0-1.0","""event"",""trial"",""time""
""fullscreenenter"",""0"",""2187""
","
","
","""event"",""trial"",""time""
""fullscreenenter"",""0"",""2187""
","
","674.2999999523163","<div class='center'><p>That's correct!</p><div><p><b>[Press the space bar to continue]</b></p></div>","32","","","","","","","",""
"","begin_text","226","396587","0.0-221.0-0.0","""event"",""trial"",""time""
""fullscreenenter"",""0"",""2187""
","
","
","""event"",""trial"",""time""
""fullscreenenter"",""0"",""2187""
","
","null","run_exp/static/audio/clip_22_begin_test.m4a","null","","","","","<div class='center'><p>On to the real game where well test your memory of items from the indoor/outdoor game. For each item, you need to indicate if the item is <b>old</b> by pressing the <b>v</b> key, <b>similar</b> by pressing the <b>b</b> key, or <b>new</b> by pressing the <b>n</b> key. </p></div>","","",""
"","html-keyboard-response","227","398415","0.0-221.0-1.0","""event"",""trial"",""time""
""fullscreenenter"",""0"",""2187""
","
","
","""event"",""trial"",""time""
""fullscreenenter"",""0"",""2187""
","
","1825.1000000238419","<div class='center'><p>On to the real game where well test your memory of items from the indoor/outdoor game. For each item, you need to indicate if the item is <b>old</b> by pressing the <b>v</b> key, <b>similar</b> by pressing the <b>b</b> key, or <b>new</b> by pressing the <b>n</b> key. </p><div><p><b>[Press the space bar to continue]</b></p></div>","32","","","","","","","",""
"","image","228","399797","0.0-222.0-0.0","""event"",""trial"",""time""
""fullscreenenter"",""0"",""2187""
","
","
","""event"",""trial"",""time""
""fullscreenenter"",""0"",""2187""
","
","1381.2000000476837","run_exp/static/images/Set 6_rs/062b.jpg","86","","","","","","test","TL","1"
"","show_choice","229","400301","0.0-222.0-1.0","""event"",""trial"",""time""
""fullscreenenter"",""0"",""2187""
","
","
","""event"",""trial"",""time""
""fullscreenenter"",""0"",""2187""
","
","null","run_exp/static/images/Set 6_rs/062b.jpg","null","","","","","","test","TL",""
"","html-keyboard-response","230","400804","0.0-222.0-2.0","""event"",""trial"",""time""
""fullscreenenter"",""0"",""2187""
","
","
","""event"",""trial"",""time""
""fullscreenenter"",""0"",""2187""
","
","null","<p></p>","null","","","","","","","",""
"","image","231","401458","0.0-223.0-0.0","""event"",""trial"",""time""
""fullscreenenter"",""0"",""2187""
","
","
","""event"",""trial"",""time""
""fullscreenenter"",""0"",""2187""
","
","651.2000000476837","run_exp/static/images/Set 6_rs/177a.jpg","86","","","","","","test","TR","5"
"","show_choice","232","401960","0.0-223.0-1.0","""event"",""trial"",""time""
""fullscreenenter"",""0"",""2187""
","
","
","""event"",""trial"",""time""
""fullscreenenter"",""0"",""2187""
","
","null","run_exp/static/images/Set 6_rs/177a.jpg","null","","","","","","test","TR",""
"","html-keyboard-response","233","402462","0.0-223.0-2.0","""event"",""trial"",""time""
""fullscreenenter"",""0"",""2187""
","
","
","""event"",""trial"",""time""
""fullscreenenter"",""0"",""2187""
","
","null","<p></p>","null","","","","","","","",""
"","image","234","403422","0.0-224.0-0.0","""event"",""trial"",""time""
""fullscreenenter"",""0"",""2187""
","
","
","""event"",""trial"",""time""
""fullscreenenter"",""0"",""2187""
","
","958.6999999284744","run_exp/static/images/Set 6_rs/122a.jpg","86","","","","","","test","TR","5"
"","show_choice","235","403926","0.0-224.0-1.0","""event"",""trial"",""time""
""fullscreenenter"",""0"",""2187""
","
","
","""event"",""trial"",""time""
""fullscreenenter"",""0"",""2187""
","
","null","run_exp/static/images/Set 6_rs/122a.jpg","null","","","","","","test","TR",""
"","html-keyboard-response","236","404429","0.0-224.0-2.0","""event"",""trial"",""time""
""fullscreenenter"",""0"",""2187""
","
","
","""event"",""trial"",""time""
""fullscreenenter"",""0"",""2187""
","
","null","<p></p>","null","","","","","","","",""
"","image","237","405532","0.0-225.0-0.0","""event"",""trial"",""time""
""fullscreenenter"",""0"",""2187""
","
","
","""event"",""trial"",""time""
""fullscreenenter"",""0"",""2187""
","
","1101","run_exp/static/images/Set 6_rs/091b.jpg","66","","","","","","test","TL","3"
"","show_choice","238","406036","0.0-225.0-1.0","""event"",""trial"",""time""
""fullscreenenter"",""0"",""2187""
","
","
","""event"",""trial"",""time""
""fullscreenenter"",""0"",""2187""
","
","null","run_exp/static/images/Set 6_rs/091b.jpg","null","","","","","","test","TL",""
"","html-keyboard-response","239","406538","0.0-225.0-2.0","""event"",""trial"",""time""
""fullscreenenter"",""0"",""2187""
","
","
","""event"",""trial"",""time""
""fullscreenenter"",""0"",""2187""
","
","null","<p></p>","null","","","","","","","",""
"","image","240","407434","0.0-226.0-0.0","""event"",""trial"",""time""
""fullscreenenter"",""0"",""2187""
","
","
","""event"",""trial"",""time""
""fullscreenenter"",""0"",""2187""
","
","894.5","run_exp/static/images/Set 6_rs/095b.jpg","86","","","","","","test","TL","5"
"","show_choice","241","407935","0.0-226.0-1.0","""event"",""trial"",""time""
""fullscreenenter"",""0"",""2187""
","
","
","""event"",""trial"",""time""
""fullscreenenter"",""0"",""2187""
","
","null","run_exp/static/images/Set 6_rs/095b.jpg","null","","","","","","test","TL",""
"","html-keyboard-response","242","408436","0.0-226.0-2.0","""event"",""trial"",""time""
""fullscreenenter"",""0"",""2187""
","
","
","""event"",""trial"",""time""
""fullscreenenter"",""0"",""2187""
","
","null","<p></p>","null","","","","","","","",""
"","image","243","409444","0.0-227.0-0.0","""event"",""trial"",""time""
""fullscreenenter"",""0"",""2187""
","
","
","""event"",""trial"",""time""
""fullscreenenter"",""0"",""2187""
","
","1006.2999999523163","run_exp/static/images/Set 6_rs/144b.jpg","66","","","","","","test","TL","4"
"","show_choice","244","409947","0.0-227.0-1.0","""event"",""trial"",""time""
""fullscreenenter"",""0"",""2187""
","
","
","""event"",""trial"",""time""
""fullscreenenter"",""0"",""2187""
","
","null","run_exp/static/images/Set 6_rs/144b.jpg","null","","","","","","test","TL",""
"","html-keyboard-response","245","410448","0.0-227.0-2.0","""event"",""trial"",""time""
""fullscreenenter"",""0"",""2187""
","
","
","""event"",""trial"",""time""
""fullscreenenter"",""0"",""2187""
","
","null","<p></p>","null","","","","","","","",""
"","image","246","411986","0.0-228.0-0.0","""event"",""trial"",""time""
""fullscreenenter"",""0"",""2187""
","
","
","""event"",""trial"",""time""
""fullscreenenter"",""0"",""2187""
","
","1534.8000000715256","run_exp/static/images/Set 6_rs/138b.jpg","86","","","","","","test","TL","1"
"","show_choice","247","412488","0.0-228.0-1.0","""event"",""trial"",""time""
""fullscreenenter"",""0"",""2187""
","
","
","""event"",""trial"",""time""
""fullscreenenter"",""0"",""2187""
","
","null","run_exp/static/images/Set 6_rs/138b.jpg","null","","","","","","test","TL",""
"","html-keyboard-response","248","412990","0.0-228.0-2.0","""event"",""trial"",""time""
""fullscreenenter"",""0"",""2187""
","
","
","""event"",""trial"",""time""
""fullscreenenter"",""0"",""2187""
","
","null","<p></p>","null","","","","","","","",""
"","image","249","413905","0.0-229.0-0.0","""event"",""trial"",""time""
""fullscreenenter"",""0"",""2187""
","
","
","""event"",""trial"",""time""
""fullscreenenter"",""0"",""2187""
","
","913.0999999046326","run_exp/static/images/Set 6_rs/035a.jpg","78","","","","","","test","TF","4"
"","show_choice","250","414408","0.0-229.0-1.0","""event"",""trial"",""time""
""fullscreenenter"",""0"",""2187""
","
","
","""event"",""trial"",""time""
""fullscreenenter"",""0"",""2187""
","
","null","run_exp/static/images/Set 6_rs/035a.jpg","null","","","","","","test","TF",""
"","html-keyboard-response","251","414910","0.0-229.0-2.0","""event"",""trial"",""time""
""fullscreenenter"",""0"",""2187""
","
","
","""event"",""trial"",""time""
""fullscreenenter"",""0"",""2187""
","
","null","<p></p>","null","","","","","","","",""
"","image","252","416363","0.0-230.0-0.0","""event"",""trial"",""time""
""fullscreenenter"",""0"",""2187""
","
","
","""event"",""trial"",""time""
""fullscreenenter"",""0"",""2187""
","
","1450.8000000715256","run_exp/static/images/Set 6_rs/123b.jpg","66","","","","","","test","TL","2"
"","show_choice","253","416865","0.0-230.0-1.0","""event"",""trial"",""time""
""fullscreenenter"",""0"",""2187""
","
","
","""event"",""trial"",""time""
""fullscreenenter"",""0"",""2187""
","
","null","run_exp/static/images/Set 6_rs/123b.jpg","null","","","","","","test","TL",""
"","html-keyboard-response","254","417367","0.0-230.0-2.0","""event"",""trial"",""time""
""fullscreenenter"",""0"",""2187""
","
","
","""event"",""trial"",""time""
""fullscreenenter"",""0"",""2187""
","
","null","<p></p>","null","","","","","","","",""
"","image","255","418601","0.0-231.0-0.0","""event"",""trial"",""time""
""fullscreenenter"",""0"",""2187""
","
","
","""event"",""trial"",""time""
""fullscreenenter"",""0"",""2187""
","
","1231.9000000953674","run_exp/static/images/Set 6_rs/024a.jpg","78","","","","","","test","TR","5"
"","show_choice","256","419104","0.0-231.0-1.0","""event"",""trial"",""time""
""fullscreenenter"",""0"",""2187""
","
","
","""event"",""trial"",""time""
""fullscreenenter"",""0"",""2187""
","
","null","run_exp/static/images/Set 6_rs/024a.jpg","null","","","","","","test","TR",""
"","html-keyboard-response","257","419605","0.0-231.0-2.0","""event"",""trial"",""time""
""fullscreenenter"",""0"",""2187""
","
","
","""event"",""trial"",""time""
""fullscreenenter"",""0"",""2187""
","
","null","<p></p>","null","","","","","","","",""
"","image","258","420945","0.0-232.0-0.0","""event"",""trial"",""time""
""fullscreenenter"",""0"",""2187""
","
","
","""event"",""trial"",""time""
""fullscreenenter"",""0"",""2187""
","
","1338.6000000238419","run_exp/static/images/Set 6_rs/028a.jpg","78","","","","","","test","TF","1"
"","show_choice","259","421449","0.0-232.0-1.0","""event"",""trial"",""time""
""fullscreenenter"",""0"",""2187""
","
","
","""event"",""trial"",""time""
""fullscreenenter"",""0"",""2187""
","
","null","run_exp/static/images/Set 6_rs/028a.jpg","null","","","","","","test","TF",""
"","html-keyboard-response","260","421951","0.0-232.0-2.0","""event"",""trial"",""time""
""fullscreenenter"",""0"",""2187""
","
","
","""event"",""trial"",""time""
""fullscreenenter"",""0"",""2187""
","
","null","<p></p>","null","","","","","","","",""
"","image","261","423041","0.0-233.0-0.0","""event"",""trial"",""time""
""fullscreenenter"",""0"",""2187""
","
","
","""event"",""trial"",""time""
""fullscreenenter"",""0"",""2187""
","
","1087.5999999046326","run_exp/static/images/Set 6_rs/141a.jpg","86","","","","","","test","TR","2"
"","show_choice","262","423543","0.0-233.0-1.0","""event"",""trial"",""time""
""fullscreenenter"",""0"",""2187""
","
","
","""event"",""trial"",""time""
""fullscreenenter"",""0"",""2187""
","
","null","run_exp/static/images/Set 6_rs/141a.jpg","null","","","","","","test","TR",""
"","html-keyboard-response","263","424045","0.0-233.0-2.0","""event"",""trial"",""time""
""fullscreenenter"",""0"",""2187""
","
","
","""event"",""trial"",""time""
""fullscreenenter"",""0"",""2187""
","
","null","<p></p>","null","","","","","","","",""
"","image","264","425173","0.0-234.0-0.0","""event"",""trial"",""time""
""fullscreenenter"",""0"",""2187""
","
","
","""event"",""trial"",""time""
""fullscreenenter"",""0"",""2187""
","
","1125.5","run_exp/static/images/Set 6_rs/085b.jpg","86","","","","","","test","TL","1"
"","show_choice","265","425676","0.0-234.0-1.0","""event"",""trial"",""time""
""fullscreenenter"",""0"",""2187""
","
","
","""event"",""trial"",""time""
""fullscreenenter"",""0"",""2187""
","
","null","run_exp/static/images/Set 6_rs/085b.jpg","null","","","","","","test","TL",""
"","html-keyboard-response","266","426179","0.0-234.0-2.0","""event"",""trial"",""time""
""fullscreenenter"",""0"",""2187""
","
","
","""event"",""trial"",""time""
""fullscreenenter"",""0"",""2187""
","
","null","<p></p>","null","","","","","","","",""
"","image","267","426929","0.0-235.0-0.0","""event"",""trial"",""time""
""fullscreenenter"",""0"",""2187""
","
","
","""event"",""trial"",""time""
""fullscreenenter"",""0"",""2187""
","
","747.2000000476837","run_exp/static/images/Set 6_rs/186a.jpg","86","","","","","","test","TR","5"
"","show_choice","268","427432","0.0-235.0-1.0","""event"",""trial"",""time""
""fullscreenenter"",""0"",""2187""
","
","
","""event"",""trial"",""time""
""fullscreenenter"",""0"",""2187""
","
","null","run_exp/static/images/Set 6_rs/186a.jpg","null","","","","","","test","TR",""
"","html-keyboard-response","269","427934","0.0-235.0-2.0","""event"",""trial"",""time""
""fullscreenenter"",""0"",""2187""
","
","
","""event"",""trial"",""time""
""fullscreenenter"",""0"",""2187""
","
","null","<p></p>","null","","","","","","","",""
"","image","270","429098","0.0-236.0-0.0","""event"",""trial"",""time""
""fullscreenenter"",""0"",""2187""
","
","
","""event"",""trial"",""time""
""fullscreenenter"",""0"",""2187""
","
","1163.5","run_exp/static/images/Set 6_rs/074b.jpg","66","","","","","","test","TL","4"
"","show_choice","271","429602","0.0-236.0-1.0","""event"",""trial"",""time""
""fullscreenenter"",""0"",""2187""
","
","
","""event"",""trial"",""time""
""fullscreenenter"",""0"",""2187""
","
","null","run_exp/static/images/Set 6_rs/074b.jpg","null","","","","","","test","TL",""
"","html-keyboard-response","272","430104","0.0-236.0-2.0","""event"",""trial"",""time""
""fullscreenenter"",""0"",""2187""
","
","
","""event"",""trial"",""time""
""fullscreenenter"",""0"",""2187""
","
","null","<p></p>","null","","","","","","","",""
"","image","273","431133","0.0-237.0-0.0","""event"",""trial"",""time""
""fullscreenenter"",""0"",""2187""
","
","
","""event"",""trial"",""time""
""fullscreenenter"",""0"",""2187""
","
","1026.1999999284744","run_exp/static/images/Set 6_rs/121a.jpg","66","","","","","","test","TR","4"
"","show_choice","274","431637","0.0-237.0-1.0","""event"",""trial"",""time""
""fullscreenenter"",""0"",""2187""
","
","
","""event"",""trial"",""time""
""fullscreenenter"",""0"",""2187""
","
","null","run_exp/static/images/Set 6_rs/121a.jpg","null","","","","","","test","TR",""
"","html-keyboard-response","275","432140","0.0-237.0-2.0","""event"",""trial"",""time""
""fullscreenenter"",""0"",""2187""
","
","
","""event"",""trial"",""time""
""fullscreenenter"",""0"",""2187""
","
","null","<p></p>","null","","","","","","","",""
"","image","276","433075","0.0-238.0-0.0","""event"",""trial"",""time""
""fullscreenenter"",""0"",""2187""
","
","
","""event"",""trial"",""time""
""fullscreenenter"",""0"",""2187""
","
","932.5","run_exp/static/images/Set 6_rs/006b.jpg","66","","","","","","test","TL","2"
"","show_choice","277","433577","0.0-238.0-1.0","""event"",""trial"",""time""
""fullscreenenter"",""0"",""2187""
","
","
","""event"",""trial"",""time""
""fullscreenenter"",""0"",""2187""
","
","null","run_exp/static/images/Set 6_rs/006b.jpg","null","","","","","","test","TL",""
"","html-keyboard-response","278","434080","0.0-238.0-2.0","""event"",""trial"",""time""
""fullscreenenter"",""0"",""2187""
","
","
","""event"",""trial"",""time""
""fullscreenenter"",""0"",""2187""
","
","null","<p></p>","null","","","","","","","",""
"","image","279","435232","0.0-239.0-0.0","""event"",""trial"",""time""
""fullscreenenter"",""0"",""2187""
","
","
","""event"",""trial"",""time""
""fullscreenenter"",""0"",""2187""
","
","1150.3999999761581","run_exp/static/images/Set 6_rs/090a.jpg","66","","","","","","test","TF","5"
"","show_choice","280","435733","0.0-239.0-1.0","""event"",""trial"",""time""
""fullscreenenter"",""0"",""2187""
","
","
","""event"",""trial"",""time""
""fullscreenenter"",""0"",""2187""
","
","null","run_exp/static/images/Set 6_rs/090a.jpg","null","","","","","","test","TF",""
"","html-keyboard-response","281","436235","0.0-239.0-2.0","""event"",""trial"",""time""
""fullscreenenter"",""0"",""2187""
","
","
","""event"",""trial"",""time""
""fullscreenenter"",""0"",""2187""
","
","null","<p></p>","null","","","","","","","",""
"","image","282","437535","0.0-240.0-0.0","""event"",""trial"",""time""
""fullscreenenter"",""0"",""2187""
","
","
","""event"",""trial"",""time""
""fullscreenenter"",""0"",""2187""
","
","1297.3999999761581","run_exp/static/images/Set 6_rs/077a.jpg","78","","","","","","test","TF","3"
"","show_choice","283","438038","0.0-240.0-1.0","""event"",""trial"",""time""
""fullscreenenter"",""0"",""2187""
","
","
","""event"",""trial"",""time""
""fullscreenenter"",""0"",""2187""
","
","null","run_exp/static/images/Set 6_rs/077a.jpg","null","","","","","","test","TF",""
"","html-keyboard-response","284","438540","0.0-240.0-2.0","""event"",""trial"",""time""
""fullscreenenter"",""0"",""2187""
","
","
","""event"",""trial"",""time""
""fullscreenenter"",""0"",""2187""
","
","null","<p></p>","null","","","","","","","",""
"","image","285","439579","0.0-241.0-0.0","""event"",""trial"",""time""
""fullscreenenter"",""0"",""2187""
","
","
","""event"",""trial"",""time""
""fullscreenenter"",""0"",""2187""
","
","1036","run_exp/static/images/Set 6_rs/129b.jpg","66","","","","","","test","TL","1"
"","show_choice","286","440082","0.0-241.0-1.0","""event"",""trial"",""time""
""fullscreenenter"",""0"",""2187""
","
","
","""event"",""trial"",""time""
""fullscreenenter"",""0"",""2187""
","
","null","run_exp/static/images/Set 6_rs/129b.jpg","null","","","","","","test","TL",""
"","html-keyboard-response","287","440584","0.0-241.0-2.0","""event"",""trial"",""time""
""fullscreenenter"",""0"",""2187""
","
","
","""event"",""trial"",""time""
""fullscreenenter"",""0"",""2187""
","
","null","<p></p>","null","","","","","","","",""
"","image","288","441496","0.0-242.0-0.0","""event"",""trial"",""time""
""fullscreenenter"",""0"",""2187""
","
","
","""event"",""trial"",""time""
""fullscreenenter"",""0"",""2187""
","
","909.5","run_exp/static/images/Set 6_rs/089b.jpg","66","","","","","","test","TL","4"
"","show_choice","289","442001","0.0-242.0-1.0","""event"",""trial"",""time""
""fullscreenenter"",""0"",""2187""
","
","
","""event"",""trial"",""time""
""fullscreenenter"",""0"",""2187""
","
","null","run_exp/static/images/Set 6_rs/089b.jpg","null","","","","","","test","TL",""
"","html-keyboard-response","290","442503","0.0-242.0-2.0","""event"",""trial"",""time""
""fullscreenenter"",""0"",""2187""
","
","
","""event"",""trial"",""time""
""fullscreenenter"",""0"",""2187""
","
","null","<p></p>","null","","","","","","","",""
"","image","291","443284","0.0-243.0-0.0","""event"",""trial"",""time""
""fullscreenenter"",""0"",""2187""
","
","
","""event"",""trial"",""time""
""fullscreenenter"",""0"",""2187""
","
","778.2000000476837","run_exp/static/images/Set 6_rs/014b.jpg","66","","","","","","test","TL","5"
"","show_choice","292","443793","0.0-243.0-1.0","""event"",""trial"",""time""
""fullscreenenter"",""0"",""2187""
","
","
","""event"",""trial"",""time""
""fullscreenenter"",""0"",""2187""
","
","null","run_exp/static/images/Set 6_rs/014b.jpg","null","","","","","","test","TL",""
"","html-keyboard-response","293","444295","0.0-243.0-2.0","""event"",""trial"",""time""
""fullscreenenter"",""0"",""2187""
","
","
","""event"",""trial"",""time""
""fullscreenenter"",""0"",""2187""
","
","null","<p></p>","null","","","","","","","",""
"","image","294","445452","0.0-244.0-0.0","""event"",""trial"",""time""
""fullscreenenter"",""0"",""2187""
","
","
","""event"",""trial"",""time""
""fullscreenenter"",""0"",""2187""
","
","1153.8999999761581","run_exp/static/images/Set 6_rs/056a.jpg","78","","","","","","test","TF","3"
"","show_choice","295","445955","0.0-244.0-1.0","""event"",""trial"",""time""
""fullscreenenter"",""0"",""2187""
","
","
","""event"",""trial"",""time""
""fullscreenenter"",""0"",""2187""
","
","null","run_exp/static/images/Set 6_rs/056a.jpg","null","","","","","","test","TF",""
"","html-keyboard-response","296","446457","0.0-244.0-2.0","""event"",""trial"",""time""
""fullscreenenter"",""0"",""2187""
","
","
","""event"",""trial"",""time""
""fullscreenenter"",""0"",""2187""
","
","null","<p></p>","null","","","","","","","",""
"","image","297","447427","0.0-245.0-0.0","""event"",""trial"",""time""
""fullscreenenter"",""0"",""2187""
","
","
","""event"",""trial"",""time""
""fullscreenenter"",""0"",""2187""
","
","967.2999999523163","run_exp/static/images/Set 6_rs/132a.jpg","86","","","","","","test","TR","5"
"","show_choice","298","447930","0.0-245.0-1.0","""event"",""trial"",""time""
""fullscreenenter"",""0"",""2187""
","
","
","""event"",""trial"",""time""
""fullscreenenter"",""0"",""2187""
","
","null","run_exp/static/images/Set 6_rs/132a.jpg","null","","","","","","test","TR",""
"","html-keyboard-response","299","448433","0.0-245.0-2.0","""event"",""trial"",""time""
""fullscreenenter"",""0"",""2187""
","
","
","""event"",""trial"",""time""
""fullscreenenter"",""0"",""2187""
","
","null","<p></p>","null","","","","","","","",""
"","image","300","449372","0.0-246.0-0.0","""event"",""trial"",""time""
""fullscreenenter"",""0"",""2187""
","
","
","""event"",""trial"",""time""
""fullscreenenter"",""0"",""2187""
","
","935.8999999761581","run_exp/static/images/Set 6_rs/078a.jpg","78","","","","","","test","TF","1"
"","show_choice","301","449873","0.0-246.0-1.0","""event"",""trial"",""time""
""fullscreenenter"",""0"",""2187""
","
","
","""event"",""trial"",""time""
""fullscreenenter"",""0"",""2187""
","
","null","run_exp/static/images/Set 6_rs/078a.jpg","null","","","","","","test","TF",""
"","html-keyboard-response","302","450376","0.0-246.0-2.0","""event"",""trial"",""time""
""fullscreenenter"",""0"",""2187""
","
","
","""event"",""trial"",""time""
""fullscreenenter"",""0"",""2187""
","
","null","<p></p>","null","","","","","","","",""
"","image","303","451322","0.0-247.0-0.0","""event"",""trial"",""time""
""fullscreenenter"",""0"",""2187""
","
","
","""event"",""trial"",""time""
""fullscreenenter"",""0"",""2187""
","
","943.8999999761581","run_exp/static/images/Set 6_rs/070a.jpg","86","","","","","","test","TR","2"
"","show_choice","304","451825","0.0-247.0-1.0","""event"",""trial"",""time""
""fullscreenenter"",""0"",""2187""
","
","
","""event"",""trial"",""time""
""fullscreenenter"",""0"",""2187""
","
","null","run_exp/static/images/Set 6_rs/070a.jpg","null","","","","","","test","TR",""
"","html-keyboard-response","305","452327","0.0-247.0-2.0","""event"",""trial"",""time""
""fullscreenenter"",""0"",""2187""
","
","
","""event"",""trial"",""time""
""fullscreenenter"",""0"",""2187""
","
","null","<p></p>","null","","","","","","","",""
"","image","306","453644","0.0-248.0-0.0","""event"",""trial"",""time""
""fullscreenenter"",""0"",""2187""
","
","
","""event"",""trial"",""time""
""fullscreenenter"",""0"",""2187""
","
","1315.5999999046326","run_exp/static/images/Set 6_rs/172a.jpg","86","","","","","","test","TR","1"
"","show_choice","307","454159","0.0-248.0-1.0","""event"",""trial"",""time""
""fullscreenenter"",""0"",""2187""
","
","
","""event"",""trial"",""time""
""fullscreenenter"",""0"",""2187""
","
","null","run_exp/static/images/Set 6_rs/172a.jpg","null","","","","","","test","TR",""
"","html-keyboard-response","308","454661","0.0-248.0-2.0","""event"",""trial"",""time""
""fullscreenenter"",""0"",""2187""
","
","
","""event"",""trial"",""time""
""fullscreenenter"",""0"",""2187""
","
","null","<p></p>","null","","","","","","","",""
"","image","309","455790","0.0-249.0-0.0","""event"",""trial"",""time""
""fullscreenenter"",""0"",""2187""
","
","
","""event"",""trial"",""time""
""fullscreenenter"",""0"",""2187""
","
","1126.6999999284744","run_exp/static/images/Set 6_rs/075a.jpg","78","","","","","","test","TR","1"
"","show_choice","310","456292","0.0-249.0-1.0","""event"",""trial"",""time""
""fullscreenenter"",""0"",""2187""
","
","
","""event"",""trial"",""time""
""fullscreenenter"",""0"",""2187""
","
","null","run_exp/static/images/Set 6_rs/075a.jpg","null","","","","","","test","TR",""
"","html-keyboard-response","311","456794","0.0-249.0-2.0","""event"",""trial"",""time""
""fullscreenenter"",""0"",""2187""
","
","
","""event"",""trial"",""time""
""fullscreenenter"",""0"",""2187""
","
","null","<p></p>","null","","","","","","","",""
"","image","312","457945","0.0-250.0-0.0","""event"",""trial"",""time""
""fullscreenenter"",""0"",""2187""
","
","
","""event"",""trial"",""time""
""fullscreenenter"",""0"",""2187""
","
","1148","run_exp/static/images/Set 6_rs/055b.jpg","66","","","","","","test","TL","4"
"","show_choice","313","458454","0.0-250.0-1.0","""event"",""trial"",""time""
""fullscreenenter"",""0"",""2187""
","
","
","""event"",""trial"",""time""
""fullscreenenter"",""0"",""2187""
","
","null","run_exp/static/images/Set 6_rs/055b.jpg","null","","","","","","test","TL",""
"","html-keyboard-response","314","458956","0.0-250.0-2.0","""event"",""trial"",""time""
""fullscreenenter"",""0"",""2187""
","
","
","""event"",""trial"",""time""
""fullscreenenter"",""0"",""2187""
","
","null","<p></p>","null","","","","","","","",""
"","image","315","460237","0.0-251.0-0.0","""event"",""trial"",""time""
""fullscreenenter"",""0"",""2187""
","
","
","""event"",""trial"",""time""
""fullscreenenter"",""0"",""2187""
","
","1277.5","run_exp/static/images/Set 6_rs/118a.jpg","78","","","","","","test","TF","5"
"","show_choice","316","460740","0.0-251.0-1.0","""event"",""trial"",""time""
""fullscreenenter"",""0"",""2187""
","
","
","""event"",""trial"",""time""
""fullscreenenter"",""0"",""2187""
","
","null","run_exp/static/images/Set 6_rs/118a.jpg","null","","","","","","test","TF",""
"","html-keyboard-response","317","461241","0.0-251.0-2.0","""event"",""trial"",""time""
""fullscreenenter"",""0"",""2187""
","
","
","""event"",""trial"",""time""
""fullscreenenter"",""0"",""2187""
","
","null","<p></p>","null","","","","","","","",""
"","image","318","462133","0.0-252.0-0.0","""event"",""trial"",""time""
""fullscreenenter"",""0"",""2187""
","
","
","""event"",""trial"",""time""
""fullscreenenter"",""0"",""2187""
","
","888.5","run_exp/static/images/Set 6_rs/005a.jpg","78","","","","","","test","TF","5"
"","show_choice","319","462635","0.0-252.0-1.0","""event"",""trial"",""time""
""fullscreenenter"",""0"",""2187""
","
","
","""event"",""trial"",""time""
""fullscreenenter"",""0"",""2187""
","
","null","run_exp/static/images/Set 6_rs/005a.jpg","null","","","","","","test","TF",""
"","html-keyboard-response","320","463138","0.0-252.0-2.0","""event"",""trial"",""time""
""fullscreenenter"",""0"",""2187""
","
","
","""event"",""trial"",""time""
""fullscreenenter"",""0"",""2187""
","
","null","<p></p>","null","","","","","","","",""
"","image","321","464075","0.0-253.0-0.0","""event"",""trial"",""time""
""fullscreenenter"",""0"",""2187""
","
","
","""event"",""trial"",""time""
""fullscreenenter"",""0"",""2187""
","
","934.7000000476837","run_exp/static/images/Set 6_rs/071b.jpg","66","","","","","","test","TL","4"
"","show_choice","322","464590","0.0-253.0-1.0","""event"",""trial"",""time""
""fullscreenenter"",""0"",""2187""
","
","
","""event"",""trial"",""time""
""fullscreenenter"",""0"",""2187""
","
","null","run_exp/static/images/Set 6_rs/071b.jpg","null","","","","","","test","TL",""
"","html-keyboard-response","323","465093","0.0-253.0-2.0","""event"",""trial"",""time""
""fullscreenenter"",""0"",""2187""
","
","
","""event"",""trial"",""time""
""fullscreenenter"",""0"",""2187""
","
","null","<p></p>","null","","","","","","","",""
"","image","324","466180","0.0-254.0-0.0","""event"",""trial"",""time""
""fullscreenenter"",""0"",""2187""
","
","
","""event"",""trial"",""time""
""fullscreenenter"",""0"",""2187""
","
","1084.4000000953674","run_exp/static/images/Set 6_rs/152a.jpg","86","","","","","","test","TR","2"
"","show_choice","325","466683","0.0-254.0-1.0","""event"",""trial"",""time""
""fullscreenenter"",""0"",""2187""
","
","
","""event"",""trial"",""time""
""fullscreenenter"",""0"",""2187""
","
","null","run_exp/static/images/Set 6_rs/152a.jpg","null","","","","","","test","TR",""
"","html-keyboard-response","326","467184","0.0-254.0-2.0","""event"",""trial"",""time""
""fullscreenenter"",""0"",""2187""
","
","
","""event"",""trial"",""time""
""fullscreenenter"",""0"",""2187""
","
","null","<p></p>","null","","","","","","","",""
"","image","327","468292","0.0-255.0-0.0","""event"",""trial"",""time""
""fullscreenenter"",""0"",""2187""
","
","
","""event"",""trial"",""time""
""fullscreenenter"",""0"",""2187""
","
","1107.1000000238419","run_exp/static/images/Set 6_rs/061a.jpg","86","","","","","","test","TR","5"
"","show_choice","328","468793","0.0-255.0-1.0","""event"",""trial"",""time""
""fullscreenenter"",""0"",""2187""
","
","
","""event"",""trial"",""time""
""fullscreenenter"",""0"",""2187""
","
","null","run_exp/static/images/Set 6_rs/061a.jpg","null","","","","","","test","TR",""
"","html-keyboard-response","329","469296","0.0-255.0-2.0","""event"",""trial"",""time""
""fullscreenenter"",""0"",""2187""
","
","
","""event"",""trial"",""time""
""fullscreenenter"",""0"",""2187""
","
","null","<p></p>","null","","","","","","","",""
"","image","330","470279","0.0-256.0-0.0","""event"",""trial"",""time""
""fullscreenenter"",""0"",""2187""
","
","
","""event"",""trial"",""time""
""fullscreenenter"",""0"",""2187""
","
","980.5","run_exp/static/images/Set 6_rs/169a.jpg","86","","","","","","test","TR","4"
"","show_choice","331","470782","0.0-256.0-1.0","""event"",""trial"",""time""
""fullscreenenter"",""0"",""2187""
","
","
","""event"",""trial"",""time""
""fullscreenenter"",""0"",""2187""
","
","null","run_exp/static/images/Set 6_rs/169a.jpg","null","","","","","","test","TR",""
"","html-keyboard-response","332","471285","0.0-256.0-2.0","""event"",""trial"",""time""
""fullscreenenter"",""0"",""2187""
","
","
","""event"",""trial"",""time""
""fullscreenenter"",""0"",""2187""
","
","null","<p></p>","null","","","","","","","",""
"","image","333","472567","0.0-257.0-0.0","""event"",""trial"",""time""
""fullscreenenter"",""0"",""2187""
","
","
","""event"",""trial"",""time""
""fullscreenenter"",""0"",""2187""
","
","1278.5","run_exp/static/images/Set 6_rs/168b.jpg","66","","","","","","test","TL","3"
"","show_choice","334","473069","0.0-257.0-1.0","""event"",""trial"",""time""
""fullscreenenter"",""0"",""2187""
","
","
","""event"",""trial"",""time""
""fullscreenenter"",""0"",""2187""
","
","null","run_exp/static/images/Set 6_rs/168b.jpg","null","","","","","","test","TL",""
"","html-keyboard-response","335","473572","0.0-257.0-2.0","""event"",""trial"",""time""
""fullscreenenter"",""0"",""2187""
","
","
","""event"",""trial"",""time""
""fullscreenenter"",""0"",""2187""
","
","null","<p></p>","null","","","","","","","",""
"","image","336","475060","0.0-258.0-0.0","""event"",""trial"",""time""
""fullscreenenter"",""0"",""2187""
","
","
","""event"",""trial"",""time""
""fullscreenenter"",""0"",""2187""
","
","1485.7999999523163","run_exp/static/images/Set 6_rs/011a.jpg","86","","","","","","test","TF","3"
"","show_choice","337","475562","0.0-258.0-1.0","""event"",""trial"",""time""
""fullscreenenter"",""0"",""2187""
","
","
","""event"",""trial"",""time""
""fullscreenenter"",""0"",""2187""
","
","null","run_exp/static/images/Set 6_rs/011a.jpg","null","","","","","","test","TF",""
"","html-keyboard-response","338","476063","0.0-258.0-2.0","""event"",""trial"",""time""
""fullscreenenter"",""0"",""2187""
","
","
","""event"",""trial"",""time""
""fullscreenenter"",""0"",""2187""
","
","null","<p></p>","null","","","","","","","",""
"","image","339","476867","0.0-259.0-0.0","""event"",""trial"",""time""
""fullscreenenter"",""0"",""2187""
","
","
","""event"",""trial"",""time""
""fullscreenenter"",""0"",""2187""
","
","801.8999999761581","run_exp/static/images/Set 6_rs/112a.jpg","86","","","","","","test","TR","5"
"","show_choice","340","477369","0.0-259.0-1.0","""event"",""trial"",""time""
""fullscreenenter"",""0"",""2187""
","
","
","""event"",""trial"",""time""
""fullscreenenter"",""0"",""2187""
","
","null","run_exp/static/images/Set 6_rs/112a.jpg","null","","","","","","test","TR",""
