"success","trial_type","trial_index","time_elapsed","internal_node_id","interactions","blur_events","focus_events","fullscreenenter_events","fullscreenexit_events","rt","stimulus","key_press","subject_id","participant_id","age","gender","prompt","phase","condition","lure_bin"
"true","fullscreen","0","5026","0.0-0.0","""event"",""trial"",""time""
""fullscreenenter"",""0"",""4045""
","
","
","""event"",""trial"",""time""
""fullscreenenter"",""0"",""4045""
","
","","","","","","","","","","",""
"","pavlovia","1","5042","0.0-1.0","""event"",""trial"",""time""
""fullscreenenter"",""0"",""4045""
","
","
","""event"",""trial"",""time""
""fullscreenenter"",""0"",""4045""
","
","","","","","","","","","","",""
"","welcome","2","39901","0.0-2.0","""event"",""trial"",""time""
""fullscreenenter"",""0"",""4045""
","
","
","""event"",""trial"",""time""
""fullscreenenter"",""0"",""4045""
","
","null","run_exp/static/audio/clip_1_welcome.m4a","null","554","603","16","Male","<div class='center'><p>Welcome to the third part of the study! First, you'll be shown pictures of items one at a time. For each picture, you have to decide if the item is typically found indoors or outdoors.</p><p>If you think it's usually found indoors, then press <b>v</b> key on your keyboard. If you think it's usually found outdoors, then press the <b>n</b> key.There will be reminders on the screen to help you remember which keys to press. </p><p>If you're not sure whether the item is an indoor item or an outdoor item, go ahead and take a guess but try your best not to skip that choice. </p></div>","","",""
"","html-keyboard-response","3","42060","0.0-3.0","""event"",""trial"",""time""
""fullscreenenter"",""0"",""4045""
","
","
","""event"",""trial"",""time""
""fullscreenenter"",""0"",""4045""
","
","2152.5999999996275","<div class='center'><p>Welcome to the third part of the study! First, you'll be shown pictures of items one at a time. For each picture, you have to decide if the item is typically found indoors or outdoors.</p><p>If you think it's usually found indoors, then press <b>v</b> key on your keyboard. If you think it's usually found outdoors, then press the <b>n</b> key.There will be reminders on the screen to help you remember which keys to press. </p><p>If you're not sure whether the item is an indoor item or an outdoor item, go ahead and take a guess but try your best not to skip that choice. </p><div><p><b>[Press the space bar to continue]</b></p></div>","32","","","","","","","",""
"","image","4","44069","0.0-4.0","""event"",""trial"",""time""
""fullscreenenter"",""0"",""4045""
","
","
","""event"",""trial"",""time""
""fullscreenenter"",""0"",""4045""
","
","null","run_exp/static/images/Set 6_rs/169a.jpg","null","","","","","","learn","SR",""
"","show_choice","5","46087","0.0-5.0","""event"",""trial"",""time""
""fullscreenenter"",""0"",""4045""
","
","
","""event"",""trial"",""time""
""fullscreenenter"",""0"",""4045""
","
","null","run_exp/static/images/blank.png","null","","","","","","learn","SR",""
"","html-keyboard-response","6","46592","0.0-6.0","""event"",""trial"",""time""
""fullscreenenter"",""0"",""4045""
","
","
","""event"",""trial"",""time""
""fullscreenenter"",""0"",""4045""
","
","null","<p></p>","null","","","","","","","",""
"","image","7","47864","0.0-7.0","""event"",""trial"",""time""
""fullscreenenter"",""0"",""4045""
","
","
","""event"",""trial"",""time""
""fullscreenenter"",""0"",""4045""
","
","1267.0999999996275","run_exp/static/images/Set 6_rs/085a.jpg","86","","","","","","learn","SL",""
"","show_choice","8","48601","0.0-8.0","""event"",""trial"",""time""
""fullscreenenter"",""0"",""4045""
","
","
","""event"",""trial"",""time""
""fullscreenenter"",""0"",""4045""
","
","null","run_exp/static/images/Set 6_rs/085a.jpg","null","","","","","","learn","SL",""
"","html-keyboard-response","9","49106","0.0-9.0","""event"",""trial"",""time""
""fullscreenenter"",""0"",""4045""
","
","
","""event"",""trial"",""time""
""fullscreenenter"",""0"",""4045""
","
","null","<p></p>","null","","","","","","","",""
"","image","10","50306","0.0-10.0","""event"",""trial"",""time""
""fullscreenenter"",""0"",""4045""
","
","
","""event"",""trial"",""time""
""fullscreenenter"",""0"",""4045""
","
","1195.800000000745","run_exp/static/images/Set 6_rs/132a.jpg","86","","","","","","learn","SR",""
"","show_choice","11","51115","0.0-11.0","""event"",""trial"",""time""
""fullscreenenter"",""0"",""4045""
","
","
","""event"",""trial"",""time""
""fullscreenenter"",""0"",""4045""
","
","null","run_exp/static/images/Set 6_rs/132a.jpg","null","","","","","","learn","SR",""
"","html-keyboard-response","12","51618","0.0-12.0","""event"",""trial"",""time""
""fullscreenenter"",""0"",""4045""
","
","
","""event"",""trial"",""time""
""fullscreenenter"",""0"",""4045""
","
","null","<p></p>","null","","","","","","","",""
"","image","13","52714","0.0-13.0","""event"",""trial"",""time""
""fullscreenenter"",""0"",""4045""
","
","
","""event"",""trial"",""time""
""fullscreenenter"",""0"",""4045""
","
","1090.5","run_exp/static/images/Set 6_rs/108a.jpg","78","","","","","","learn","SR",""
"","show_choice","14","53628","0.0-14.0","""event"",""trial"",""time""
""fullscreenenter"",""0"",""4045""
","
","
","""event"",""trial"",""time""
""fullscreenenter"",""0"",""4045""
","
","null","run_exp/static/images/Set 6_rs/108a.jpg","null","","","","","","learn","SR",""
"","html-keyboard-response","15","54132","0.0-15.0","""event"",""trial"",""time""
""fullscreenenter"",""0"",""4045""
","
","
","""event"",""trial"",""time""
""fullscreenenter"",""0"",""4045""
","
","null","<p></p>","null","","","","","","","",""
"","image","16","55325","0.0-16.0","""event"",""trial"",""time""
""fullscreenenter"",""0"",""4045""
","
","
","""event"",""trial"",""time""
""fullscreenenter"",""0"",""4045""
","
","1188.7999999988824","run_exp/static/images/Set 6_rs/010a.jpg","86","","","","","","learn","SR",""
"","show_choice","17","56140","0.0-17.0","""event"",""trial"",""time""
""fullscreenenter"",""0"",""4045""
","
","
","""event"",""trial"",""time""
""fullscreenenter"",""0"",""4045""
","
","null","run_exp/static/images/Set 6_rs/010a.jpg","null","","","","","","learn","SR",""
"","html-keyboard-response","18","56644","0.0-18.0","""event"",""trial"",""time""
""fullscreenenter"",""0"",""4045""
","
","
","""event"",""trial"",""time""
""fullscreenenter"",""0"",""4045""
","
","null","<p></p>","null","","","","","","","",""
"","image","19","57606","0.0-19.0","""event"",""trial"",""time""
""fullscreenenter"",""0"",""4045""
","
","
","""event"",""trial"",""time""
""fullscreenenter"",""0"",""4045""
","
","957.8999999985099","run_exp/static/images/Set 6_rs/181a.jpg","78","","","","","","learn","SL",""
"","show_choice","20","58652","0.0-20.0","""event"",""trial"",""time""
""fullscreenenter"",""0"",""4045""
","
","
","""event"",""trial"",""time""
""fullscreenenter"",""0"",""4045""
","
","null","run_exp/static/images/Set 6_rs/181a.jpg","null","","","","","","learn","SL",""
"","html-keyboard-response","21","59154","0.0-21.0","""event"",""trial"",""time""
""fullscreenenter"",""0"",""4045""
","
","
","""event"",""trial"",""time""
""fullscreenenter"",""0"",""4045""
","
","null","<p></p>","null","","","","","","","",""
"","image","22","60471","0.0-22.0","""event"",""trial"",""time""
""fullscreenenter"",""0"",""4045""
","
","
","""event"",""trial"",""time""
""fullscreenenter"",""0"",""4045""
","
","1312.199999999255","run_exp/static/images/Set 6_rs/111a.jpg","86","","","","","","learn","SL",""
"","show_choice","23","61162","0.0-23.0","""event"",""trial"",""time""
""fullscreenenter"",""0"",""4045""
","
","
","""event"",""trial"",""time""
""fullscreenenter"",""0"",""4045""
","
","null","run_exp/static/images/Set 6_rs/111a.jpg","null","","","","","","learn","SL",""
"","html-keyboard-response","24","61666","0.0-24.0","""event"",""trial"",""time""
""fullscreenenter"",""0"",""4045""
","
","
","""event"",""trial"",""time""
""fullscreenenter"",""0"",""4045""
","
","null","<p></p>","null","","","","","","","",""
"","image","25","62976","0.0-25.0","""event"",""trial"",""time""
""fullscreenenter"",""0"",""4045""
","
","
","""event"",""trial"",""time""
""fullscreenenter"",""0"",""4045""
","
","1305.5999999996275","run_exp/static/images/Set 6_rs/144a.jpg","86","","","","","","learn","SL",""
"","show_choice","26","63675","0.0-26.0","""event"",""trial"",""time""
""fullscreenenter"",""0"",""4045""
","
","
","""event"",""trial"",""time""
""fullscreenenter"",""0"",""4045""
","
","null","run_exp/static/images/Set 6_rs/144a.jpg","null","","","","","","learn","SL",""
"","html-keyboard-response","27","64178","0.0-27.0","""event"",""trial"",""time""
""fullscreenenter"",""0"",""4045""
","
","
","""event"",""trial"",""time""
""fullscreenenter"",""0"",""4045""
","
","null","<p></p>","null","","","","","","","",""
"","image","28","65119","0.0-28.0","""event"",""trial"",""time""
""fullscreenenter"",""0"",""4045""
","
","
","""event"",""trial"",""time""
""fullscreenenter"",""0"",""4045""
","
","935.3000000007451","run_exp/static/images/Set 6_rs/012a.jpg","86","","","","","","learn","SR",""
"","show_choice","29","66187","0.0-29.0","""event"",""trial"",""time""
""fullscreenenter"",""0"",""4045""
","
","
","""event"",""trial"",""time""
""fullscreenenter"",""0"",""4045""
","
","null","run_exp/static/images/Set 6_rs/012a.jpg","null","","","","","","learn","SR",""
"","html-keyboard-response","30","66692","0.0-30.0","""event"",""trial"",""time""
""fullscreenenter"",""0"",""4045""
","
","
","""event"",""trial"",""time""
""fullscreenenter"",""0"",""4045""
","
","null","<p></p>","null","","","","","","","",""
"","image","31","67726","0.0-31.0","""event"",""trial"",""time""
""fullscreenenter"",""0"",""4045""
","
","
","""event"",""trial"",""time""
""fullscreenenter"",""0"",""4045""
","
","1029.0999999996275","run_exp/static/images/Set 6_rs/024a.jpg","86","","","","","","learn","SR",""
"","show_choice","32","68699","0.0-32.0","""event"",""trial"",""time""
""fullscreenenter"",""0"",""4045""
","
","
","""event"",""trial"",""time""
""fullscreenenter"",""0"",""4045""
","
","null","run_exp/static/images/Set 6_rs/024a.jpg","null","","","","","","learn","SR",""
"","html-keyboard-response","33","69203","0.0-33.0","""event"",""trial"",""time""
""fullscreenenter"",""0"",""4045""
","
","
","""event"",""trial"",""time""
""fullscreenenter"",""0"",""4045""
","
","null","<p></p>","null","","","","","","","",""
"","image","34","70510","0.0-34.0","""event"",""trial"",""time""
""fullscreenenter"",""0"",""4045""
","
","
","""event"",""trial"",""time""
""fullscreenenter"",""0"",""4045""
","
","1303.2999999988824","run_exp/static/images/Set 6_rs/154a.jpg","86","","","","","","learn","SR",""
"","show_choice","35","71211","0.0-35.0","""event"",""trial"",""time""
""fullscreenenter"",""0"",""4045""
","
","
","""event"",""trial"",""time""
""fullscreenenter"",""0"",""4045""
","
","null","run_exp/static/images/Set 6_rs/154a.jpg","null","","","","","","learn","SR",""
"","html-keyboard-response","36","71715","0.0-36.0","""event"",""trial"",""time""
""fullscreenenter"",""0"",""4045""
","
","
","""event"",""trial"",""time""
""fullscreenenter"",""0"",""4045""
","
","null","<p></p>","null","","","","","","","",""
"","image","37","72690","0.0-37.0","""event"",""trial"",""time""
""fullscreenenter"",""0"",""4045""
","
","
","""event"",""trial"",""time""
""fullscreenenter"",""0"",""4045""
","
","970.8000000007451","run_exp/static/images/Set 6_rs/123a.jpg","78","","","","","","learn","SL",""
"","show_choice","38","73723","0.0-38.0","""event"",""trial"",""time""
""fullscreenenter"",""0"",""4045""
","
","
","""event"",""trial"",""time""
""fullscreenenter"",""0"",""4045""
","
","null","run_exp/static/images/Set 6_rs/123a.jpg","null","","","","","","learn","SL",""
"","html-keyboard-response","39","74226","0.0-39.0","""event"",""trial"",""time""
""fullscreenenter"",""0"",""4045""
","
","
","""event"",""trial"",""time""
""fullscreenenter"",""0"",""4045""
","
","null","<p></p>","null","","","","","","","",""
"","image","40","75331","0.0-40.0","""event"",""trial"",""time""
""fullscreenenter"",""0"",""4045""
","
","
","""event"",""trial"",""time""
""fullscreenenter"",""0"",""4045""
","
","1100.5","run_exp/static/images/Set 6_rs/131a.jpg","86","","","","","","learn","SR",""
"","show_choice","41","76234","0.0-41.0","""event"",""trial"",""time""
""fullscreenenter"",""0"",""4045""
","
","
","""event"",""trial"",""time""
""fullscreenenter"",""0"",""4045""
","
","null","run_exp/static/images/Set 6_rs/131a.jpg","null","","","","","","learn","SR",""
"","html-keyboard-response","42","76748","0.0-42.0","""event"",""trial"",""time""
""fullscreenenter"",""0"",""4045""
","
","
","""event"",""trial"",""time""
""fullscreenenter"",""0"",""4045""
","
","null","<p></p>","null","","","","","","","",""
"","image","43","78345","0.0-43.0","""event"",""trial"",""time""
""fullscreenenter"",""0"",""4045""
","
","
","""event"",""trial"",""time""
""fullscreenenter"",""0"",""4045""
","
","1592.699999999255","run_exp/static/images/Set 6_rs/016a.jpg","86","","","","","","learn","SL",""
"","show_choice","44","78756","0.0-44.0","""event"",""trial"",""time""
""fullscreenenter"",""0"",""4045""
","
","
","""event"",""trial"",""time""
""fullscreenenter"",""0"",""4045""
","
","null","run_exp/static/images/Set 6_rs/016a.jpg","null","","","","","","learn","SL",""
"","html-keyboard-response","45","79260","0.0-45.0","""event"",""trial"",""time""
""fullscreenenter"",""0"",""4045""
","
","
","""event"",""trial"",""time""
""fullscreenenter"",""0"",""4045""
","
","null","<p></p>","null","","","","","","","",""
"","image","46","80111","0.0-46.0","""event"",""trial"",""time""
""fullscreenenter"",""0"",""4045""
","
","
","""event"",""trial"",""time""
""fullscreenenter"",""0"",""4045""
","
","845.5999999996275","run_exp/static/images/Set 6_rs/138a.jpg","78","","","","","","learn","SL",""
"","show_choice","47","81268","0.0-47.0","""event"",""trial"",""time""
""fullscreenenter"",""0"",""4045""
","
","
","""event"",""trial"",""time""
""fullscreenenter"",""0"",""4045""
","
","null","run_exp/static/images/Set 6_rs/138a.jpg","null","","","","","","learn","SL",""
"","html-keyboard-response","48","81772","0.0-48.0","""event"",""trial"",""time""
""fullscreenenter"",""0"",""4045""
","
","
","""event"",""trial"",""time""
""fullscreenenter"",""0"",""4045""
","
","null","<p></p>","null","","","","","","","",""
"","image","49","82808","0.0-49.0","""event"",""trial"",""time""
""fullscreenenter"",""0"",""4045""
","
","
","""event"",""trial"",""time""
""fullscreenenter"",""0"",""4045""
","
","1031.300000000745","run_exp/static/images/Set 6_rs/075a.jpg","86","","","","","","learn","SR",""
"","show_choice","50","83780","0.0-50.0","""event"",""trial"",""time""
""fullscreenenter"",""0"",""4045""
","
","
","""event"",""trial"",""time""
""fullscreenenter"",""0"",""4045""
","
","null","run_exp/static/images/Set 6_rs/075a.jpg","null","","","","","","learn","SR",""
"","html-keyboard-response","51","84283","0.0-51.0","""event"",""trial"",""time""
""fullscreenenter"",""0"",""4045""
","
","
","""event"",""trial"",""time""
""fullscreenenter"",""0"",""4045""
","
","null","<p></p>","null","","","","","","","",""
"","image","52","85392","0.0-52.0","""event"",""trial"",""time""
""fullscreenenter"",""0"",""4045""
","
","
","""event"",""trial"",""time""
""fullscreenenter"",""0"",""4045""
","
","1103.0999999996275","run_exp/static/images/Set 6_rs/050a.jpg","86","","","","","","learn","SL",""
"","show_choice","53","86292","0.0-53.0","""event"",""trial"",""time""
""fullscreenenter"",""0"",""4045""
","
","
","""event"",""trial"",""time""
""fullscreenenter"",""0"",""4045""
","
","null","run_exp/static/images/Set 6_rs/050a.jpg","null","","","","","","learn","SL",""
"","html-keyboard-response","54","86795","0.0-54.0","""event"",""trial"",""time""
""fullscreenenter"",""0"",""4045""
","
","
","""event"",""trial"",""time""
""fullscreenenter"",""0"",""4045""
","
","null","<p></p>","null","","","","","","","",""
"","image","55","87855","0.0-55.0","""event"",""trial"",""time""
""fullscreenenter"",""0"",""4045""
","
","
","""event"",""trial"",""time""
""fullscreenenter"",""0"",""4045""
","
","1057.2000000011176","run_exp/static/images/Set 6_rs/074a.jpg","78","","","","","","learn","SL",""
"","show_choice","56","88801","0.0-56.0","""event"",""trial"",""time""
""fullscreenenter"",""0"",""4045""
","
","
","""event"",""trial"",""time""
""fullscreenenter"",""0"",""4045""
","
","null","run_exp/static/images/Set 6_rs/074a.jpg","null","","","","","","learn","SL",""
"","html-keyboard-response","57","89304","0.0-57.0","""event"",""trial"",""time""
""fullscreenenter"",""0"",""4045""
","
","
","""event"",""trial"",""time""
""fullscreenenter"",""0"",""4045""
","
","null","<p></p>","null","","","","","","","",""
"","image","58","90721","0.0-58.0","""event"",""trial"",""time""
""fullscreenenter"",""0"",""4045""
","
","
","""event"",""trial"",""time""
""fullscreenenter"",""0"",""4045""
","
","1411.9000000003725","run_exp/static/images/Set 6_rs/187a.jpg","78","","","","","","learn","SR",""
"","show_choice","59","91312","0.0-59.0","""event"",""trial"",""time""
""fullscreenenter"",""0"",""4045""
","
","
","""event"",""trial"",""time""
""fullscreenenter"",""0"",""4045""
","
","null","run_exp/static/images/Set 6_rs/187a.jpg","null","","","","","","learn","SR",""
"","html-keyboard-response","60","91817","0.0-60.0","""event"",""trial"",""time""
""fullscreenenter"",""0"",""4045""
","
","
","""event"",""trial"",""time""
""fullscreenenter"",""0"",""4045""
","
","null","<p></p>","null","","","","","","","",""
"","image","61","93014","0.0-61.0","""event"",""trial"",""time""
""fullscreenenter"",""0"",""4045""
","
","
","""event"",""trial"",""time""
""fullscreenenter"",""0"",""4045""
","
","1193","run_exp/static/images/Set 6_rs/061a.jpg","78","","","","","","learn","SR",""
"","show_choice","62","93825","0.0-62.0","""event"",""trial"",""time""
""fullscreenenter"",""0"",""4045""
","
","
","""event"",""trial"",""time""
""fullscreenenter"",""0"",""4045""
","
","null","run_exp/static/images/Set 6_rs/061a.jpg","null","","","","","","learn","SR",""
"","html-keyboard-response","63","94329","0.0-63.0","""event"",""trial"",""time""
""fullscreenenter"",""0"",""4045""
","
","
","""event"",""trial"",""time""
""fullscreenenter"",""0"",""4045""
","
","null","<p></p>","null","","","","","","","",""
"","image","64","95331","0.0-64.0","""event"",""trial"",""time""
""fullscreenenter"",""0"",""4045""
","
","
","""event"",""trial"",""time""
""fullscreenenter"",""0"",""4045""
","
","997.5999999996275","run_exp/static/images/Set 6_rs/007a.jpg","86","","","","","","learn","SR",""
"","show_choice","65","96336","0.0-65.0","""event"",""trial"",""time""
""fullscreenenter"",""0"",""4045""
","
","
","""event"",""trial"",""time""
""fullscreenenter"",""0"",""4045""
","
","null","run_exp/static/images/Set 6_rs/007a.jpg","null","","","","","","learn","SR",""
"","html-keyboard-response","66","96840","0.0-66.0","""event"",""trial"",""time""
""fullscreenenter"",""0"",""4045""
","
","
","""event"",""trial"",""time""
""fullscreenenter"",""0"",""4045""
","
","null","<p></p>","null","","","","","","","",""
"","image","67","97692","0.0-67.0","""event"",""trial"",""time""
""fullscreenenter"",""0"",""4045""
","
","
","""event"",""trial"",""time""
""fullscreenenter"",""0"",""4045""
","
","846.9000000003725","run_exp/static/images/Set 6_rs/064a.jpg","86","","","","","","learn","SR",""
"","show_choice","68","98848","0.0-68.0","""event"",""trial"",""time""
""fullscreenenter"",""0"",""4045""
","
","
","""event"",""trial"",""time""
""fullscreenenter"",""0"",""4045""
","
","null","run_exp/static/images/Set 6_rs/064a.jpg","null","","","","","","learn","SR",""
"","html-keyboard-response","69","99351","0.0-69.0","""event"",""trial"",""time""
""fullscreenenter"",""0"",""4045""
","
","
","""event"",""trial"",""time""
""fullscreenenter"",""0"",""4045""
","
","null","<p></p>","null","","","","","","","",""
"","image","70","100229","0.0-70.0","""event"",""trial"",""time""
""fullscreenenter"",""0"",""4045""
","
","
","""event"",""trial"",""time""
""fullscreenenter"",""0"",""4045""
","
","873.2000000011176","run_exp/static/images/Set 6_rs/073a.jpg","86","","","","","","learn","SL",""
"","show_choice","71","101359","0.0-71.0","""event"",""trial"",""time""
""fullscreenenter"",""0"",""4045""
","
","
","""event"",""trial"",""time""
""fullscreenenter"",""0"",""4045""
","
","null","run_exp/static/images/Set 6_rs/073a.jpg","null","","","","","","learn","SL",""
"","html-keyboard-response","72","101862","0.0-72.0","""event"",""trial"",""time""
""fullscreenenter"",""0"",""4045""
","
","
","""event"",""trial"",""time""
""fullscreenenter"",""0"",""4045""
","
","null","<p></p>","null","","","","","","","",""
"","image","73","103273","0.0-73.0","""event"",""trial"",""time""
""fullscreenenter"",""0"",""4045""
","
","
","""event"",""trial"",""time""
""fullscreenenter"",""0"",""4045""
","
","1406.9000000003725","run_exp/static/images/Set 6_rs/006a.jpg","86","","","","","","learn","SL",""
"","show_choice","74","103870","0.0-74.0","""event"",""trial"",""time""
""fullscreenenter"",""0"",""4045""
","
","
","""event"",""trial"",""time""
""fullscreenenter"",""0"",""4045""
","
","null","run_exp/static/images/Set 6_rs/006a.jpg","null","","","","","","learn","SL",""
"","html-keyboard-response","75","104373","0.0-75.0","""event"",""trial"",""time""
""fullscreenenter"",""0"",""4045""
","
","
","""event"",""trial"",""time""
""fullscreenenter"",""0"",""4045""
","
","null","<p></p>","null","","","","","","","",""
"","image","76","105818","0.0-76.0","""event"",""trial"",""time""
""fullscreenenter"",""0"",""4045""
","
","
","""event"",""trial"",""time""
""fullscreenenter"",""0"",""4045""
","
","1440","run_exp/static/images/Set 6_rs/134a.jpg","86","","","","","","learn","SR",""
"","show_choice","77","106382","0.0-77.0","""event"",""trial"",""time""
""fullscreenenter"",""0"",""4045""
","
","
","""event"",""trial"",""time""
""fullscreenenter"",""0"",""4045""
","
","null","run_exp/static/images/Set 6_rs/134a.jpg","null","","","","","","learn","SR",""
"","html-keyboard-response","78","106885","0.0-78.0","""event"",""trial"",""time""
""fullscreenenter"",""0"",""4045""
","
","
","""event"",""trial"",""time""
""fullscreenenter"",""0"",""4045""
","
","null","<p></p>","null","","","","","","","",""
"","image","79","107785","0.0-79.0","""event"",""trial"",""time""
""fullscreenenter"",""0"",""4045""
","
","
","""event"",""trial"",""time""
""fullscreenenter"",""0"",""4045""
","
","896.0999999996275","run_exp/static/images/Set 6_rs/095a.jpg","86","","","","","","learn","SL",""
"","show_choice","80","108892","0.0-80.0","""event"",""trial"",""time""
""fullscreenenter"",""0"",""4045""
","
","
","""event"",""trial"",""time""
""fullscreenenter"",""0"",""4045""
","
","null","run_exp/static/images/Set 6_rs/095a.jpg","null","","","","","","learn","SL",""
"","html-keyboard-response","81","109395","0.0-81.0","""event"",""trial"",""time""
""fullscreenenter"",""0"",""4045""
","
","
","""event"",""trial"",""time""
""fullscreenenter"",""0"",""4045""
","
","null","<p></p>","null","","","","","","","",""
"","image","82","110093","0.0-82.0","""event"",""trial"",""time""
""fullscreenenter"",""0"",""4045""
","
","
","""event"",""trial"",""time""
""fullscreenenter"",""0"",""4045""
","
","693.5","run_exp/static/images/Set 6_rs/025a.jpg","78","","","","","","learn","SL",""
"","show_choice","83","111403","0.0-83.0","""event"",""trial"",""time""
""fullscreenenter"",""0"",""4045""
","
","
","""event"",""trial"",""time""
""fullscreenenter"",""0"",""4045""
","
","null","run_exp/static/images/Set 6_rs/025a.jpg","null","","","","","","learn","SL",""
"","html-keyboard-response","84","111906","0.0-84.0","""event"",""trial"",""time""
""fullscreenenter"",""0"",""4045""
","
","
","""event"",""trial"",""time""
""fullscreenenter"",""0"",""4045""
","
","null","<p></p>","null","","","","","","","",""
"","image","85","112964","0.0-85.0","""event"",""trial"",""time""
""fullscreenenter"",""0"",""4045""
","
","
","""event"",""trial"",""time""
""fullscreenenter"",""0"",""4045""
","
","1053.699999999255","run_exp/static/images/Set 6_rs/122a.jpg","86","","","","","","learn","SR",""
"","show_choice","86","113914","0.0-86.0","""event"",""trial"",""time""
""fullscreenenter"",""0"",""4045""
","
","
","""event"",""trial"",""time""
""fullscreenenter"",""0"",""4045""
","
","null","run_exp/static/images/Set 6_rs/122a.jpg","null","","","","","","learn","SR",""
"","html-keyboard-response","87","114417","0.0-87.0","""event"",""trial"",""time""
""fullscreenenter"",""0"",""4045""
","
","
","""event"",""trial"",""time""
""fullscreenenter"",""0"",""4045""
","
","null","<p></p>","null","","","","","","","",""
"","image","88","115630","0.0-88.0","""event"",""trial"",""time""
""fullscreenenter"",""0"",""4045""
","
","
","""event"",""trial"",""time""
""fullscreenenter"",""0"",""4045""
","
","1209.0999999996275","run_exp/static/images/Set 6_rs/191a.jpg","86","","","","","","learn","SL",""
"","show_choice","89","116425","0.0-89.0","""event"",""trial"",""time""
""fullscreenenter"",""0"",""4045""
","
","
","""event"",""trial"",""time""
""fullscreenenter"",""0"",""4045""
","
","null","run_exp/static/images/Set 6_rs/191a.jpg","null","","","","","","learn","SL",""
"","html-keyboard-response","90","116929","0.0-90.0","""event"",""trial"",""time""
""fullscreenenter"",""0"",""4045""
","
","
","""event"",""trial"",""time""
""fullscreenenter"",""0"",""4045""
","
","null","<p></p>","null","","","","","","","",""
"","image","91","118549","0.0-91.0","""event"",""trial"",""time""
""fullscreenenter"",""0"",""4045""
","
","
","""event"",""trial"",""time""
""fullscreenenter"",""0"",""4045""
","
","1616.0999999996275","run_exp/static/images/Set 6_rs/172a.jpg","86","","","","","","learn","SR",""
"","show_choice","92","118936","0.0-92.0","""event"",""trial"",""time""
""fullscreenenter"",""0"",""4045""
","
","
","""event"",""trial"",""time""
""fullscreenenter"",""0"",""4045""
","
","null","run_exp/static/images/Set 6_rs/172a.jpg","null","","","","","","learn","SR",""
"","html-keyboard-response","93","119439","0.0-93.0","""event"",""trial"",""time""
""fullscreenenter"",""0"",""4045""
","
","
","""event"",""trial"",""time""
""fullscreenenter"",""0"",""4045""
","
","null","<p></p>","null","","","","","","","",""
"","image","94","120373","0.0-94.0","""event"",""trial"",""time""
""fullscreenenter"",""0"",""4045""
","
","
","""event"",""trial"",""time""
""fullscreenenter"",""0"",""4045""
","
","929.9000000003725","run_exp/static/images/Set 6_rs/152a.jpg","78","","","","","","learn","SR",""
"","show_choice","95","121447","0.0-95.0","""event"",""trial"",""time""
""fullscreenenter"",""0"",""4045""
","
","
","""event"",""trial"",""time""
""fullscreenenter"",""0"",""4045""
","
","null","run_exp/static/images/Set 6_rs/152a.jpg","null","","","","","","learn","SR",""
"","html-keyboard-response","96","121950","0.0-96.0","""event"",""trial"",""time""
""fullscreenenter"",""0"",""4045""
","
","
","""event"",""trial"",""time""
""fullscreenenter"",""0"",""4045""
","
","null","<p></p>","null","","","","","","","",""
"","image","97","123446","0.0-97.0","""event"",""trial"",""time""
""fullscreenenter"",""0"",""4045""
","
","
","""event"",""trial"",""time""
""fullscreenenter"",""0"",""4045""
","
","1491.4000000003725","run_exp/static/images/Set 6_rs/150a.jpg","86","","","","","","learn","SR",""
"","show_choice","98","123958","0.0-98.0","""event"",""trial"",""time""
""fullscreenenter"",""0"",""4045""
","
","
","""event"",""trial"",""time""
""fullscreenenter"",""0"",""4045""
","
","null","run_exp/static/images/Set 6_rs/150a.jpg","null","","","","","","learn","SR",""
"","html-keyboard-response","99","124461","0.0-99.0","""event"",""trial"",""time""
""fullscreenenter"",""0"",""4045""
","
","
","""event"",""trial"",""time""
""fullscreenenter"",""0"",""4045""
","
","null","<p></p>","null","","","","","","","",""
"","image","100","126369","0.0-100.0","""event"",""trial"",""time""
""fullscreenenter"",""0"",""4045""
","
","
","""event"",""trial"",""time""
""fullscreenenter"",""0"",""4045""
","
","1903.300000000745","run_exp/static/images/Set 6_rs/141a.jpg","78","","","","","","learn","SR",""
"","show_choice","101","126469","0.0-101.0","""event"",""trial"",""time""
""fullscreenenter"",""0"",""4045""
","
","
","""event"",""trial"",""time""
""fullscreenenter"",""0"",""4045""
","
","null","run_exp/static/images/Set 6_rs/141a.jpg","null","","","","","","learn","SR",""
"","html-keyboard-response","102","126978","0.0-102.0","""event"",""trial"",""time""
""fullscreenenter"",""0"",""4045""
","
","
","""event"",""trial"",""time""
""fullscreenenter"",""0"",""4045""
","
","null","<p></p>","null","","","","","","","",""
"","image","103","128229","0.0-103.0","""event"",""trial"",""time""
""fullscreenenter"",""0"",""4045""
","
","
","""event"",""trial"",""time""
""fullscreenenter"",""0"",""4045""
","
","1246.3999999985099","run_exp/static/images/Set 6_rs/186a.jpg","86","","","","","","learn","SR",""
"","show_choice","104","128985","0.0-104.0","""event"",""trial"",""time""
""fullscreenenter"",""0"",""4045""
","
","
","""event"",""trial"",""time""
""fullscreenenter"",""0"",""4045""
","
","null","run_exp/static/images/Set 6_rs/186a.jpg","null","","","","","","learn","SR",""
"","html-keyboard-response","105","129489","0.0-105.0","""event"",""trial"",""time""
""fullscreenenter"",""0"",""4045""
","
","
","""event"",""trial"",""time""
""fullscreenenter"",""0"",""4045""
","
","null","<p></p>","null","","","","","","","",""
"","image","106","131098","0.0-106.0","""event"",""trial"",""time""
""fullscreenenter"",""0"",""4045""
","
","
","""event"",""trial"",""time""
""fullscreenenter"",""0"",""4045""
","
","1605.300000000745","run_exp/static/images/Set 6_rs/057a.jpg","86","","","","","","learn","SL",""
"","show_choice","107","131496","0.0-107.0","""event"",""trial"",""time""
""fullscreenenter"",""0"",""4045""
","
","
","""event"",""trial"",""time""
""fullscreenenter"",""0"",""4045""
","
","null","run_exp/static/images/Set 6_rs/057a.jpg","null","","","","","","learn","SL",""
"","html-keyboard-response","108","131998","0.0-108.0","""event"",""trial"",""time""
""fullscreenenter"",""0"",""4045""
","
","
","""event"",""trial"",""time""
""fullscreenenter"",""0"",""4045""
","
","null","<p></p>","null","","","","","","","",""
"","image","109","133323","0.0-109.0","""event"",""trial"",""time""
""fullscreenenter"",""0"",""4045""
","
","
","""event"",""trial"",""time""
""fullscreenenter"",""0"",""4045""
","
","1321.199999999255","run_exp/static/images/Set 6_rs/116a.jpg","78","","","","","","learn","SL",""
"","show_choice","110","134004","0.0-110.0","""event"",""trial"",""time""
""fullscreenenter"",""0"",""4045""
","
","
","""event"",""trial"",""time""
""fullscreenenter"",""0"",""4045""
","
","null","run_exp/static/images/Set 6_rs/116a.jpg","null","","","","","","learn","SL",""
"","html-keyboard-response","111","134508","0.0-111.0","""event"",""trial"",""time""
""fullscreenenter"",""0"",""4045""
","
","
","""event"",""trial"",""time""
""fullscreenenter"",""0"",""4045""
","
","null","<p></p>","null","","","","","","","",""
"","image","112","135927","0.0-112.0","""event"",""trial"",""time""
""fullscreenenter"",""0"",""4045""
","
","
","""event"",""trial"",""time""
""fullscreenenter"",""0"",""4045""
","
","1415","run_exp/static/images/Set 6_rs/178a.jpg","86","","","","","","learn","SR",""
"","show_choice","113","136516","0.0-113.0","""event"",""trial"",""time""
""fullscreenenter"",""0"",""4045""
","
","
","""event"",""trial"",""time""
""fullscreenenter"",""0"",""4045""
","
","null","run_exp/static/images/Set 6_rs/178a.jpg","null","","","","","","learn","SR",""
"","html-keyboard-response","114","137020","0.0-114.0","""event"",""trial"",""time""
""fullscreenenter"",""0"",""4045""
","
","
","""event"",""trial"",""time""
""fullscreenenter"",""0"",""4045""
","
","null","<p></p>","null","","","","","","","",""
"","image","115","139004","0.0-115.0","""event"",""trial"",""time""
""fullscreenenter"",""0"",""4045""
","
","
","""event"",""trial"",""time""
""fullscreenenter"",""0"",""4045""
","
","1979.4000000003725","run_exp/static/images/Set 6_rs/168a.jpg","78","","","","","","learn","SL",""
"","show_choice","116","139027","0.0-116.0","""event"",""trial"",""time""
""fullscreenenter"",""0"",""4045""
","
","
","""event"",""trial"",""time""
""fullscreenenter"",""0"",""4045""
","
","null","run_exp/static/images/Set 6_rs/168a.jpg","null","","","","","","learn","SL",""
"","html-keyboard-response","117","139530","0.0-117.0","""event"",""trial"",""time""
""fullscreenenter"",""0"",""4045""
","
","
","""event"",""trial"",""time""
""fullscreenenter"",""0"",""4045""
","
","null","<p></p>","null","","","","","","","",""
"","image","118","140990","0.0-118.0","""event"",""trial"",""time""
""fullscreenenter"",""0"",""4045""
","
","
","""event"",""trial"",""time""
""fullscreenenter"",""0"",""4045""
","
","1455.5","run_exp/static/images/Set 6_rs/112a.jpg","86","","","","","","learn","SR",""
"","show_choice","119","141537","0.0-119.0","""event"",""trial"",""time""
""fullscreenenter"",""0"",""4045""
","
","
","""event"",""trial"",""time""
""fullscreenenter"",""0"",""4045""
","
","null","run_exp/static/images/Set 6_rs/112a.jpg","null","","","","","","learn","SR",""
"","html-keyboard-response","120","142040","0.0-120.0","""event"",""trial"",""time""
""fullscreenenter"",""0"",""4045""
","
","
","""event"",""trial"",""time""
""fullscreenenter"",""0"",""4045""
","
","null","<p></p>","null","","","","","","","",""
"","image","121","143425","0.0-121.0","""event"",""trial"",""time""
""fullscreenenter"",""0"",""4045""
","
","
","""event"",""trial"",""time""
""fullscreenenter"",""0"",""4045""
","
","1379.6000000014901","run_exp/static/images/Set 6_rs/014a.jpg","86","","","","","","learn","SL",""
"","show_choice","122","144049","0.0-122.0","""event"",""trial"",""time""
""fullscreenenter"",""0"",""4045""
","
","
","""event"",""trial"",""time""
""fullscreenenter"",""0"",""4045""
","
","null","run_exp/static/images/Set 6_rs/014a.jpg","null","","","","","","learn","SL",""
"","html-keyboard-response","123","144552","0.0-123.0","""event"",""trial"",""time""
""fullscreenenter"",""0"",""4045""
","
","
","""event"",""trial"",""time""
""fullscreenenter"",""0"",""4045""
","
","null","<p></p>","null","","","","","","","",""
"","image","124","145711","0.0-124.0","""event"",""trial"",""time""
""fullscreenenter"",""0"",""4045""
","
","
","""event"",""trial"",""time""
""fullscreenenter"",""0"",""4045""
","
","1154.4000000003725","run_exp/static/images/Set 6_rs/019a.jpg","78","","","","","","learn","SL",""
"","show_choice","125","146559","0.0-125.0","""event"",""trial"",""time""
""fullscreenenter"",""0"",""4045""
","
","
","""event"",""trial"",""time""
""fullscreenenter"",""0"",""4045""
","
","null","run_exp/static/images/Set 6_rs/019a.jpg","null","","","","","","learn","SL",""
"","html-keyboard-response","126","147062","0.0-126.0","""event"",""trial"",""time""
""fullscreenenter"",""0"",""4045""
","
","
","""event"",""trial"",""time""
""fullscreenenter"",""0"",""4045""
","
","null","<p></p>","null","","","","","","","",""
"","image","127","148205","0.0-127.0","""event"",""trial"",""time""
""fullscreenenter"",""0"",""4045""
","
","
","""event"",""trial"",""time""
""fullscreenenter"",""0"",""4045""
","
","1138.3999999985099","run_exp/static/images/Set 6_rs/091a.jpg","78","","","","","","learn","SL",""
"","show_choice","128","149069","0.0-128.0","""event"",""trial"",""time""
""fullscreenenter"",""0"",""4045""
","
","
","""event"",""trial"",""time""
""fullscreenenter"",""0"",""4045""
","
","null","run_exp/static/images/Set 6_rs/091a.jpg","null","","","","","","learn","SL",""
"","html-keyboard-response","129","149573","0.0-129.0","""event"",""trial"",""time""
""fullscreenenter"",""0"",""4045""
","
","
","""event"",""trial"",""time""
""fullscreenenter"",""0"",""4045""
","
","null","<p></p>","null","","","","","","","",""
"","image","130","150507","0.0-130.0","""event"",""trial"",""time""
""fullscreenenter"",""0"",""4045""
","
","
","""event"",""trial"",""time""
""fullscreenenter"",""0"",""4045""
","
","930.0999999996275","run_exp/static/images/Set 6_rs/066a.jpg","78","","","","","","learn","SL",""
"","show_choice","131","151580","0.0-131.0","""event"",""trial"",""time""
""fullscreenenter"",""0"",""4045""
","
","
","""event"",""trial"",""time""
""fullscreenenter"",""0"",""4045""
","
","null","run_exp/static/images/Set 6_rs/066a.jpg","null","","","","","","learn","SL",""
"","html-keyboard-response","132","152083","0.0-132.0","""event"",""trial"",""time""
""fullscreenenter"",""0"",""4045""
","
","
","""event"",""trial"",""time""
""fullscreenenter"",""0"",""4045""
","
","null","<p></p>","null","","","","","","","",""
"","image","133","153135","0.0-133.0","""event"",""trial"",""time""
""fullscreenenter"",""0"",""4045""
","
","
","""event"",""trial"",""time""
""fullscreenenter"",""0"",""4045""
","
","1048.199999999255","run_exp/static/images/Set 6_rs/055a.jpg","86","","","","","","learn","SL",""
"","show_choice","134","154090","0.0-134.0","""event"",""trial"",""time""
""fullscreenenter"",""0"",""4045""
","
","
","""event"",""trial"",""time""
""fullscreenenter"",""0"",""4045""
","
","null","run_exp/static/images/Set 6_rs/055a.jpg","null","","","","","","learn","SL",""
"","html-keyboard-response","135","154593","0.0-135.0","""event"",""trial"",""time""
""fullscreenenter"",""0"",""4045""
","
","
","""event"",""trial"",""time""
""fullscreenenter"",""0"",""4045""
","
","null","<p></p>","null","","","","","","","",""
"","image","136","155659","0.0-136.0","""event"",""trial"",""time""
""fullscreenenter"",""0"",""4045""
","
","
","""event"",""trial"",""time""
""fullscreenenter"",""0"",""4045""
","
","1061.2000000011176","run_exp/static/images/Set 6_rs/126a.jpg","86","","","","","","learn","SR",""
"","show_choice","137","156601","0.0-137.0","""event"",""trial"",""time""
""fullscreenenter"",""0"",""4045""
","
","
","""event"",""trial"",""time""
""fullscreenenter"",""0"",""4045""
","
","null","run_exp/static/images/Set 6_rs/126a.jpg","null","","","","","","learn","SR",""
"","html-keyboard-response","138","157104","0.0-138.0","""event"",""trial"",""time""
""fullscreenenter"",""0"",""4045""
","
","
","""event"",""trial"",""time""
""fullscreenenter"",""0"",""4045""
","
","null","<p></p>","null","","","","","","","",""
"","image","139","158378","0.0-139.0","""event"",""trial"",""time""
""fullscreenenter"",""0"",""4045""
","
","
","""event"",""trial"",""time""
""fullscreenenter"",""0"",""4045""
","
","1269.699999999255","run_exp/static/images/Set 6_rs/121a.jpg","86","","","","","","learn","SR",""
"","show_choice","140","159112","0.0-140.0","""event"",""trial"",""time""
""fullscreenenter"",""0"",""4045""
","
","
","""event"",""trial"",""time""
""fullscreenenter"",""0"",""4045""
","
","null","run_exp/static/images/Set 6_rs/121a.jpg","null","","","","","","learn","SR",""
"","html-keyboard-response","141","159615","0.0-141.0","""event"",""trial"",""time""
""fullscreenenter"",""0"",""4045""
","
","
","""event"",""trial"",""time""
""fullscreenenter"",""0"",""4045""
","
","null","<p></p>","null","","","","","","","",""
"","image","142","160516","0.0-142.0","""event"",""trial"",""time""
""fullscreenenter"",""0"",""4045""
","
","
","""event"",""trial"",""time""
""fullscreenenter"",""0"",""4045""
","
","895.8000000007451","run_exp/static/images/Set 6_rs/063a.jpg","86","","","","","","learn","SR",""
"","show_choice","143","161624","0.0-143.0","""event"",""trial"",""time""
""fullscreenenter"",""0"",""4045""
","
","
","""event"",""trial"",""time""
""fullscreenenter"",""0"",""4045""
","
","null","run_exp/static/images/Set 6_rs/063a.jpg","null","","","","","","learn","SR",""
"","html-keyboard-response","144","162127","0.0-144.0","""event"",""trial"",""time""
""fullscreenenter"",""0"",""4045""
","
","
","""event"",""trial"",""time""
""fullscreenenter"",""0"",""4045""
","
","null","<p></p>","null","","","","","","","",""
"","image","145","163623","0.0-145.0","""event"",""trial"",""time""
""fullscreenenter"",""0"",""4045""
","
","
","""event"",""trial"",""time""
""fullscreenenter"",""0"",""4045""
","
","1491.5999999996275","run_exp/static/images/Set 6_rs/167a.jpg","86","","","","","","learn","SL",""
"","show_choice","146","164135","0.0-146.0","""event"",""trial"",""time""
""fullscreenenter"",""0"",""4045""
","
","
","""event"",""trial"",""time""
""fullscreenenter"",""0"",""4045""
","
","null","run_exp/static/images/Set 6_rs/167a.jpg","null","","","","","","learn","SL",""
"","html-keyboard-response","147","164639","0.0-147.0","""event"",""trial"",""time""
""fullscreenenter"",""0"",""4045""
","
","
","""event"",""trial"",""time""
""fullscreenenter"",""0"",""4045""
","
","null","<p></p>","null","","","","","","","",""
"","image","148","165598","0.0-148.0","""event"",""trial"",""time""
""fullscreenenter"",""0"",""4045""
","
","
","""event"",""trial"",""time""
""fullscreenenter"",""0"",""4045""
","
","955.2999999988824","run_exp/static/images/Set 6_rs/023a.jpg","86","","","","","","learn","SR",""
"","show_choice","149","166646","0.0-149.0","""event"",""trial"",""time""
""fullscreenenter"",""0"",""4045""
","
","
","""event"",""trial"",""time""
""fullscreenenter"",""0"",""4045""
","
","null","run_exp/static/images/Set 6_rs/023a.jpg","null","","","","","","learn","SR",""
"","html-keyboard-response","150","167149","0.0-150.0","""event"",""trial"",""time""
""fullscreenenter"",""0"",""4045""
","
","
","""event"",""trial"",""time""
""fullscreenenter"",""0"",""4045""
","
","null","<p></p>","null","","","","","","","",""
"","image","151","168873","0.0-151.0","""event"",""trial"",""time""
""fullscreenenter"",""0"",""4045""
","
","
","""event"",""trial"",""time""
""fullscreenenter"",""0"",""4045""
","
","1719.3999999985099","run_exp/static/images/Set 6_rs/088a.jpg","86","","","","","","learn","SR",""
"","show_choice","152","169157","0.0-152.0","""event"",""trial"",""time""
""fullscreenenter"",""0"",""4045""
","
","
","""event"",""trial"",""time""
""fullscreenenter"",""0"",""4045""
","
","null","run_exp/static/images/Set 6_rs/088a.jpg","null","","","","","","learn","SR",""
"","html-keyboard-response","153","169660","0.0-153.0","""event"",""trial"",""time""
""fullscreenenter"",""0"",""4045""
","
","
","""event"",""trial"",""time""
""fullscreenenter"",""0"",""4045""
","
","null","<p></p>","null","","","","","","","",""
"","image","154","170884","0.0-154.0","""event"",""trial"",""time""
""fullscreenenter"",""0"",""4045""
","
","
","""event"",""trial"",""time""
""fullscreenenter"",""0"",""4045""
","
","1219.5","run_exp/static/images/Set 6_rs/045a.jpg","86","","","","","","learn","SR",""
"","show_choice","155","171668","0.0-155.0","""event"",""trial"",""time""
""fullscreenenter"",""0"",""4045""
","
","
","""event"",""trial"",""time""
""fullscreenenter"",""0"",""4045""
","
","null","run_exp/static/images/Set 6_rs/045a.jpg","null","","","","","","learn","SR",""
"","html-keyboard-response","156","172171","0.0-156.0","""event"",""trial"",""time""
""fullscreenenter"",""0"",""4045""
","
","
","""event"",""trial"",""time""
""fullscreenenter"",""0"",""4045""
","
","null","<p></p>","null","","","","","","","",""
"","image","157","173227","0.0-157.0","""event"",""trial"",""time""
""fullscreenenter"",""0"",""4045""
","
","
","""event"",""trial"",""time""
""fullscreenenter"",""0"",""4045""
","
","1051.300000000745","run_exp/static/images/Set 6_rs/062a.jpg","86","","","","","","learn","SL",""
"","show_choice","158","174179","0.0-158.0","""event"",""trial"",""time""
""fullscreenenter"",""0"",""4045""
","
","
","""event"",""trial"",""time""
""fullscreenenter"",""0"",""4045""
","
","null","run_exp/static/images/Set 6_rs/062a.jpg","null","","","","","","learn","SL",""
"","html-keyboard-response","159","174682","0.0-159.0","""event"",""trial"",""time""
""fullscreenenter"",""0"",""4045""
","
","
","""event"",""trial"",""time""
""fullscreenenter"",""0"",""4045""
","
","null","<p></p>","null","","","","","","","",""
"","image","160","175632","0.0-160.0","""event"",""trial"",""time""
""fullscreenenter"",""0"",""4045""
","
","
","""event"",""trial"",""time""
""fullscreenenter"",""0"",""4045""
","
","945.7000000011176","run_exp/static/images/Set 6_rs/071a.jpg","78","","","","","","learn","SL",""
"","show_choice","161","176690","0.0-161.0","""event"",""trial"",""time""
""fullscreenenter"",""0"",""4045""
","
","
","""event"",""trial"",""time""
""fullscreenenter"",""0"",""4045""
","
","null","run_exp/static/images/Set 6_rs/071a.jpg","null","","","","","","learn","SL",""
"","html-keyboard-response","162","177192","0.0-162.0","""event"",""trial"",""time""
""fullscreenenter"",""0"",""4045""
","
","
","""event"",""trial"",""time""
""fullscreenenter"",""0"",""4045""
","
","null","<p></p>","null","","","","","","","",""
"","image","163","178364","0.0-163.0","""event"",""trial"",""time""
""fullscreenenter"",""0"",""4045""
","
","
","""event"",""trial"",""time""
""fullscreenenter"",""0"",""4045""
","
","1167.7000000011176","run_exp/static/images/Set 6_rs/079a.jpg","86","","","","","","learn","SL",""
"","show_choice","164","179200","0.0-164.0","""event"",""trial"",""time""
""fullscreenenter"",""0"",""4045""
","
","
","""event"",""trial"",""time""
""fullscreenenter"",""0"",""4045""
","
","null","run_exp/static/images/Set 6_rs/079a.jpg","null","","","","","","learn","SL",""
"","html-keyboard-response","165","179710","0.0-165.0","""event"",""trial"",""time""
""fullscreenenter"",""0"",""4045""
","
","
","""event"",""trial"",""time""
""fullscreenenter"",""0"",""4045""
","
","null","<p></p>","null","","","","","","","",""
"","image","166","180601","0.0-166.0","""event"",""trial"",""time""
""fullscreenenter"",""0"",""4045""
","
","
","""event"",""trial"",""time""
""fullscreenenter"",""0"",""4045""
","
","887.4000000003725","run_exp/static/images/Set 6_rs/177a.jpg","78","","","","","","learn","SR",""
"","show_choice","167","181717","0.0-167.0","""event"",""trial"",""time""
""fullscreenenter"",""0"",""4045""
","
","
","""event"",""trial"",""time""
""fullscreenenter"",""0"",""4045""
","
","null","run_exp/static/images/Set 6_rs/177a.jpg","null","","","","","","learn","SR",""
"","html-keyboard-response","168","182221","0.0-168.0","""event"",""trial"",""time""
""fullscreenenter"",""0"",""4045""
","
","
","""event"",""trial"",""time""
""fullscreenenter"",""0"",""4045""
","
","null","<p></p>","null","","","","","","","",""
"","image","169","183275","0.0-169.0","""event"",""trial"",""time""
""fullscreenenter"",""0"",""4045""
","
","
","""event"",""trial"",""time""
""fullscreenenter"",""0"",""4045""
","
","1050","run_exp/static/images/Set 6_rs/076a.jpg","78","","","","","","learn","SR",""
"","show_choice","170","184228","0.0-170.0","""event"",""trial"",""time""
""fullscreenenter"",""0"",""4045""
","
","
","""event"",""trial"",""time""
""fullscreenenter"",""0"",""4045""
","
","null","run_exp/static/images/Set 6_rs/076a.jpg","null","","","","","","learn","SR",""
"","html-keyboard-response","171","184731","0.0-171.0","""event"",""trial"",""time""
""fullscreenenter"",""0"",""4045""
","
","
","""event"",""trial"",""time""
""fullscreenenter"",""0"",""4045""
","
","null","<p></p>","null","","","","","","","",""
"","image","172","185361","0.0-172.0","""event"",""trial"",""time""
""fullscreenenter"",""0"",""4045""
","
","
","""event"",""trial"",""time""
""fullscreenenter"",""0"",""4045""
","
","625.9000000003725","run_exp/static/images/Set 6_rs/070a.jpg","86","","","","","","learn","SR",""
"","show_choice","173","186739","0.0-173.0","""event"",""trial"",""time""
""fullscreenenter"",""0"",""4045""
","
","
","""event"",""trial"",""time""
""fullscreenenter"",""0"",""4045""
","
","null","run_exp/static/images/Set 6_rs/070a.jpg","null","","","","","","learn","SR",""
"","html-keyboard-response","174","187243","0.0-174.0","""event"",""trial"",""time""
""fullscreenenter"",""0"",""4045""
","
","
","""event"",""trial"",""time""
""fullscreenenter"",""0"",""4045""
","
","null","<p></p>","null","","","","","","","",""
"","image","175","188292","0.0-175.0","""event"",""trial"",""time""
""fullscreenenter"",""0"",""4045""
","
","
","""event"",""trial"",""time""
""fullscreenenter"",""0"",""4045""
","
","1044.5999999996275","run_exp/static/images/Set 6_rs/008a.jpg","78","","","","","","learn","SL",""
"","show_choice","176","189251","0.0-176.0","""event"",""trial"",""time""
""fullscreenenter"",""0"",""4045""
","
","
","""event"",""trial"",""time""
""fullscreenenter"",""0"",""4045""
","
","null","run_exp/static/images/Set 6_rs/008a.jpg","null","","","","","","learn","SL",""
"","html-keyboard-response","177","189754","0.0-177.0","""event"",""trial"",""time""
""fullscreenenter"",""0"",""4045""
","
","
","""event"",""trial"",""time""
""fullscreenenter"",""0"",""4045""
","
","null","<p></p>","null","","","","","","","",""
"","image","178","190696","0.0-178.0","""event"",""trial"",""time""
""fullscreenenter"",""0"",""4045""
","
","
","""event"",""trial"",""time""
""fullscreenenter"",""0"",""4045""
","
","938.6999999992549","run_exp/static/images/Set 6_rs/166a.jpg","78","","","","","","learn","SR",""
"","show_choice","179","191760","0.0-179.0","""event"",""trial"",""time""
""fullscreenenter"",""0"",""4045""
","
","
","""event"",""trial"",""time""
""fullscreenenter"",""0"",""4045""
","
","null","run_exp/static/images/Set 6_rs/166a.jpg","null","","","","","","learn","SR",""
"","html-keyboard-response","180","192263","0.0-180.0","""event"",""trial"",""time""
""fullscreenenter"",""0"",""4045""
","
","
","""event"",""trial"",""time""
""fullscreenenter"",""0"",""4045""
","
","null","<p></p>","null","","","","","","","",""
"","image","181","193060","0.0-181.0","""event"",""trial"",""time""
""fullscreenenter"",""0"",""4045""
","
","
","""event"",""trial"",""time""
""fullscreenenter"",""0"",""4045""
","
","792.5","run_exp/static/images/Set 6_rs/089a.jpg","86","","","","","","learn","SL",""
"","show_choice","182","194271","0.0-182.0","""event"",""trial"",""time""
""fullscreenenter"",""0"",""4045""
","
","
","""event"",""trial"",""time""
""fullscreenenter"",""0"",""4045""
","
","null","run_exp/static/images/Set 6_rs/089a.jpg","null","","","","","","learn","SL",""
"","html-keyboard-response","183","194774","0.0-183.0","""event"",""trial"",""time""
""fullscreenenter"",""0"",""4045""
","
","
","""event"",""trial"",""time""
""fullscreenenter"",""0"",""4045""
","
","null","<p></p>","null","","","","","","","",""
"","image","184","196024","0.0-184.0","""event"",""trial"",""time""
""fullscreenenter"",""0"",""4045""
","
","
","""event"",""trial"",""time""
""fullscreenenter"",""0"",""4045""
","
","1245.5999999996275","run_exp/static/images/Set 6_rs/036a.jpg","86","","","","","","learn","SL",""
"","show_choice","185","196781","0.0-185.0","""event"",""trial"",""time""
""fullscreenenter"",""0"",""4045""
","
","
","""event"",""trial"",""time""
""fullscreenenter"",""0"",""4045""
","
","null","run_exp/static/images/Set 6_rs/036a.jpg","null","","","","","","learn","SL",""
"","html-keyboard-response","186","197284","0.0-186.0","""event"",""trial"",""time""
""fullscreenenter"",""0"",""4045""
","
","
","""event"",""trial"",""time""
""fullscreenenter"",""0"",""4045""
","
","null","<p></p>","null","","","","","","","",""
"","image","187","198356","0.0-187.0","""event"",""trial"",""time""
""fullscreenenter"",""0"",""4045""
","
","
","""event"",""trial"",""time""
""fullscreenenter"",""0"",""4045""
","
","1066.800000000745","run_exp/static/images/Set 6_rs/017a.jpg","78","","","","","","learn","SL",""
"","show_choice","188","199292","0.0-188.0","""event"",""trial"",""time""
""fullscreenenter"",""0"",""4045""
","
","
","""event"",""trial"",""time""
""fullscreenenter"",""0"",""4045""
","
","null","run_exp/static/images/Set 6_rs/017a.jpg","null","","","","","","learn","SL",""
"","html-keyboard-response","189","199796","0.0-189.0","""event"",""trial"",""time""
""fullscreenenter"",""0"",""4045""
","
","
","""event"",""trial"",""time""
""fullscreenenter"",""0"",""4045""
","
","null","<p></p>","null","","","","","","","",""
"","image","190","201220","0.0-190.0","""event"",""trial"",""time""
""fullscreenenter"",""0"",""4045""
","
","
","""event"",""trial"",""time""
""fullscreenenter"",""0"",""4045""
","
","1419.699999999255","run_exp/static/images/Set 6_rs/117a.jpg","78","","","","","","learn","SL",""
"","show_choice","191","201804","0.0-191.0","""event"",""trial"",""time""
""fullscreenenter"",""0"",""4045""
","
","
","""event"",""trial"",""time""
""fullscreenenter"",""0"",""4045""
","
","null","run_exp/static/images/Set 6_rs/117a.jpg","null","","","","","","learn","SL",""
"","html-keyboard-response","192","202307","0.0-192.0","""event"",""trial"",""time""
""fullscreenenter"",""0"",""4045""
","
","
","""event"",""trial"",""time""
""fullscreenenter"",""0"",""4045""
","
","null","<p></p>","null","","","","","","","",""
"","image","193","204140","0.0-193.0","""event"",""trial"",""time""
""fullscreenenter"",""0"",""4045""
","
","
","""event"",""trial"",""time""
""fullscreenenter"",""0"",""4045""
","
","1828.7000000011176","run_exp/static/images/Set 6_rs/129a.jpg","78","","","","","","learn","SL",""
"","show_choice","194","204315","0.0-194.0","""event"",""trial"",""time""
""fullscreenenter"",""0"",""4045""
","
","
","""event"",""trial"",""time""
""fullscreenenter"",""0"",""4045""
","
","null","run_exp/static/images/Set 6_rs/129a.jpg","null","","","","","","learn","SL",""
"","html-keyboard-response","195","204818","0.0-195.0","""event"",""trial"",""time""
""fullscreenenter"",""0"",""4045""
","
","
","""event"",""trial"",""time""
""fullscreenenter"",""0"",""4045""
","
","null","<p></p>","null","","","","","","","",""
"","test_intro","196","241725","0.0-196.0","""event"",""trial"",""time""
""fullscreenenter"",""0"",""4045""
","
","
","""event"",""trial"",""time""
""fullscreenenter"",""0"",""4045""
","
","null","run_exp/static/audio/clip_2_memory.m4a","null","","","","","<div class='center'><p>Now, lets see how much you remember about the items you just saw.  For each item, you need to indicate if it was <b>old</b> by pressing the <b>v</b> key, <b>similar</b> by pressing the <b>b</b> key, or <b>new</b> by pressing the <b>n</b> key.</p><p>Old refers to an item that you saw before in the indoor/outdoor game that you just played, new refers to an item you have <b>not</b> seen before within the indoor/outdoor game, and similar refers to an item that is similar to an item youve seen before but is not exactly the same. </p><p>Before we begin, lets go over some brief demonstrations to make sure you understand.</p></div>","","",""
"","html-keyboard-response","197","242259","0.0-197.0","""event"",""trial"",""time""
""fullscreenenter"",""0"",""4045""
","
","
","""event"",""trial"",""time""
""fullscreenenter"",""0"",""4045""
","
","521.7999999988824","<div class='center'><p>Now, lets see how much you remember about the items you just saw.  For each item, you need to indicate if it was <b>old</b> by pressing the <b>v</b> key, <b>similar</b> by pressing the <b>b</b> key, or <b>new</b> by pressing the <b>n</b> key.</p><p>Old refers to an item that you saw before in the indoor/outdoor game that you just played, new refers to an item you have <b>not</b> seen before within the indoor/outdoor game, and similar refers to an item that is similar to an item youve seen before but is not exactly the same. </p><p>Before we begin, lets go over some brief demonstrations to make sure you understand.</p><div><p><b>[Press the space bar to continue]</b></p></div>","32","","","","","","","",""
"","items","198","249763","0.0-198.0","""event"",""trial"",""time""
""fullscreenenter"",""0"",""4045""
","
","
","""event"",""trial"",""time""
""fullscreenenter"",""0"",""4045""
","
","null","run_exp/static/audio/clip_3_items.m4a","null","","","","","","","",""
"","mop","199","254270","0.0-199.0","""event"",""trial"",""time""
""fullscreenenter"",""0"",""4045""
","
","
","""event"",""trial"",""time""
""fullscreenenter"",""0"",""4045""
","
","null","run_exp/static/audio/clip_4_mop.m4a","null","","","","","","","",""
"","baseball","200","257777","0.0-200.0","""event"",""trial"",""time""
""fullscreenenter"",""0"",""4045""
","
","
","""event"",""trial"",""time""
""fullscreenenter"",""0"",""4045""
","
","null","run_exp/static/audio/clip_5_baseball.m4a","null","","","","","","","",""
"","trumpet","201","261286","0.0-201.0","""event"",""trial"",""time""
""fullscreenenter"",""0"",""4045""
","
","
","""event"",""trial"",""time""
""fullscreenenter"",""0"",""4045""
","
","null","run_exp/static/audio/clip_6_trumpet.m4a","null","","","","","","","",""
"","gummies","202","264794","0.0-202.0","""event"",""trial"",""time""
""fullscreenenter"",""0"",""4045""
","
","
","""event"",""trial"",""time""
""fullscreenenter"",""0"",""4045""
","
","null","run_exp/static/audio/clip_7_gummies.m4a","null","","","","","","","",""
"","osn","203","269299","0.0-203.0","""event"",""trial"",""time""
""fullscreenenter"",""0"",""4045""
","
","
","""event"",""trial"",""time""
""fullscreenenter"",""0"",""4045""
","
","null","run_exp/static/audio/clip_8_osn.m4a","null","","","","","","","",""
"","old_1","204","275806","0.0-204.0","""event"",""trial"",""time""
""fullscreenenter"",""0"",""4045""
","
","
","""event"",""trial"",""time""
""fullscreenenter"",""0"",""4045""
","
","null","run_exp/static/audio/clip_9_old_trumpet.m4a","null","","","","","","","",""
"","new_1","205","283314","0.0-205.0","""event"",""trial"",""time""
""fullscreenenter"",""0"",""4045""
","
","
","""event"",""trial"",""time""
""fullscreenenter"",""0"",""4045""
","
","null","run_exp/static/audio/clip_10_new_balloon.m4a","null","","","","","","","",""
"","similar_1a","206","287820","0.0-206.0","""event"",""trial"",""time""
""fullscreenenter"",""0"",""4045""
","
","
","""event"",""trial"",""time""
""fullscreenenter"",""0"",""4045""
","
","null","run_exp/static/audio/clip_11a_similar_mop.m4a","null","","","","","","","",""
"","similar_1b","207","294327","0.0-207.0","""event"",""trial"",""time""
""fullscreenenter"",""0"",""4045""
","
","
","""event"",""trial"",""time""
""fullscreenenter"",""0"",""4045""
","
","null","run_exp/static/audio/clip_11b_similar_mop.m4a","null","","","","","","","",""
"","new_2","208","297836","0.0-208.0","""event"",""trial"",""time""
""fullscreenenter"",""0"",""4045""
","
","
","""event"",""trial"",""time""
""fullscreenenter"",""0"",""4045""
","
","null","run_exp/static/audio/clip_12_new_stoplight.m4a","null","","","","","","","",""
"","old_2","209","301343","0.0-209.0","""event"",""trial"",""time""
""fullscreenenter"",""0"",""4045""
","
","
","""event"",""trial"",""time""
""fullscreenenter"",""0"",""4045""
","
","null","run_exp/static/audio/clip_13_old_baseball.m4a","null","","","","","","","",""
"","similar_2a","210","304849","0.0-210.0","""event"",""trial"",""time""
""fullscreenenter"",""0"",""4045""
","
","
","""event"",""trial"",""time""
""fullscreenenter"",""0"",""4045""
","
","null","run_exp/static/audio/clip_14a_similar_gummies.m4a","null","","","","","","","",""
"","similar_2b","211","312357","0.0-211.0","""event"",""trial"",""time""
""fullscreenenter"",""0"",""4045""
","
","
","""event"",""trial"",""time""
""fullscreenenter"",""0"",""4045""
","
","null","run_exp/static/audio/clip_14b_similar_gummies.m4a","null","","","","","","","",""
"","practice","212","354705","0.0-212.0","""event"",""trial"",""time""
""fullscreenenter"",""0"",""4045""
","
","
","""event"",""trial"",""time""
""fullscreenenter"",""0"",""4045""
","
","null","run_exp/static/audio/clip_15_practice.m4a","null","","","","","<div class='center'><p>Lets practice a little to make sure you understand the difference between new, similar, and old. Lets say you saw these three items in the indoor/outdoor game.</p><p> Try your best to remember these images because youll soon be tested on them in a practice game. In the practice game, youll be shown images and youll have to say if they are old (one of the three images belows), similar (similar to one of the images below but not exactly the same), or new (are not one of the images below nor similar to them).</p><p>Once you press the space bar youll be shown these images again but one at time. Then youll begin the practice game.</p><p><img src='run_exp/static/images/tutorial/test/three_indoor_outdoor.png' height='300'></p></div>","","",""
"","html-keyboard-response","213","354868","0.0-213.0","""event"",""trial"",""time""
""fullscreenenter"",""0"",""4045""
","
","
","""event"",""trial"",""time""
""fullscreenenter"",""0"",""4045""
","
","148.89999999850988","<div class='center'><p>Lets practice a little to make sure you understand the difference between new, similar, and old. Lets say you saw these three items in the indoor/outdoor game.</p><p> Try your best to remember these images because youll soon be tested on them in a practice game. In the practice game, youll be shown images and youll have to say if they are old (one of the three images belows), similar (similar to one of the images below but not exactly the same), or new (are not one of the images below nor similar to them).</p><p>Once you press the space bar youll be shown these images again but one at time. Then youll begin the practice game.</p><p><img src='run_exp/static/images/tutorial/test/three_indoor_outdoor.png' height='300'></p><div><p><b>[Press the space bar to continue]</b></p></div>","32","","","","","","","",""
"","planet","214","356872","0.0-214.0","""event"",""trial"",""time""
""fullscreenenter"",""0"",""4045""
","
","
","""event"",""trial"",""time""
""fullscreenenter"",""0"",""4045""
","
","null","run_exp/static/images/tutorial/test/008a.jpg","null","","","","","","","",""
"","boot","215","358877","0.0-215.0","""event"",""trial"",""time""
""fullscreenenter"",""0"",""4045""
","
","
","""event"",""trial"",""time""
""fullscreenenter"",""0"",""4045""
","
","null","run_exp/static/images/tutorial/test/011a.jpg","null","","","","","","","",""
"","lemon","216","360882","0.0-216.0","""event"",""trial"",""time""
""fullscreenenter"",""0"",""4045""
","
","
","""event"",""trial"",""time""
""fullscreenenter"",""0"",""4045""
","
","null","run_exp/static/images/tutorial/test/018a.jpg","null","","","","","","","",""
"","practice_q1","217","366188","0.0-217.0","""event"",""trial"",""time""
""fullscreenenter"",""0"",""4045""
","
","
","""event"",""trial"",""time""
""fullscreenenter"",""0"",""4045""
","
","5299.700000001118","run_exp/static/audio/clip_16_practice_question.m4a","78","","","","","","","",""
"","correct","218","368280","0.0-218.0-0.0","""event"",""trial"",""time""
""fullscreenenter"",""0"",""4045""
","
","
","""event"",""trial"",""time""
""fullscreenenter"",""0"",""4045""
","
","null","run_exp/static/audio/clip_17_correct.m4a","null","","","","","<div class='center'><p>That's correct!</p></div>","","",""
"","html-keyboard-response","219","369145","0.0-218.0-1.0","""event"",""trial"",""time""
""fullscreenenter"",""0"",""4045""
","
","
","""event"",""trial"",""time""
""fullscreenenter"",""0"",""4045""
","
","860.3000000007451","<div class='center'><p>That's correct!</p><div><p><b>[Press the space bar to continue]</b></p></div>","32","","","","","","","",""
"","practice_q2","220","370558","0.0-218.0-2.0","""event"",""trial"",""time""
""fullscreenenter"",""0"",""4045""
","
","
","""event"",""trial"",""time""
""fullscreenenter"",""0"",""4045""
","
","1408.5","run_exp/static/audio/clip_16_practice_question.m4a","86","","","","","","","",""
"","correct","221","372630","0.0-219.0-0.0","""event"",""trial"",""time""
""fullscreenenter"",""0"",""4045""
","
","
","""event"",""trial"",""time""
""fullscreenenter"",""0"",""4045""
","
","null","run_exp/static/audio/clip_17_correct.m4a","null","","","","","<div class='center'><p>That's correct!</p></div>","","",""
"","html-keyboard-response","222","373236","0.0-219.0-1.0","""event"",""trial"",""time""
""fullscreenenter"",""0"",""4045""
","
","
","""event"",""trial"",""time""
""fullscreenenter"",""0"",""4045""
","
","602.3000000007451","<div class='center'><p>That's correct!</p><div><p><b>[Press the space bar to continue]</b></p></div>","32","","","","","","","",""
"","practice_q3","223","374548","0.0-219.0-2.0","""event"",""trial"",""time""
""fullscreenenter"",""0"",""4045""
","
","
","""event"",""trial"",""time""
""fullscreenenter"",""0"",""4045""
","
","1301","run_exp/static/audio/clip_16_practice_question.m4a","86","","","","","","","",""
"","incorrect_q3","224","377495","0.0-220.0-0.0","""event"",""trial"",""time""
""fullscreenenter"",""0"",""4045""
","
","
","""event"",""trial"",""time""
""fullscreenenter"",""0"",""4045""
","
","null","run_exp/static/audio/clip_20_incorrect_similar.m4a","null","","","","","<div class='center'><p>Thats incorrect. Its similar.</p><p><img src='run_exp/static/images/tutorial/test/boot_comparison.png' height='300'></p></div>","","",""
"","html-keyboard-response","225","378371","0.0-220.0-1.0","""event"",""trial"",""time""
""fullscreenenter"",""0"",""4045""
","
","
","""event"",""trial"",""time""
""fullscreenenter"",""0"",""4045""
","
","871.6999999992549","<div class='center'><p>Thats incorrect. Its similar.</p><p><img src='run_exp/static/images/tutorial/test/boot_comparison.png' height='300'></p><div><p><b>[Press the space bar to continue]</b></p></div>","32","","","","","","","",""
"","repeat","226","383293","0.0-221.0-0.0","""event"",""trial"",""time""
""fullscreenenter"",""0"",""4045""
","
","
","""event"",""trial"",""time""
""fullscreenenter"",""0"",""4045""
","
","null","run_exp/static/audio/clip_21_practice_again.m4a","null","","","","","<div class='center'><p>Oops. you missed at least one of these questions. Let's try practicing again. </p></div>","","",""
"","html-keyboard-response","227","383829","0.0-221.0-1.0","""event"",""trial"",""time""
""fullscreenenter"",""0"",""4045""
","
","
","""event"",""trial"",""time""
""fullscreenenter"",""0"",""4045""
","
","532.2000000011176","<div class='center'><p>Oops. you missed at least one of these questions. Let's try practicing again. </p><div><p><b>[Press the space bar to continue]</b></p></div>","32","","","","","","","",""
"","practice_q1","228","385506","0.0-221.0-2.0","""event"",""trial"",""time""
""fullscreenenter"",""0"",""4045""
","
","
","""event"",""trial"",""time""
""fullscreenenter"",""0"",""4045""
","
","1664.7000000011176","run_exp/static/audio/clip_16_practice_question.m4a","78","","","","","","","",""
"","correct","229","387650","0.0-222.0-0.0","""event"",""trial"",""time""
""fullscreenenter"",""0"",""4045""
","
","
","""event"",""trial"",""time""
""fullscreenenter"",""0"",""4045""
","
","null","run_exp/static/audio/clip_17_correct.m4a","null","","","","","<div class='center'><p>That's correct!</p></div>","","",""
"","html-keyboard-response","230","388273","0.0-222.0-1.0","""event"",""trial"",""time""
""fullscreenenter"",""0"",""4045""
","
","
","""event"",""trial"",""time""
""fullscreenenter"",""0"",""4045""
","
","619.7999999988824","<div class='center'><p>That's correct!</p><div><p><b>[Press the space bar to continue]</b></p></div>","32","","","","","","","",""
"","practice_q2","231","389930","0.0-222.0-2.0","""event"",""trial"",""time""
""fullscreenenter"",""0"",""4045""
","
","
","""event"",""trial"",""time""
""fullscreenenter"",""0"",""4045""
","
","1652.5","run_exp/static/audio/clip_16_practice_question.m4a","86","","","","","","","",""
"","correct","232","392086","0.0-223.0-0.0","""event"",""trial"",""time""
""fullscreenenter"",""0"",""4045""
","
","
","""event"",""trial"",""time""
""fullscreenenter"",""0"",""4045""
","
","null","run_exp/static/audio/clip_17_correct.m4a","null","","","","","<div class='center'><p>That's correct!</p></div>","","",""
"","html-keyboard-response","233","392783","0.0-223.0-1.0","""event"",""trial"",""time""
""fullscreenenter"",""0"",""4045""
","
","
","""event"",""trial"",""time""
""fullscreenenter"",""0"",""4045""
","
","693.3000000007451","<div class='center'><p>That's correct!</p><div><p><b>[Press the space bar to continue]</b></p></div>","32","","","","","","","",""
"","practice_q3","234","394431","0.0-223.0-2.0","""event"",""trial"",""time""
""fullscreenenter"",""0"",""4045""
","
","
","""event"",""trial"",""time""
""fullscreenenter"",""0"",""4045""
","
","1640.5","run_exp/static/audio/clip_16_practice_question.m4a","66","","","","","","","",""
"","correct","235","397037","0.0-224.0-0.0","""event"",""trial"",""time""
""fullscreenenter"",""0"",""4045""
","
","
","""event"",""trial"",""time""
""fullscreenenter"",""0"",""4045""
","
","null","run_exp/static/audio/clip_17_correct.m4a","null","","","","","<div class='center'><p>That's correct!</p></div>","","",""
"","html-keyboard-response","236","397688","0.0-224.0-1.0","""event"",""trial"",""time""
""fullscreenenter"",""0"",""4045""
","
","
","""event"",""trial"",""time""
""fullscreenenter"",""0"",""4045""
","
","647","<div class='center'><p>That's correct!</p><div><p><b>[Press the space bar to continue]</b></p></div>","32","","","","","","","",""
"","begin_text","237","416321","0.0-225.0-0.0","""event"",""trial"",""time""
""fullscreenenter"",""0"",""4045""
","
","
","""event"",""trial"",""time""
""fullscreenenter"",""0"",""4045""
","
","null","run_exp/static/audio/clip_22_begin_test.m4a","null","","","","","<div class='center'><p>On to the real game where well test your memory of items from the indoor/outdoor game. For each item, you need to indicate if the item is <b>old</b> by pressing the <b>v</b> key, <b>similar</b> by pressing the <b>b</b> key, or <b>new</b> by pressing the <b>n</b> key. </p></div>","","",""
"","html-keyboard-response","238","417012","0.0-225.0-1.0","""event"",""trial"",""time""
""fullscreenenter"",""0"",""4045""
","
","
","""event"",""trial"",""time""
""fullscreenenter"",""0"",""4045""
","
","686.6000000014901","<div class='center'><p>On to the real game where well test your memory of items from the indoor/outdoor game. For each item, you need to indicate if the item is <b>old</b> by pressing the <b>v</b> key, <b>similar</b> by pressing the <b>b</b> key, or <b>new</b> by pressing the <b>n</b> key. </p><div><p><b>[Press the space bar to continue]</b></p></div>","32","","","","","","","",""
"","image","239","419003","0.0-226.0-0.0","""event"",""trial"",""time""
""fullscreenenter"",""0"",""4045""
","
","
","""event"",""trial"",""time""
""fullscreenenter"",""0"",""4045""
","
","1986.5999999996275","run_exp/static/images/Set 6_rs/141a.jpg","78","","","","","","test","TR","2"
"","show_choice","240","419509","0.0-226.0-1.0","""event"",""trial"",""time""
""fullscreenenter"",""0"",""4045""
","
","
","""event"",""trial"",""time""
""fullscreenenter"",""0"",""4045""
","
","null","run_exp/static/images/Set 6_rs/141a.jpg","null","","","","","","test","TR",""
"","html-keyboard-response","241","420014","0.0-226.0-2.0","""event"",""trial"",""time""
""fullscreenenter"",""0"",""4045""
","
","
","""event"",""trial"",""time""
""fullscreenenter"",""0"",""4045""
","
","null","<p></p>","null","","","","","","","",""
"","image","242","421783","0.0-227.0-0.0","""event"",""trial"",""time""
""fullscreenenter"",""0"",""4045""
","
","
","""event"",""trial"",""time""
""fullscreenenter"",""0"",""4045""
","
","1764.5","run_exp/static/images/Set 6_rs/140a.jpg","66","","","","","","test","TF","1"
"","show_choice","243","422294","0.0-227.0-1.0","""event"",""trial"",""time""
""fullscreenenter"",""0"",""4045""
","
","
","""event"",""trial"",""time""
""fullscreenenter"",""0"",""4045""
","
","null","run_exp/static/images/Set 6_rs/140a.jpg","null","","","","","","test","TF",""
"","html-keyboard-response","244","422798","0.0-227.0-2.0","""event"",""trial"",""time""
""fullscreenenter"",""0"",""4045""
","
","
","""event"",""trial"",""time""
""fullscreenenter"",""0"",""4045""
","
","null","<p></p>","null","","","","","","","",""
"","image","245","424988","0.0-228.0-0.0","""event"",""trial"",""time""
""fullscreenenter"",""0"",""4045""
","
","
","""event"",""trial"",""time""
""fullscreenenter"",""0"",""4045""
","
","2180.7000000011176","run_exp/static/images/Set 6_rs/028a.jpg","78","","","","","","test","TF","1"
"","show_choice","246","425492","0.0-228.0-1.0","""event"",""trial"",""time""
""fullscreenenter"",""0"",""4045""
","
","
","""event"",""trial"",""time""
""fullscreenenter"",""0"",""4045""
","
","null","run_exp/static/images/Set 6_rs/028a.jpg","null","","","","","","test","TF",""
"","html-keyboard-response","247","425997","0.0-228.0-2.0","""event"",""trial"",""time""
""fullscreenenter"",""0"",""4045""
","
","
","""event"",""trial"",""time""
""fullscreenenter"",""0"",""4045""
","
","null","<p></p>","null","","","","","","","",""
"","image","248","427609","0.0-229.0-0.0","""event"",""trial"",""time""
""fullscreenenter"",""0"",""4045""
","
","
","""event"",""trial"",""time""
""fullscreenenter"",""0"",""4045""
","
","1608","run_exp/static/images/Set 6_rs/190a.jpg","78","","","","","","test","TF","3"
"","show_choice","249","428114","0.0-229.0-1.0","""event"",""trial"",""time""
""fullscreenenter"",""0"",""4045""
","
","
","""event"",""trial"",""time""
""fullscreenenter"",""0"",""4045""
","
","null","run_exp/static/images/Set 6_rs/190a.jpg","null","","","","","","test","TF",""
"","html-keyboard-response","250","428618","0.0-229.0-2.0","""event"",""trial"",""time""
""fullscreenenter"",""0"",""4045""
","
","
","""event"",""trial"",""time""
""fullscreenenter"",""0"",""4045""
","
","null","<p></p>","null","","","","","","","",""
"","image","251","429917","0.0-230.0-0.0","""event"",""trial"",""time""
""fullscreenenter"",""0"",""4045""
","
","
","""event"",""trial"",""time""
""fullscreenenter"",""0"",""4045""
","
","1294","run_exp/static/images/Set 6_rs/074b.jpg","66","","","","","","test","TL","4"
"","show_choice","252","430422","0.0-230.0-1.0","""event"",""trial"",""time""
""fullscreenenter"",""0"",""4045""
","
","
","""event"",""trial"",""time""
""fullscreenenter"",""0"",""4045""
","
","null","run_exp/static/images/Set 6_rs/074b.jpg","null","","","","","","test","TL",""
"","html-keyboard-response","253","430927","0.0-230.0-2.0","""event"",""trial"",""time""
""fullscreenenter"",""0"",""4045""
","
","
","""event"",""trial"",""time""
""fullscreenenter"",""0"",""4045""
","
","null","<p></p>","null","","","","","","","",""
"","image","254","432167","0.0-231.0-0.0","""event"",""trial"",""time""
""fullscreenenter"",""0"",""4045""
","
","
","""event"",""trial"",""time""
""fullscreenenter"",""0"",""4045""
","
","1231.800000000745","run_exp/static/images/Set 6_rs/064a.jpg","86","","","","","","test","TR","5"
"","show_choice","255","432672","0.0-231.0-1.0","""event"",""trial"",""time""
""fullscreenenter"",""0"",""4045""
","
","
","""event"",""trial"",""time""
""fullscreenenter"",""0"",""4045""
","
","null","run_exp/static/images/Set 6_rs/064a.jpg","null","","","","","","test","TR",""
"","html-keyboard-response","256","433175","0.0-231.0-2.0","""event"",""trial"",""time""
""fullscreenenter"",""0"",""4045""
","
","
","""event"",""trial"",""time""
""fullscreenenter"",""0"",""4045""
","
","null","<p></p>","null","","","","","","","",""
"","image","257","434260","0.0-232.0-0.0","""event"",""trial"",""time""
""fullscreenenter"",""0"",""4045""
","
","
","""event"",""trial"",""time""
""fullscreenenter"",""0"",""4045""
","
","1079.5","run_exp/static/images/Set 6_rs/085b.jpg","86","","","","","","test","TL","1"
"","show_choice","258","434764","0.0-232.0-1.0","""event"",""trial"",""time""
""fullscreenenter"",""0"",""4045""
","
","
","""event"",""trial"",""time""
""fullscreenenter"",""0"",""4045""
","
","null","run_exp/static/images/Set 6_rs/085b.jpg","null","","","","","","test","TL",""
"","html-keyboard-response","259","435268","0.0-232.0-2.0","""event"",""trial"",""time""
""fullscreenenter"",""0"",""4045""
","
","
","""event"",""trial"",""time""
""fullscreenenter"",""0"",""4045""
","
","null","<p></p>","null","","","","","","","",""
"","image","260","436162","0.0-233.0-0.0","""event"",""trial"",""time""
""fullscreenenter"",""0"",""4045""
","
","
","""event"",""trial"",""time""
""fullscreenenter"",""0"",""4045""
","
","888.8000000007451","run_exp/static/images/Set 6_rs/122a.jpg","86","","","","","","test","TR","5"
"","show_choice","261","436666","0.0-233.0-1.0","""event"",""trial"",""time""
""fullscreenenter"",""0"",""4045""
","
","
","""event"",""trial"",""time""
""fullscreenenter"",""0"",""4045""
","
","null","run_exp/static/images/Set 6_rs/122a.jpg","null","","","","","","test","TR",""
"","html-keyboard-response","262","437170","0.0-233.0-2.0","""event"",""trial"",""time""
""fullscreenenter"",""0"",""4045""
","
","
","""event"",""trial"",""time""
""fullscreenenter"",""0"",""4045""
","
","null","<p></p>","null","","","","","","","",""
"","image","263","437926","0.0-234.0-0.0","""event"",""trial"",""time""
""fullscreenenter"",""0"",""4045""
","
","
","""event"",""trial"",""time""
""fullscreenenter"",""0"",""4045""
","
","750.0999999996275","run_exp/static/images/Set 6_rs/007a.jpg","86","","","","","","test","TR","3"
"","show_choice","264","438431","0.0-234.0-1.0","""event"",""trial"",""time""
""fullscreenenter"",""0"",""4045""
","
","
","""event"",""trial"",""time""
""fullscreenenter"",""0"",""4045""
","
","null","run_exp/static/images/Set 6_rs/007a.jpg","null","","","","","","test","TR",""
"","html-keyboard-response","265","438935","0.0-234.0-2.0","""event"",""trial"",""time""
""fullscreenenter"",""0"",""4045""
","
","
","""event"",""trial"",""time""
""fullscreenenter"",""0"",""4045""
","
","null","<p></p>","null","","","","","","","",""
"","image","266","439752","0.0-235.0-0.0","""event"",""trial"",""time""
""fullscreenenter"",""0"",""4045""
","
","
","""event"",""trial"",""time""
""fullscreenenter"",""0"",""4045""
","
","812.1999999992549","run_exp/static/images/Set 6_rs/150a.jpg","86","","","","","","test","TR","1"
"","show_choice","267","440257","0.0-235.0-1.0","""event"",""trial"",""time""
""fullscreenenter"",""0"",""4045""
","
","
","""event"",""trial"",""time""
""fullscreenenter"",""0"",""4045""
","
","null","run_exp/static/images/Set 6_rs/150a.jpg","null","","","","","","test","TR",""
"","html-keyboard-response","268","440761","0.0-235.0-2.0","""event"",""trial"",""time""
""fullscreenenter"",""0"",""4045""
","
","
","""event"",""trial"",""time""
""fullscreenenter"",""0"",""4045""
","
","null","<p></p>","null","","","","","","","",""
"","image","269","441501","0.0-236.0-0.0","""event"",""trial"",""time""
""fullscreenenter"",""0"",""4045""
","
","
","""event"",""trial"",""time""
""fullscreenenter"",""0"",""4045""
","
","734.9000000003725","run_exp/static/images/Set 6_rs/132a.jpg","86","","","","","","test","TR","5"
"","show_choice","270","442006","0.0-236.0-1.0","""event"",""trial"",""time""
""fullscreenenter"",""0"",""4045""
","
","
","""event"",""trial"",""time""
""fullscreenenter"",""0"",""4045""
","
","null","run_exp/static/images/Set 6_rs/132a.jpg","null","","","","","","test","TR",""
"","html-keyboard-response","271","442510","0.0-236.0-2.0","""event"",""trial"",""time""
""fullscreenenter"",""0"",""4045""
","
","
","""event"",""trial"",""time""
""fullscreenenter"",""0"",""4045""
","
","null","<p></p>","null","","","","","","","",""
"","image","272","443220","0.0-237.0-0.0","""event"",""trial"",""time""
""fullscreenenter"",""0"",""4045""
","
","
","""event"",""trial"",""time""
""fullscreenenter"",""0"",""4045""
","
","705.2999999988824","run_exp/static/images/Set 6_rs/010a.jpg","86","","","","","","test","TR","5"
"","show_choice","273","443725","0.0-237.0-1.0","""event"",""trial"",""time""
""fullscreenenter"",""0"",""4045""
","
","
","""event"",""trial"",""time""
""fullscreenenter"",""0"",""4045""
","
","null","run_exp/static/images/Set 6_rs/010a.jpg","null","","","","","","test","TR",""
"","html-keyboard-response","274","444229","0.0-237.0-2.0","""event"",""trial"",""time""
""fullscreenenter"",""0"",""4045""
","
","
","""event"",""trial"",""time""
""fullscreenenter"",""0"",""4045""
","
","null","<p></p>","null","","","","","","","",""
"","image","275","445496","0.0-238.0-0.0","""event"",""trial"",""time""
""fullscreenenter"",""0"",""4045""
","
","
","""event"",""trial"",""time""
""fullscreenenter"",""0"",""4045""
","
","1261.800000000745","run_exp/static/images/Set 6_rs/095b.jpg","66","","","","","","test","TL","5"
"","show_choice","276","446002","0.0-238.0-1.0","""event"",""trial"",""time""
""fullscreenenter"",""0"",""4045""
","
","
","""event"",""trial"",""time""
""fullscreenenter"",""0"",""4045""
","
","null","run_exp/static/images/Set 6_rs/095b.jpg","null","","","","","","test","TL",""
"","html-keyboard-response","277","446507","0.0-238.0-2.0","""event"",""trial"",""time""
""fullscreenenter"",""0"",""4045""
","
","
","""event"",""trial"",""time""
""fullscreenenter"",""0"",""4045""
","
","null","<p></p>","null","","","","","","","",""
"","image","278","448351","0.0-239.0-0.0","""event"",""trial"",""time""
""fullscreenenter"",""0"",""4045""
","
","
","""event"",""trial"",""time""
""fullscreenenter"",""0"",""4045""
","
","1838.800000000745","run_exp/static/images/Set 6_rs/073b.jpg","86","","","","","","test","TL","3"
"","show_choice","279","448856","0.0-239.0-1.0","""event"",""trial"",""time""
""fullscreenenter"",""0"",""4045""
","
","
","""event"",""trial"",""time""
""fullscreenenter"",""0"",""4045""
","
","null","run_exp/static/images/Set 6_rs/073b.jpg","null","","","","","","test","TL",""
"","html-keyboard-response","280","449360","0.0-239.0-2.0","""event"",""trial"",""time""
""fullscreenenter"",""0"",""4045""
","
","
","""event"",""trial"",""time""
""fullscreenenter"",""0"",""4045""
","
","null","<p></p>","null","","","","","","","",""
"","image","281","450592","0.0-240.0-0.0","""event"",""trial"",""time""
""fullscreenenter"",""0"",""4045""
","
","
","""event"",""trial"",""time""
""fullscreenenter"",""0"",""4045""
","
","1226.800000000745","run_exp/static/images/Set 6_rs/123b.jpg","86","","","","","","test","TL","2"
"","show_choice","282","451096","0.0-240.0-1.0","""event"",""trial"",""time""
""fullscreenenter"",""0"",""4045""
","
","
","""event"",""trial"",""time""
""fullscreenenter"",""0"",""4045""
","
","null","run_exp/static/images/Set 6_rs/123b.jpg","null","","","","","","test","TL",""
"","html-keyboard-response","283","451600","0.0-240.0-2.0","""event"",""trial"",""time""
""fullscreenenter"",""0"",""4045""
","
","
","""event"",""trial"",""time""
""fullscreenenter"",""0"",""4045""
","
","null","<p></p>","null","","","","","","","",""
"","image","284","452987","0.0-241.0-0.0","""event"",""trial"",""time""
""fullscreenenter"",""0"",""4045""
","
","
","""event"",""trial"",""time""
""fullscreenenter"",""0"",""4045""
","
","1381.5","run_exp/static/images/Set 6_rs/134a.jpg","86","","","","","","test","TR","3"
"","show_choice","285","453492","0.0-241.0-1.0","""event"",""trial"",""time""
""fullscreenenter"",""0"",""4045""
","
","
","""event"",""trial"",""time""
""fullscreenenter"",""0"",""4045""
","
","null","run_exp/static/images/Set 6_rs/134a.jpg","null","","","","","","test","TR",""
"","html-keyboard-response","286","453996","0.0-241.0-2.0","""event"",""trial"",""time""
""fullscreenenter"",""0"",""4045""
","
","
","""event"",""trial"",""time""
""fullscreenenter"",""0"",""4045""
","
","null","<p></p>","null","","","","","","","",""
"","image","287","455229","0.0-242.0-0.0","""event"",""trial"",""time""
""fullscreenenter"",""0"",""4045""
","
","
","""event"",""trial"",""time""
""fullscreenenter"",""0"",""4045""
","
","1227.800000000745","run_exp/static/images/Set 6_rs/171a.jpg","66","","","","","","test","TF","1"
"","show_choice","288","455734","0.0-242.0-1.0","""event"",""trial"",""time""
""fullscreenenter"",""0"",""4045""
","
","
","""event"",""trial"",""time""
""fullscreenenter"",""0"",""4045""
","
","null","run_exp/static/images/Set 6_rs/171a.jpg","null","","","","","","test","TF",""
"","html-keyboard-response","289","456238","0.0-242.0-2.0","""event"",""trial"",""time""
""fullscreenenter"",""0"",""4045""
","
","
","""event"",""trial"",""time""
""fullscreenenter"",""0"",""4045""
","
","null","<p></p>","null","","","","","","","",""
"","image","290","457232","0.0-243.0-0.0","""event"",""trial"",""time""
""fullscreenenter"",""0"",""4045""
","
","
","""event"",""trial"",""time""
""fullscreenenter"",""0"",""4045""
","
","989.3000000007451","run_exp/static/images/Set 6_rs/129b.jpg","86","","","","","","test","TL","1"
"","show_choice","291","457737","0.0-243.0-1.0","""event"",""trial"",""time""
""fullscreenenter"",""0"",""4045""
","
","
","""event"",""trial"",""time""
""fullscreenenter"",""0"",""4045""
","
","null","run_exp/static/images/Set 6_rs/129b.jpg","null","","","","","","test","TL",""
"","html-keyboard-response","292","458242","0.0-243.0-2.0","""event"",""trial"",""time""
""fullscreenenter"",""0"",""4045""
","
","
","""event"",""trial"",""time""
""fullscreenenter"",""0"",""4045""
","
","null","<p></p>","null","","","","","","","",""
"","image","293","459444","0.0-244.0-0.0","""event"",""trial"",""time""
""fullscreenenter"",""0"",""4045""
","
","
","""event"",""trial"",""time""
""fullscreenenter"",""0"",""4045""
","
","1197.5999999996275","run_exp/static/images/Set 6_rs/079b.jpg","66","","","","","","test","TL","5"
"","show_choice","294","459949","0.0-244.0-1.0","""event"",""trial"",""time""
""fullscreenenter"",""0"",""4045""
","
","
","""event"",""trial"",""time""
""fullscreenenter"",""0"",""4045""
","
","null","run_exp/static/images/Set 6_rs/079b.jpg","null","","","","","","test","TL",""
"","html-keyboard-response","295","460453","0.0-244.0-2.0","""event"",""trial"",""time""
""fullscreenenter"",""0"",""4045""
","
","
","""event"",""trial"",""time""
""fullscreenenter"",""0"",""4045""
","
","null","<p></p>","null","","","","","","","",""
"","image","296","461693","0.0-245.0-0.0","""event"",""trial"",""time""
""fullscreenenter"",""0"",""4045""
","
","
","""event"",""trial"",""time""
""fullscreenenter"",""0"",""4045""
","
","1234.4000000003725","run_exp/static/images/Set 6_rs/155a.jpg","78","","","","","","test","TF","4"
"","show_choice","297","462197","0.0-245.0-1.0","""event"",""trial"",""time""
""fullscreenenter"",""0"",""4045""
","
","
","""event"",""trial"",""time""
""fullscreenenter"",""0"",""4045""
","
","null","run_exp/static/images/Set 6_rs/155a.jpg","null","","","","","","test","TF",""
"","html-keyboard-response","298","462701","0.0-245.0-2.0","""event"",""trial"",""time""
""fullscreenenter"",""0"",""4045""
","
","
","""event"",""trial"",""time""
""fullscreenenter"",""0"",""4045""
","
","null","<p></p>","null","","","","","","","",""
"","image","299","463994","0.0-246.0-0.0","""event"",""trial"",""time""
""fullscreenenter"",""0"",""4045""
","
","
","""event"",""trial"",""time""
""fullscreenenter"",""0"",""4045""
","
","1288.2999999988824","run_exp/static/images/Set 6_rs/015a.jpg","78","","","","","","test","TF","4"
"","show_choice","300","464498","0.0-246.0-1.0","""event"",""trial"",""time""
""fullscreenenter"",""0"",""4045""
","
","
","""event"",""trial"",""time""
""fullscreenenter"",""0"",""4045""
","
","null","run_exp/static/images/Set 6_rs/015a.jpg","null","","","","","","test","TF",""
"","html-keyboard-response","301","465003","0.0-246.0-2.0","""event"",""trial"",""time""
""fullscreenenter"",""0"",""4045""
","
","
","""event"",""trial"",""time""
""fullscreenenter"",""0"",""4045""
","
","null","<p></p>","null","","","","","","","",""
"","image","302","466089","0.0-247.0-0.0","""event"",""trial"",""time""
""fullscreenenter"",""0"",""4045""
","
","
","""event"",""trial"",""time""
""fullscreenenter"",""0"",""4045""
","
","1081.2999999988824","run_exp/static/images/Set 6_rs/035a.jpg","78","","","","","","test","TF","4"
"","show_choice","303","466594","0.0-247.0-1.0","""event"",""trial"",""time""
""fullscreenenter"",""0"",""4045""
","
","
","""event"",""trial"",""time""
""fullscreenenter"",""0"",""4045""
","
","null","run_exp/static/images/Set 6_rs/035a.jpg","null","","","","","","test","TF",""
"","html-keyboard-response","304","467098","0.0-247.0-2.0","""event"",""trial"",""time""
""fullscreenenter"",""0"",""4045""
","
","
","""event"",""trial"",""time""
""fullscreenenter"",""0"",""4045""
","
","null","<p></p>","null","","","","","","","",""
"","image","305","468362","0.0-248.0-0.0","""event"",""trial"",""time""
""fullscreenenter"",""0"",""4045""
","
","
","""event"",""trial"",""time""
""fullscreenenter"",""0"",""4045""
","
","1258.7000000011176","run_exp/static/images/Set 6_rs/055b.jpg","66","","","","","","test","TL","4"
"","show_choice","306","468867","0.0-248.0-1.0","""event"",""trial"",""time""
""fullscreenenter"",""0"",""4045""
","
","
","""event"",""trial"",""time""
""fullscreenenter"",""0"",""4045""
","
","null","run_exp/static/images/Set 6_rs/055b.jpg","null","","","","","","test","TL",""
"","html-keyboard-response","307","469371","0.0-248.0-2.0","""event"",""trial"",""time""
""fullscreenenter"",""0"",""4045""
","
","
","""event"",""trial"",""time""
""fullscreenenter"",""0"",""4045""
","
","null","<p></p>","null","","","","","","","",""
"","image","308","471153","0.0-249.0-0.0","""event"",""trial"",""time""
""fullscreenenter"",""0"",""4045""
","
","
","""event"",""trial"",""time""
""fullscreenenter"",""0"",""4045""
","
","1776.699999999255","run_exp/static/images/Set 6_rs/111b.jpg","66","","","","","","test","TL","3"
"","show_choice","309","471672","0.0-249.0-1.0","""event"",""trial"",""time""
""fullscreenenter"",""0"",""4045""
","
","
","""event"",""trial"",""time""
""fullscreenenter"",""0"",""4045""
","
","null","run_exp/static/images/Set 6_rs/111b.jpg","null","","","","","","test","TL",""
"","html-keyboard-response","310","472183","0.0-249.0-2.0","""event"",""trial"",""time""
""fullscreenenter"",""0"",""4045""
","
","
","""event"",""trial"",""time""
""fullscreenenter"",""0"",""4045""
","
","null","<p></p>","null","","","","","","","",""
"","image","311","473301","0.0-250.0-0.0","""event"",""trial"",""time""
""fullscreenenter"",""0"",""4045""
","
","
","""event"",""trial"",""time""
""fullscreenenter"",""0"",""4045""
","
","1112.199999999255","run_exp/static/images/Set 6_rs/012a.jpg","86","","","","","","test","TR","1"
"","show_choice","312","473805","0.0-250.0-1.0","""event"",""trial"",""time""
""fullscreenenter"",""0"",""4045""
","
","
","""event"",""trial"",""time""
""fullscreenenter"",""0"",""4045""
","
","null","run_exp/static/images/Set 6_rs/012a.jpg","null","","","","","","test","TR",""
"","html-keyboard-response","313","474309","0.0-250.0-2.0","""event"",""trial"",""time""
""fullscreenenter"",""0"",""4045""
","
","
","""event"",""trial"",""time""
""fullscreenenter"",""0"",""4045""
","
","null","<p></p>","null","","","","","","","",""
"","image","314","475245","0.0-251.0-0.0","""event"",""trial"",""time""
""fullscreenenter"",""0"",""4045""
","
","
","""event"",""trial"",""time""
""fullscreenenter"",""0"",""4045""
","
","930.3000000007451","run_exp/static/images/Set 6_rs/016b.jpg","86","","","","","","test","TL","1"
"","show_choice","315","475749","0.0-251.0-1.0","""event"",""trial"",""time""
""fullscreenenter"",""0"",""4045""
","
","
","""event"",""trial"",""time""
""fullscreenenter"",""0"",""4045""
","
","null","run_exp/static/images/Set 6_rs/016b.jpg","null","","","","","","test","TL",""
"","html-keyboard-response","316","476253","0.0-251.0-2.0","""event"",""trial"",""time""
""fullscreenenter"",""0"",""4045""
","
","
","""event"",""trial"",""time""
""fullscreenenter"",""0"",""4045""
","
","null","<p></p>","null","","","","","","","",""
"","image","317","477289","0.0-252.0-0.0","""event"",""trial"",""time""
""fullscreenenter"",""0"",""4045""
","
","
","""event"",""trial"",""time""
""fullscreenenter"",""0"",""4045""
","
","1031","run_exp/static/images/Set 6_rs/001a.jpg","78","","","","","","test","TF","1"
"","show_choice","318","477794","0.0-252.0-1.0","""event"",""trial"",""time""
""fullscreenenter"",""0"",""4045""
","
","
","""event"",""trial"",""time""
""fullscreenenter"",""0"",""4045""
","
","null","run_exp/static/images/Set 6_rs/001a.jpg","null","","","","","","test","TF",""
"","html-keyboard-response","319","478298","0.0-252.0-2.0","""event"",""trial"",""time""
""fullscreenenter"",""0"",""4045""
","
","
","""event"",""trial"",""time""
""fullscreenenter"",""0"",""4045""
","
","null","<p></p>","null","","","","","","","",""
"","image","320","479397","0.0-253.0-0.0","""event"",""trial"",""time""
""fullscreenenter"",""0"",""4045""
","
","
","""event"",""trial"",""time""
""fullscreenenter"",""0"",""4045""
","
","1093.5999999996275","run_exp/static/images/Set 6_rs/121a.jpg","86","","","","","","test","TR","4"
"","show_choice","321","479901","0.0-253.0-1.0","""event"",""trial"",""time""
""fullscreenenter"",""0"",""4045""
","
","
","""event"",""trial"",""time""
""fullscreenenter"",""0"",""4045""
","
","null","run_exp/static/images/Set 6_rs/121a.jpg","null","","","","","","test","TR",""
"","html-keyboard-response","322","480405","0.0-253.0-2.0","""event"",""trial"",""time""
""fullscreenenter"",""0"",""4045""
","
","
","""event"",""trial"",""time""
""fullscreenenter"",""0"",""4045""
","
","null","<p></p>","null","","","","","","","",""
"","image","323","481414","0.0-254.0-0.0","""event"",""trial"",""time""
""fullscreenenter"",""0"",""4045""
","
","
","""event"",""trial"",""time""
""fullscreenenter"",""0"",""4045""
","
","1003.6999999992549","run_exp/static/images/Set 6_rs/022a.jpg","78","","","","","","test","TF","4"
"","show_choice","324","481919","0.0-254.0-1.0","""event"",""trial"",""time""
""fullscreenenter"",""0"",""4045""
","
","
","""event"",""trial"",""time""
""fullscreenenter"",""0"",""4045""
","
","null","run_exp/static/images/Set 6_rs/022a.jpg","null","","","","","","test","TF",""
"","html-keyboard-response","325","482424","0.0-254.0-2.0","""event"",""trial"",""time""
""fullscreenenter"",""0"",""4045""
","
","
","""event"",""trial"",""time""
""fullscreenenter"",""0"",""4045""
","
","null","<p></p>","null","","","","","","","",""
"","image","326","483520","0.0-255.0-0.0","""event"",""trial"",""time""
""fullscreenenter"",""0"",""4045""
","
","
","""event"",""trial"",""time""
""fullscreenenter"",""0"",""4045""
","
","1089.7999999988824","run_exp/static/images/Set 6_rs/144b.jpg","66","","","","","","test","TL","4"
"","show_choice","327","484024","0.0-255.0-1.0","""event"",""trial"",""time""
""fullscreenenter"",""0"",""4045""
","
","
","""event"",""trial"",""time""
""fullscreenenter"",""0"",""4045""
","
","null","run_exp/static/images/Set 6_rs/144b.jpg","null","","","","","","test","TL",""
"","html-keyboard-response","328","484529","0.0-255.0-2.0","""event"",""trial"",""time""
""fullscreenenter"",""0"",""4045""
","
","
","""event"",""trial"",""time""
""fullscreenenter"",""0"",""4045""
","
","null","<p></p>","null","","","","","","","",""
"","image","329","485628","0.0-256.0-0.0","""event"",""trial"",""time""
""fullscreenenter"",""0"",""4045""
","
","
","""event"",""trial"",""time""
""fullscreenenter"",""0"",""4045""
","
","1093.699999999255","run_exp/static/images/Set 6_rs/112a.jpg","86","","","","","","test","TR","5"
"","show_choice","330","486132","0.0-256.0-1.0","""event"",""trial"",""time""
""fullscreenenter"",""0"",""4045""
","
","
","""event"",""trial"",""time""
""fullscreenenter"",""0"",""4045""
","
","null","run_exp/static/images/Set 6_rs/112a.jpg","null","","","","","","test","TR",""
"","html-keyboard-response","331","486637","0.0-256.0-2.0","""event"",""trial"",""time""
""fullscreenenter"",""0"",""4045""
","
","
","""event"",""trial"",""time""
""fullscreenenter"",""0"",""4045""
","
","null","<p></p>","null","","","","","","","",""
"","image","332","487647","0.0-257.0-0.0","""event"",""trial"",""time""
""fullscreenenter"",""0"",""4045""
","
","
","""event"",""trial"",""time""
""fullscreenenter"",""0"",""4045""
","
","1005.2000000011176","run_exp/static/images/Set 6_rs/078a.jpg","78","","","","","","test","TF","1"
"","show_choice","333","488152","0.0-257.0-1.0","""event"",""trial"",""time""
""fullscreenenter"",""0"",""4045""
","
","
","""event"",""trial"",""time""
""fullscreenenter"",""0"",""4045""
","
","null","run_exp/static/images/Set 6_rs/078a.jpg","null","","","","","","test","TF",""
"","html-keyboard-response","334","488656","0.0-257.0-2.0","""event"",""trial"",""time""
""fullscreenenter"",""0"",""4045""
","
","
","""event"",""trial"",""time""
""fullscreenenter"",""0"",""4045""
","
","null","<p></p>","null","","","","","","","",""
"","image","335","490250","0.0-258.0-0.0","""event"",""trial"",""time""
""fullscreenenter"",""0"",""4045""
","
","
","""event"",""trial"",""time""
""fullscreenenter"",""0"",""4045""
","
","1587.8999999985099","run_exp/static/images/Set 6_rs/167b.jpg","66","","","","","","test","TL","2"
"","show_choice","336","490761","0.0-258.0-1.0","""event"",""trial"",""time""
""fullscreenenter"",""0"",""4045""
","
","
","""event"",""trial"",""time""
""fullscreenenter"",""0"",""4045""
","
","null","run_exp/static/images/Set 6_rs/167b.jpg","null","","","","","","test","TL",""
"","html-keyboard-response","337","491265","0.0-258.0-2.0","""event"",""trial"",""time""
""fullscreenenter"",""0"",""4045""
","
","
","""event"",""trial"",""time""
""fullscreenenter"",""0"",""4045""
","
